Timestamp, Acceleration x, Acceleration y, Acceleration z, Marker
40,-0.46582,-0.717285,0.459961,0
60,-0.466309,-0.716797,0.463379,0
80,-0.468262,-0.71875,0.467773,0
100,-0.470215,-0.716797,0.465332,0
120,-0.468262,-0.720703,0.468262,0
140,-0.467285,-0.713867,0.464355,0
150,-0.469238,-0.712402,0.461914,0
150,-0.471191,-0.710938,0.462891,0
200,-0.46582,-0.713379,0.463379,0
220,-0.467773,-0.714355,0.47168,0
240,-0.46875,-0.706543,0.467285,0
260,-0.467285,-0.71582,0.459473,0
280,-0.472168,-0.725586,0.458496,0
300,-0.464844,-0.730957,0.456543,0
320,-0.47168,-0.723145,0.460449,0
340,-0.470215,-0.720215,0.46582,0
360,-0.472168,-0.703125,0.463379,0
380,-0.474609,-0.697754,0.466309,0
400,-0.476562,-0.69873,0.474121,0
420,-0.480957,-0.702148,0.478027,0
440,-0.475098,-0.70752,0.473633,0
460,-0.463867,-0.713379,0.459961,0
480,-0.469238,-0.714844,0.458984,0
500,-0.479004,-0.711426,0.460938,0
510,-0.476074,-0.707031,0.462402,0
530,-0.477539,-0.70752,0.467773,0
550,-0.472656,-0.710449,0.463867,0
570,-0.475586,-0.70166,0.465332,0
590,-0.473633,-0.700684,0.463379,0
610,-0.479004,-0.703613,0.468262,0
630,-0.481934,-0.708496,0.464355,0
650,-0.474121,-0.718262,0.466797,0
670,-0.469727,-0.722656,0.464844,0
690,-0.471191,-0.724121,0.461914,0
710,-0.470703,-0.724121,0.460938,0
730,-0.469238,-0.722656,0.46582,0
750,-0.46875,-0.71875,0.459961,0
770,-0.470703,-0.709961,0.463867,0
790,-0.470215,-0.712402,0.462402,0
810,-0.469238,-0.716309,0.463867,0
830,-0.469238,-0.714844,0.464355,0
850,-0.473145,-0.717773,0.466797,0
870,-0.472168,-0.720215,0.456055,0
890,-0.468262,-0.713867,0.461426,0
910,-0.47168,-0.712891,0.45752,0
930,-0.474121,-0.715332,0.460938,0
950,-0.469238,-0.720703,0.462891,0
970,-0.463379,-0.71875,0.459473,0
990,-0.461426,-0.717285,0.464844,0
1010,-0.470703,-0.721191,0.460449,0
1030,-0.472656,-0.719727,0.460938,0
1050,-0.473145,-0.717773,0.470215,0
1070,-0.470215,-0.708984,0.461914,0
1090,-0.466309,-0.712402,0.462402,0
1110,-0.47168,-0.712402,0.462402,0
1130,-0.468262,-0.724121,0.463379,0
1150,-0.463379,-0.724121,0.460449,0
1170,-0.464355,-0.71875,0.458008,0
1190,-0.464844,-0.719727,0.461914,0
1210,-0.460938,-0.722168,0.463867,0
1230,-0.462891,-0.717285,0.45752,0
1250,-0.465332,-0.71875,0.459961,0
1270,-0.468262,-0.721191,0.458008,0
1290,-0.470703,-0.720703,0.461426,0
1310,-0.47168,-0.723145,0.463379,0
1330,-0.466309,-0.721191,0.459473,0
1350,-0.465332,-0.71875,0.46582,0
1370,-0.467285,-0.711426,0.465332,0
1390,-0.471191,-0.715332,0.462402,0
1410,-0.472656,-0.714844,0.464355,0
1430,-0.463867,-0.720215,0.461914,0
1450,-0.463379,-0.723633,0.464844,0
1470,-0.461426,-0.718262,0.461426,0
1490,-0.466309,-0.720703,0.465332,0
1510,-0.460938,-0.71875,0.464844,0
1530,-0.466797,-0.712891,0.464355,0
1550,-0.466309,-0.714844,0.464844,0
1570,-0.463867,-0.71875,0.458496,0
1590,-0.458984,-0.721191,0.460449,0
1610,-0.464844,-0.723633,0.460449,0
1630,-0.464355,-0.712891,0.464355,0
1650,-0.469727,-0.708984,0.46582,0
1670,-0.467773,-0.712402,0.466797,0
1690,-0.46582,-0.731934,0.460449,0
1710,-0.461914,-0.732422,0.460449,0
1730,-0.46582,-0.724609,0.463379,0
1750,-0.46875,-0.719238,0.464844,0
1770,-0.469727,-0.719238,0.462891,0
1790,-0.471191,-0.712891,0.463867,0
1810,-0.474609,-0.712891,0.459961,0
1830,-0.462891,-0.715332,0.461914,0
1850,-0.467773,-0.720215,0.464844,0
1870,-0.46582,-0.72168,0.459473,0
1890,-0.459961,-0.729004,0.455078,0
1910,-0.460449,-0.725586,0.459961,0
1930,-0.455566,-0.71875,0.463867,0
1950,-0.460938,-0.714355,0.47168,0
1970,-0.464355,-0.708984,0.46582,0
1990,-0.466797,-0.714844,0.460449,0
2010,-0.467773,-0.706055,0.464844,0
2030,-0.470703,-0.710938,0.46875,0
2050,-0.470703,-0.714355,0.469238,0
2070,-0.471191,-0.715332,0.462402,0
2090,-0.470703,-0.716797,0.460938,0
2110,-0.464844,-0.721191,0.467773,0
2130,-0.462402,-0.721191,0.46582,0
2150,-0.464844,-0.722656,0.463379,0
2170,-0.464355,-0.719238,0.47168,0
2190,-0.47168,-0.719238,0.46582,0
2210,-0.47168,-0.716797,0.469727,0
2230,-0.470703,-0.711426,0.466309,0
2250,-0.46875,-0.711914,0.479492,0
2270,-0.46875,-0.715332,0.467285,0
2290,-0.466797,-0.708496,0.466309,0
2310,-0.465332,-0.709961,0.469238,0
2330,-0.46582,-0.710449,0.480469,0
2350,-0.462891,-0.706543,0.475586,0
2370,-0.462891,-0.704102,0.472168,0
2390,-0.466797,-0.702148,0.470703,0
2410,-0.472168,-0.697266,0.474121,0
2430,-0.478516,-0.702637,0.475098,0
2450,-0.474609,-0.710938,0.474121,0
2470,-0.471191,-0.72168,0.468262,0
2490,-0.469727,-0.735352,0.466797,0
2510,-0.464844,-0.72998,0.466797,0
2530,-0.466797,-0.724121,0.469238,0
2550,-0.470703,-0.710938,0.460938,0
2570,-0.474121,-0.704102,0.468262,0
2590,-0.470703,-0.69873,0.475586,0
2610,-0.477051,-0.696777,0.475098,0
2630,-0.480469,-0.700684,0.479004,0
2650,-0.48584,-0.70166,0.472656,0
2670,-0.471191,-0.701172,0.477539,0
2690,-0.474121,-0.709961,0.47998,0
2710,-0.468262,-0.709473,0.493164,0
2730,-0.470215,-0.703125,0.486816,0
2750,-0.469238,-0.710938,0.477051,0
2770,-0.462402,-0.709961,0.468262,0
2790,-0.464355,-0.708984,0.465332,0
2810,-0.465332,-0.69873,0.46875,0
2830,-0.466309,-0.696777,0.463379,0
2850,-0.474609,-0.698242,0.462891,0
2870,-0.482422,-0.703125,0.47168,0
2890,-0.480957,-0.706055,0.479492,0
2910,-0.480957,-0.722168,0.474121,0
2930,-0.481445,-0.727051,0.462891,0
2950,-0.487305,-0.722168,0.457031,0
2970,-0.491211,-0.716309,0.452637,0
2990,-0.491211,-0.714844,0.446289,0
3010,-0.485352,-0.706055,0.445801,0
3030,-0.487305,-0.708008,0.439453,0
3050,-0.49707,-0.715332,0.433594,0
3070,-0.495605,-0.717285,0.427734,0
3080,-0.48584,-0.72998,0.412598,0
3100,-0.485352,-0.735352,0.411621,0
3120,-0.48877,-0.730957,0.410645,0
3140,-0.487793,-0.737305,0.410156,0
3160,-0.493164,-0.745117,0.401367,0
3180,-0.494629,-0.745117,0.416992,0
3200,-0.503418,-0.756836,0.414062,0
3220,-0.503906,-0.762207,0.401367,0
3240,-0.49707,-0.764648,0.402832,0
3260,-0.492188,-0.751953,0.40625,0
3280,-0.498535,-0.741211,0.401855,0
3300,-0.491211,-0.734863,0.396484,0
3320,-0.490234,-0.726074,0.406738,0
3340,-0.480957,-0.719727,0.408691,0
3360,-0.480469,-0.720215,0.399414,0
3380,-0.479492,-0.725586,0.408203,0
3400,-0.487793,-0.739258,0.40625,0
3420,-0.492188,-0.746582,0.412598,0
3440,-0.493652,-0.750488,0.417969,0
3460,-0.496094,-0.746582,0.413574,0
3480,-0.494141,-0.751953,0.410645,0
3500,-0.500977,-0.754395,0.40625,0
3520,-0.497559,-0.762695,0.402832,0
3540,-0.500488,-0.765625,0.415039,0
3560,-0.50293,-0.757812,0.410645,0
3580,-0.505371,-0.748047,0.408203,0
3600,-0.498047,-0.753418,0.413574,0
3620,-0.506836,-0.755371,0.430664,0
3640,-0.516602,-0.764648,0.4375,0
3660,-0.542969,-0.776367,0.450195,0
3680,-0.544434,-0.771484,0.454102,0
3700,-0.541992,-0.740234,0.438477,0
3720,-0.541992,-0.724121,0.419434,0
3740,-0.53418,-0.706543,0.407715,0
3760,-0.533203,-0.678223,0.391602,0
3780,-0.533691,-0.672363,0.377441,0
3800,-0.530762,-0.669922,0.387695,0
3820,-0.537109,-0.67334,0.380859,0
3840,-0.544434,-0.687012,0.367188,0
3860,-0.529785,-0.70166,0.373535,0
3880,-0.525391,-0.71582,0.369141,0
3900,-0.512207,-0.71582,0.360352,0
3920,-0.502441,-0.718262,0.353516,0
3940,-0.495605,-0.69873,0.36377,0
3960,-0.480469,-0.696289,0.378906,0
3980,-0.462891,-0.712402,0.414551,0
4000,-0.458496,-0.750977,0.466309,0
4020,-0.483398,-0.766113,0.515137,0
4040,-0.512207,-0.757324,0.493652,0
4060,-0.52832,-0.731445,0.452637,0
4080,-0.541504,-0.706543,0.453613,0
4100,-0.575195,-0.706543,0.45166,0
4120,-0.594238,-0.706055,0.428711,0
4140,-0.579102,-0.710449,0.415527,0
4160,-0.553711,-0.705078,0.408691,0
4180,-0.543945,-0.689941,0.389648,0
4200,-0.536133,-0.674805,0.374023,0
4220,-0.519531,-0.671387,0.36377,0
4240,-0.50293,-0.668457,0.338867,0
4260,-0.50293,-0.68457,0.348145,0
4280,-0.518555,-0.717285,0.387695,0
4300,-0.537598,-0.75,0.447266,0
4320,-0.551758,-0.768555,0.467773,0
4340,-0.544922,-0.774414,0.435547,0
4360,-0.550781,-0.757324,0.427734,0
4380,-0.570801,-0.734375,0.42627,0
4400,-0.586426,-0.728516,0.421387,0
4420,-0.577148,-0.724609,0.398926,0
4440,-0.558594,-0.727539,0.382324,0
4460,-0.535645,-0.705566,0.371582,0
4480,-0.533691,-0.66748,0.350098,0
4500,-0.535156,-0.64502,0.333496,0
4520,-0.532715,-0.637695,0.316406,0
4540,-0.528809,-0.65625,0.322754,0
4560,-0.516602,-0.693848,0.394043,0
4580,-0.538574,-0.733398,0.458984,0
4600,-0.552734,-0.772461,0.467285,0
4620,-0.564453,-0.777344,0.441895,0
4640,-0.584473,-0.755371,0.416504,0
4660,-0.615234,-0.72168,0.392578,0
4680,-0.618164,-0.715332,0.358887,0
4700,-0.590332,-0.705078,0.34375,0
4720,-0.557617,-0.685547,0.338867,0
4740,-0.535645,-0.67041,0.321289,0
4760,-0.526367,-0.65625,0.312988,0
4780,-0.524414,-0.661133,0.349121,0
4800,-0.536133,-0.686035,0.409668,0
4820,-0.556152,-0.719727,0.464844,0
4840,-0.562012,-0.744629,0.442383,0
4860,-0.5625,-0.751953,0.407715,0
4880,-0.576172,-0.733398,0.395508,0
4900,-0.597656,-0.709961,0.389648,0
4920,-0.604004,-0.69873,0.383301,0
4940,-0.583496,-0.702148,0.358398,0
4960,-0.561523,-0.698242,0.358398,0
4980,-0.555176,-0.69873,0.376953,0
5000,-0.560059,-0.70752,0.396484,0
5020,-0.553711,-0.709473,0.39209,0
5040,-0.54834,-0.709961,0.391602,0
5060,-0.551758,-0.710938,0.384766,0
5080,-0.5625,-0.713379,0.381836,0
5100,-0.568848,-0.719238,0.380859,0
5120,-0.566895,-0.725586,0.378906,0
5140,-0.56543,-0.727051,0.379395,0
5160,-0.561523,-0.721191,0.391602,0
5180,-0.563477,-0.711426,0.378906,0
5200,-0.558594,-0.713379,0.376465,0
5220,-0.556641,-0.705566,0.389648,0
5240,-0.556641,-0.70166,0.391113,0
5260,-0.551758,-0.700195,0.396484,0
5280,-0.557129,-0.705078,0.398926,0
5300,-0.556152,-0.702637,0.37207,0
5320,-0.557617,-0.708008,0.385254,0
5340,-0.566406,-0.711426,0.392578,0
5360,-0.575195,-0.722656,0.395996,0
5380,-0.577637,-0.719727,0.393066,0
5400,-0.564941,-0.725586,0.373047,0
5420,-0.558105,-0.721191,0.384277,0
5440,-0.561523,-0.714844,0.379883,0
5460,-0.567871,-0.710449,0.390137,0
5480,-0.567871,-0.706055,0.39502,0
5500,-0.566895,-0.706055,0.384766,0
5520,-0.561035,-0.697266,0.383301,0
5540,-0.562988,-0.700195,0.382812,0
5560,-0.566406,-0.697266,0.380371,0
5580,-0.565918,-0.707031,0.377441,0
5600,-0.560547,-0.711426,0.377441,0
5620,-0.559082,-0.719727,0.385742,0
5640,-0.557617,-0.71582,0.391113,0
5650,-0.553711,-0.712402,0.390137,0
5670,-0.553223,-0.716797,0.391113,0
5690,-0.553223,-0.711914,0.393066,0
5710,-0.550293,-0.711914,0.388184,0
5730,-0.555664,-0.715332,0.387695,0
5750,-0.559082,-0.716797,0.393066,0
5770,-0.556641,-0.712891,0.390625,0
5790,-0.5625,-0.717285,0.38623,0
5810,-0.560059,-0.710938,0.385742,0
5830,-0.55957,-0.710449,0.386719,0
5850,-0.560547,-0.710938,0.384766,0
5870,-0.564941,-0.710449,0.383789,0
5890,-0.566406,-0.707031,0.391113,0
5910,-0.564453,-0.709473,0.390137,0
5930,-0.560059,-0.708984,0.388672,0
5950,-0.561523,-0.714355,0.383301,0
5970,-0.556152,-0.70166,0.386719,0
5990,-0.55957,-0.704102,0.376465,0
6010,-0.557617,-0.702148,0.377441,0
6030,-0.5625,-0.706543,0.395508,0
6050,-0.565918,-0.714355,0.395996,0
6070,-0.556641,-0.720215,0.387695,0
6090,-0.550293,-0.727539,0.386719,0
6110,-0.549316,-0.716797,0.388184,0
6130,-0.552246,-0.707031,0.385742,0
6150,-0.550293,-0.708008,0.382812,0
6170,-0.561035,-0.708008,0.393555,0
6190,-0.563965,-0.700684,0.388672,0
6210,-0.563477,-0.715332,0.385742,0
6230,-0.563477,-0.708496,0.387207,0
6250,-0.5625,-0.716797,0.39502,0
6270,-0.557617,-0.706055,0.393066,0
6290,-0.555176,-0.71582,0.385254,0
6310,-0.558105,-0.712402,0.395996,0
6330,-0.564453,-0.714355,0.397461,0
6350,-0.559082,-0.714355,0.392578,0
6370,-0.562988,-0.708008,0.388184,0
6390,-0.555176,-0.708008,0.378906,0
6410,-0.5625,-0.698242,0.37207,0
6430,-0.562012,-0.698242,0.383789,0
6450,-0.55957,-0.70752,0.392578,0
6470,-0.564453,-0.713379,0.381836,0
6490,-0.561523,-0.718262,0.383301,0
6510,-0.555176,-0.71875,0.395996,0
6530,-0.557617,-0.712402,0.385254,0
6550,-0.552734,-0.716309,0.393066,0
6570,-0.557129,-0.722168,0.39502,0
6590,-0.559082,-0.724609,0.398438,0
6610,-0.564941,-0.714844,0.394043,0
6630,-0.572754,-0.723633,0.402832,0
6650,-0.576172,-0.705078,0.391602,0
6670,-0.566895,-0.700684,0.391113,0
6690,-0.554199,-0.700195,0.383301,0
6710,-0.558594,-0.69043,0.372559,0
6730,-0.557617,-0.690918,0.381348,0
6750,-0.546387,-0.689941,0.383301,0
6770,-0.545898,-0.699219,0.384766,0
6790,-0.553223,-0.715332,0.384277,0
6810,-0.570312,-0.729004,0.388184,0
6830,-0.564453,-0.73291,0.386719,0
6850,-0.558594,-0.734375,0.390625,0
6870,-0.547852,-0.727051,0.392578,0
6890,-0.557617,-0.718262,0.379395,0
6910,-0.5625,-0.716797,0.376465,0
6930,-0.567383,-0.714844,0.381836,0
6950,-0.565918,-0.707031,0.383301,0
6970,-0.5625,-0.704102,0.392578,0
6990,-0.562012,-0.696777,0.38916,0
7010,-0.5625,-0.702637,0.377441,0
7030,-0.559082,-0.703613,0.379395,0
7050,-0.555176,-0.711426,0.388672,0
7070,-0.558594,-0.711426,0.380371,0
7090,-0.553223,-0.714844,0.379883,0
7110,-0.562012,-0.714844,0.385742,0
7130,-0.564941,-0.716797,0.399902,0
7150,-0.563965,-0.722656,0.388672,0
7170,-0.560547,-0.722168,0.387207,0
7190,-0.561523,-0.728027,0.388184,0
7210,-0.555176,-0.71582,0.388184,0
7230,-0.562988,-0.71875,0.390625,0
7250,-0.569336,-0.718262,0.398438,0
7270,-0.562988,-0.712891,0.390137,0
7290,-0.562012,-0.704102,0.38916,0
7310,-0.563477,-0.70166,0.382324,0
7330,-0.552246,-0.692871,0.381348,0
7350,-0.548828,-0.696289,0.382324,0
7370,-0.550781,-0.704102,0.379883,0
7390,-0.551758,-0.709961,0.380859,0
7410,-0.556641,-0.706543,0.375,0
7430,-0.5625,-0.712402,0.379395,0
7450,-0.550781,-0.716309,0.388184,0
7470,-0.552734,-0.710938,0.391602,0
7490,-0.561035,-0.720703,0.399414,0
7510,-0.572266,-0.728027,0.401367,0
7530,-0.561523,-0.730469,0.38916,0
7550,-0.552246,-0.725586,0.393066,0
7570,-0.553223,-0.719238,0.400391,0
7590,-0.557617,-0.696777,0.399902,0
7610,-0.557617,-0.693848,0.38916,0
7630,-0.551758,-0.687988,0.388672,0
7650,-0.558105,-0.687012,0.388672,0
7670,-0.556641,-0.695312,0.394043,0
7690,-0.552734,-0.704102,0.383789,0
7710,-0.544922,-0.69873,0.38916,0
7730,-0.556152,-0.705078,0.39502,0
7750,-0.559082,-0.711426,0.405762,0
7770,-0.558594,-0.710938,0.410645,0
7790,-0.552734,-0.71875,0.40332,0
7810,-0.552734,-0.716309,0.401367,0
7830,-0.558105,-0.713379,0.401855,0
7850,-0.560059,-0.709473,0.400391,0
7870,-0.559082,-0.707031,0.403809,0
7890,-0.552246,-0.708008,0.406738,0
7910,-0.546387,-0.702637,0.423828,0
7930,-0.543945,-0.693359,0.405762,0
7950,-0.547363,-0.690918,0.399414,0
7970,-0.552246,-0.6875,0.403809,0
7990,-0.559082,-0.686523,0.409668,0
8010,-0.55957,-0.696777,0.404297,0
8030,-0.55127,-0.703125,0.405273,0
8050,-0.556641,-0.70752,0.413574,0
8070,-0.557617,-0.700684,0.412598,0
8090,-0.553711,-0.701172,0.397949,0
8110,-0.554199,-0.695801,0.403809,0
8130,-0.545898,-0.695312,0.417969,0
8150,-0.547852,-0.697266,0.417969,0
8170,-0.543945,-0.688477,0.40332,0
8190,-0.537109,-0.679199,0.410645,0
8210,-0.539551,-0.682129,0.421387,0
8220,-0.543945,-0.692383,0.429199,0
8240,-0.533691,-0.704102,0.438477,0
8260,-0.539062,-0.700195,0.422852,0
8280,-0.540039,-0.684082,0.416016,0
8300,-0.544922,-0.674805,0.418945,0
8320,-0.544922,-0.672852,0.421387,0
8340,-0.530273,-0.681641,0.447266,0
8360,-0.52832,-0.694824,0.448242,0
8380,-0.518555,-0.681641,0.426758,0
8400,-0.523926,-0.65625,0.438477,0
8420,-0.545898,-0.63916,0.427246,0
8440,-0.558105,-0.630859,0.464844,0
8460,-0.524414,-0.653809,0.513672,0
8480,-0.506836,-0.655762,0.550293,0
8500,-0.51123,-0.649902,0.508301,0
8520,-0.51709,-0.65332,0.478516,0
8540,-0.501953,-0.663086,0.487305,0
8560,-0.48877,-0.666504,0.506348,0
8580,-0.46875,-0.661133,0.540039,0
8600,-0.468262,-0.679688,0.649414,0
8620,-0.411133,-0.699219,0.625488,0
8640,-0.424316,-0.675293,0.608398,0
8660,-0.443359,-0.661133,0.59375,0
8680,-0.443848,-0.640625,0.585938,0
8700,-0.457031,-0.61084,0.595703,0
8720,-0.46875,-0.593262,0.59668,0
8740,-0.479492,-0.571289,0.603027,0
8760,-0.487305,-0.56543,0.597656,0
8780,-0.498535,-0.574219,0.569336,0
8800,-0.497559,-0.574707,0.575684,0
8820,-0.485352,-0.590332,0.584473,0
8840,-0.464355,-0.600098,0.597656,0
8860,-0.46875,-0.60498,0.585449,0
8880,-0.476074,-0.606934,0.586914,0
8900,-0.472656,-0.608887,0.581543,0
8920,-0.464355,-0.619629,0.579102,0
8940,-0.449707,-0.618164,0.572266,0
8960,-0.449219,-0.618652,0.568359,0
8980,-0.448242,-0.629395,0.568359,0
9000,-0.455566,-0.64209,0.567871,0
9020,-0.458984,-0.631836,0.566895,0
9040,-0.466309,-0.624512,0.558105,0
9060,-0.463867,-0.621582,0.552734,0
9080,-0.458008,-0.624023,0.55127,0
9100,-0.462891,-0.630371,0.548828,0
9120,-0.458496,-0.644043,0.549805,0
9140,-0.453613,-0.650391,0.566895,0
9160,-0.453125,-0.656738,0.563965,0
9180,-0.452637,-0.651855,0.563965,0
9200,-0.460449,-0.640137,0.5625,0
9220,-0.461426,-0.630859,0.56543,0
9240,-0.467285,-0.619629,0.561523,0
9260,-0.473633,-0.612305,0.563477,0
9280,-0.481445,-0.599121,0.570801,0
9300,-0.477539,-0.595215,0.575684,0
9320,-0.469727,-0.599609,0.586426,0
9340,-0.462402,-0.603027,0.584961,0
9360,-0.463379,-0.609375,0.596191,0
9380,-0.460938,-0.625,0.589844,0
9400,-0.454102,-0.631836,0.583984,0
9420,-0.449707,-0.63623,0.586914,0
9440,-0.445801,-0.623047,0.583496,0
9460,-0.452148,-0.619629,0.577148,0
9480,-0.453125,-0.616699,0.57666,0
9500,-0.461426,-0.607422,0.581543,0
9520,-0.464844,-0.594727,0.57666,0
9540,-0.462402,-0.599121,0.576172,0
9560,-0.460938,-0.599609,0.574219,0
9580,-0.457031,-0.604004,0.571289,0
9600,-0.458008,-0.618164,0.566895,0
9620,-0.453125,-0.62793,0.572266,0
9640,-0.44873,-0.643555,0.571289,0
9660,-0.44873,-0.644043,0.565918,0
9680,-0.45166,-0.647461,0.562012,0
9700,-0.455566,-0.63916,0.556641,0
9720,-0.458984,-0.638184,0.561523,0
9740,-0.458008,-0.632812,0.563965,0
9760,-0.458496,-0.626953,0.566895,0
9780,-0.461914,-0.619141,0.568848,0
9800,-0.462891,-0.621582,0.578613,0
9820,-0.460938,-0.619629,0.575195,0
9840,-0.459473,-0.620117,0.573242,0
9860,-0.460449,-0.623047,0.580566,0
9880,-0.45459,-0.623535,0.581543,0
9900,-0.451172,-0.624023,0.574707,0
9920,-0.458008,-0.621094,0.571777,0
9940,-0.468262,-0.621582,0.568359,0
9960,-0.471191,-0.626465,0.5625,0
9980,-0.471191,-0.632324,0.559082,0
10000,-0.472656,-0.625977,0.553223,0
10020,-0.468262,-0.635254,0.556641,0
10040,-0.456543,-0.638672,0.5625,0
10060,-0.457031,-0.637207,0.568848,0
10080,-0.461914,-0.628418,0.562988,0
10100,-0.460449,-0.628418,0.558594,0
10120,-0.460938,-0.62207,0.561035,0
10140,-0.469238,-0.62207,0.564453,0
10160,-0.475098,-0.615723,0.561035,0
10180,-0.472168,-0.612305,0.558105,0
10200,-0.468262,-0.620605,0.558105,0
10220,-0.462891,-0.629883,0.558105,0
10240,-0.464844,-0.636719,0.554199,0
10260,-0.469238,-0.645996,0.553711,0
10280,-0.470215,-0.651855,0.556641,0
10300,-0.46875,-0.641113,0.555176,0
10320,-0.471191,-0.634766,0.549316,0
10340,-0.473633,-0.626953,0.552734,0
10360,-0.473633,-0.63623,0.560059,0
10380,-0.471191,-0.63916,0.562988,0
10400,-0.468262,-0.646973,0.561523,0
10420,-0.462891,-0.637207,0.55957,0
10440,-0.459473,-0.630859,0.561523,0
10460,-0.468262,-0.631836,0.565918,0
10480,-0.46875,-0.632812,0.571777,0
10500,-0.455566,-0.623535,0.572266,0
10520,-0.465332,-0.626465,0.563477,0
10540,-0.473633,-0.62793,0.544922,0
10560,-0.47998,-0.632812,0.541016,0
10580,-0.487305,-0.637695,0.539062,0
10600,-0.480469,-0.634766,0.536621,0
10620,-0.46582,-0.636719,0.541992,0
10640,-0.461914,-0.638184,0.546387,0
10660,-0.470215,-0.63623,0.547852,0
10680,-0.475098,-0.638184,0.551758,0
10700,-0.471191,-0.642578,0.554199,0
10720,-0.470703,-0.63623,0.552246,0
10740,-0.474609,-0.63623,0.552246,0
10760,-0.480469,-0.625977,0.549316,0
10780,-0.477051,-0.633301,0.556641,0
10790,-0.470703,-0.637695,0.559082,0
10810,-0.468262,-0.639648,0.549805,0
10830,-0.470215,-0.633789,0.547852,0
10850,-0.472656,-0.640625,0.54834,0
10870,-0.469727,-0.635254,0.552246,0
10890,-0.470703,-0.643066,0.556152,0
10910,-0.464844,-0.640137,0.556641,0
10930,-0.472168,-0.637695,0.55127,0
10950,-0.480469,-0.634766,0.549316,0
10970,-0.48291,-0.632812,0.561523,0
10990,-0.476074,-0.625488,0.566895,0
11010,-0.478516,-0.610352,0.559082,0
11030,-0.474609,-0.612305,0.558594,0
11050,-0.477051,-0.61084,0.558105,0
11070,-0.476074,-0.631836,0.559082,0
11090,-0.473145,-0.640625,0.564453,0
11110,-0.470215,-0.646484,0.555176,0
11130,-0.466797,-0.638672,0.553223,0
11150,-0.467285,-0.638184,0.546875,0
11170,-0.477539,-0.623535,0.556152,0
11190,-0.485352,-0.621094,0.555664,0
11210,-0.487305,-0.618164,0.554688,0
11230,-0.48291,-0.618164,0.555664,0
11250,-0.479492,-0.619629,0.552246,0
11270,-0.477051,-0.624512,0.55127,0
11290,-0.479004,-0.632324,0.554199,0
11310,-0.470703,-0.638672,0.547852,0
11330,-0.469727,-0.63916,0.54834,0
11350,-0.468262,-0.635742,0.551758,0
11370,-0.472168,-0.638672,0.553711,0
11390,-0.470703,-0.629883,0.554688,0
11410,-0.477051,-0.625977,0.557617,0
11430,-0.479492,-0.617188,0.565918,0
11450,-0.476562,-0.617188,0.571777,0
11470,-0.489746,-0.623047,0.566895,0
11490,-0.497559,-0.618164,0.557129,0
11510,-0.484863,-0.622559,0.548828,0
11530,-0.480469,-0.631836,0.555664,0
11550,-0.476562,-0.634277,0.561523,0
11570,-0.479492,-0.632812,0.551758,0
11590,-0.480957,-0.634766,0.554199,0
11610,-0.469727,-0.631348,0.553223,0
11630,-0.469238,-0.625,0.54541,0
11650,-0.476074,-0.624512,0.547852,0
11670,-0.480469,-0.638184,0.547363,0
11690,-0.478027,-0.642578,0.555176,0
11710,-0.474609,-0.646973,0.543457,0
11730,-0.476074,-0.631836,0.541016,0
11750,-0.477051,-0.634766,0.554688,0
11770,-0.474609,-0.633301,0.550781,0
11790,-0.473633,-0.645996,0.556641,0
11810,-0.470703,-0.645508,0.554688,0
11830,-0.476074,-0.63623,0.553711,0
11850,-0.478027,-0.632324,0.553711,0
11870,-0.48291,-0.63916,0.55957,0
11890,-0.479492,-0.629883,0.54834,0
11910,-0.486816,-0.623535,0.547363,0
11930,-0.480957,-0.616699,0.554688,0
11950,-0.475586,-0.625977,0.545898,0
11970,-0.478516,-0.635254,0.550781,0
11990,-0.479004,-0.640137,0.549316,0
12010,-0.471191,-0.639648,0.547852,0
12030,-0.472168,-0.636719,0.559082,0
12050,-0.469727,-0.643555,0.553223,0
12070,-0.470215,-0.641113,0.550781,0
12090,-0.475098,-0.636719,0.541992,0
12110,-0.475586,-0.634766,0.541016,0
12130,-0.479492,-0.640137,0.543945,0
12150,-0.477539,-0.644531,0.547852,0
12170,-0.478516,-0.649414,0.549805,0
12190,-0.475586,-0.640625,0.54248,0
12210,-0.473633,-0.641602,0.54248,0
12230,-0.480957,-0.637207,0.550781,0
12250,-0.475098,-0.640625,0.544434,0
12270,-0.473633,-0.641113,0.546387,0
12290,-0.475586,-0.638184,0.541016,0
12310,-0.481445,-0.634277,0.54834,0
12330,-0.481445,-0.629883,0.556152,0
12350,-0.481934,-0.630371,0.545898,0
12370,-0.477539,-0.635742,0.552246,0
12390,-0.472168,-0.635254,0.542969,0
12410,-0.475586,-0.637695,0.544922,0
12430,-0.474121,-0.64209,0.547852,0
12450,-0.473633,-0.638672,0.553223,0
12470,-0.476074,-0.638672,0.546875,0
12490,-0.475586,-0.638184,0.547852,0
12510,-0.471191,-0.659668,0.556641,0
12530,-0.474609,-0.666016,0.562988,0
12550,-0.49707,-0.702148,0.533203,0
12570,-0.506348,-0.73291,0.535645,0
12590,-0.482422,-0.682617,0.575684,0
12610,-0.47998,-0.620117,0.541992,0
12630,-0.506836,-0.637695,0.564453,0
12650,-0.566406,-0.56543,0.541504,0
12670,-0.626953,-0.564941,0.450684,0
12690,-0.602539,-0.634277,0.475586,0
12710,-0.612793,-0.641113,0.5625,0
12730,-0.608887,-0.63623,0.570801,0
12750,-0.579102,-0.672852,0.588379,0
12770,-0.574219,-0.714355,0.563477,0
12790,-0.507324,-0.769043,0.598145,0
12810,-0.434082,-0.737305,0.648438,0
12830,-0.356445,-0.67334,0.64502,0
12850,-0.299316,-0.716797,0.648438,0
12870,-0.214844,-0.681641,0.694824,0
12890,-0.144531,-0.657227,0.680176,0
12910,-0.111328,-0.671875,0.655762,0
12930,-0.0229492,-0.686523,0.693359,0
12950,0.0332031,-0.700195,0.669434,0
12970,0.0224609,-0.65625,0.634766,0
12990,0.00292969,-0.619141,0.624023,0
13010,0.00244141,-0.61377,0.629883,0
13010,0.0166016,-0.617188,0.672852,0
13030,0.0117188,-0.615234,0.692383,0
13050,0.0332031,-0.609375,0.668457,0
13070,0.0473633,-0.589844,0.653809,0
13070,0.0361328,-0.596191,0.685547,0
13110,0.0820312,-0.585449,0.703125,0
13150,0.123535,-0.551758,0.652344,0
13170,0.0947266,-0.506836,0.634766,0
13190,0.0810547,-0.520996,0.675293,0
13210,0.0961914,-0.543945,0.72168,0
13230,0.115234,-0.563477,0.700195,0
13230,0.158691,-0.580078,0.632324,0
13250,0.134277,-0.589844,0.639648,0
13270,0.0942383,-0.536621,0.668457,0
13280,0.0888672,-0.531738,0.693848,0
13290,0.111328,-0.586914,0.710449,0
13310,0.145508,-0.599121,0.697754,0
13330,0.183594,-0.622559,0.630859,0
13350,0.195312,-0.645508,0.594238,0
13390,0.206055,-0.618652,0.604492,0
13420,0.200195,-0.57373,0.595703,0
13440,0.205566,-0.599609,0.547363,0
13460,0.261719,-0.60791,0.567383,0
13480,0.203613,-0.638672,0.615234,0
13500,0.156738,-0.662109,0.633301,0
13520,0.192383,-0.678223,0.669922,0
13540,0.236816,-0.684082,0.652344,0
13560,0.234863,-0.67334,0.580078,0
13580,0.249512,-0.62207,0.615234,0
13600,0.227051,-0.630371,0.650879,0
13620,0.18457,-0.659668,0.679199,0
13640,0.160645,-0.6875,0.677734,0
13660,0.172852,-0.665039,0.680176,0
13680,0.236816,-0.688965,0.67041,0
13700,0.221191,-0.675293,0.609375,0
13720,0.208984,-0.664062,0.603516,0
13740,0.174316,-0.677734,0.633789,0
13760,0.17041,-0.697754,0.599121,0
13780,0.174316,-0.678223,0.583984,0
13800,0.149414,-0.665039,0.622559,0
13820,0.152832,-0.669922,0.620605,0
13840,0.169434,-0.672852,0.61084,0
13860,0.184082,-0.687988,0.611816,0
13880,0.193359,-0.662109,0.612305,0
13900,0.193359,-0.643066,0.600098,0
13920,0.189941,-0.655762,0.567383,0
13940,0.162598,-0.635254,0.639648,0
13960,0.170898,-0.621582,0.684082,0
13980,0.202637,-0.625977,0.652832,0
14000,0.222168,-0.636719,0.625977,0
14020,0.226562,-0.670898,0.614746,0
14050,0.212402,-0.650879,0.648438,0
14060,0.218262,-0.67041,0.598633,0
14080,0.23584,-0.651367,0.570312,0
14100,0.210449,-0.617676,0.603516,0
14120,0.190918,-0.615723,0.600098,0
14140,0.21582,-0.655273,0.604004,0
14160,0.203125,-0.666504,0.588867,0
14180,0.198242,-0.668945,0.568848,0
14190,0.219727,-0.631836,0.61084,0
14210,0.208496,-0.645996,0.605469,0
14230,0.194824,-0.661621,0.566895,0
14230,0.198242,-0.69873,0.600098,0
14250,0.166504,-0.687012,0.644043,0
14270,0.162109,-0.652344,0.643066,0
14290,0.184082,-0.646973,0.639648,0
14310,0.164551,-0.641602,0.642578,0
14310,0.182129,-0.680664,0.646973,0
14330,0.177734,-0.69043,0.661133,0
14390,0.14502,-0.651367,0.693848,0
14410,0.194824,-0.619141,0.614746,0
14450,0.197266,-0.646484,0.597168,0
14450,0.103516,-0.654297,0.657227,0
14470,0.142578,-0.675781,0.642578,0
14490,0.215332,-0.61084,0.559082,0
14510,0.0654297,-0.736816,0.924316,0
14530,0.483887,-0.522949,0.463867,0
14550,-0.289551,-0.714844,0.474609,0
14570,-0.59082,-0.831543,0.650391,0
14590,-0.553711,-0.828125,0.685059,0
14610,-0.62207,-0.79541,0.574707,0
14630,-0.519531,-0.695801,0.367676,0
14650,0.513184,-0.524902,0.581055,0
14670,0.499512,-0.697266,0.937012,0
14690,-0.541016,-0.709473,0.334473,0
14710,0.793457,-0.630859,0.987305,0
14740,-0.434082,-0.683105,0.280273,0
14760,0.163574,-0.779297,0.862793,0
14780,0.603027,-0.545898,0.724121,0
14800,0.124023,-0.716309,0.655273,0
14820,0.090332,-0.692871,0.644531,0
14840,0.121094,-0.684082,0.640137,0
14860,0.107422,-0.678711,0.624023,0
14880,0.117676,-0.677734,0.626953,0
14900,0.126465,-0.686523,0.633789,0
14920,0.121582,-0.674805,0.638672,0
14940,0.123535,-0.682129,0.625977,0
14960,0.136719,-0.691406,0.626953,0
14980,0.140137,-0.69873,0.623535,0
15000,0.135742,-0.703613,0.614746,0
15020,0.143555,-0.702148,0.615234,0
15040,0.14502,-0.67627,0.618652,0
15060,0.135742,-0.676758,0.609863,0
15080,0.140137,-0.679199,0.614258,0
15100,0.145508,-0.687988,0.613281,0
15120,0.137207,-0.696289,0.602051,0
15140,0.148926,-0.69873,0.618652,0
15160,0.154297,-0.681641,0.625,0
15180,0.151367,-0.672852,0.595703,0
15200,0.174805,-0.688477,0.595215,0
15220,0.177246,-0.697266,0.59668,0
15240,0.177734,-0.702637,0.612305,0
15260,0.180176,-0.692871,0.610352,0
15280,0.194824,-0.682617,0.609863,0
15300,0.19043,-0.698242,0.598633,0
15320,0.172363,-0.681152,0.609375,0
15330,0.178223,-0.690918,0.611816,0
15330,0.185059,-0.688965,0.601074,0
15350,0.215332,-0.687012,0.612793,0
15390,0.205566,-0.701172,0.662109,0
15410,0.318359,-0.769043,0.766602,0
15430,-0.0488281,-0.789551,0.57666,0
15450,0.598633,-0.632324,0.695312,0
15470,0.36377,-0.594238,0.354492,0
15490,-0.322754,-0.749023,0.425293,0
15510,-0.520996,-0.802246,0.499023,0
15540,-0.524902,-0.789551,0.425293,0
15560,-0.248047,-0.754883,0.550293,0
15570,0.22168,-0.697266,0.563477,0
15570,0.253906,-0.692383,0.580566,0
15590,0.257812,-0.69873,0.583496,0
15630,0.324707,-0.709473,0.571777,0
15650,0.160645,-0.62207,0.445801,0
15670,0.475098,-0.567383,0.487793,0
15690,-0.0947266,-0.827637,0.651367,0
15710,0.583984,-0.695801,0.749512,0
15730,0.929688,-0.570801,0.544434,0
15750,0.827148,-0.546387,0.481934,0
15770,0.895996,-0.54834,0.540527,0
15790,1.01123,-0.620605,0.766113,0
15810,0.282715,-0.80957,0.738281,0
15830,-0.316895,-0.730957,0.244141,0
15850,0.999512,-0.619141,0.794434,0
15870,-0.375977,-0.793457,0.288086,0
15890,0.981934,-0.637207,0.850098,0
15910,-0.124023,-0.665039,0.187988,0
15930,0.0556641,-0.854004,0.557129,0
15950,0.937012,-0.661621,0.903809,0
15970,0.695801,-0.540039,0.585449,0
15990,0.141602,-0.611816,0.251953,0
16010,-0.149414,-0.697266,0.123535,0
16030,-0.229492,-0.73877,0.0825195,0
16050,-0.173828,-0.721191,0.0849609,0
16070,0.0268555,-0.650391,0.144531,0
16090,0.458008,-0.547363,0.42041,0
16110,0.90918,-0.532227,0.888672,0
16130,0.646484,-0.720215,0.930664,0
16150,-0.206543,-0.880371,0.192383,0
16170,0.220215,-0.621582,0.216309,0
16190,0.885742,-0.608398,1.06641,0
16210,-0.237793,-0.882812,0.0810547,0
16230,0.818359,-0.518555,0.797363,0
16250,-0.0913086,-0.894531,0.263672,0
16270,0.824707,-0.53125,0.799805,0
16290,-0.213867,-0.888184,0.0297852,0
16310,-0.230957,-0.739746,0.305176,0
16330,0.291016,-0.662598,0.482422,0
16350,0.37793,-0.714844,0.499512,0
16370,0.365723,-0.706543,0.502441,0
16390,0.364746,-0.70752,0.492188,0
16410,0.367188,-0.69873,0.492676,0
16430,0.359375,-0.705566,0.495117,0
16450,0.339355,-0.69873,0.500488,0
16470,0.338379,-0.70459,0.503418,0
16490,0.35498,-0.714355,0.492676,0
16510,0.365234,-0.712891,0.494629,0
16530,0.355469,-0.70752,0.500977,0
16550,0.352051,-0.711426,0.495117,0
16570,0.359863,-0.71875,0.491211,0
16590,0.349609,-0.71875,0.506348,0
16590,0.344238,-0.718262,0.499023,0
16610,0.356445,-0.720703,0.491211,0
16630,0.373535,-0.71582,0.456055,0
16650,0.269043,-0.726074,0.48291,0
16690,0.145996,-0.739746,0.351562,0
16710,0.703125,-0.629883,0.543457,0
16730,0.196777,-0.697754,0.219238,0
16750,-0.334961,-0.831055,0.45459,0
16770,-0.151367,-0.834473,0.612793,0
16790,-0.102051,-0.836914,0.587891,0
16810,-0.368652,-0.827637,0.355957,0
16830,-0.050293,-0.688965,0.173828,0
16850,1.07422,-0.626465,0.730957,0
16870,-0.163086,-0.843262,0.368652,0
16890,0.834961,-0.586426,0.533691,0
16910,-0.219238,-0.835938,0.305176,0
16930,1.03613,-0.647949,0.836426,0
16950,0.161621,-0.638672,0.174805,0
16970,-0.212402,-0.836914,0.233398,0
16990,0.458984,-0.823242,0.708008,0
17010,0.919434,-0.692871,0.901855,0
17030,1.00439,-0.61084,0.874512,0
17050,1.00049,-0.585449,0.837891,0
17070,1.00635,-0.589355,0.885254,0
17090,0.921387,-0.649902,0.948242,0
17110,0.546875,-0.777832,0.807129,0
17130,0.432617,-0.640625,0.282715,0
17150,0.275879,-0.670898,0.45459,0
17170,0.365234,-0.71582,0.476074,0
17190,0.373047,-0.708984,0.480957,0
17210,0.383789,-0.714355,0.46582,0
17230,0.385742,-0.713379,0.466309,0
17250,0.371094,-0.720703,0.481934,0
17270,0.37207,-0.723145,0.481445,0
17290,0.365234,-0.727539,0.466309,0
17310,0.381348,-0.716797,0.472656,0
17330,0.383789,-0.713867,0.47168,0
17350,0.370605,-0.715332,0.463867,0
17370,0.375,-0.725098,0.463867,0
17390,0.380371,-0.732422,0.473633,0
17410,0.375488,-0.716309,0.47998,0
17430,0.367676,-0.720215,0.464355,0
17450,0.375488,-0.724121,0.461914,0
17470,0.390137,-0.729004,0.458496,0
17490,0.38623,-0.715332,0.476562,0
17510,0.371582,-0.723633,0.47168,0
17530,0.371582,-0.728516,0.47998,0
17550,0.372559,-0.723633,0.472656,2000
17570,0.376465,-0.716309,0.475098,0
17590,0.371582,-0.713867,0.472168,0
17610,0.386719,-0.710449,0.469727,0
17630,0.379883,-0.718262,0.476562,0
17650,0.37207,-0.712891,0.479004,0
17670,0.372559,-0.719727,0.480469,0
17690,0.383301,-0.714355,0.462891,0
17710,0.380371,-0.709961,0.475098,0
17730,0.373535,-0.714844,0.485352,0
17750,0.361328,-0.717773,0.464844,0
17770,0.371094,-0.717773,0.461426,0
17790,0.387207,-0.724121,0.462891,0
17810,0.38623,-0.723633,0.471191,0
17830,0.385254,-0.720703,0.467285,0
17850,0.370117,-0.711914,0.473145,0
17870,0.368652,-0.706055,0.475586,0
17890,0.376953,-0.717285,0.486328,0
17910,0.366211,-0.724609,0.47998,0
17930,0.380859,-0.725098,0.480957,0
17950,0.388672,-0.711914,0.479004,0
17970,0.379883,-0.705566,0.476074,0
17990,0.381348,-0.70752,0.474609,0
18010,0.391602,-0.724121,0.46875,0
18030,0.380859,-0.729492,0.474121,0
18050,0.371094,-0.719727,0.484863,0
18070,0.381348,-0.720703,0.469238,0
18090,0.368164,-0.723145,0.466309,0
18110,0.36084,-0.727051,0.469727,0
18130,0.35791,-0.71875,0.473145,0
18150,0.365234,-0.722168,0.476562,0
18170,0.365234,-0.71582,0.467285,0
18190,0.358398,-0.713867,0.483887,0
18210,0.365723,-0.719238,0.48584,0
18230,0.367676,-0.725098,0.480957,0
18250,0.365234,-0.710938,0.480957,0
18270,0.368652,-0.714844,0.460938,0
18290,0.374023,-0.713867,0.44873,0
18310,0.380371,-0.722168,0.469727,0
18330,0.368652,-0.714844,0.470703,0
18350,0.368652,-0.722168,0.469238,0
18370,0.370117,-0.72168,0.47168,0
18390,0.368164,-0.727051,0.463379,0
18410,0.368652,-0.732422,0.464844,0
18430,0.364258,-0.728516,0.466309,0
18450,0.354004,-0.71875,0.458496,0
18470,0.366699,-0.717285,0.46582,0
18480,0.368164,-0.724609,0.46875,0
18500,0.355957,-0.720215,0.486816,0
18520,0.359863,-0.73877,0.47168,0
18540,0.363281,-0.743164,0.458984,0
18560,0.359863,-0.730957,0.470215,0
18580,0.376953,-0.719727,0.461914,0
18600,0.370605,-0.738281,0.453125,0
18620,0.362793,-0.737793,0.451172,0
18640,0.361328,-0.726562,0.464844,0
18660,0.366699,-0.723145,0.472656,0
18680,0.349121,-0.734375,0.457031,0
18700,0.35498,-0.731445,0.457031,0
18720,0.365723,-0.735352,0.470215,0
18740,0.370605,-0.742676,0.455078,0
18760,0.376465,-0.736816,0.458008,0
18780,0.37793,-0.734375,0.460938,0
18800,0.373535,-0.725586,0.459473,0
18820,0.365723,-0.727051,0.458984,0
18840,0.353027,-0.728516,0.467773,0
18860,0.348633,-0.730469,0.483887,0
18880,0.370117,-0.722168,0.476562,0
18900,0.379883,-0.730957,0.466797,0
18920,0.390137,-0.732422,0.457031,0
18940,0.376465,-0.716309,0.456543,0
18960,0.381348,-0.737305,0.467773,0
18980,0.393555,-0.742676,0.469727,0
19000,0.384766,-0.734375,0.467285,0
19020,0.373047,-0.738281,0.457031,0
19040,0.380371,-0.73291,0.45752,0
19060,0.375,-0.734863,0.460938,0
19080,0.366699,-0.733398,0.449219,0
19100,0.361328,-0.746582,0.450195,0
19120,0.387695,-0.727051,0.473145,0
19140,0.387695,-0.726562,0.465332,0
19160,0.38916,-0.740723,0.453613,0
19180,0.385254,-0.735352,0.459473,0
19200,0.380371,-0.731934,0.453125,0
19220,0.379395,-0.733398,0.453125,0
19240,0.370605,-0.728027,0.442383,0
19260,0.377441,-0.726074,0.455566,0
19280,0.376953,-0.723145,0.474609,0
19300,0.374023,-0.71582,0.479004,0
19320,0.385742,-0.724609,0.457031,0
19340,0.380859,-0.71875,0.439941,0
19360,0.377441,-0.723145,0.440918,0
19380,0.379883,-0.731445,0.449707,0
19400,0.376465,-0.733398,0.463379,0
19420,0.384766,-0.733398,0.456055,0
19440,0.380371,-0.735352,0.46582,0
19460,0.368164,-0.731445,0.452637,0
19480,0.354492,-0.73877,0.451172,0
19500,0.363281,-0.737305,0.457031,0
19520,0.375488,-0.731445,0.460938,0
19540,0.358887,-0.729492,0.456055,0
19560,0.351562,-0.726562,0.458008,0
19580,0.347656,-0.725586,0.455566,0
19600,0.349121,-0.736816,0.467285,0
19620,0.344238,-0.72998,0.45752,0
19640,0.354492,-0.719727,0.444824,0
19660,0.365234,-0.728516,0.464355,0
19680,0.362793,-0.721191,0.470215,0
19700,0.365723,-0.72168,0.461914,0
19720,0.364746,-0.720215,0.452148,0
19740,0.368164,-0.741699,0.474609,0
19760,0.36377,-0.731445,0.47998,0
19780,0.364258,-0.740723,0.474609,0
19800,0.371582,-0.736816,0.466797,0
19820,0.362793,-0.73877,0.477051,0
19830,0.365723,-0.742676,0.473145,0
19840,0.362793,-0.738281,0.478027,0
19870,0.393066,-0.741211,0.476074,0
19890,0.371094,-0.766602,0.534668,0
19910,0.291504,-0.834961,0.599609,0
19930,0.401367,-0.575684,0.212402,0
19960,-0.0268555,-0.892578,0.577148,0
19970,0.329102,-0.867188,0.718262,0
19970,0.428223,-0.634277,0.355957,0
20010,0.211426,-0.679688,0.433105,0
20030,0.241211,-0.618164,0.283203,0
20050,0.572266,-0.797852,0.67627,0
20070,0.430176,-0.570801,0.226562,0
20100,-0.0917969,-0.780273,0.383301,0
20110,0.383301,-0.832031,0.615234,0
20110,0.334473,-0.722168,0.475098,0
20140,0.37793,-0.733398,0.492188,0
20180,0.301758,-0.695801,0.428223,0
20200,0.316406,-0.699219,0.447754,0
20220,0.369629,-0.719238,0.492188,0
20240,0.378418,-0.733398,0.473633,0
20260,0.369629,-0.721191,0.463867,0
20280,0.372559,-0.722656,0.470215,0
20300,0.368652,-0.732422,0.48291,0
20320,0.376953,-0.734375,0.486816,0
20340,0.376465,-0.723145,0.475586,0
20360,0.381348,-0.718262,0.470703,0
20380,0.367188,-0.712402,0.47168,0
20400,0.377441,-0.714844,0.469238,0
20420,0.375488,-0.712402,0.466797,0
20440,0.368164,-0.707031,0.476562,0
20460,0.362793,-0.71582,0.484375,0
20480,0.360352,-0.699219,0.494141,0
20500,0.375977,-0.708496,0.476562,0
20520,0.377441,-0.692871,0.474121,0
20540,0.380371,-0.696289,0.478027,0
20560,0.376953,-0.712402,0.475098,0
20580,0.383789,-0.721191,0.476074,0
20600,0.388672,-0.712402,0.483887,0
20620,0.38916,-0.716797,0.466309,0
20640,0.393066,-0.714844,0.467773,0
20660,0.402344,-0.709961,0.468262,0
20680,0.390625,-0.70459,0.481934,0
20700,0.383789,-0.709961,0.486816,0
20720,0.373047,-0.703125,0.48877,0
20740,0.35791,-0.691406,0.496582,0
20780,0.376953,-0.6875,0.485352,0
20800,0.386719,-0.684082,0.487305,0
20820,0.391113,-0.685059,0.481445,0
20840,0.391602,-0.697754,0.479492,0
20860,0.389648,-0.69873,0.487305,0
20880,0.388672,-0.708008,0.474609,0
20900,0.397461,-0.705078,0.474121,0
20920,0.397461,-0.708496,0.47998,0
20940,0.401367,-0.704102,0.492676,0
20960,0.394043,-0.712891,0.489746,0
20980,0.405762,-0.701172,0.491699,0
21000,0.405762,-0.699707,0.48584,0
21020,0.405273,-0.696777,0.485352,0
21040,0.410156,-0.698242,0.481934,0
21060,0.405273,-0.700195,0.47998,0
21070,0.410156,-0.698242,0.481934,0
21090,0.40918,-0.692383,0.481934,0
21110,0.412598,-0.696289,0.48291,0
21130,0.420898,-0.689453,0.481445,0
21150,0.414062,-0.681641,0.483887,0
21170,0.41748,-0.685059,0.483398,0
21190,0.425781,-0.686523,0.472656,0
21210,0.432617,-0.685547,0.476074,0
21230,0.43457,-0.685547,0.48877,0
21250,0.438477,-0.68457,0.481934,0
21270,0.441406,-0.679688,0.483887,0
21290,0.433105,-0.677734,0.471191,0
21310,0.428711,-0.674805,0.476562,0
21320,0.422363,-0.685059,0.492676,0
21350,0.404297,-0.674316,0.488281,0
21360,0.424316,-0.675293,0.493164,0
21370,0.433594,-0.682129,0.48291,0
21380,0.429688,-0.687988,0.480957,0
21400,0.435059,-0.689453,0.478027,0
21420,0.430176,-0.697754,0.475586,0
21440,0.423828,-0.693359,0.471191,0
21460,0.431641,-0.692871,0.472168,0
21480,0.427734,-0.699219,0.467285,0
21510,0.407715,-0.69873,0.481445,0
21530,0.407715,-0.68457,0.488281,0
21550,0.42334,-0.692383,0.472656,0
21570,0.440918,-0.693848,0.467285,0
21590,0.434082,-0.685059,0.461914,0
21610,0.442871,-0.676758,0.456543,0
21630,0.461426,-0.685059,0.443848,0
21650,0.46875,-0.688477,0.439941,0
21670,0.463379,-0.688965,0.447266,0
21690,0.446289,-0.689941,0.447266,0
21710,0.449219,-0.691406,0.444336,0
21730,0.461426,-0.69043,0.446777,0
21750,0.442383,-0.683594,0.455566,0
21770,0.451172,-0.698242,0.450195,0
21790,0.462891,-0.689941,0.445312,0
21810,0.461426,-0.701172,0.449707,0
21830,0.443359,-0.688477,0.459961,0
21850,0.438965,-0.702148,0.458984,0
21870,0.449707,-0.689453,0.461914,0
21890,0.437012,-0.703125,0.459473,0
21910,0.419434,-0.701172,0.453613,0
21930,0.423828,-0.692871,0.45166,0
21950,0.443359,-0.69043,0.433105,0
21970,0.450195,-0.679199,0.438477,0
21990,0.451172,-0.68457,0.446289,0
22010,0.464844,-0.685547,0.44043,0
22030,0.478516,-0.695801,0.426758,0
22050,0.475586,-0.696289,0.438965,0
22070,0.457031,-0.692871,0.446777,0
22090,0.45752,-0.694824,0.436523,0
22110,0.467773,-0.689941,0.428711,0
22130,0.464844,-0.684082,0.437012,0
22150,0.45752,-0.695312,0.442871,0
22170,0.455566,-0.687012,0.438965,0
22190,0.459961,-0.695801,0.434082,0
22210,0.459961,-0.696777,0.444336,0
22230,0.448242,-0.688965,0.436523,0
22250,0.458008,-0.69043,0.421875,0
22270,0.467285,-0.688965,0.426758,0
22290,0.454102,-0.685547,0.430664,0
22310,0.453125,-0.698242,0.429199,0
22330,0.473633,-0.708496,0.424805,0
22350,0.471191,-0.699219,0.429199,0
22370,0.462402,-0.688965,0.429199,0
22390,0.471191,-0.692383,0.42041,0
22410,0.469727,-0.697266,0.425781,0
22430,0.462402,-0.699219,0.436035,0
22450,0.464355,-0.705078,0.42334,0
22470,0.460449,-0.697266,0.429199,0
22490,0.462402,-0.6875,0.421387,0
22510,0.476074,-0.695312,0.416992,0
22530,0.479492,-0.692871,0.415527,0
22550,0.469238,-0.688965,0.424316,0
22570,0.462891,-0.695312,0.417969,0
22590,0.477051,-0.697754,0.409668,0
22610,0.483887,-0.694336,0.415527,0
22630,0.475098,-0.691895,0.42041,0
22650,0.469238,-0.70459,0.413574,0
22670,0.477539,-0.692383,0.419434,0
22690,0.474121,-0.695801,0.413574,0
22710,0.478516,-0.693848,0.40625,0
22730,0.480957,-0.69043,0.415527,0
22750,0.479492,-0.696777,0.417969,0
22770,0.466797,-0.694824,0.416504,0
22790,0.473633,-0.70166,0.419434,0
22810,0.468262,-0.700684,0.407227,0
22830,0.464355,-0.699219,0.410156,0
22850,0.455078,-0.693848,0.412109,0
22870,0.452637,-0.692871,0.408691,0
22890,0.461426,-0.692383,0.414062,0
22910,0.451172,-0.712891,0.426758,0
22930,0.437988,-0.708496,0.42627,0
22950,0.454102,-0.709473,0.405273,0
22970,0.491211,-0.706055,0.407715,0
22990,0.474121,-0.705078,0.438477,0
23010,0.44873,-0.703613,0.424805,0
23030,0.459961,-0.719238,0.412598,0
23050,0.466309,-0.709961,0.42334,0
23070,0.459961,-0.706055,0.420898,0
23090,0.440918,-0.70459,0.406738,0
23110,0.437988,-0.712891,0.414551,0
23130,0.436035,-0.710449,0.424316,0
23150,0.4375,-0.717285,0.421387,0
23170,0.446777,-0.727051,0.423828,0
23190,0.442871,-0.724609,0.421387,0
23210,0.439453,-0.725098,0.421387,0
23230,0.443848,-0.716309,0.419434,0
23250,0.45752,-0.725586,0.415527,0
23270,0.443848,-0.729492,0.415039,0
23290,0.438477,-0.731934,0.398438,0
23310,0.452637,-0.720703,0.405273,0
23330,0.44873,-0.719238,0.411621,0
23350,0.442383,-0.714844,0.413574,0
23370,0.443359,-0.728516,0.412109,0
23390,0.441406,-0.725586,0.418457,0
23400,0.432617,-0.72998,0.409668,0
23420,0.427734,-0.731445,0.415527,0
23440,0.427246,-0.726074,0.416016,0
23460,0.425293,-0.723145,0.421875,0
23480,0.431641,-0.730469,0.424316,0
23500,0.435059,-0.72168,0.421875,0
23520,0.433594,-0.734375,0.42041,0
23540,0.430176,-0.722656,0.425293,0
23560,0.427734,-0.719727,0.413574,0
23580,0.442871,-0.726074,0.413574,0
23600,0.437988,-0.727051,0.416992,0
23620,0.430176,-0.738281,0.423828,0
23640,0.417969,-0.737793,0.416504,0
23660,0.428223,-0.748535,0.42041,0
23680,0.429199,-0.752441,0.416992,0
23700,0.413574,-0.757324,0.414062,0
23720,0.415527,-0.746094,0.397461,0
23740,0.423828,-0.743164,0.407715,0
23760,0.412109,-0.736816,0.416504,0
23780,0.408203,-0.745117,0.407715,0
23800,0.424805,-0.758789,0.410645,0
23820,0.426758,-0.759766,0.401855,0
23840,0.432617,-0.750488,0.395996,0
23860,0.426758,-0.736816,0.398438,0
23880,0.425781,-0.743652,0.407227,0
23900,0.413086,-0.751465,0.398438,0
23920,0.402344,-0.750488,0.397461,0
23940,0.40332,-0.750977,0.392578,0
23960,0.419434,-0.750488,0.390625,0
23980,0.416992,-0.738281,0.404297,0
24000,0.396484,-0.749512,0.397461,0
24020,0.401855,-0.753906,0.394043,0
24040,0.416992,-0.767578,0.394531,0
24060,0.41748,-0.758789,0.391113,0
24080,0.398438,-0.757812,0.397461,0
24100,0.391113,-0.75293,0.395996,0
24120,0.407227,-0.751465,0.394531,0
24140,0.40625,-0.76123,0.400879,0
24160,0.39502,-0.760254,0.389648,0
24180,0.39502,-0.763184,0.369141,0
24200,0.421387,-0.761719,0.368652,0
24220,0.432129,-0.759277,0.370117,0
24240,0.425781,-0.769043,0.388184,0
24260,0.401855,-0.772949,0.390625,0
24280,0.397461,-0.77002,0.378418,0
24300,0.414062,-0.773926,0.382324,0
24320,0.40625,-0.757812,0.379395,0
24340,0.394043,-0.74707,0.375977,0
24360,0.381348,-0.751953,0.377441,0
24380,0.389648,-0.754395,0.369141,0
24400,0.396973,-0.750977,0.370117,0
24420,0.39209,-0.761719,0.364746,0
24440,0.373535,-0.76709,0.366699,0
24460,0.361816,-0.774414,0.362305,0
24480,0.379395,-0.766602,0.353516,0
24500,0.412598,-0.78125,0.359375,0
24520,0.405762,-0.782227,0.373535,0
24540,0.384277,-0.785645,0.363281,0
24560,0.390625,-0.794922,0.365234,0
24580,0.38916,-0.796387,0.371582,0
24600,0.383789,-0.791016,0.363281,0
24620,0.408203,-0.800781,0.375488,0
24640,0.407227,-0.803711,0.379395,0
24660,0.390137,-0.792969,0.369629,0
24680,0.396484,-0.790527,0.365234,0
24700,0.399414,-0.795898,0.366699,0
24720,0.38916,-0.793945,0.369141,0
24740,0.383789,-0.790039,0.361328,0
24760,0.393066,-0.801758,0.362305,0
24780,0.39209,-0.80127,0.360352,0
24800,0.384277,-0.807617,0.349609,0
24820,0.396484,-0.802246,0.34375,0
24840,0.391602,-0.79541,0.349609,0
24860,0.376953,-0.790527,0.345215,0
24880,0.379883,-0.80127,0.349121,0
24900,0.380859,-0.802734,0.342285,0
24920,0.375,-0.791016,0.338867,0
24940,0.376953,-0.782715,0.333496,0
24960,0.395508,-0.787598,0.325195,0
24980,0.407715,-0.791992,0.333984,0
25000,0.389648,-0.790527,0.349609,0
25020,0.375977,-0.798828,0.331055,0
25040,0.394531,-0.80127,0.333496,0
25060,0.393066,-0.796387,0.344238,0
25080,0.380859,-0.79834,0.339844,0
25100,0.377441,-0.801758,0.329102,0
25120,0.40332,-0.805664,0.336426,0
25140,0.390137,-0.804199,0.348633,0
25160,0.371582,-0.79834,0.338379,0
25180,0.387695,-0.803223,0.325684,0
25200,0.398926,-0.811035,0.341797,0
25220,0.377441,-0.813477,0.337402,0
25240,0.376465,-0.806641,0.324707,0
25260,0.390137,-0.80957,0.332031,0
25280,0.384766,-0.801758,0.342285,0
25300,0.370117,-0.801758,0.318848,0
25320,0.383789,-0.803223,0.307617,0
25340,0.415039,-0.812012,0.317871,0
25360,0.416016,-0.806152,0.330078,0
25380,0.397949,-0.812988,0.329102,0
25400,0.392578,-0.810059,0.319824,0
25420,0.399902,-0.82373,0.320801,0
25440,0.395508,-0.810547,0.327148,0
25460,0.373047,-0.804688,0.331543,0
25480,0.375977,-0.805176,0.321289,0
25500,0.388184,-0.810059,0.315918,0
25520,0.393066,-0.809082,0.326172,0
25540,0.373535,-0.799805,0.314941,0
25560,0.38916,-0.800293,0.295898,0
25580,0.424316,-0.812012,0.302734,0
25600,0.40332,-0.820801,0.307129,0
25620,0.380371,-0.823242,0.306152,0
25640,0.392578,-0.830566,0.293457,0
25660,0.40918,-0.82373,0.291504,0
25680,0.389648,-0.821777,0.299316,0
25700,0.389648,-0.828613,0.279785,0
25720,0.40332,-0.838867,0.307617,0
25740,0.375488,-0.827148,0.295898,0
25760,0.376465,-0.820801,0.278809,0
25780,0.407715,-0.82959,0.294434,0
25800,0.399902,-0.835938,0.306152,0
25820,0.371582,-0.837891,0.29541,0
25840,0.380371,-0.835449,0.277832,0
25860,0.416016,-0.834473,0.277344,0
25880,0.399902,-0.820312,0.280762,0
25900,0.377441,-0.825684,0.277832,0
25920,0.396484,-0.839355,0.263184,0
25940,0.422363,-0.847168,0.280762,0
25960,0.393555,-0.831055,0.27832,0
25980,0.37793,-0.829102,0.263184,0
25990,0.395996,-0.832031,0.259766,0
26010,0.397461,-0.831055,0.269531,0
26030,0.385254,-0.833496,0.27002,0
26050,0.376465,-0.842773,0.268555,0
26070,0.385254,-0.838379,0.271973,0
26090,0.387695,-0.836426,0.26123,0
26110,0.392578,-0.841797,0.258301,0
26130,0.392578,-0.849121,0.244141,0
26150,0.400391,-0.838867,0.249512,0
26170,0.40332,-0.83252,0.248047,0
26190,0.390625,-0.833008,0.231445,0
26210,0.397461,-0.842773,0.233887,0
26230,0.411621,-0.858887,0.243164,0
26250,0.397949,-0.854492,0.250488,0
26270,0.387695,-0.842773,0.242676,0
26290,0.376465,-0.828125,0.230469,0
26310,0.382812,-0.834961,0.223145,0
26330,0.382812,-0.84375,0.225586,0
26350,0.388672,-0.856445,0.233887,0
26370,0.387207,-0.849609,0.231445,0
26390,0.391602,-0.838379,0.220703,0
26410,0.390137,-0.834473,0.228027,0
26430,0.38623,-0.84375,0.228516,0
26450,0.387207,-0.854492,0.214355,0
26470,0.391602,-0.855957,0.218262,0
26490,0.39209,-0.84375,0.214844,0
26510,0.384277,-0.831055,0.213379,0
26530,0.385742,-0.827148,0.211914,0
26550,0.379395,-0.836914,0.230469,0
26570,0.391602,-0.841797,0.21582,0
26590,0.414062,-0.854492,0.214844,0
26610,0.406738,-0.850098,0.214844,0
26630,0.38916,-0.848633,0.210938,0
26650,0.399414,-0.855469,0.206543,0
26670,0.416016,-0.84668,0.208984,0
26690,0.403809,-0.838867,0.206543,0
26710,0.40625,-0.836426,0.202148,0
26730,0.433594,-0.854492,0.212402,0
26750,0.42627,-0.856934,0.224121,0
26770,0.397461,-0.862305,0.206055,0
26790,0.428711,-0.857422,0.200195,0
26810,0.443359,-0.853516,0.198242,0
26830,0.4375,-0.849609,0.193848,0
26850,0.420898,-0.855957,0.203613,0
26870,0.40625,-0.86084,0.1875,0
26890,0.416016,-0.862305,0.186523,0
26910,0.416504,-0.864746,0.194336,0
26930,0.406738,-0.854004,0.192383,0
26950,0.402344,-0.841797,0.191406,0
26970,0.400391,-0.82959,0.186035,0
26990,0.404297,-0.828125,0.187988,0
27010,0.419434,-0.838867,0.185059,0
27030,0.429199,-0.858887,0.192383,0
27050,0.428223,-0.845215,0.182129,0
27070,0.425781,-0.84375,0.180176,0
27090,0.428711,-0.844238,0.180176,0
27110,0.436035,-0.839355,0.16748,0
27130,0.429199,-0.842285,0.179199,0
27150,0.427734,-0.841309,0.1875,0
27170,0.41748,-0.83252,0.178223,0
27190,0.40332,-0.836426,0.157227,0
27210,0.444824,-0.835938,0.165039,0
27230,0.458984,-0.841309,0.169922,0
27250,0.465332,-0.838867,0.171387,0
27270,0.473633,-0.831055,0.180176,0
27290,0.467773,-0.841797,0.163086,0
27310,0.461426,-0.84082,0.158203,0
27330,0.463867,-0.844727,0.158203,0
27350,0.462891,-0.849609,0.162109,0
27370,0.460449,-0.848633,0.156738,0
27390,0.480469,-0.844238,0.15625,0
27410,0.482422,-0.835449,0.152344,0
27430,0.477051,-0.826172,0.161133,0
27450,0.47168,-0.828613,0.166992,0
27470,0.464844,-0.838379,0.159668,0
27490,0.471191,-0.843262,0.164551,0
27510,0.453125,-0.824707,0.182617,0
27530,0.45166,-0.811035,0.173828,0
27550,0.479004,-0.805176,0.162109,0
27570,0.49707,-0.803223,0.148926,0
27590,0.484375,-0.8125,0.157227,0
27610,0.483398,-0.825684,0.147949,0
27630,0.48291,-0.829102,0.149414,0
27650,0.481445,-0.82959,0.151855,0
27670,0.484375,-0.820801,0.141113,0
27690,0.500488,-0.818359,0.133789,0
27710,0.498535,-0.824707,0.143066,0
27730,0.482422,-0.842285,0.155273,0
27750,0.47998,-0.84375,0.143066,0
27770,0.488281,-0.833984,0.146484,0
27790,0.501953,-0.821289,0.146973,0
27810,0.5,-0.821777,0.133301,0
27830,0.498535,-0.825195,0.146973,0
27850,0.483398,-0.833496,0.151367,0
27870,0.480957,-0.827148,0.149414,0
27890,0.5,-0.807617,0.146484,0
27910,0.51709,-0.808594,0.144531,0
27930,0.515625,-0.807129,0.149902,0
27950,0.495117,-0.808105,0.146973,0
27970,0.496582,-0.81543,0.138672,0
27990,0.512695,-0.819336,0.125488,0
28010,0.521973,-0.814453,0.137695,0
28030,0.51416,-0.814941,0.138672,0
28050,0.504883,-0.800781,0.135254,0
28070,0.508301,-0.795898,0.13623,0
28090,0.508789,-0.802734,0.132324,0
28110,0.507324,-0.824219,0.123535,0
28130,0.507812,-0.82373,0.151367,0
28150,0.506348,-0.808594,0.140625,0
28170,0.513672,-0.80957,0.125,0
28190,0.533203,-0.808105,0.126465,0
28210,0.526855,-0.811035,0.140625,0
28230,0.516113,-0.816406,0.128906,0
28250,0.518066,-0.814941,0.134766,0
28270,0.525391,-0.810547,0.131836,0
28290,0.521973,-0.819824,0.137695,0
28310,0.500977,-0.825684,0.127441,0
28330,0.510742,-0.83252,0.123535,0
28350,0.512695,-0.804199,0.119141,0
28370,0.513184,-0.797363,0.121094,0
28390,0.518555,-0.792969,0.130371,0
28410,0.514648,-0.810059,0.128906,0
28430,0.51123,-0.811035,0.117188,0
28450,0.518555,-0.816895,0.125977,0
28470,0.521973,-0.810059,0.12207,0
28490,0.521484,-0.80957,0.125977,0
28510,0.51709,-0.801758,0.104492,0
28530,0.520996,-0.801758,0.118164,0
28550,0.501465,-0.800293,0.114258,0
28570,0.511719,-0.814941,0.118652,0
28580,0.533691,-0.826172,0.116699,0
28600,0.530273,-0.817383,0.132812,0
28620,0.514648,-0.807129,0.122559,0
28640,0.524902,-0.797852,0.119141,0
28660,0.534668,-0.80127,0.104492,0
28680,0.550293,-0.812988,0.102539,0
28700,0.530762,-0.807617,0.119629,0
28720,0.511719,-0.799805,0.125488,0
28740,0.508301,-0.802246,0.120117,0
28760,0.521973,-0.800781,0.106934,0
28780,0.539551,-0.807129,0.10498,0
28800,0.546387,-0.803711,0.118164,0
28820,0.524414,-0.797852,0.11084,0
28840,0.535645,-0.798828,0.112305,0
28860,0.549805,-0.800781,0.114746,0
28880,0.54248,-0.788574,0.120117,0
28900,0.553711,-0.791016,0.115723,0
28920,0.561035,-0.794922,0.118164,0
28940,0.558105,-0.804688,0.124023,0
28960,0.54248,-0.794434,0.118164,0
28980,0.541016,-0.785156,0.113281,0
29000,0.562988,-0.784668,0.113281,0
29020,0.566406,-0.785156,0.111816,0
29040,0.558594,-0.779785,0.11084,0
29060,0.549805,-0.776367,0.111328,0
29080,0.558105,-0.791504,0.106445,0
29100,0.553711,-0.788574,0.106934,0
29120,0.546387,-0.797852,0.125,0
29140,0.541992,-0.783203,0.108887,0
29160,0.537109,-0.772949,0.105469,0
29180,0.546875,-0.771484,0.10791,0
29200,0.553223,-0.786133,0.11084,0
29220,0.569336,-0.785156,0.111816,0
29240,0.557129,-0.787109,0.119141,0
29260,0.544922,-0.773926,0.127441,0
29280,0.544434,-0.783203,0.116699,0
29300,0.560059,-0.772461,0.107422,0
29320,0.564453,-0.78125,0.111816,0
29340,0.555664,-0.774414,0.119629,0
29360,0.550293,-0.789062,0.122559,0
29380,0.552734,-0.790039,0.128906,0
29400,0.552734,-0.793457,0.120605,0
29420,0.566406,-0.778809,0.121582,0
29440,0.567383,-0.779785,0.124512,0
29460,0.5625,-0.774902,0.125977,0
29480,0.559082,-0.784668,0.127441,0
29500,0.566895,-0.782227,0.13916,0
29520,0.567383,-0.775391,0.138184,0
29540,0.568359,-0.775391,0.127441,0
29560,0.599121,-0.791992,0.117676,0
29580,0.583008,-0.794434,0.133789,0
29600,0.560059,-0.776855,0.143555,0
29620,0.56543,-0.769531,0.130371,0
29640,0.570312,-0.772461,0.124512,0
29660,0.562988,-0.786133,0.137695,0
29680,0.555664,-0.770996,0.155273,0
29700,0.54834,-0.766602,0.146484,0
29720,0.561523,-0.759277,0.14502,0
29740,0.57959,-0.767578,0.14502,0
29760,0.583984,-0.763672,0.141113,0
29780,0.563965,-0.753906,0.150391,0
29800,0.5625,-0.748047,0.150879,0
29820,0.570312,-0.753418,0.143555,0
29840,0.582031,-0.76416,0.142578,0
29860,0.578613,-0.751465,0.149902,0
29880,0.563965,-0.744141,0.146484,0
29900,0.567871,-0.74707,0.143066,0
29920,0.57373,-0.766113,0.151367,0
29940,0.57666,-0.766113,0.144531,0
29960,0.585449,-0.76709,0.148438,0
29980,0.587402,-0.753418,0.141113,0
30000,0.585449,-0.748535,0.148438,0
30020,0.583008,-0.748535,0.146973,0
30040,0.581543,-0.77002,0.158203,0
30060,0.58252,-0.765137,0.149902,0
30080,0.583008,-0.758789,0.162598,0
30100,0.563965,-0.74707,0.161621,0
30120,0.577148,-0.755371,0.148438,0
30140,0.577148,-0.769531,0.166016,0
30160,0.574219,-0.753906,0.17041,0
30180,0.577148,-0.75293,0.166992,0
30200,0.591797,-0.755859,0.160645,0
30220,0.59082,-0.753418,0.169922,0
30240,0.580078,-0.744141,0.178711,0
30260,0.580078,-0.750488,0.179688,0
30280,0.588379,-0.745605,0.175781,0
30300,0.59668,-0.736816,0.170898,0
30320,0.59375,-0.73584,0.185547,0
30340,0.58252,-0.747559,0.183105,0
30360,0.595215,-0.751465,0.184082,0
30380,0.599121,-0.745117,0.17334,0
30400,0.590332,-0.72998,0.182129,0
30420,0.580078,-0.736816,0.175293,0
30440,0.580078,-0.734863,0.17334,0
30460,0.589844,-0.740234,0.174316,0
30480,0.590332,-0.72998,0.184082,0
30500,0.588867,-0.734375,0.185547,0
30520,0.591309,-0.727539,0.172363,0
30540,0.588379,-0.733398,0.174805,0
30560,0.592285,-0.731445,0.175781,0
30580,0.586426,-0.737305,0.174316,0
30600,0.584961,-0.744629,0.182129,0
30620,0.583496,-0.739258,0.185059,0
30640,0.595215,-0.73291,0.177734,0
30660,0.596191,-0.730957,0.191406,0
30680,0.598633,-0.734375,0.182617,0
30700,0.60791,-0.744629,0.175781,0
30720,0.61084,-0.737793,0.18457,0
30740,0.618164,-0.715332,0.187012,0
30760,0.626953,-0.731934,0.179688,0
30780,0.626953,-0.72998,0.180664,0
30800,0.614746,-0.733887,0.202637,0
30820,0.610352,-0.720215,0.200684,0
30840,0.611816,-0.719727,0.193848,0
30860,0.633301,-0.711914,0.192871,0
30880,0.628906,-0.705078,0.208008,0
30900,0.630371,-0.700684,0.208008,0
30920,0.617188,-0.705566,0.201172,0
30940,0.61084,-0.700684,0.204102,0
30960,0.624512,-0.695801,0.207031,0
30980,0.631836,-0.6875,0.219238,0
31000,0.612793,-0.684082,0.222656,0
31020,0.632324,-0.680664,0.209961,0
31040,0.641113,-0.682617,0.206055,0
31060,0.634277,-0.680176,0.224609,0
31080,0.637207,-0.680176,0.224121,0
31100,0.657227,-0.669434,0.200684,0
31120,0.662598,-0.65625,0.206543,0
31140,0.665527,-0.662109,0.199219,0
31150,0.660156,-0.679688,0.214844,0
31170,0.656738,-0.678223,0.215332,0
31190,0.65918,-0.670898,0.222656,0
31210,0.65332,-0.662598,0.224609,0
31230,0.668945,-0.654297,0.217773,0
31250,0.674316,-0.657715,0.227539,0
31270,0.674805,-0.661133,0.229004,0
31290,0.672852,-0.661133,0.227539,0
31310,0.660156,-0.649902,0.237793,0
31330,0.67627,-0.649414,0.237305,0
31350,0.684082,-0.650879,0.23877,0
31370,0.668945,-0.647949,0.237793,0
31390,0.657227,-0.64209,0.236328,0
31410,0.665039,-0.650879,0.23584,0
31430,0.666016,-0.650391,0.230469,0
31450,0.650879,-0.645996,0.236816,0
31470,0.647949,-0.641113,0.237793,0
31490,0.653809,-0.646973,0.245117,0
31510,0.661133,-0.646973,0.244629,0
31530,0.659668,-0.641113,0.255371,0
31550,0.660156,-0.634766,0.245605,0
31570,0.674805,-0.625488,0.236328,0
31590,0.699219,-0.633301,0.256836,0
31610,0.70166,-0.640625,0.262207,0
31630,0.681641,-0.644043,0.260742,0
31650,0.672852,-0.644043,0.258301,0
31670,0.67334,-0.625,0.26416,0
31690,0.684082,-0.618164,0.262207,0
31710,0.670898,-0.620117,0.272949,0
31730,0.658203,-0.634277,0.277344,0
31750,0.645996,-0.646484,0.276367,0
31770,0.649902,-0.63623,0.280273,0
31790,0.644043,-0.628418,0.270996,0
31810,0.630859,-0.629395,0.285156,0
31830,0.627441,-0.648438,0.291504,0
31850,0.638184,-0.643066,0.30127,0
31870,0.631836,-0.64209,0.310059,0
31890,0.615723,-0.632324,0.30957,0
31910,0.60791,-0.63623,0.313965,0
31930,0.594727,-0.635742,0.306641,0
31950,0.594727,-0.630371,0.31543,0
31970,0.609863,-0.630371,0.32373,0
31990,0.606934,-0.631348,0.312988,0
32010,0.595703,-0.633789,0.315918,0
32030,0.582031,-0.640137,0.319824,0
32050,0.57666,-0.648438,0.325684,0
32070,0.568359,-0.660156,0.314941,0
32090,0.575684,-0.651367,0.307129,0
32110,0.587402,-0.632812,0.30957,0
32130,0.590332,-0.646484,0.327637,0
32150,0.571777,-0.664551,0.335938,0
32170,0.585449,-0.68457,0.319824,0
32190,0.604004,-0.682617,0.319824,0
32210,0.591797,-0.677246,0.313477,0
32230,0.588379,-0.685059,0.316895,0
32250,0.58252,-0.703613,0.333008,0
32270,0.586914,-0.704102,0.33252,0
32290,0.587402,-0.719238,0.322754,0
32310,0.561035,-0.719727,0.329102,0
32330,0.538574,-0.711914,0.322754,0
32350,0.549316,-0.712891,0.314941,0
32370,0.56543,-0.730469,0.336914,0
32390,0.539062,-0.718262,0.335449,0
32410,0.510254,-0.712402,0.325195,0
32430,0.514648,-0.729492,0.328125,0
32450,0.538574,-0.738281,0.347168,0
32470,0.51709,-0.732422,0.337891,0
32490,0.500977,-0.724609,0.330566,0
32510,0.500488,-0.724121,0.330566,0
32530,0.517578,-0.716309,0.338867,0
32550,0.506348,-0.720703,0.341797,0
32570,0.494141,-0.734375,0.335449,0
32590,0.497559,-0.734375,0.33252,0
32610,0.504395,-0.729004,0.330566,0
32630,0.479004,-0.735352,0.330566,0
32650,0.447754,-0.745605,0.321777,0
32670,0.479004,-0.73584,0.320312,0
32690,0.497559,-0.741211,0.320801,0
32710,0.484863,-0.749512,0.339844,0
32730,0.455566,-0.760254,0.330078,0
32750,0.45166,-0.756836,0.333008,0
32770,0.472168,-0.753418,0.328125,0
32790,0.460449,-0.744629,0.325195,0
32810,0.456543,-0.753906,0.308105,0
32830,0.460938,-0.764648,0.307617,0
32850,0.472656,-0.750488,0.304199,0
32870,0.45166,-0.751953,0.307129,0
32890,0.431641,-0.766113,0.29834,0
32910,0.439453,-0.773926,0.293457,0
32930,0.458008,-0.765137,0.29248,0
32950,0.448242,-0.76123,0.281738,0
32970,0.447266,-0.783691,0.283691,0
32990,0.476562,-0.799805,0.288574,0
33010,0.465332,-0.790527,0.284668,0
33030,0.456543,-0.787109,0.26123,0
33050,0.484863,-0.794922,0.277832,0
33070,0.48877,-0.791504,0.283203,0
33090,0.446777,-0.796387,0.273438,0
33110,0.456543,-0.800781,0.262207,0
33130,0.480469,-0.797363,0.262695,0
33150,0.478516,-0.787109,0.258301,0
33170,0.448242,-0.776855,0.262207,0
33190,0.429688,-0.786133,0.255371,0
33210,0.466309,-0.787109,0.237305,0
33230,0.484863,-0.800293,0.233887,0
33250,0.48291,-0.797363,0.238281,0
33270,0.493164,-0.802734,0.250488,0
33290,0.490723,-0.789062,0.23877,0
33310,0.486816,-0.803711,0.231934,0
33330,0.486328,-0.807129,0.219727,0
33350,0.480957,-0.795898,0.216309,0
33370,0.489746,-0.801758,0.223633,0
33390,0.480469,-0.808105,0.209961,0
33410,0.475098,-0.813965,0.205566,0
33430,0.479492,-0.822754,0.211914,0
33450,0.470703,-0.816895,0.21875,0
33470,0.453125,-0.802734,0.201172,0
33490,0.462402,-0.812988,0.173828,0
33510,0.503418,-0.823242,0.192383,0
33530,0.477051,-0.817383,0.191895,0
33550,0.453613,-0.811035,0.18457,0
33570,0.473145,-0.831055,0.177734,0
33590,0.487305,-0.824219,0.17041,0
33610,0.471191,-0.807617,0.15918,0
33630,0.465332,-0.804688,0.143066,0
33650,0.490723,-0.817871,0.145508,0
33670,0.467773,-0.818848,0.143066,0
33690,0.471191,-0.833984,0.132812,0
33710,0.485352,-0.83252,0.129395,0
33730,0.492188,-0.831055,0.121582,0
33740,0.491211,-0.833496,0.117188,0
33760,0.486816,-0.84375,0.100586,0
33780,0.509766,-0.852051,0.0932617,0
33800,0.520508,-0.849121,0.100098,0
33820,0.498047,-0.836426,0.11084,0
33840,0.492188,-0.828125,0.0849609,0
33860,0.523926,-0.82666,0.0820312,0
33880,0.529297,-0.83252,0.0844727,0
33900,0.513672,-0.831543,0.0708008,0
33920,0.518066,-0.827148,0.0654297,0
33940,0.518066,-0.817871,0.078125,0
33960,0.506348,-0.804688,0.0673828,0
33980,0.510254,-0.809082,0.0561523,0
34000,0.515625,-0.810059,0.0673828,0
34020,0.498047,-0.813965,0.0546875,0
34040,0.503906,-0.80127,0.0473633,0
34060,0.53418,-0.808594,0.0488281,0
34080,0.555664,-0.810059,0.0585938,0
34100,0.537109,-0.82373,0.0546875,0
34120,0.525391,-0.818848,0.0415039,0
34140,0.554199,-0.816895,0.0371094,0
34160,0.557617,-0.805176,0.0405273,0
34180,0.539551,-0.80127,0.0332031,0
34200,0.538086,-0.794922,0.00585938,0
34220,0.54541,-0.800781,0.0219727,0
34240,0.54541,-0.811523,0.0214844,0
34260,0.537598,-0.803711,0.0131836,0
34280,0.557129,-0.804199,-0.000488281,0
34300,0.561523,-0.797852,0.00634766,0
34320,0.565918,-0.790039,0.00927734,0
34340,0.580078,-0.793457,0.0102539,0
34360,0.589844,-0.802734,-0.00439453,0
34380,0.59082,-0.803711,-0.00195312,0
34400,0.597656,-0.797852,-0.0102539,0
34420,0.587891,-0.789062,-0.0209961,0
34440,0.601562,-0.779785,-0.0273438,0
34460,0.616211,-0.782227,-0.015625,0
34480,0.590332,-0.767578,-0.00927734,0
34500,0.573242,-0.754883,-0.0732422,0
34520,0.644531,-0.777344,-0.0698242,0
34540,0.66748,-0.783691,0.00634766,0
34560,0.602051,-0.784668,-0.0180664,0
34580,0.601562,-0.786621,-0.0649414,0
34600,0.657227,-0.755859,-0.0703125,0
34620,0.650879,-0.708008,-0.0302734,0
34640,0.596191,-0.693848,-0.0341797,0
34660,0.59668,-0.722656,-0.0522461,0
34680,0.633789,-0.776367,-0.0307617,0
34700,0.622559,-0.771973,-0.027832,0
34720,0.613281,-0.76416,-0.0483398,0
34740,0.634277,-0.731445,-0.0561523,0
34760,0.640137,-0.718262,-0.0629883,0
34780,0.631836,-0.711426,-0.0668945,0
34800,0.647461,-0.735352,-0.0458984,0
34820,0.643555,-0.75,-0.0493164,0
34840,0.660645,-0.761719,-0.0493164,0
34860,0.686523,-0.758301,-0.0327148,0
34880,0.677734,-0.748047,-0.0390625,0
34900,0.671387,-0.72998,-0.0625,0
34920,0.705078,-0.714844,-0.106934,0
34940,0.714355,-0.710449,-0.0883789,0
34960,0.668945,-0.672852,-0.0498047,0
34980,0.649902,-0.675781,-0.0322266,0
35000,0.680176,-0.682129,-0.0327148,0
35020,0.700684,-0.70166,-0.0415039,0
35040,0.691895,-0.704102,-0.0268555,0
35060,0.678711,-0.680176,-0.043457,0
35080,0.724121,-0.667969,-0.0561523,0
35100,0.76416,-0.67041,-0.050293,0
35120,0.722656,-0.641113,-0.0273438,0
35140,0.695312,-0.660645,-0.00634766,0
35160,0.73291,-0.696289,-0.0107422,0
35180,0.747559,-0.679199,-0.0385742,0
35200,0.749512,-0.638672,-0.0297852,0
35220,0.749512,-0.597656,-0.027832,0
35240,0.744141,-0.594238,0.00146484,0
35260,0.730469,-0.604492,0.0249023,0
35280,0.723633,-0.623535,0.0395508,0
35300,0.740234,-0.612305,0.0546875,0
35320,0.757812,-0.60498,0.0390625,0
35340,0.771484,-0.596191,0.0195312,0
35360,0.78418,-0.59375,0.0268555,0
35380,0.787109,-0.588867,0.0512695,0
35400,0.771973,-0.590332,0.0410156,0
35420,0.77832,-0.603027,0.0258789,0
35440,0.806152,-0.604004,0.0507812,0
35460,0.794922,-0.572754,0.0800781,0
35480,0.794434,-0.5625,0.0561523,0
35500,0.806152,-0.555176,0.0336914,0
35520,0.774414,-0.543457,0.0415039,0
35540,0.769531,-0.527832,0.0844727,0
35560,0.772461,-0.544922,0.0981445,0
35580,0.758789,-0.552246,0.107422,0
35600,0.751465,-0.55957,0.0966797,0
35620,0.773438,-0.554688,0.0893555,0
35640,0.770996,-0.547852,0.0913086,0
35660,0.775391,-0.549316,0.0927734,0
35680,0.792969,-0.543945,0.118164,0
35700,0.787109,-0.547852,0.14502,0
35720,0.776367,-0.54248,0.131348,0
35740,0.788086,-0.546387,0.108398,0
35760,0.806152,-0.559082,0.122559,0
35780,0.796875,-0.550781,0.142578,0
35800,0.780762,-0.549805,0.16748,0
35820,0.765625,-0.544922,0.147461,0
35840,0.785645,-0.535156,0.140625,0
35860,0.806641,-0.541016,0.161621,0
35880,0.796387,-0.54248,0.189453,0
35900,0.77002,-0.538086,0.191406,0
35920,0.771484,-0.516602,0.179688,0
35940,0.797852,-0.501465,0.175293,0
35960,0.799805,-0.505371,0.196289,0
35980,0.771484,-0.523926,0.213867,0
36000,0.753906,-0.555176,0.216797,0
36020,0.770508,-0.532715,0.206055,0
36040,0.773438,-0.499023,0.20166,0
36060,0.781738,-0.47998,0.208984,0
36080,0.779297,-0.495117,0.230469,0
36100,0.769531,-0.518066,0.219727,0
36120,0.776855,-0.518555,0.217773,0
36140,0.780273,-0.517578,0.22998,0
36160,0.791504,-0.521973,0.253418,0
36180,0.791504,-0.520996,0.24707,0
36200,0.761719,-0.513672,0.230469,0
36220,0.766113,-0.51416,0.227051,0
36240,0.782715,-0.51709,0.257324,0
36260,0.780762,-0.516602,0.269043,0
36280,0.763672,-0.527344,0.268066,0
36300,0.75293,-0.519043,0.269043,0
36320,0.753906,-0.518066,0.258301,0
36330,0.761719,-0.522461,0.26123,0
36350,0.762695,-0.518555,0.260254,0
36370,0.766602,-0.513184,0.262695,0
36390,0.76709,-0.531738,0.271484,0
36410,0.751465,-0.555176,0.276367,0
36430,0.736816,-0.566406,0.269043,0
36450,0.73584,-0.559082,0.261719,0
36470,0.729004,-0.550293,0.254883,0
36490,0.723633,-0.568359,0.252441,0
36510,0.729492,-0.589844,0.271973,0
36530,0.723633,-0.612793,0.27002,0
36550,0.717773,-0.598145,0.270508,0
36570,0.691895,-0.601074,0.261719,0
36590,0.651367,-0.590332,0.246582,0
36610,0.668945,-0.580078,0.230957,0
36630,0.710449,-0.594727,0.231445,0
36650,0.703613,-0.595703,0.249023,0
36670,0.657715,-0.603516,0.263672,0
36690,0.619629,-0.588867,0.231934,0
36710,0.625977,-0.56543,0.21875,0
36730,0.643555,-0.584473,0.251953,0
36750,0.630859,-0.59668,0.26123,0
36770,0.616699,-0.601562,0.255859,0
36790,0.613281,-0.602051,0.255371,0
36810,0.637207,-0.628906,0.242676,0
36830,0.651367,-0.647461,0.264648,0
36850,0.658203,-0.661621,0.293457,0
36870,0.641113,-0.661133,0.291992,0
36890,0.605957,-0.650391,0.257324,0
36910,0.631836,-0.638672,0.252441,0
36930,0.634277,-0.647949,0.273438,0
36950,0.608398,-0.658691,0.284668,0
36970,0.616211,-0.665527,0.273438,0
36990,0.64209,-0.646973,0.263672,0
37010,0.652832,-0.631836,0.283691,0
37030,0.616211,-0.630371,0.291504,0
37050,0.615723,-0.669434,0.29248,0
37070,0.62793,-0.691406,0.313477,0
37090,0.603516,-0.67041,0.300781,0
37110,0.584473,-0.63916,0.273438,0
37130,0.623047,-0.65625,0.260742,0
37150,0.624023,-0.666016,0.270996,0
37170,0.594727,-0.674316,0.273926,0
37190,0.596191,-0.680176,0.254395,0
37210,0.637207,-0.678223,0.247559,0
37230,0.655762,-0.683594,0.252441,0
37250,0.617188,-0.690918,0.265137,0
37270,0.608887,-0.688477,0.260742,0
37290,0.627441,-0.691406,0.271484,0
37310,0.611816,-0.699707,0.276367,0
37330,0.620117,-0.709473,0.254883,0
37350,0.624512,-0.700195,0.234863,0
37370,0.61084,-0.682129,0.222168,0
37390,0.614258,-0.687988,0.231934,0
37410,0.608887,-0.709961,0.242188,0
37430,0.609375,-0.709961,0.220703,0
37450,0.632324,-0.704102,0.201172,0
37470,0.649414,-0.707031,0.222168,0
37490,0.632324,-0.703613,0.227539,0
37510,0.583496,-0.713867,0.226562,0
37530,0.554688,-0.708496,0.209473,0
37550,0.586426,-0.708496,0.200684,0
37570,0.637207,-0.70166,0.206543,0
37590,0.626465,-0.714844,0.208984,0
37610,0.595703,-0.714844,0.213867,0
37630,0.605469,-0.729004,0.160156,0
37650,0.634277,-0.733887,0.160156,0
37670,0.633301,-0.725098,0.182617,0
37690,0.615234,-0.709961,0.168457,0
37710,0.619629,-0.708984,0.166016,0
37730,0.632812,-0.712402,0.155273,0
37750,0.630371,-0.730469,0.14209,0
37770,0.63916,-0.743652,0.140625,0
37790,0.642578,-0.741211,0.132324,0
37810,0.629883,-0.720215,0.103027,0
37830,0.62793,-0.709473,0.102539,0
37850,0.608887,-0.702637,0.11377,0
37870,0.570312,-0.706543,0.0917969,0
37890,0.581543,-0.726562,0.0864258,0
37910,0.591309,-0.722656,0.0981445,0
37930,0.59375,-0.719238,0.074707,0
37950,0.634277,-0.731445,0.0600586,0
37970,0.660156,-0.740234,0.0683594,0
37990,0.64209,-0.736328,0.074707,0
38010,0.638184,-0.736328,0.0683594,0
38030,0.645996,-0.742188,0.0761719,0
38050,0.618652,-0.73584,0.0703125,0
38080,0.61377,-0.725586,0.0673828,0
38100,0.610352,-0.722656,0.0595703,0
38120,0.615234,-0.737305,0.0649414,0
38140,0.60791,-0.743652,0.0551758,0
38160,0.605469,-0.749512,0.0551758,0
38180,0.604004,-0.753906,0.0537109,0
38200,0.609375,-0.759766,0.0322266,0
38220,0.609863,-0.761719,0.0327148,0
38240,0.61084,-0.763184,0.0375977,0
38260,0.60791,-0.762207,0.0341797,0
38280,0.616699,-0.763184,0.0332031,0
38300,0.625,-0.762207,0.0102539,0
38320,0.625,-0.766113,0.0117188,0
38340,0.60498,-0.772949,0.0141602,0
38360,0.604004,-0.765625,0.00537109,0
38380,0.634277,-0.749023,-0.00976562,0
38400,0.609863,-0.748047,0.000976562,0
38420,0.595215,-0.747559,-0.0219727,0
38440,0.617676,-0.756348,-0.019043,0
38460,0.616699,-0.759766,-0.0224609,0
38480,0.621094,-0.76123,-0.0175781,0
38500,0.617676,-0.769043,-0.0268555,0
38520,0.62207,-0.760742,-0.0439453,0
38540,0.646973,-0.763184,-0.0498047,0
38560,0.635742,-0.756348,-0.03125,0
38580,0.619141,-0.75293,-0.0258789,0
38600,0.611328,-0.742188,-0.0322266,0
38620,0.605469,-0.73877,-0.0566406,0
38640,0.624023,-0.724609,-0.0566406,0
38660,0.626953,-0.733398,-0.03125,0
38680,0.621094,-0.729004,-0.0483398,0
38700,0.637695,-0.727539,-0.0522461,0
38720,0.663574,-0.719238,-0.0629883,0
38740,0.672363,-0.72998,-0.0546875,0
38760,0.682617,-0.724609,-0.0517578,0
38780,0.682129,-0.724609,-0.0634766,0
38800,0.683594,-0.72168,-0.0644531,0
38820,0.67627,-0.709961,-0.0668945,0
38840,0.692871,-0.710938,-0.0712891,0
38860,0.70752,-0.711426,-0.0551758,0
38880,0.679199,-0.71582,-0.0615234,0
38900,0.668945,-0.72168,-0.0742188,0
38910,0.693848,-0.705566,-0.0703125,0
38930,0.733887,-0.677734,-0.0751953,0
38950,0.73291,-0.672363,-0.0810547,0
38970,0.71582,-0.683594,-0.0869141,0
38990,0.711426,-0.708496,-0.09375,0
39010,0.72168,-0.692871,-0.0991211,0
39030,0.724121,-0.67334,-0.101562,0
39050,0.722168,-0.648926,-0.106934,0
39070,0.712402,-0.649414,-0.101074,0
39090,0.69873,-0.652832,-0.102539,0
39110,0.691895,-0.649902,-0.110352,0
39130,0.699707,-0.650879,-0.123535,0
39150,0.707031,-0.64209,-0.123535,0
39170,0.71582,-0.650391,-0.128418,0
39190,0.730957,-0.650879,-0.131348,0
39210,0.730469,-0.651855,-0.138672,0
39230,0.724121,-0.668945,-0.148926,0
39250,0.728027,-0.6875,-0.151855,0
39270,0.744141,-0.677246,-0.134277,0
39290,0.708496,-0.642578,-0.127441,0
39310,0.695312,-0.630371,-0.139648,0
39330,0.735352,-0.643555,-0.15332,0
39350,0.765137,-0.670898,-0.130371,0
39370,0.739258,-0.677246,-0.11377,0
39390,0.724121,-0.648438,-0.142578,0
39410,0.760254,-0.643066,-0.166992,0
39430,0.780762,-0.644043,-0.15332,0
39450,0.740234,-0.656738,-0.137207,0
39470,0.730469,-0.645996,-0.157227,0
39490,0.756836,-0.653809,-0.181152,0
39510,0.771484,-0.647949,-0.150879,0
39530,0.732422,-0.634277,-0.128418,0
39550,0.726074,-0.620117,-0.151855,0
39570,0.742188,-0.616699,-0.165527,0
39590,0.759277,-0.617676,-0.150391,0
39610,0.73584,-0.618652,-0.144043,0
39630,0.733398,-0.625,-0.147949,0
39650,0.741211,-0.622559,-0.139648,0
39670,0.757324,-0.594238,-0.138184,0
39690,0.763184,-0.588867,-0.142578,0
39710,0.759277,-0.602539,-0.142578,0
39730,0.742676,-0.59668,-0.145508,0
39750,0.73877,-0.605469,-0.136719,0
39770,0.766113,-0.602539,-0.149902,0
39790,0.786621,-0.594727,-0.146973,0
39810,0.784668,-0.57666,-0.147461,0
39830,0.775391,-0.576172,-0.154785,0
39850,0.782715,-0.604004,-0.155762,0
39870,0.797852,-0.620605,-0.13916,0
39890,0.793457,-0.598145,-0.141113,0
39910,0.78125,-0.559082,-0.149902,0
39930,0.781738,-0.548828,-0.15918,0
39950,0.789551,-0.586426,-0.158691,0
39970,0.780762,-0.606445,-0.133301,0
39990,0.769043,-0.606934,-0.144531,0
40010,0.794922,-0.569336,-0.173828,0
40030,0.83252,-0.557617,-0.169434,0
40050,0.813477,-0.551758,-0.141113,0
40070,0.780273,-0.565918,-0.14209,0
40090,0.783203,-0.579102,-0.156738,0
40110,0.8125,-0.572754,-0.160156,0
40130,0.825684,-0.541016,-0.164062,0
40150,0.826172,-0.533691,-0.159668,0
40170,0.81543,-0.543945,-0.14502,0
40190,0.800781,-0.552246,-0.138184,0
40210,0.803223,-0.54834,-0.166504,0
40230,0.813965,-0.521973,-0.159668,0
40250,0.814941,-0.512695,-0.146484,0
40270,0.811035,-0.500977,-0.150391,0
40290,0.800781,-0.530762,-0.163086,0
40310,0.804688,-0.538574,-0.158691,0
40330,0.812012,-0.514648,-0.166504,0
40350,0.836914,-0.509766,-0.162598,2001
40370,0.838379,-0.534668,-0.155273,0
40390,0.822266,-0.527344,-0.158203,0
40410,0.821289,-0.525879,-0.154297,0
40430,0.853516,-0.535645,-0.148438,0
40450,0.852539,-0.531738,-0.141113,0
40470,0.821777,-0.51416,-0.151855,0
40490,0.836426,-0.525879,-0.156738,0
40510,0.842773,-0.510254,-0.130371,0
40530,0.801758,-0.496094,-0.131836,0
40550,0.790527,-0.519531,-0.141602,0
40570,0.812012,-0.534668,-0.131836,0
40590,0.791504,-0.505371,-0.123047,0
40610,0.769043,-0.489746,-0.128418,0
40630,0.790039,-0.509277,-0.124512,0
40650,0.808105,-0.501465,-0.116699,0
40670,0.79541,-0.486328,-0.123535,0
40690,0.773438,-0.478027,-0.118652,0
40710,0.77832,-0.492676,-0.117676,0
40730,0.822754,-0.51416,-0.155273,0
40750,0.814941,-0.522461,-0.131348,0
40770,0.778809,-0.546387,-0.0991211,0
40790,0.79248,-0.546387,-0.13916,0
40810,0.825195,-0.533691,-0.150879,0
40830,0.811523,-0.523926,-0.157227,0
40850,0.787109,-0.522461,-0.14209,0
40870,0.785645,-0.51123,-0.144531,0
40890,0.854492,-0.519043,-0.144531,0
40910,0.869629,-0.540039,-0.131836,0
40930,0.819336,-0.525391,-0.09375,0
40950,0.796875,-0.525391,-0.090332,0
40970,0.828613,-0.557129,-0.0942383,0
40990,0.858887,-0.586426,-0.0517578,0
41010,0.82666,-0.588867,-0.0336914,0
41030,0.862305,-0.571289,-0.0859375,0
41050,0.911133,-0.562988,-0.0820312,0
41070,0.868164,-0.529297,-0.104492,0
41090,0.846191,-0.479004,-0.12793,0
41110,0.883301,-0.464844,-0.0996094,0
41130,0.882324,-0.471191,-0.0683594,0
41150,0.84375,-0.464844,-0.059082,0
41170,0.821289,-0.480469,-0.0737305,0
41190,0.834961,-0.505859,-0.0361328,0
41210,0.849121,-0.502441,-0.0332031,0
41230,0.861816,-0.501465,-0.034668,0
41250,0.876465,-0.495117,-0.0209961,0
41270,0.900879,-0.495117,-0.0273438,0
41290,0.907227,-0.506348,-0.0410156,0
41310,0.884766,-0.510742,-0.0566406,0
41330,0.867676,-0.501953,-0.0825195,0
41350,0.830078,-0.504883,-0.0678711,0
41370,0.792969,-0.508301,-0.0507812,0
41390,0.754883,-0.504883,-0.0405273,0
41410,0.695801,-0.512695,-0.0546875,0
41430,0.646973,-0.537598,-0.0766602,0
41450,0.618164,-0.52832,-0.0678711,0
41470,0.575684,-0.498047,-0.0390625,0
41490,0.52002,-0.472656,0.0126953,0
41500,0.47168,-0.451172,-0.0307617,0
41520,0.47998,-0.426758,-0.0639648,0
41540,0.548828,-0.425781,-0.0947266,0
41560,0.650391,-0.449219,-0.0551758,0
41580,0.661621,-0.510254,-0.0224609,0
41600,0.664062,-0.522949,-0.0126953,0
41620,0.674316,-0.529297,0.00830078,0
41640,0.711914,-0.56543,0.00439453,0
41660,0.797852,-0.623535,0.0444336,0
41680,0.774902,-0.640137,0.121094,0
41700,0.706543,-0.634277,0.143555,0
41720,0.720703,-0.604492,0.10498,0
41740,0.834473,-0.599609,0.0791016,0
41760,0.878418,-0.641113,0.179688,0
41780,0.763672,-0.678223,0.224121,0
41800,0.739258,-0.69873,0.203125,0
41820,0.796387,-0.745605,0.260254,0
41840,0.759766,-0.74707,0.28418,0
41860,0.696777,-0.732422,0.237793,0
41880,0.765625,-0.762207,0.249512,0
41900,0.736328,-0.794922,0.335938,0
41920,0.646973,-0.797852,0.30957,0
41940,0.659668,-0.767578,0.247559,0
41960,0.687988,-0.783691,0.303711,0
41980,0.642578,-0.783203,0.312012,0
42000,0.602539,-0.803711,0.28418,0
42020,0.625977,-0.842773,0.282227,0
42040,0.632324,-0.884766,0.334473,0
42060,0.581543,-0.851562,0.387207,0
42080,0.50293,-0.82373,0.370117,0
42100,0.469727,-0.833008,0.314941,0
42120,0.507812,-0.832031,0.313477,0
42140,0.522461,-0.832031,0.361816,0
42160,0.453125,-0.817383,0.362305,0
42180,0.430664,-0.825195,0.341309,0
42200,0.462402,-0.840332,0.34082,0
42220,0.453613,-0.836914,0.342773,0
42240,0.44043,-0.816406,0.344727,0
42260,0.424316,-0.820312,0.318848,0
42280,0.406738,-0.79541,0.312012,0
42300,0.370605,-0.779297,0.29541,0
42320,0.395508,-0.774414,0.290039,0
42340,0.435547,-0.79248,0.306152,0
42360,0.429199,-0.782715,0.310547,0
42380,0.391602,-0.781738,0.282227,0
42400,0.408203,-0.787109,0.3125,0
42420,0.428223,-0.807129,0.348145,0
42440,0.423828,-0.809082,0.333496,0
42460,0.412598,-0.803711,0.325684,0
42480,0.410645,-0.805176,0.346191,0
42500,0.393555,-0.802246,0.363281,0
42520,0.36084,-0.805664,0.331055,0
42540,0.365723,-0.80957,0.29834,0
42560,0.395996,-0.816895,0.281738,0
42580,0.398926,-0.8125,0.298828,0
42600,0.372559,-0.805176,0.29834,0
42620,0.366699,-0.791504,0.29248,0
42640,0.373047,-0.773438,0.283203,0
42660,0.375,-0.782715,0.319336,0
42680,0.373047,-0.806641,0.328613,0
42700,0.39209,-0.835449,0.316406,0
42720,0.432617,-0.845215,0.298828,0
42740,0.436523,-0.82666,0.301758,0
42760,0.405762,-0.798828,0.32666,0
42780,0.369141,-0.783691,0.323242,0
42800,0.371582,-0.800781,0.312988,0
42820,0.411133,-0.817383,0.32666,0
42840,0.43457,-0.822266,0.352539,0
42860,0.428223,-0.803223,0.34668,0
42880,0.409668,-0.791992,0.333008,0
42900,0.402344,-0.791504,0.316895,0
42920,0.407715,-0.786621,0.316406,0
42940,0.418945,-0.791992,0.331543,0
42960,0.404297,-0.792969,0.32666,0
42980,0.362793,-0.797852,0.325195,0
43000,0.354004,-0.805664,0.324707,0
43020,0.369141,-0.810059,0.32666,0
43040,0.381836,-0.816406,0.335938,0
43060,0.385254,-0.8125,0.336426,0
43080,0.382324,-0.807129,0.333496,0
43100,0.365723,-0.822754,0.320801,0
43120,0.359375,-0.8125,0.312988,0
43140,0.384766,-0.823242,0.348145,0
43160,0.383789,-0.817871,0.348145,0
43180,0.361328,-0.823242,0.314453,0
43200,0.381348,-0.820312,0.3125,0
43220,0.397949,-0.809082,0.312012,0
43240,0.391113,-0.805664,0.314453,0
43260,0.376465,-0.819336,0.327148,0
43280,0.366211,-0.813965,0.325195,0
43300,0.384766,-0.807617,0.320801,0
43320,0.393066,-0.807617,0.333984,0
43340,0.375977,-0.820801,0.33252,0
43360,0.366699,-0.816895,0.310547,0
43380,0.382324,-0.810547,0.306152,0
43400,0.378906,-0.803711,0.329102,2000
43420,0.366699,-0.799316,0.319824,0
43440,0.376465,-0.813477,0.292969,0
43460,0.398438,-0.830078,0.32373,0
43480,0.429688,-0.836914,0.322754,0
43500,0.39209,-0.798828,0.331055,0
43520,0.362305,-0.810059,0.31543,0
43540,0.368652,-0.817871,0.31543,0
43560,0.38916,-0.820801,0.318848,0
43580,0.391602,-0.827637,0.321777,0
43600,0.354004,-0.818359,0.329102,0
43620,0.350098,-0.808594,0.318359,0
43640,0.377441,-0.8125,0.324219,0
43660,0.396973,-0.821289,0.337891,0
43680,0.383789,-0.823242,0.349121,0
43700,0.368164,-0.813965,0.365234,0
43720,0.353027,-0.813965,0.347168,0
43740,0.359863,-0.817871,0.338379,0
43760,0.350098,-0.826172,0.331055,0
43780,0.359863,-0.828613,0.333496,0
43800,0.353516,-0.813965,0.324219,0
43820,0.358398,-0.808105,0.320801,0
43840,0.373535,-0.820312,0.341309,0
43860,0.368164,-0.833984,0.361328,0
43880,0.349609,-0.828125,0.326172,0
43900,0.365723,-0.821289,0.296875,0
43920,0.394531,-0.814453,0.291504,0
43940,0.411621,-0.811523,0.314453,0
43960,0.400879,-0.809082,0.317383,0
43980,0.400391,-0.805664,0.291504,0
44000,0.420898,-0.795898,0.314941,0
44020,0.411621,-0.78125,0.324219,0
44040,0.393066,-0.790527,0.300293,0
44060,0.393555,-0.814453,0.292969,0
44080,0.396973,-0.800781,0.3125,0
44090,0.384277,-0.803711,0.300781,0
44110,0.377441,-0.803711,0.300293,0
44130,0.369141,-0.802246,0.275879,0
44150,0.378418,-0.820801,0.270508,0
44170,0.395996,-0.813477,0.299316,0
44190,0.395996,-0.801758,0.318359,0
44210,0.390137,-0.808105,0.293945,0
44230,0.407715,-0.817383,0.277344,0
44250,0.415527,-0.834961,0.299805,0
44270,0.386719,-0.818848,0.291504,0
44290,0.401855,-0.817871,0.28418,0
44310,0.431152,-0.818848,0.280762,0
44330,0.431641,-0.82666,0.301758,0
44350,0.418945,-0.841797,0.289551,0
44370,0.406738,-0.819336,0.277344,0
44390,0.394043,-0.816406,0.26709,0
44410,0.401855,-0.824219,0.296875,0
44430,0.397461,-0.822754,0.289551,0
44450,0.411133,-0.826172,0.26709,0
44470,0.432129,-0.836914,0.263184,0
44490,0.435547,-0.822266,0.271973,0
44510,0.421875,-0.82373,0.260742,0
44530,0.410156,-0.820312,0.255371,0
44550,0.428711,-0.818359,0.258301,0
44570,0.453125,-0.796387,0.268555,0
44590,0.453613,-0.805664,0.273926,0
44610,0.429199,-0.817871,0.252441,0
44630,0.426758,-0.820801,0.237305,0
44650,0.435059,-0.819824,0.264648,0
44670,0.44873,-0.807129,0.30127,0
44690,0.43457,-0.821289,0.272461,0
44710,0.430664,-0.811523,0.267578,0
44730,0.451172,-0.793457,0.270508,0
44750,0.459473,-0.791016,0.25293,0
44770,0.442871,-0.800781,0.260254,0
44790,0.415527,-0.801758,0.244141,0
44810,0.424316,-0.799805,0.250977,0
44830,0.469727,-0.812012,0.274902,0
44850,0.469727,-0.797852,0.282227,0
44870,0.452637,-0.791504,0.249023,0
44890,0.471191,-0.791016,0.263672,0
44910,0.477051,-0.796387,0.283691,0
44930,0.444824,-0.798828,0.257324,0
44950,0.453125,-0.8125,0.26416,0
44970,0.459473,-0.797363,0.289062,0
44990,0.452637,-0.78418,0.26416,0
45010,0.453125,-0.796875,0.268066,0
45030,0.441895,-0.786133,0.270508,0
45050,0.436035,-0.798828,0.285156,0
45070,0.441895,-0.800293,0.291992,0
45090,0.443848,-0.797852,0.278809,0
45110,0.470215,-0.79248,0.261719,0
45130,0.476562,-0.778809,0.268555,0
45150,0.481934,-0.783691,0.276367,0
45170,0.481445,-0.804199,0.300781,0
45170,0.48877,-0.782715,0.312988,0
45190,0.476074,-0.762695,0.289551,0
45210,0.46875,-0.752441,0.273926,0
45230,0.472656,-0.775879,0.279297,0
45250,0.484375,-0.784668,0.287598,0
45270,0.491211,-0.777832,0.26416,0
45290,0.47998,-0.767578,0.273926,0
45310,0.479004,-0.763184,0.294922,0
45330,0.495117,-0.763184,0.304199,0
45350,0.504395,-0.760742,0.299805,0
45370,0.498535,-0.759277,0.293457,0
45390,0.506348,-0.75,0.312988,0
45410,0.505371,-0.746582,0.313965,0
45430,0.515625,-0.753906,0.3125,0
45450,0.519043,-0.763672,0.318359,0
45470,0.522461,-0.748047,0.320801,0
45490,0.524414,-0.749512,0.323242,0
45510,0.513184,-0.745117,0.329102,0
45530,0.522949,-0.746094,0.337402,0
45550,0.541992,-0.732422,0.319824,0
45570,0.564941,-0.731934,0.32959,0
45590,0.529785,-0.719727,0.347168,0
45610,0.495605,-0.725586,0.361816,0
45630,0.521973,-0.737793,0.343262,0
45650,0.529785,-0.716797,0.343262,0
45670,0.539551,-0.693359,0.347168,0
45690,0.536133,-0.706543,0.363281,0
45710,0.538086,-0.722656,0.356934,0
45730,0.548828,-0.708984,0.355957,0
45750,0.553223,-0.701172,0.346191,0
45770,0.542969,-0.691406,0.350586,0
45790,0.52832,-0.691406,0.345703,0
45810,0.525879,-0.696777,0.345215,0
45830,0.52832,-0.69873,0.341797,0
45850,0.523926,-0.689941,0.355957,0
45870,0.538086,-0.695801,0.348145,0
45890,0.567871,-0.705566,0.345215,0
45910,0.571777,-0.700195,0.364258,0
45930,0.547852,-0.687012,0.365723,0
45950,0.544922,-0.687012,0.362793,0
45970,0.55127,-0.693359,0.354492,0
45990,0.543945,-0.682617,0.363281,0
46010,0.536621,-0.67627,0.364746,0
46030,0.540527,-0.675293,0.359375,0
46050,0.53418,-0.680664,0.349121,0
46070,0.529297,-0.691895,0.357422,0
46090,0.554688,-0.69043,0.354004,0
46110,0.567871,-0.675293,0.366699,0
46130,0.560547,-0.679199,0.388672,0
46150,0.534668,-0.685059,0.39209,0
46170,0.53418,-0.703125,0.380371,0
46190,0.55127,-0.6875,0.390137,0
46210,0.550293,-0.670898,0.400879,0
46230,0.544434,-0.672363,0.376953,0
46250,0.556152,-0.681152,0.374512,0
46270,0.557617,-0.690918,0.385254,0
46290,0.54248,-0.693359,0.406738,0
46310,0.540527,-0.689941,0.388672,0
46330,0.560547,-0.69043,0.371094,0
46350,0.57373,-0.670898,0.381348,0
46370,0.547852,-0.664551,0.402344,0
46390,0.52832,-0.671387,0.395996,0
46410,0.546875,-0.686523,0.375,0
46430,0.559082,-0.682617,0.368164,0
46450,0.541016,-0.671875,0.388672,0
46470,0.525879,-0.661133,0.372559,0
46490,0.536621,-0.662109,0.369629,0
46510,0.566406,-0.668457,0.375,0
46530,0.563477,-0.674805,0.369141,0
46550,0.527832,-0.662109,0.376953,0
46570,0.507324,-0.672852,0.376465,0
46590,0.538574,-0.684082,0.375488,0
46610,0.54248,-0.672363,0.380859,0
46630,0.512695,-0.67041,0.379395,0
46650,0.507812,-0.668457,0.378418,0
46660,0.525879,-0.678711,0.376465,0
46680,0.509766,-0.677734,0.395996,0
46700,0.497559,-0.67627,0.367188,0
46720,0.516113,-0.664551,0.367188,0
46740,0.525879,-0.671387,0.394531,0
46760,0.512207,-0.674316,0.401367,0
46780,0.484375,-0.693359,0.372559,0
46800,0.487793,-0.705566,0.364746,0
46820,0.508301,-0.693848,0.375977,0
46840,0.519043,-0.678223,0.362793,0
46860,0.512695,-0.692383,0.379883,0
46880,0.52832,-0.71582,0.401855,0
46900,0.504395,-0.727539,0.393066,0
46920,0.479004,-0.718262,0.385742,0
46940,0.498047,-0.726562,0.378906,0
46960,0.499512,-0.709961,0.384766,0
46980,0.487305,-0.705566,0.385742,0
47000,0.487305,-0.722656,0.384277,0
47020,0.48877,-0.725586,0.366211,0
47040,0.493164,-0.732422,0.367188,0
47060,0.496094,-0.739746,0.375488,0
47080,0.487793,-0.732422,0.356934,0
47100,0.501465,-0.729004,0.354492,0
47120,0.494629,-0.720215,0.366211,0
47140,0.475098,-0.713379,0.345703,0
47160,0.478516,-0.728027,0.328125,0
47180,0.500977,-0.725586,0.332031,0
47200,0.497559,-0.721191,0.35498,0
47220,0.465332,-0.720215,0.348633,0
47240,0.473145,-0.73584,0.328125,0
47260,0.515137,-0.744141,0.341309,0
47280,0.500977,-0.750977,0.359863,0
47300,0.468262,-0.746582,0.335449,0
47320,0.494141,-0.751953,0.307617,0
47340,0.521484,-0.745117,0.316406,0
47360,0.493164,-0.743164,0.32373,0
47380,0.481934,-0.758789,0.320312,0
47400,0.475586,-0.756836,0.316406,0
47420,0.477051,-0.758789,0.310059,0
47440,0.495605,-0.770508,0.325684,0
47460,0.48291,-0.764648,0.320312,0
47480,0.460449,-0.743164,0.288574,0
47500,0.473145,-0.748535,0.269043,0
47520,0.48291,-0.75293,0.282227,0
47540,0.484863,-0.765137,0.296875,0
47560,0.464355,-0.758789,0.285645,0
47580,0.466309,-0.733887,0.274414,0
47600,0.491699,-0.746582,0.267578,0
47620,0.490234,-0.768555,0.289551,0
47640,0.449219,-0.771484,0.275391,0
47660,0.473145,-0.775879,0.275879,0
47680,0.502441,-0.78125,0.288086,0
47690,0.469238,-0.780273,0.277344,0
47710,0.462402,-0.785156,0.262207,0
47730,0.470215,-0.800781,0.273926,0
47750,0.454102,-0.799805,0.280273,0
47770,0.448242,-0.79541,0.254883,0
47790,0.490234,-0.803223,0.235352,0
47810,0.478516,-0.809082,0.257812,0
47830,0.435547,-0.820312,0.244629,0
47850,0.441406,-0.834473,0.217285,0
47870,0.461914,-0.828613,0.223633,0
47890,0.452637,-0.822266,0.236816,0
47910,0.416016,-0.808594,0.224121,0
47930,0.421387,-0.814453,0.207031,0
47950,0.437012,-0.824219,0.211426,0
47970,0.432129,-0.827637,0.20459,0
47990,0.431641,-0.820312,0.192871,0
48010,0.456543,-0.8125,0.1875,0
48030,0.453125,-0.8125,0.196777,0
48050,0.429688,-0.805176,0.164551,0
48070,0.460449,-0.814941,0.150391,0
48090,0.49707,-0.823242,0.149414,0
48110,0.465332,-0.82373,0.162598,0
48130,0.443848,-0.809082,0.157227,0
48150,0.475098,-0.804688,0.144043,0
48170,0.48584,-0.80127,0.156738,0
48190,0.472168,-0.807617,0.164062,0
48210,0.477539,-0.804688,0.137695,0
48230,0.502441,-0.811035,0.131348,0
48250,0.504395,-0.812012,0.138672,0
48270,0.48877,-0.79248,0.124023,0
48290,0.53125,-0.810547,0.106934,0
48310,0.550293,-0.82373,0.127441,0
48330,0.539062,-0.813965,0.12207,0
48350,0.544434,-0.817871,0.118652,0
48370,0.55957,-0.812988,0.102539,0
48390,0.572754,-0.798828,0.10791,0
48410,0.562012,-0.786621,0.116211,0
48430,0.550293,-0.803711,0.121582,0
48450,0.563477,-0.813965,0.111328,0
48470,0.579102,-0.803223,0.0786133,0
48490,0.617188,-0.805664,0.0766602,0
48510,0.608887,-0.793945,0.0825195,0
48530,0.592285,-0.77832,0.0756836,0
48550,0.603516,-0.774414,0.0566406,0
48570,0.623047,-0.782227,0.065918,0
48590,0.615723,-0.775879,0.0625,0
48610,0.599609,-0.775391,0.0493164,0
48630,0.597168,-0.777832,0.0405273,0
48650,0.599121,-0.765625,0.0332031,0
48670,0.588379,-0.763184,0.0336914,0
48690,0.596191,-0.759766,0.0356445,0
48710,0.605469,-0.75293,0.0214844,0
48730,0.598633,-0.748535,0.00976562,0
48750,0.609375,-0.757812,0.0224609,0
48770,0.616699,-0.759766,0.0336914,0
48790,0.614258,-0.736328,0.0253906,0
48810,0.612305,-0.722656,-0.00683594,0
48830,0.636719,-0.717773,-0.00341797,0
48850,0.641602,-0.747559,0.0234375,0
48870,0.638672,-0.750488,0.0327148,0
48890,0.650391,-0.744629,0.0263672,0
48910,0.678223,-0.705078,0.0175781,0
48930,0.673828,-0.701172,0.00683594,0
48950,0.679199,-0.712402,0.0214844,0
48970,0.691406,-0.71875,0.0292969,0
48990,0.696777,-0.694336,0.0288086,0
49010,0.710449,-0.680664,0.0244141,0
49030,0.720703,-0.658691,0.0146484,0
49050,0.724609,-0.661133,0.0244141,0
49070,0.70459,-0.65918,0.046875,0
49090,0.698242,-0.634766,0.0229492,0
49110,0.729492,-0.626465,0.00292969,0
49130,0.743164,-0.61377,0.03125,0
49150,0.738281,-0.619629,0.046875,0
49170,0.724609,-0.606445,0.0244141,0
49190,0.742188,-0.602051,0.0200195,0
49210,0.750488,-0.60791,0.0483398,0
49220,0.744141,-0.606934,0.065918,0
49240,0.75,-0.59668,0.0229492,0
49260,0.76709,-0.589355,0.0200195,0
49280,0.769531,-0.572754,0.0541992,0
49300,0.754395,-0.584473,0.0556641,0
49320,0.774902,-0.596191,0.0419922,0
49340,0.791992,-0.585938,0.043457,0
49360,0.789062,-0.562012,0.065918,0
49380,0.779297,-0.560547,0.0688477,0
49400,0.790039,-0.565918,0.0517578,0
49420,0.809082,-0.571289,0.0532227,0
49440,0.78418,-0.549316,0.0888672,0
49460,0.780762,-0.53418,0.0859375,0
49480,0.800293,-0.544434,0.0664062,0
49500,0.817383,-0.547852,0.0732422,0
49520,0.816406,-0.525391,0.102051,0
49540,0.817871,-0.527344,0.110352,0
49560,0.799316,-0.52002,0.106934,0
49580,0.802734,-0.502441,0.0874023,0
49600,0.81543,-0.506348,0.0913086,0
49620,0.808594,-0.52002,0.12793,0
49640,0.814941,-0.502441,0.134277,0
49660,0.820801,-0.498535,0.120605,0
49680,0.820801,-0.493164,0.119141,0
49700,0.813477,-0.493164,0.151367,0
49720,0.816895,-0.503418,0.155762,0
49740,0.823242,-0.492676,0.137207,0
49760,0.816895,-0.487305,0.145508,0
49780,0.80127,-0.47168,0.148926,0
49800,0.794434,-0.48584,0.168945,0
49820,0.820312,-0.489746,0.15918,0
49840,0.834961,-0.485352,0.169434,0
49860,0.825684,-0.481934,0.18457,0
49880,0.825684,-0.48584,0.17627,0
49900,0.82373,-0.499023,0.18457,0
49920,0.805176,-0.491211,0.204102,0
49940,0.789062,-0.482422,0.217773,0
49960,0.794434,-0.469727,0.186523,0
49980,0.806152,-0.472656,0.180176,0
50000,0.805176,-0.48877,0.191895,0
50020,0.786621,-0.510254,0.227051,0
50040,0.779297,-0.506836,0.230957,0
50060,0.793457,-0.491699,0.20752,0
50080,0.800781,-0.476074,0.202148,0
50100,0.78418,-0.490234,0.232422,0
50120,0.743164,-0.51123,0.256836,0
50140,0.762207,-0.516113,0.240723,0
50160,0.785645,-0.497559,0.22168,0
50180,0.785645,-0.490234,0.241699,0
50200,0.753906,-0.501465,0.252441,0
50220,0.739746,-0.52002,0.234375,0
50240,0.761719,-0.520508,0.254395,0
50260,0.754395,-0.508301,0.270508,0
50280,0.733887,-0.504883,0.264648,0
50300,0.742188,-0.520508,0.263184,0
50320,0.737305,-0.533203,0.279785,0
50340,0.710449,-0.53125,0.300781,0
50360,0.700684,-0.508789,0.27832,0
50380,0.737793,-0.512207,0.267578,0
50400,0.749512,-0.535156,0.305176,0
50420,0.726074,-0.550781,0.318848,0
50440,0.70459,-0.554199,0.266602,0
50460,0.725586,-0.540039,0.264648,0
50480,0.741699,-0.536133,0.289062,0
50500,0.72998,-0.550293,0.30127,0
50520,0.68457,-0.580566,0.295898,0
50540,0.651367,-0.566895,0.290527,0
50560,0.691895,-0.56543,0.258301,0
50580,0.723633,-0.567871,0.287598,0
50600,0.676758,-0.571289,0.293945,0
50620,0.630371,-0.575195,0.256348,0
50640,0.694824,-0.583008,0.229004,0
50660,0.743164,-0.572754,0.244141,0
50680,0.705078,-0.558594,0.27002,0
50700,0.673828,-0.580078,0.270996,0
50720,0.692383,-0.595215,0.261719,0
50740,0.722656,-0.608398,0.231934,0
50760,0.70752,-0.597168,0.26709,0
50780,0.67041,-0.578125,0.276367,0
50800,0.678711,-0.591309,0.27002,0
50820,0.706543,-0.614258,0.268555,0
50840,0.697754,-0.619629,0.272949,0
50860,0.683594,-0.625488,0.25,0
50880,0.680176,-0.607422,0.23291,0
50900,0.696289,-0.606445,0.24707,0
50920,0.695312,-0.624023,0.270996,0
50940,0.677734,-0.633789,0.251465,0
50960,0.663574,-0.617676,0.232422,0
50980,0.687012,-0.615723,0.237305,0
51000,0.69873,-0.617188,0.26123,0
51020,0.674805,-0.62793,0.266602,0
51040,0.649414,-0.637207,0.246582,0
51060,0.652344,-0.644531,0.223145,0
51080,0.668945,-0.651367,0.240723,0
51100,0.675293,-0.645996,0.235352,0
51120,0.668457,-0.631348,0.233398,0
51140,0.630859,-0.637207,0.248047,0
51160,0.627441,-0.660156,0.234863,0
51180,0.645508,-0.669434,0.249512,0
51200,0.646484,-0.658691,0.246094,0
51220,0.643066,-0.660645,0.226562,0
51240,0.628418,-0.65332,0.234375,0
51260,0.611816,-0.648926,0.226074,0
51280,0.629395,-0.672363,0.213867,0
51300,0.643555,-0.686035,0.217773,0
51320,0.619141,-0.678223,0.228027,0
51340,0.618652,-0.663086,0.206543,0
51360,0.652344,-0.66748,0.195801,0
51380,0.650391,-0.685547,0.219238,0
51400,0.614746,-0.69873,0.219238,0
51420,0.616211,-0.709961,0.212402,0
51440,0.650879,-0.706055,0.207031,0
51460,0.656738,-0.689453,0.214355,0
51480,0.633301,-0.685059,0.196289,0
51500,0.619629,-0.705078,0.187988,0
51520,0.623047,-0.725098,0.183105,0
51540,0.638184,-0.724121,0.19043,0
51560,0.643066,-0.718262,0.190918,0
51580,0.62207,-0.702637,0.186523,0
51600,0.611816,-0.703125,0.177246,0
51620,0.611816,-0.708008,0.165039,0
51640,0.609863,-0.719238,0.171387,0
51660,0.607422,-0.714844,0.168945,0
51680,0.599121,-0.705566,0.150391,0
51700,0.611816,-0.695801,0.145508,0
51720,0.626953,-0.704102,0.155273,0
51740,0.611328,-0.724121,0.146973,0
51760,0.591309,-0.729004,0.140625,0
51780,0.615234,-0.714844,0.13916,0
51800,0.619629,-0.700684,0.117188,0
51810,0.621094,-0.703125,0.121094,0
51830,0.617188,-0.72168,0.112793,0
51850,0.634277,-0.74707,0.115723,0
51870,0.649414,-0.749512,0.120117,0
51890,0.635254,-0.739746,0.122559,0
51910,0.628418,-0.720703,0.104004,0
51930,0.638184,-0.733887,0.100098,0
51950,0.623535,-0.744629,0.106934,0
51970,0.61377,-0.770996,0.105469,0
51990,0.618164,-0.765625,0.100586,0
52010,0.616211,-0.745605,0.0766602,0
52030,0.605957,-0.738281,0.078125,0
52050,0.592285,-0.744629,0.0864258,0
52070,0.594238,-0.745605,0.0791016,0
52090,0.597656,-0.763184,0.0703125,0
52110,0.589844,-0.754395,0.0610352,0
52130,0.589844,-0.746582,0.0424805,0
52150,0.616699,-0.743652,0.0454102,0
52170,0.620605,-0.751465,0.0532227,0
52190,0.602539,-0.746582,0.0327148,0
52210,0.588867,-0.740723,0.0175781,0
52230,0.603027,-0.731934,0.0209961,0
52250,0.614258,-0.723145,0.015625,0
52270,0.61377,-0.734375,0.00634766,0
52290,0.610352,-0.731445,-0.0078125,0
52310,0.618164,-0.742188,-0.0112305,0
52330,0.628418,-0.742188,-0.00341797,0
52350,0.640625,-0.73291,-0.0180664,0
52370,0.663574,-0.727051,-0.0263672,0
52390,0.671875,-0.719238,-0.0297852,0
52410,0.680664,-0.720215,-0.027832,0
52430,0.682617,-0.716309,-0.0302734,0
52450,0.6875,-0.715332,-0.0532227,0
52470,0.719727,-0.71875,-0.0791016,0
52490,0.738281,-0.717773,-0.0664062,0
52510,0.708008,-0.687988,-0.0776367,0
52530,0.696777,-0.681641,-0.0864258,0
52550,0.722656,-0.691406,-0.0708008,0
52570,0.728027,-0.715332,-0.0732422,0
52590,0.687988,-0.693359,-0.104492,0
52610,0.706055,-0.64502,-0.133301,0
52630,0.731934,-0.589844,-0.0864258,0
52650,0.705566,-0.571777,-0.101562,0
52670,0.708984,-0.647949,-0.103516,0
52690,0.733398,-0.692383,-0.078125,0
52710,0.73877,-0.655762,-0.0844727,0
52730,0.744141,-0.594727,-0.125488,0
52750,0.795898,-0.583496,-0.135742,0
52770,0.817383,-0.607422,-0.0927734,0
52790,0.777344,-0.621094,-0.0800781,0
52810,0.748047,-0.619629,-0.100098,0
52830,0.750977,-0.607422,-0.120605,0
52850,0.774414,-0.616699,-0.132812,0
52870,0.753418,-0.626953,-0.0996094,0
52890,0.717773,-0.629395,-0.142578,0
52910,0.745605,-0.627441,-0.151855,0
52930,0.75,-0.621582,-0.123047,0
52950,0.734375,-0.620117,-0.102539,0
52970,0.730957,-0.631836,-0.128906,0
52990,0.780762,-0.624023,-0.181152,0
53010,0.820801,-0.633789,-0.127441,0
53030,0.788086,-0.601562,-0.090332,0
53050,0.76709,-0.600098,-0.112305,0
53070,0.817383,-0.600098,-0.132812,0
53090,0.827637,-0.572754,-0.147949,0
53110,0.792969,-0.545898,-0.118652,0
53130,0.780273,-0.539551,-0.0917969,0
53150,0.772949,-0.545898,-0.0766602,0
53170,0.751465,-0.553223,-0.0849609,0
53190,0.775879,-0.561523,-0.122559,0
53210,0.805664,-0.543945,-0.125,0
53230,0.798828,-0.529785,-0.0996094,0
53250,0.794434,-0.53125,-0.0761719,0
53270,0.794922,-0.564453,-0.0756836,0
53290,0.791504,-0.57666,-0.0820312,0
53310,0.793945,-0.553711,-0.0922852,0
53330,0.818359,-0.524414,-0.0908203,0
53350,0.84082,-0.511719,-0.0805664,0
53370,0.822754,-0.501953,-0.0625,0
53390,0.796875,-0.519043,-0.0561523,0
53410,0.834473,-0.511719,-0.0712891,0
53430,0.866211,-0.492676,-0.0595703,0
53450,0.854004,-0.460449,-0.0361328,0
53470,0.836914,-0.470703,-0.0390625,0
53490,0.85498,-0.488281,-0.03125,0
53510,0.862793,-0.480469,-0.00683594,0
53530,0.866211,-0.452148,-0.00732422,0
53550,0.875488,-0.442383,-0.00683594,0
53570,0.882324,-0.452148,0.00537109,0
53590,0.86084,-0.473633,0.00830078,0
53610,0.855469,-0.461426,0,0
53630,0.877441,-0.446289,0.015625,0
53650,0.865723,-0.431641,0.03125,0
53670,0.836426,-0.415527,0.0283203,0
53690,0.840332,-0.430176,0.0229492,0
53710,0.849121,-0.432617,0.0283203,0
53730,0.864746,-0.424316,0.0605469,0
53750,0.875977,-0.422363,0.0649414,0
53770,0.865723,-0.413574,0.0600586,0
53790,0.858887,-0.406738,0.0708008,0
53810,0.854004,-0.43457,0.0859375,0
53830,0.85498,-0.449219,0.106934,0
53850,0.867676,-0.416504,0.0957031,0
53870,0.881348,-0.405762,0.0947266,0
53890,0.861328,-0.424316,0.102539,0
53910,0.833496,-0.432129,0.114258,0
53930,0.851074,-0.433105,0.110352,0
53950,0.881348,-0.419922,0.111328,0
53970,0.882324,-0.394043,0.130371,0
53980,0.817871,-0.415039,0.137207,0
54000,0.838379,-0.432129,0.151367,0
54010,0.849609,-0.41748,0.156738,0
54020,0.834473,-0.40625,0.158691,0
54040,0.824219,-0.416504,0.166992,0
54060,0.825684,-0.428711,0.174316,0
54080,0.827148,-0.437012,0.179199,0
54100,0.836914,-0.435547,0.173828,0
54120,0.856934,-0.439453,0.174316,0
54140,0.869141,-0.445801,0.184082,0
54160,0.861816,-0.467773,0.201172,0
54180,0.812988,-0.453125,0.192383,0
54200,0.796875,-0.441895,0.185547,0
54220,0.811523,-0.458008,0.202148,0
54240,0.803711,-0.461426,0.221191,0
54260,0.794434,-0.462402,0.234863,0
54280,0.78125,-0.474609,0.233398,0
54300,0.79248,-0.489258,0.241211,0
54310,0.800781,-0.48877,0.253418,0
54330,0.791016,-0.516602,0.241699,0
54350,0.772461,-0.510742,0.246094,0
54370,0.768066,-0.50293,0.243652,0
54390,0.782227,-0.5,0.260742,0
54410,0.785645,-0.500977,0.249023,0
54430,0.788574,-0.515137,0.258301,0
54450,0.773926,-0.526855,0.263672,0
54470,0.741211,-0.530762,0.272461,0
54490,0.727051,-0.528809,0.258301,0
54510,0.723633,-0.533691,0.25,0
54530,0.723633,-0.524414,0.249023,0
54550,0.708008,-0.520996,0.26123,0
54570,0.708496,-0.525391,0.256348,0
54590,0.715332,-0.54834,0.249512,0
54610,0.725098,-0.535156,0.247559,0
54630,0.737793,-0.526367,0.241699,0
54650,0.749023,-0.518555,0.240234,0
54670,0.713867,-0.530762,0.230957,0
54690,0.707031,-0.540527,0.227539,0
54710,0.768555,-0.54834,0.228027,0
54730,0.797363,-0.552246,0.238281,0
54750,0.770508,-0.55957,0.22998,0
54770,0.724121,-0.561035,0.219238,0
54790,0.737793,-0.578125,0.209961,0
54810,0.770996,-0.578125,0.228516,0
54830,0.772461,-0.585449,0.228516,0
54850,0.733398,-0.590332,0.216797,0
54870,0.708984,-0.567383,0.188477,0
54890,0.704102,-0.5625,0.187988,0
54910,0.709961,-0.578125,0.216309,0
54930,0.693359,-0.591797,0.219727,0
54950,0.675781,-0.597656,0.193359,0
54970,0.709961,-0.601074,0.200195,0
54990,0.726074,-0.606934,0.200195,0
55010,0.693848,-0.60791,0.206055,0
55030,0.675293,-0.605469,0.179688,0
55050,0.725586,-0.595703,0.179199,0
55070,0.752441,-0.583008,0.19043,0
55090,0.704102,-0.598633,0.195801,0
55110,0.679688,-0.630859,0.188477,0
55130,0.712402,-0.644043,0.179688,0
55150,0.732422,-0.618164,0.1875,0
55170,0.70459,-0.598145,0.178223,0
55190,0.673828,-0.59668,0.178223,0
55210,0.677246,-0.605469,0.157715,0
55230,0.71582,-0.641113,0.16748,0
55250,0.727539,-0.657227,0.188965,0
55270,0.713867,-0.645508,0.164551,0
55290,0.695801,-0.627441,0.146973,0
55310,0.70459,-0.629395,0.160645,0
55330,0.710449,-0.658203,0.163086,0
55350,0.682129,-0.666992,0.175781,0
55370,0.663574,-0.663086,0.164062,0
55390,0.67627,-0.651855,0.143555,0
55410,0.71582,-0.660645,0.157227,0
55430,0.717773,-0.667969,0.161621,0
55450,0.677246,-0.66748,0.157227,0
55470,0.626465,-0.641602,0.152344,0
55490,0.643066,-0.634277,0.139648,0
55510,0.710938,-0.669922,0.161621,0
55530,0.705078,-0.678711,0.170898,0
55550,0.647461,-0.67041,0.143555,0
55570,0.663574,-0.65332,0.123535,0
55590,0.691406,-0.683594,0.157715,0
55610,0.662598,-0.681152,0.141602,0
55630,0.650391,-0.694336,0.112793,0
55650,0.664062,-0.693848,0.111816,0
55670,0.665039,-0.673828,0.11084,0
55690,0.645996,-0.68457,0.106445,0
55710,0.631836,-0.706543,0.106445,0
55730,0.625488,-0.706543,0.108887,0
55750,0.62207,-0.699219,0.0932617,0
55770,0.648926,-0.694336,0.0893555,0
55790,0.651855,-0.685059,0.0825195,0
55810,0.618652,-0.71875,0.0825195,0
55830,0.621094,-0.717773,0.0664062,0
55850,0.659668,-0.708008,0.0688477,0
55870,0.659668,-0.690918,0.078125,0
55890,0.653809,-0.69873,0.065918,0
55910,0.677734,-0.709473,0.0722656,0
55930,0.672363,-0.712891,0.0737305,0
55950,0.668945,-0.710938,0.0693359,0
55970,0.677734,-0.697754,0.0634766,0
55990,0.686035,-0.694336,0.0615234,0
56010,0.672363,-0.696289,0.0644531,0
56030,0.66748,-0.704102,0.0556641,0
56050,0.681152,-0.711914,0.0546875,0
56070,0.686523,-0.700684,0.0644531,0
56090,0.660156,-0.677246,0.050293,0
56110,0.655762,-0.677734,0.0424805,0
56130,0.691895,-0.687012,0.050293,0
56150,0.678711,-0.703613,0.0478516,0
56170,0.657227,-0.708984,0.0341797,0
56190,0.681641,-0.693359,0.0332031,0
56210,0.695801,-0.67627,0.03125,0
56230,0.670898,-0.674316,0.0107422,0
56250,0.669922,-0.702148,0.0126953,0
56270,0.690918,-0.708496,0.00878906,0
56290,0.689941,-0.69873,0.00341797,0
56310,0.671875,-0.702637,-0.00683594,0
56330,0.67334,-0.69873,-0.00439453,0
56350,0.679688,-0.706543,-0.00537109,0
56370,0.679688,-0.697266,0.000976562,0
56390,0.669434,-0.687012,-0.00732422,0
56410,0.665527,-0.688965,-0.0131836,0
56430,0.66748,-0.691895,-0.0209961,0
56450,0.687012,-0.688477,-0.0205078,0
56470,0.687012,-0.692383,-0.0268555,0
56490,0.692383,-0.688477,-0.0268555,0
56510,0.681152,-0.686035,-0.0424805,0
56530,0.664062,-0.679688,-0.0620117,0
56550,0.666504,-0.680176,-0.0673828,0
56570,0.695801,-0.677734,-0.0537109,0
56590,0.741211,-0.674805,-0.0517578,0
56610,0.731445,-0.679688,-0.0551758,0
56630,0.70752,-0.695312,-0.0629883,0
56650,0.721191,-0.694336,-0.0703125,0
56670,0.720703,-0.6875,-0.0844727,0
56690,0.72998,-0.67041,-0.0957031,0
56710,0.740234,-0.67334,-0.0942383,0
56730,0.729004,-0.664062,-0.0825195,0
56750,0.726074,-0.664551,-0.106445,0
56770,0.742188,-0.671387,-0.10498,0
56790,0.733887,-0.666992,-0.102051,0
56810,0.726074,-0.660645,-0.10791,0
56830,0.73291,-0.650391,-0.124512,0
56850,0.753418,-0.653809,-0.125977,0
56870,0.744629,-0.648438,-0.137207,0
56890,0.723145,-0.648438,-0.152832,0
56900,0.748535,-0.625,-0.13623,0
56920,0.772461,-0.620605,-0.122559,0
56940,0.764648,-0.623047,-0.150391,0
56960,0.750977,-0.633301,-0.155762,0
56980,0.763184,-0.628418,-0.171875,0
57000,0.760742,-0.613281,-0.164062,0
57020,0.759766,-0.603516,-0.15918,0
57040,0.75,-0.589355,-0.160645,0
57060,0.750977,-0.57373,-0.176758,0
57080,0.76709,-0.593262,-0.177734,0
57100,0.769531,-0.598145,-0.186523,0
57120,0.755371,-0.59082,-0.193848,0
57140,0.753906,-0.589355,-0.193359,0
57160,0.77002,-0.578125,-0.202148,0
57180,0.789062,-0.561035,-0.204102,0
57200,0.79541,-0.56543,-0.188477,0
57220,0.78418,-0.576172,-0.206055,0
57240,0.794434,-0.595703,-0.214844,0
57260,0.804688,-0.576172,-0.200684,0
57280,0.803711,-0.557129,-0.225098,0
57300,0.81543,-0.550781,-0.237793,0
57320,0.804199,-0.55957,-0.231934,0
57340,0.797363,-0.549316,-0.230957,0
57360,0.808105,-0.539062,-0.209473,0
57380,0.799316,-0.535156,-0.193359,0
57400,0.793457,-0.513184,-0.22998,0
57420,0.82666,-0.527832,-0.229492,0
57440,0.817383,-0.511719,-0.219727,0
57460,0.802246,-0.490723,-0.225586,0
57480,0.81543,-0.495605,-0.228516,0
57500,0.830566,-0.493164,-0.215332,0
57520,0.827148,-0.487305,-0.224121,0
57540,0.815918,-0.475098,-0.254883,0
57560,0.843262,-0.469238,-0.264648,0
57580,0.848633,-0.494629,-0.246582,0
57600,0.825195,-0.489258,-0.23291,0
57620,0.821289,-0.458984,-0.241211,0
57640,0.830078,-0.464355,-0.259277,0
57660,0.847656,-0.493164,-0.244141,0
57680,0.831055,-0.51416,-0.233887,0
57700,0.812988,-0.493164,-0.24707,0
57720,0.833496,-0.466309,-0.276367,0
57740,0.848145,-0.463867,-0.261719,0
57760,0.837891,-0.475098,-0.229492,0
57780,0.817383,-0.496582,-0.229492,0
57800,0.819824,-0.48877,-0.234863,0
57820,0.844727,-0.464844,-0.266602,0
57840,0.875488,-0.461426,-0.249023,0
57860,0.869629,-0.453125,-0.231445,0
57880,0.850098,-0.470215,-0.22998,0
57900,0.855957,-0.463867,-0.224121,0
57920,0.86084,-0.457031,-0.236328,0
57940,0.877441,-0.441895,-0.244629,2001
57960,0.871582,-0.443848,-0.262695,0
57980,0.841309,-0.44873,-0.23877,0
58000,0.834961,-0.449219,-0.242188,0
58020,0.855957,-0.427246,-0.23291,0
58040,0.868164,-0.427246,-0.235352,0
58060,0.856934,-0.416992,-0.236328,0
58080,0.832031,-0.427734,-0.227539,0
58100,0.841797,-0.369629,-0.242188,0
58120,0.867676,-0.355957,-0.281738,0
58140,0.820312,-0.476562,-0.20166,0
58160,0.744141,-0.557617,-0.236328,0
58180,0.825684,-0.547363,-0.271973,0
58200,0.862793,-0.397461,-0.286133,0
58220,0.851074,-0.362305,-0.282715,0
58240,0.835449,-0.398438,-0.25,0
58260,0.832031,-0.459961,-0.282227,0
58280,0.844238,-0.452148,-0.278809,0
58300,0.844238,-0.424805,-0.275391,0
58320,0.831543,-0.416992,-0.269531,0
58340,0.812988,-0.442871,-0.249512,0
58360,0.804688,-0.453613,-0.254395,0
58380,0.792969,-0.458496,-0.227051,0
58400,0.769043,-0.452148,-0.212402,0
58420,0.751465,-0.438965,-0.23291,0
58440,0.832031,-0.441895,-0.253418,0
58460,0.899414,-0.454102,-0.233887,0
58480,0.908691,-0.45459,-0.219727,0
58500,0.909668,-0.45752,-0.217285,0
58520,0.879395,-0.481445,-0.181152,0
58540,0.809082,-0.49707,-0.134277,0
58560,0.714355,-0.494141,-0.104492,0
58580,0.661133,-0.500977,-0.126953,0
58600,0.678711,-0.48584,-0.15625,0
58620,0.65332,-0.445801,-0.147461,0
58640,0.60791,-0.416992,-0.126465,0
58660,0.644043,-0.402832,-0.132812,0
58680,0.748047,-0.447754,-0.118652,0
58700,0.736328,-0.468262,-0.0742188,0
58720,0.713867,-0.448242,-0.131348,0
58740,0.802734,-0.438477,-0.195801,0
58760,0.857422,-0.462891,-0.131348,0
58780,0.80127,-0.468262,-0.0532227,0
58800,0.750488,-0.438965,-0.0517578,0
58820,0.785156,-0.429688,-0.081543,0
58840,0.849609,-0.446289,-0.0576172,0
58860,0.821289,-0.462402,0.0219727,0
58880,0.796875,-0.490234,0.0888672,0
58900,0.791992,-0.515137,0.111816,0
58920,0.830566,-0.466309,0.105469,0
58940,0.836914,-0.45459,0.155762,0
58960,0.825684,-0.472168,0.229004,0
58980,0.760254,-0.505859,0.236328,0
59000,0.812988,-0.51709,0.225098,0
59020,0.828125,-0.538574,0.315918,0
59040,0.718262,-0.547852,0.401855,0
59060,0.614746,-0.536133,0.319824,0
59080,0.792969,-0.538086,0.219238,0
59100,0.861816,-0.589844,0.362793,0
59120,0.723145,-0.581055,0.454102,0
59140,0.63623,-0.626465,0.394043,0
59160,0.743164,-0.604492,0.257324,0
59180,0.869141,-0.64209,0.361328,0
59200,0.80957,-0.648926,0.488281,0
59220,0.694336,-0.712402,0.462891,0
59240,0.706543,-0.754395,0.350586,0
59260,0.769043,-0.780273,0.413086,0
59280,0.734375,-0.730469,0.510742,0
59300,0.681641,-0.6875,0.433594,0
59320,0.686523,-0.732422,0.387207,0
59340,0.604004,-0.759277,0.420898,0
59360,0.521484,-0.750488,0.416504,0
59380,0.510254,-0.754883,0.449707,0
59400,0.476562,-0.794434,0.483398,0
59420,0.416504,-0.800293,0.475586,0
59440,0.345215,-0.794434,0.423828,0
59460,0.333984,-0.812988,0.408691,0
59480,0.37793,-0.815918,0.412109,0
59500,0.391113,-0.819336,0.425293,0
59510,0.32959,-0.818848,0.409668,0
59530,0.280273,-0.830078,0.356445,0
59550,0.339355,-0.833008,0.356445,0
59570,0.414062,-0.84082,0.395508,0
59590,0.41748,-0.844238,0.405273,0
59610,0.366211,-0.837891,0.352051,0
59630,0.334473,-0.836914,0.283691,0
59650,0.345703,-0.819336,0.284668,0
59670,0.415527,-0.807129,0.351562,0
59690,0.430664,-0.787598,0.378418,0
59710,0.39209,-0.791504,0.318359,0
59730,0.37793,-0.806641,0.307617,0
59750,0.428711,-0.804688,0.346191,0
59770,0.498047,-0.79248,0.388672,0
59790,0.498047,-0.781738,0.357422,0
59810,0.431152,-0.741699,0.308594,0
59830,0.362305,-0.716797,0.321777,0
59850,0.345215,-0.749023,0.341309,0
59870,0.345703,-0.776855,0.357422,0
59890,0.331055,-0.775879,0.329102,0
59910,0.320801,-0.786133,0.336914,0
59930,0.333984,-0.753418,0.348633,0
59950,0.350586,-0.765625,0.359375,0
59970,0.352539,-0.794922,0.352051,0
59990,0.363281,-0.810059,0.344727,0
60010,0.400879,-0.809082,0.376465,0
60030,0.423828,-0.805664,0.385254,0
60050,0.432617,-0.796387,0.371582,0
60070,0.428711,-0.788574,0.354004,0
60090,0.404785,-0.78418,0.368652,0
60110,0.40918,-0.778809,0.373535,0
60130,0.420898,-0.787109,0.359375,0
60150,0.435547,-0.777344,0.376953,0
60170,0.410156,-0.781738,0.376953,0
60190,0.368652,-0.781738,0.361328,0
60210,0.35791,-0.783203,0.361328,0
60230,0.383789,-0.774414,0.359863,0
60250,0.387695,-0.773438,0.370605,0
60270,0.39209,-0.774414,0.359375,0
60290,0.401855,-0.796387,0.361816,0
60310,0.401855,-0.779297,0.370605,0
60330,0.390137,-0.775879,0.373535,0
60350,0.401855,-0.76709,0.364258,2000
60370,0.410156,-0.794922,0.369629,0
60390,0.388184,-0.793457,0.366211,0
60410,0.364746,-0.770508,0.362793,0
60430,0.374512,-0.782227,0.358398,0
60450,0.393555,-0.790039,0.359863,0
60470,0.382812,-0.779785,0.371582,0
60490,0.366211,-0.782715,0.361328,0
60510,0.376465,-0.782715,0.345703,0
60530,0.388184,-0.784668,0.348145,0
60550,0.399414,-0.787109,0.356934,0
60570,0.406738,-0.791016,0.347656,0
60590,0.419434,-0.785645,0.34375,0
60610,0.416504,-0.79541,0.351074,0
60630,0.392578,-0.795898,0.351562,0
60650,0.378906,-0.79248,0.351562,0
60670,0.383301,-0.795898,0.336914,0
60690,0.390625,-0.791016,0.337891,0
60710,0.395996,-0.795898,0.348633,0
60730,0.393555,-0.789062,0.353027,0
60750,0.383789,-0.791992,0.340332,0
60770,0.387207,-0.793945,0.336914,0
60790,0.407227,-0.789551,0.338867,0
60810,0.422363,-0.784668,0.357422,0
60830,0.416992,-0.789551,0.356445,0
60850,0.402344,-0.801758,0.34082,0
60870,0.398926,-0.796387,0.334961,0
60890,0.415527,-0.792969,0.335449,0
60910,0.401855,-0.787109,0.330566,0
60930,0.389648,-0.781738,0.338379,0
60950,0.398438,-0.786621,0.328125,0
60970,0.438965,-0.795898,0.321777,0
60990,0.441895,-0.79541,0.32666,0
61010,0.416992,-0.786133,0.339355,0
61030,0.421875,-0.796387,0.319824,0
61050,0.456055,-0.802734,0.306641,0
61070,0.435547,-0.79248,0.314941,0
61090,0.419434,-0.784668,0.319824,0
61110,0.429688,-0.780762,0.295898,0
61130,0.46875,-0.790527,0.290039,0
61150,0.47168,-0.77832,0.302246,0
61170,0.449219,-0.768066,0.316406,0
61190,0.452148,-0.76709,0.319824,0
61210,0.466797,-0.798828,0.291504,0
61230,0.476562,-0.779297,0.289062,0
61250,0.469727,-0.771973,0.297363,0
61270,0.474609,-0.766602,0.294434,0
61290,0.496094,-0.783691,0.284668,0
61310,0.480469,-0.784668,0.289551,0
61330,0.445801,-0.789062,0.276855,0
61350,0.454102,-0.78125,0.285156,0
61370,0.469238,-0.771973,0.289551,0
61390,0.460938,-0.771484,0.279297,0
61410,0.450195,-0.770508,0.266602,0
61430,0.449219,-0.795898,0.293945,0
61450,0.458984,-0.778809,0.316895,0
61470,0.447754,-0.780273,0.276855,0
61490,0.469238,-0.78125,0.282715,0
61510,0.478516,-0.787109,0.298828,0
61530,0.458008,-0.777344,0.280762,0
61550,0.45166,-0.79248,0.27832,0
61570,0.469238,-0.78418,0.299316,0
61590,0.46875,-0.790039,0.308105,0
61610,0.47168,-0.787598,0.296387,0
61630,0.476074,-0.798828,0.268066,0
61650,0.486816,-0.782715,0.269531,0
61670,0.484375,-0.765137,0.302246,0
61690,0.458008,-0.766602,0.289551,0
61710,0.454102,-0.777832,0.279297,0
61730,0.470703,-0.771973,0.299805,0
61750,0.484375,-0.774902,0.288086,0
61770,0.499023,-0.763672,0.296387,0
61790,0.477539,-0.757324,0.277832,0
61810,0.464355,-0.761719,0.260254,0
61830,0.495605,-0.768066,0.288086,0
61850,0.493164,-0.779785,0.294922,0
61870,0.466797,-0.758301,0.297363,0
61890,0.491699,-0.771973,0.28418,0
61910,0.520508,-0.772949,0.287598,0
61930,0.512695,-0.773438,0.288086,0
61950,0.492188,-0.743164,0.280273,0
61970,0.499023,-0.746582,0.280762,0
61990,0.514648,-0.755371,0.291504,0
62010,0.538086,-0.757812,0.329102,0
62030,0.526367,-0.743164,0.310547,0
62050,0.520996,-0.733887,0.285156,0
62070,0.523438,-0.728516,0.264648,0
62090,0.522461,-0.728516,0.284668,0
62100,0.516113,-0.746582,0.311523,0
62120,0.507324,-0.750977,0.304199,0
62140,0.531738,-0.741699,0.299805,0
62160,0.533203,-0.736816,0.286133,0
62180,0.532227,-0.728516,0.285156,0
62200,0.536621,-0.734863,0.301758,0
62220,0.524902,-0.72998,0.32373,0
62240,0.525391,-0.739746,0.306641,0
62260,0.530762,-0.736816,0.293457,0
62280,0.52002,-0.730469,0.301758,0
62300,0.518555,-0.726074,0.309082,0
62320,0.534668,-0.743164,0.328125,0
62340,0.533691,-0.728516,0.32373,0
62340,0.535645,-0.720703,0.302734,0
62360,0.54248,-0.716797,0.309082,0
62360,0.541992,-0.720215,0.308594,0
62380,0.547852,-0.710449,0.320312,0
62400,0.554688,-0.70166,0.313965,0
62420,0.558594,-0.689453,0.307129,0
62440,0.542969,-0.693848,0.321777,0
62460,0.542969,-0.70166,0.320312,0
62490,0.546875,-0.699219,0.343262,0
62510,0.553223,-0.695312,0.351074,0
62530,0.54834,-0.704102,0.335449,0
62550,0.555176,-0.702637,0.349121,0
62570,0.555664,-0.701172,0.333008,0
62590,0.559082,-0.687988,0.338379,0
62610,0.566406,-0.692871,0.361328,0
62630,0.550293,-0.681641,0.377441,0
62650,0.547852,-0.690918,0.364258,0
62670,0.55957,-0.688477,0.360352,0
62690,0.57373,-0.672363,0.36084,0
62710,0.583008,-0.664551,0.352051,0
62730,0.597656,-0.669922,0.354004,0
62750,0.589355,-0.665527,0.372559,0
62770,0.578613,-0.662109,0.370117,0
62790,0.591797,-0.649414,0.361816,0
62810,0.601562,-0.634766,0.357422,0
62830,0.608887,-0.633789,0.374512,0
62850,0.598145,-0.631348,0.376953,0
62870,0.604492,-0.632812,0.379395,0
62890,0.614258,-0.627441,0.372559,0
62910,0.614258,-0.614746,0.37793,0
62930,0.620117,-0.623047,0.39502,0
62950,0.603027,-0.617188,0.405273,0
62970,0.600098,-0.616699,0.393066,0
62990,0.615234,-0.616699,0.375977,0
63010,0.617676,-0.608887,0.395996,0
63030,0.605469,-0.602051,0.40918,0
63050,0.617188,-0.60791,0.411621,0
63070,0.616699,-0.619141,0.416016,0
63090,0.599609,-0.596191,0.401855,0
63110,0.604492,-0.589844,0.385742,0
63130,0.619629,-0.589355,0.397461,0
63150,0.627441,-0.594238,0.397461,0
63170,0.635254,-0.613281,0.376953,0
63190,0.624023,-0.614746,0.399414,0
63210,0.600586,-0.597168,0.405762,0
63230,0.59375,-0.603027,0.403809,0
63250,0.602539,-0.601074,0.380371,0
63270,0.604004,-0.601074,0.378906,0
63290,0.617676,-0.600098,0.377441,0
63310,0.614746,-0.600586,0.380859,0
63330,0.605957,-0.609375,0.375488,0
63350,0.612793,-0.620117,0.381348,0
63370,0.598145,-0.62207,0.394043,0
63390,0.58252,-0.625,0.391602,0
63410,0.591797,-0.623047,0.369629,0
63430,0.591309,-0.624023,0.37793,0
63450,0.598633,-0.633789,0.395508,0
63470,0.609863,-0.637695,0.393066,0
63490,0.597656,-0.625977,0.393066,0
63510,0.579102,-0.602051,0.369629,0
63530,0.582031,-0.603516,0.370605,0
63550,0.598633,-0.616699,0.376465,0
63570,0.597656,-0.641113,0.381348,0
63590,0.594727,-0.623047,0.380371,0
63610,0.585449,-0.620605,0.374512,0
63630,0.592285,-0.620605,0.370605,0
63650,0.602539,-0.635254,0.382324,0
63670,0.591797,-0.644531,0.390137,0
63690,0.568359,-0.633301,0.407715,0
63710,0.559082,-0.634277,0.38916,0
63730,0.55957,-0.664062,0.397461,0
63750,0.556641,-0.65332,0.381836,0
63770,0.54834,-0.63623,0.382324,0
63790,0.540039,-0.625,0.390137,0
63810,0.538086,-0.623047,0.387695,0
63830,0.563965,-0.648926,0.376953,0
63850,0.578125,-0.653809,0.377441,0
63870,0.570801,-0.641602,0.378418,0
63890,0.55127,-0.635742,0.380859,0
63910,0.56543,-0.658691,0.374512,0
63930,0.591797,-0.662598,0.370605,0
63950,0.595703,-0.671387,0.384277,0
63970,0.575684,-0.663086,0.367676,0
63990,0.545898,-0.667969,0.361816,0
64010,0.558594,-0.676758,0.369141,0
64030,0.574219,-0.676758,0.381348,0
64050,0.557129,-0.67334,0.360352,0
64070,0.535156,-0.683594,0.360352,0
64090,0.535156,-0.696289,0.38623,0
64110,0.536621,-0.692871,0.37207,0
64130,0.537109,-0.671875,0.352539,0
64150,0.52002,-0.681641,0.387695,0
64170,0.505859,-0.692871,0.388184,0
64190,0.529297,-0.692383,0.350098,0
64210,0.54834,-0.70166,0.371582,0
64230,0.508789,-0.688477,0.397461,0
64250,0.480469,-0.696777,0.385742,0
64270,0.479004,-0.705566,0.384766,0
64290,0.47998,-0.706543,0.368164,0
64310,0.525391,-0.702637,0.375488,0
64330,0.529785,-0.696289,0.379883,0
64350,0.473145,-0.682129,0.362305,0
64370,0.479004,-0.696777,0.355469,0
64390,0.539551,-0.711914,0.357422,0
64410,0.550293,-0.710449,0.36377,0
64430,0.527344,-0.712402,0.372559,0
64450,0.519043,-0.72168,0.345215,0
64470,0.537598,-0.723145,0.355469,0
64490,0.539062,-0.706543,0.360352,0
64510,0.504395,-0.700195,0.343262,0
64530,0.501953,-0.706055,0.336426,0
64550,0.505859,-0.710449,0.345215,0
64570,0.498535,-0.702637,0.345703,0
64590,0.491699,-0.696289,0.329102,0
64610,0.499512,-0.699707,0.346191,0
64620,0.507812,-0.71875,0.350586,0
64640,0.5,-0.724609,0.344727,0
64660,0.507812,-0.730469,0.320801,0
64680,0.523926,-0.724609,0.316406,0
64700,0.515625,-0.719727,0.328613,0
64720,0.503418,-0.727539,0.331055,0
64740,0.49707,-0.741211,0.337402,0
64760,0.495605,-0.745605,0.307617,0
64780,0.512207,-0.744141,0.310547,0
64800,0.510742,-0.743164,0.335938,0
64820,0.507324,-0.750488,0.325684,0
64840,0.501953,-0.750977,0.30957,0
64860,0.499023,-0.754883,0.285156,0
64880,0.516602,-0.770508,0.297363,0
64900,0.507324,-0.769043,0.307617,0
64920,0.476074,-0.737793,0.29541,0
64940,0.492676,-0.739746,0.275391,0
64960,0.530273,-0.758301,0.291992,0
64980,0.510254,-0.760254,0.290527,0
65000,0.502441,-0.755859,0.283691,0
65020,0.51416,-0.756836,0.280273,0
65040,0.51416,-0.736816,0.280273,0
65060,0.50293,-0.750488,0.271973,0
65080,0.496582,-0.772949,0.274414,0
65100,0.509277,-0.756348,0.259766,0
65120,0.530273,-0.752441,0.264648,0
65140,0.515625,-0.749512,0.270508,0
65160,0.489746,-0.763184,0.256348,0
65180,0.517578,-0.770508,0.254395,0
65200,0.53418,-0.771973,0.253906,0
65220,0.509766,-0.765137,0.245605,0
65240,0.496094,-0.758789,0.239258,0
65260,0.511719,-0.769043,0.22168,0
65280,0.530273,-0.785645,0.226074,0
65300,0.502441,-0.789551,0.248535,0
65320,0.474609,-0.770508,0.229492,0
65340,0.483398,-0.770996,0.192871,0
65360,0.508789,-0.783691,0.206543,0
65380,0.504883,-0.78418,0.209473,0
65400,0.502441,-0.769531,0.197754,0
65420,0.51123,-0.776855,0.206055,0
65440,0.498047,-0.775879,0.202148,0
65460,0.498535,-0.774414,0.187988,0
65470,0.513184,-0.76709,0.191406,0
65490,0.51416,-0.772461,0.193848,0
65510,0.513672,-0.787598,0.187012,0
65530,0.526367,-0.79248,0.180176,0
65550,0.526855,-0.789062,0.206543,0
65570,0.504395,-0.774902,0.196289,0
65590,0.5,-0.788574,0.165527,0
65610,0.534668,-0.796387,0.166504,0
65630,0.538086,-0.782227,0.186035,0
65650,0.504883,-0.776367,0.155273,0
65670,0.516602,-0.793457,0.134277,0
65690,0.547363,-0.807129,0.143555,0
65710,0.557617,-0.807617,0.17334,0
65730,0.544434,-0.796387,0.169922,0
65750,0.548828,-0.790039,0.132324,0
65770,0.567383,-0.797852,0.13916,0
65790,0.546875,-0.796387,0.128906,0
65810,0.563965,-0.788086,0.12207,0
65830,0.599121,-0.791016,0.117676,0
65850,0.58252,-0.785645,0.134277,0
65870,0.556641,-0.779297,0.115234,0
65890,0.58252,-0.783203,0.0961914,0
65910,0.608398,-0.772949,0.0927734,0
65930,0.598145,-0.765625,0.101562,0
65950,0.583984,-0.756836,0.104492,0
65970,0.578613,-0.760254,0.0898438,0
65990,0.571777,-0.745117,0.0717773,0
66010,0.591797,-0.750977,0.0786133,0
66030,0.603516,-0.739746,0.0893555,0
66050,0.594727,-0.728027,0.0732422,0
66070,0.614746,-0.73291,0.0698242,0
66090,0.641602,-0.746582,0.046875,0
66110,0.644531,-0.729004,0.0668945,0
66130,0.615234,-0.726562,0.0756836,0
66150,0.624023,-0.726562,0.0551758,0
66170,0.657715,-0.737305,0.0483398,0
66190,0.668945,-0.740234,0.0595703,0
66210,0.632324,-0.72998,0.0566406,0
66230,0.62207,-0.722168,0.0429688,0
66250,0.648438,-0.71875,0.0390625,0
66270,0.651855,-0.718262,0.0493164,0
66290,0.648926,-0.725098,0.0439453,0
66310,0.656738,-0.723145,0.0234375,0
66330,0.681641,-0.714355,0.0336914,0
66350,0.665039,-0.713867,0.0449219,0
66370,0.666504,-0.716797,0.0395508,0
66390,0.682617,-0.714844,0.0292969,0
66410,0.711426,-0.706543,0.0317383,0
