Timestamp, Acceleration x, Acceleration y, Acceleration z, Marker
60,-0.327148,-0.758789,0.5,0
80,-0.304688,-0.762207,0.491211,0
100,-0.283691,-0.763184,0.495117,0
120,-0.276855,-0.764648,0.521484,0
140,-0.286133,-0.750488,0.521973,0
150,-0.299805,-0.750977,0.554199,0
170,-0.307129,-0.760254,0.562988,0
190,-0.304199,-0.771484,0.553223,0
210,-0.300293,-0.759766,0.529785,0
210,-0.296387,-0.729492,0.536133,0
250,-0.321777,-0.718262,0.541016,0
270,-0.323242,-0.771484,0.559082,0
290,-0.301758,-0.772461,0.525879,0
300,-0.282227,-0.743164,0.521973,0
320,-0.290527,-0.731445,0.540527,0
340,-0.311035,-0.758301,0.54248,0
360,-0.326172,-0.793945,0.540039,0
370,-0.294922,-0.749023,0.530762,0
400,-0.35498,-0.76123,0.503418,0
420,-0.315918,-0.811523,0.536133,0
420,-0.259766,-0.79248,0.558594,0
440,-0.251465,-0.835938,0.616211,0
450,-0.246094,-0.89502,0.626465,0
470,-0.288574,-0.874023,0.612793,0
490,-0.235352,-0.92041,0.651367,0
510,-0.150391,-0.954102,0.643555,0
530,-0.155273,-0.901855,0.604004,0
550,-0.150879,-0.763672,0.597168,0
570,-0.154785,-0.770508,0.563477,0
590,-0.19043,-0.850586,0.541504,0
610,-0.133301,-0.8125,0.521973,0
630,-0.130371,-0.733398,0.506348,0
650,-0.138672,-0.696777,0.502441,0
670,-0.106445,-0.707031,0.512695,0
680,-0.100586,-0.671387,0.493652,0
700,-0.108398,-0.651367,0.491699,0
720,-0.0244141,-0.693359,0.597656,0
740,0.0209961,-0.600586,0.615234,0
760,-0.0830078,-0.549316,0.518066,0
780,-0.158691,-0.590332,0.469238,0
800,-0.0175781,-0.687012,0.508789,0
820,0.0673828,-0.650879,0.499023,0
840,-0.0205078,-0.569336,0.347656,0
860,0.0341797,-0.644043,0.310547,0
880,0.0908203,-0.708008,0.338867,0
900,0.0341797,-0.76709,0.365234,0
920,0.0180664,-0.929199,0.344238,0
940,0.0205078,-0.950684,0.387695,0
960,-0.0141602,-0.866699,0.452637,0
980,-0.0732422,-0.869629,0.441406,0
1000,-0.108398,-0.973145,0.539551,0
1020,-0.144531,-1.00977,0.628418,0
1040,-0.179688,-0.996094,0.673828,0
1060,-0.196777,-0.909668,0.644043,0
1080,-0.200195,-0.866211,0.633789,0
1100,-0.158691,-0.843262,0.625977,0
1120,-0.150879,-0.78418,0.625488,0
1130,-0.143555,-0.696777,0.593262,0
1130,-0.169434,-0.691895,0.618652,0
1150,-0.18457,-0.708496,0.603516,0
1150,-0.175293,-0.719727,0.609375,0
1170,-0.169434,-0.729004,0.605957,0
1190,-0.174316,-0.78125,0.559082,0
1210,-0.175293,-0.778809,0.550293,0
1230,-0.15332,-0.773438,0.526367,0
1250,-0.130371,-0.755859,0.511719,0
1310,-0.168457,-0.729004,0.628906,0
1350,-0.193359,-0.787109,0.604004,0
1370,-0.192871,-0.772949,0.60791,0
1390,-0.272461,-0.81543,0.679688,0
1410,-0.360352,-0.834473,0.675293,0
1430,-0.429688,-0.819336,0.641113,0
1450,-0.379395,-0.837402,0.580078,0
1470,-0.364258,-0.739746,0.543457,0
1490,-0.354004,-0.664062,0.544922,0
1510,-0.273438,-0.654785,0.53418,0
1530,-0.27002,-0.639648,0.529297,0
1550,-0.315918,-0.625488,0.57373,0
1570,-0.339355,-0.62793,0.620605,0
1590,-0.335938,-0.6875,0.641602,0
1610,-0.316406,-0.708008,0.627441,0
1630,-0.334473,-0.700684,0.60791,0
1650,-0.337891,-0.726074,0.583008,0
1670,-0.333496,-0.727539,0.529785,0
1690,-0.330566,-0.722656,0.518066,0
1710,-0.333008,-0.700195,0.533691,0
1730,-0.321289,-0.720215,0.542969,0
1750,-0.292969,-0.762207,0.543457,0
1770,-0.284668,-0.781738,0.54834,0
1790,-0.281738,-0.790527,0.565918,0
1810,-0.288086,-0.794434,0.561523,0
1830,-0.290527,-0.782715,0.555664,0
1850,-0.28418,-0.755371,0.551758,0
1870,-0.284668,-0.748047,0.553711,0
1890,-0.288086,-0.73291,0.548828,0
1910,-0.291016,-0.727051,0.55957,0
1930,-0.291504,-0.719238,0.568359,0
1950,-0.29541,-0.722656,0.566406,0
1970,-0.296387,-0.730957,0.552734,0
1990,-0.312012,-0.731445,0.545898,0
2010,-0.319824,-0.736328,0.550293,0
2050,-0.32666,-0.727051,0.539062,0
2100,-0.323242,-0.747559,0.54541,0
2120,-0.32959,-0.725098,0.550293,0
2140,-0.316406,-0.730957,0.545898,0
2160,-0.314453,-0.727051,0.549316,0
2180,-0.311523,-0.729004,0.547852,0
2210,-0.291992,-0.739258,0.54248,0
2230,-0.29248,-0.740234,0.538574,0
2250,-0.287598,-0.744629,0.543457,0
2270,-0.30127,-0.747559,0.544922,0
2310,-0.304199,-0.736328,0.532227,0
2330,-0.314941,-0.737305,0.545898,0
2350,-0.317383,-0.743652,0.561523,0
2370,-0.315918,-0.743164,0.55957,0
2390,-0.3125,-0.737793,0.561523,0
2410,-0.310059,-0.735352,0.560547,0
2430,-0.302734,-0.740234,0.556641,0
2450,-0.299805,-0.734863,0.549805,0
2470,-0.301758,-0.731934,0.553711,0
2490,-0.30127,-0.724121,0.544434,0
2510,-0.300781,-0.718262,0.539062,0
2530,-0.304199,-0.726562,0.544922,0
2550,-0.306152,-0.737305,0.544434,0
2570,-0.312012,-0.745117,0.554688,0
2590,-0.319336,-0.743164,0.554688,0
2610,-0.321289,-0.753418,0.539551,0
2630,-0.317383,-0.742188,0.538086,0
2650,-0.327637,-0.746094,0.536621,0
2670,-0.331543,-0.73291,0.538086,0
2690,-0.326172,-0.727051,0.537109,0
2710,-0.326172,-0.732422,0.536621,0
2730,-0.316406,-0.725098,0.549316,0
2750,-0.313965,-0.726562,0.550781,0
2770,-0.311523,-0.719238,0.559082,0
2790,-0.30957,-0.722168,0.557617,0
2810,-0.304199,-0.727051,0.556641,0
2830,-0.312988,-0.724609,0.553223,0
2860,-0.314941,-0.723633,0.551758,0
2880,-0.320801,-0.724121,0.552734,0
2900,-0.32373,-0.722656,0.553711,0
2910,-0.323242,-0.731445,0.557617,0
2930,-0.327148,-0.727539,0.550781,0
2950,-0.321289,-0.727539,0.55957,0
2970,-0.315918,-0.726074,0.560547,0
2990,-0.30957,-0.724121,0.560547,0
3010,-0.317871,-0.724609,0.558105,0
3030,-0.318848,-0.723145,0.568848,0
3050,-0.325195,-0.728027,0.56543,0
3070,-0.328125,-0.721191,0.572754,0
3090,-0.324219,-0.718262,0.56543,0
3110,-0.317383,-0.714844,0.55957,0
3130,-0.316895,-0.726074,0.55957,0
3150,-0.318359,-0.724609,0.570801,0
3160,-0.314453,-0.734375,0.563965,0
3190,-0.32666,-0.730469,0.555664,0
3220,-0.323242,-0.739746,0.556641,0
3240,-0.321777,-0.723633,0.554688,0
3260,-0.325684,-0.750488,0.556152,0
3280,-0.322266,-0.740723,0.555176,0
3300,-0.317383,-0.73291,0.56543,0
3320,-0.314941,-0.733398,0.568359,0
3340,-0.314941,-0.743652,0.545898,0
3360,-0.307129,-0.727539,0.55127,0
3380,-0.310547,-0.718262,0.558105,0
3400,-0.312012,-0.707031,0.549316,0
3420,-0.317383,-0.691406,0.545898,0
3440,-0.324707,-0.685547,0.543945,0
3460,-0.324219,-0.682617,0.547363,0
3480,-0.318848,-0.70166,0.549805,0
3500,-0.314453,-0.714844,0.553711,0
3520,-0.314453,-0.725586,0.547852,0
3550,-0.321289,-0.739258,0.534668,0
3570,-0.327637,-0.750488,0.530273,0
3590,-0.331543,-0.757324,0.536133,0
3610,-0.334473,-0.763672,0.541504,0
3630,-0.337402,-0.754395,0.540527,0
3650,-0.34082,-0.769043,0.544922,0
3670,-0.334473,-0.759766,0.541992,0
3690,-0.333984,-0.740234,0.548828,0
3710,-0.332031,-0.71875,0.55957,0
3720,-0.331055,-0.707031,0.560059,0
3740,-0.339844,-0.702637,0.54834,0
3770,-0.34082,-0.723145,0.554199,0
3790,-0.345215,-0.730957,0.550781,0
3810,-0.336914,-0.736328,0.554199,0
3830,-0.328125,-0.727539,0.545898,0
3850,-0.330566,-0.730469,0.542969,0
3870,-0.333496,-0.737793,0.547852,0
3890,-0.332031,-0.745605,0.545898,0
3910,-0.336426,-0.730469,0.549805,0
3930,-0.338379,-0.724609,0.550781,0
3950,-0.338379,-0.730469,0.549316,0
3970,-0.346191,-0.735352,0.550781,0
3990,-0.354004,-0.766602,0.541992,0
4010,-0.329102,-0.749512,0.567383,0
4030,-0.367676,-0.749023,0.572266,0
4050,-0.447266,-0.78418,0.564941,0
4070,-0.487793,-0.847656,0.530762,0
4090,-0.492188,-0.802246,0.473145,0
4110,-0.47998,-0.806641,0.473633,0
4130,-0.379395,-0.895508,0.512207,0
4150,-0.258301,-0.949707,0.516602,0
4170,0.0107422,-0.896484,0.713379,0
4190,0.132324,-0.730957,0.725586,0
4210,0.129883,-0.552246,0.720703,0
4230,0.0830078,-0.591797,0.73877,0
4240,0.00683594,-0.667969,0.686523,0
4260,-0.0766602,-0.665039,0.661133,0
4280,-0.170898,-0.615234,0.663574,0
4300,-0.256348,-0.552246,0.621582,0
4320,-0.300293,-0.567383,0.563477,0
4340,-0.321289,-0.594238,0.51123,0
4360,-0.324219,-0.623047,0.446289,0
4380,-0.314941,-0.649414,0.397949,0
4400,-0.275879,-0.656738,0.369629,0
4420,-0.276367,-0.681641,0.379883,0
4440,-0.288086,-0.686523,0.367188,0
4460,-0.288574,-0.704102,0.388672,0
4480,-0.29834,-0.75,0.443848,0
4500,-0.327637,-0.789551,0.473633,0
4520,-0.349609,-0.841309,0.489746,0
4540,-0.322266,-0.922852,0.522461,0
4560,-0.300781,-0.96875,0.541992,0
4580,-0.245117,-0.996094,0.53418,0
4600,-0.200684,-1.00244,0.521484,0
4630,-0.11377,-0.952637,0.594238,0
4650,-0.0922852,-0.906738,0.598145,0
4680,-0.0776367,-0.806152,0.619629,0
4700,-0.0888672,-0.777832,0.634277,0
4720,-0.116211,-0.736816,0.632812,0
4740,-0.147461,-0.723633,0.620117,0
4760,-0.160156,-0.702148,0.60791,0
4780,-0.164551,-0.703125,0.590332,0
4800,-0.170898,-0.705566,0.567871,0
4820,-0.179688,-0.697754,0.547852,0
4840,-0.180664,-0.708008,0.532715,0
4860,-0.186035,-0.723633,0.518066,0
4880,-0.18457,-0.73291,0.509277,0
4900,-0.175781,-0.736328,0.50293,0
4920,-0.162598,-0.754395,0.486816,0
4940,-0.144531,-0.762207,0.485352,0
4960,-0.129395,-0.771484,0.493164,0
4980,-0.119141,-0.786621,0.482422,0
5000,-0.0776367,-0.728027,0.509277,0
5020,-0.104004,-0.893555,0.432129,0
5040,-0.0708008,-0.839355,0.421875,0
5060,-0.150391,-0.735352,0.527832,0
5070,-0.20752,-0.746582,0.546387,0
5100,-0.240723,-0.764648,0.5625,0
5120,-0.197266,-0.726074,0.54834,0
5150,-0.160156,-0.805176,0.540527,0
5170,-0.163574,-0.829102,0.537598,0
5190,-0.172852,-0.798828,0.538574,0
5210,-0.189453,-0.768555,0.535156,0
5230,-0.201172,-0.754883,0.520996,0
5250,-0.220215,-0.757812,0.519531,0
5270,-0.230957,-0.756348,0.518066,0
5290,-0.240234,-0.743164,0.503418,0
5310,-0.271973,-0.778809,0.459473,0
5330,-0.312012,-0.746094,0.395996,0
5350,-0.365723,-0.733398,0.39209,0
5370,-0.441895,-0.767578,0.466309,0
5390,-0.442383,-0.814941,0.490234,0
5410,-0.43457,-0.875488,0.586426,0
5430,-0.468262,-0.980957,0.658691,0
5450,-0.351074,-1.01514,0.577148,0
5470,-0.339844,-0.848145,0.459961,0
5490,-0.35791,-0.692383,0.46582,0
5510,-0.316406,-0.745117,0.453125,0
5530,-0.328125,-0.849121,0.440918,0
5560,-0.323242,-0.764648,0.52002,0
5570,-0.310059,-0.706055,0.515137,0
5590,-0.314453,-0.664062,0.518555,0
5610,-0.312988,-0.703125,0.51709,0
5630,-0.309082,-0.724609,0.522461,0
5650,-0.324707,-0.726562,0.530273,0
5670,-0.341309,-0.71875,0.527344,0
5690,-0.342773,-0.706055,0.530762,0
5710,-0.328125,-0.719238,0.526367,0
5730,-0.295898,-0.758301,0.544922,0
5750,-0.306641,-0.791992,0.560059,0
5770,-0.274414,-0.831055,0.548828,0
5790,-0.244629,-0.856934,0.545898,0
5810,-0.231934,-0.822266,0.560059,0
5830,-0.189941,-0.894531,0.53125,0
5850,-0.166992,-0.903809,0.559082,0
5870,-0.134277,-0.898926,0.54248,0
5890,-0.0947266,-0.862793,0.518066,0
5910,-0.10498,-0.849121,0.526855,0
5930,-0.0869141,-0.901855,0.505859,0
5950,-0.090332,-0.910156,0.498047,0
5970,-0.101562,-0.90918,0.490723,0
5990,-0.0898438,-0.89502,0.46875,0
6010,-0.0932617,-0.888672,0.450684,0
6030,-0.0810547,-0.908691,0.445801,0
6050,-0.0664062,-0.918945,0.436035,0
6070,-0.0532227,-0.933105,0.429199,0
6090,-0.0244141,-0.908691,0.415039,0
6110,-0.00634766,-0.915039,0.422363,0
6130,0.0224609,-0.931641,0.40918,0
6150,0.0332031,-0.947754,0.38623,0
6170,0.0449219,-0.937012,0.384766,0
6190,0.0717773,-0.928223,0.376465,0
6210,0.0820312,-0.92041,0.348633,0
6230,0.081543,-0.883789,0.353027,0
6250,0.0693359,-0.872559,0.34668,0
6270,0.0737305,-0.868652,0.327637,0
6290,0.0566406,-0.883789,0.28125,0
6310,0.0463867,-0.865723,0.281738,0
6330,0.0556641,-0.864746,0.28125,0
6350,0.0727539,-0.897461,0.21875,0
6370,0.0668945,-0.951172,0.211426,0
6390,0.0600586,-0.942871,0.203613,0
6410,0.059082,-0.826172,0.191895,0
6430,0.0576172,-0.827148,0.166504,0
6450,0.0620117,-0.918945,0.164062,0
6470,0.0854492,-0.965332,0.165039,0
6490,0.101074,-0.950195,0.149414,0
6510,0.100586,-0.922363,0.134766,0
6530,0.115723,-0.899414,0.112793,0
6550,0.103027,-0.945312,0.123535,0
6570,0.0898438,-0.998047,0.133789,0
6590,0.0996094,-0.980957,0.132812,0
6610,0.10791,-0.967285,0.133301,0
6630,0.124023,-0.929688,0.109863,0
6650,0.136719,-0.94043,0.105957,0
6670,0.145996,-0.961914,0.124512,0
6690,0.131836,-0.959961,0.105469,0
6710,0.132812,-0.970703,0.090332,0
6730,0.149902,-0.964355,0.0913086,0
6750,0.149902,-0.964355,0.0913086,0
6770,0.152832,-0.98584,0.0849609,0
6790,0.162109,-1.00098,0.0795898,0
6810,0.17627,-0.99707,0.0913086,0
6830,0.175293,-0.982422,0.101562,0
6850,0.176758,-0.956543,0.102539,0
6870,0.169434,-0.950684,0.0986328,0
6890,0.182129,-0.969238,0.0859375,0
6910,0.193359,-0.97168,0.0820312,0
6930,0.18457,-0.971191,0.0708008,0
6950,0.184082,-0.983398,0.0766602,0
6970,0.174805,-0.991211,0.0771484,0
6990,0.159668,-0.978027,0.0708008,0
7010,0.152832,-0.968262,0.0786133,0
7030,0.146973,-0.991699,0.0795898,0
7050,0.130371,-0.980469,0.0834961,0
7070,0.120605,-0.976074,0.0761719,0
7090,0.112305,-0.961914,0.0732422,0
7110,0.112305,-0.965332,0.0722656,0
7130,0.118652,-0.97168,0.0756836,0
7150,0.128906,-0.98584,0.0776367,0
7170,0.128906,-0.999512,0.0717773,0
7190,0.141113,-0.992188,0.0683594,0
7210,0.144531,-0.993164,0.0634766,0
7230,0.144043,-0.983398,0.0576172,0
7250,0.141113,-0.994629,0.0668945,0
7270,0.141602,-0.991211,0.0522461,0
7290,0.140625,-0.984375,0.0546875,0
7310,0.13916,-0.979492,0.0595703,0
7330,0.144531,-0.977051,0.0517578,0
7350,0.137207,-0.978027,0.0585938,0
7370,0.138184,-0.978516,0.0522461,0
7390,0.126953,-0.986328,0.0507812,0
7410,0.130859,-0.970215,0.0605469,0
7430,0.134277,-0.972656,0.0649414,0
7450,0.128418,-0.984863,0.0561523,0
7470,0.133301,-0.990234,0.0664062,0
7490,0.141113,-0.989258,0.0585938,0
7510,0.142578,-0.987793,0.0634766,0
7530,0.138184,-1,0.0600586,0
7550,0.134766,-0.988281,0.0600586,0
7560,0.137695,-0.980469,0.0439453,0
7580,0.127441,-0.984375,0.0625,2000
7600,0.124512,-0.989258,0.0693359,0
7620,0.134766,-0.999512,0.078125,0
7640,0.125977,-1.0127,0.0512695,0
7660,0.113281,-1.01416,0.0380859,0
7680,0.104004,-0.961914,0.0810547,0
7700,0.105469,-0.955078,0.0878906,0
7720,0.120117,-0.973145,0.0810547,0
7740,0.113281,-1.0127,0.0737305,0
7760,0.103027,-1.00098,0.0581055,0
7780,0.104004,-0.976074,0.0649414,0
7800,0.120117,-0.953613,0.0844727,0
7820,0.119629,-0.970703,0.0654297,0
7840,0.109863,-0.999023,0.0512695,0
7860,0.097168,-0.98877,0.0424805,0
7880,0.103516,-0.986816,0.0507812,0
7900,0.121582,-0.975098,0.0625,0
7920,0.146973,-0.975098,0.0649414,0
7940,0.150879,-0.97998,0.0405273,0
7960,0.164551,-0.981934,0.0302734,0
7980,0.157715,-0.998535,0.0366211,0
8000,0.182129,-0.991699,0.0493164,0
8020,0.181152,-0.984863,0.03125,0
8040,0.186035,-0.968262,0.0332031,0
8060,0.1875,-0.974609,0.0395508,0
8080,0.182129,-0.97998,0.0307617,0
8100,0.169434,-0.972168,0.0166016,0
8120,0.164551,-0.963379,0.00927734,0
8140,0.19043,-0.985352,0.0288086,0
8160,0.210449,-0.98877,0.0239258,0
8180,0.198242,-0.989258,0.0117188,0
8200,0.187988,-0.966797,0.00195312,0
8220,0.172852,-0.967773,0.0263672,0
8240,0.1875,-1.0376,-0.0180664,0
8260,0.225098,-1.05127,-0.00878906,0
8280,0.234375,-0.976562,0.0283203,0
8300,0.273438,-0.955078,0.0107422,0
8320,0.273926,-0.990234,-0.0141602,0
8340,0.253906,-1.00879,-0.0517578,0
8360,0.271484,-0.956543,-0.0268555,0
8380,0.292969,-0.947754,-0.00878906,0
8400,0.301758,-0.911133,-0.0200195,0
8420,0.297363,-0.911621,-0.00195312,0
8440,0.306152,-0.893066,0.00244141,0
8460,0.306641,-0.883789,-0.0200195,0
8480,0.316895,-0.899902,-0.0341797,0
8500,0.353516,-0.89502,-0.0566406,0
8520,0.397461,-0.912109,-0.0463867,0
8540,0.419922,-0.925781,-0.0825195,0
8560,0.429688,-0.927246,-0.0703125,0
8580,0.45166,-0.894043,-0.0634766,0
8600,0.453613,-0.895508,-0.0654297,0
8620,0.499023,-0.901367,-0.0537109,0
8640,0.5,-0.868652,-0.046875,0
8660,0.515625,-0.871094,-0.0556641,0
8680,0.540527,-0.862305,-0.0576172,0
8700,0.572266,-0.850098,-0.0449219,0
8720,0.599609,-0.854004,-0.0395508,0
8740,0.570801,-0.845703,-0.0444336,0
8760,0.583984,-0.853027,-0.0380859,0
8780,0.594727,-0.844238,-0.0136719,0
8800,0.593262,-0.839355,-0.000976562,0
8820,0.592773,-0.832031,-0.00439453,0
8840,0.565918,-0.837891,0.00878906,0
8860,0.548828,-0.837402,0.0517578,0
8880,0.536133,-0.876465,0.0634766,0
8900,0.52832,-0.87793,0.0683594,0
8920,0.512207,-0.85498,0.10498,0
8940,0.521484,-0.842285,0.11377,0
8960,0.503418,-0.871582,0.121094,0
8980,0.474609,-0.88916,0.150391,0
9000,0.442383,-0.890625,0.16748,0
9020,0.425781,-0.897461,0.15918,0
9040,0.413086,-0.891602,0.171387,0
9060,0.421387,-0.893555,0.166992,0
9080,0.381348,-0.949707,0.198242,0
9100,0.331055,-0.972168,0.243164,0
9120,0.324219,-0.941406,0.249023,0
9140,0.335449,-0.879883,0.262695,0
9160,0.306641,-0.916992,0.269043,0
9180,0.287109,-0.985352,0.264648,0
9200,0.282715,-0.95752,0.276367,0
9220,0.26123,-0.906738,0.280762,0
9240,0.260254,-0.898926,0.282227,0
9260,0.270996,-0.935059,0.286621,0
9280,0.23291,-0.94043,0.27002,0
9300,0.219727,-0.924805,0.269531,0
9320,0.238281,-0.916992,0.277832,0
9340,0.250977,-0.909668,0.273926,0
9360,0.265625,-0.929688,0.262207,0
9380,0.23584,-0.952637,0.235352,0
9400,0.223633,-0.946289,0.259766,0
9420,0.219727,-0.930664,0.256348,0
9440,0.228516,-0.921875,0.247559,0
9460,0.199219,-0.908203,0.223145,0
9480,0.187012,-0.919434,0.218262,0
9500,0.168945,-0.92334,0.233398,0
9520,0.1875,-0.909668,0.216797,0
9540,0.18457,-0.89209,0.200195,0
9560,0.180176,-0.898438,0.17041,0
9580,0.181641,-0.924316,0.132324,0
9600,0.169434,-0.932617,0.116699,0
9620,0.133301,-0.958496,0.103516,0
9640,0.12207,-0.906738,0.0800781,0
9660,0.115234,-0.913574,0.0566406,0
9680,0.128906,-0.933105,0.0551758,0
9700,0.145508,-0.965332,0.050293,0
9720,0.158203,-0.98877,0.0136719,0
9740,0.163574,-0.98584,-0.0112305,0
9760,0.179199,-0.96582,-0.0146484,0
9780,0.161621,-0.95752,-0.0263672,0
9800,0.158691,-0.962891,-0.0498047,0
9820,0.168945,-0.97998,-0.0786133,0
9840,0.167969,-0.952148,-0.108398,0
9860,0.152344,-0.94043,-0.0966797,0
9880,0.163086,-0.955078,-0.0927734,0
9900,0.200684,-0.978027,-0.0874023,0
9920,0.21875,-0.961914,-0.100098,0
9940,0.244629,-0.940918,-0.0908203,0
9960,0.25293,-0.941895,-0.078125,0
9980,0.287598,-0.955566,-0.0927734,0
10000,0.367676,-0.955078,-0.0839844,0
10020,0.367188,-0.946777,-0.115723,0
10040,0.300293,-0.916992,-0.130859,0
10060,0.310059,-0.884277,-0.14209,0
10080,0.422363,-0.914551,-0.103516,0
10100,0.472656,-0.915039,-0.0771484,0
10120,0.422363,-0.881348,-0.0966797,0
10140,0.41748,-0.849121,-0.123047,0
10160,0.478027,-0.844238,-0.140625,0
10180,0.532715,-0.835938,-0.0922852,0
10200,0.515625,-0.798828,-0.0854492,0
10220,0.516113,-0.794922,-0.131836,0
10240,0.550293,-0.790039,-0.0947266,0
10260,0.568848,-0.805664,-0.0864258,0
10280,0.608887,-0.780762,-0.0932617,0
10300,0.635742,-0.757812,-0.109375,0
10320,0.676758,-0.760254,-0.109375,0
10340,0.725586,-0.755859,-0.081543,0
10360,0.75293,-0.753418,-0.0874023,0
10380,0.789551,-0.715332,-0.0883789,0
10400,0.814941,-0.69873,-0.0888672,0
10420,0.812988,-0.706055,-0.0830078,0
10440,0.811523,-0.706055,-0.0546875,0
10460,0.784668,-0.658691,-0.0327148,0
10480,0.783691,-0.64209,-0.0449219,0
10500,0.790527,-0.685059,-0.0610352,0
10520,0.822754,-0.702637,-0.0200195,0
10540,0.857422,-0.716797,0.0317383,0
10560,0.782227,-0.743164,0.0771484,0
10580,0.710938,-0.77832,0.12793,0
10600,0.743652,-0.73877,0.132324,0
10620,0.718262,-0.65918,0.125,0
10640,0.70752,-0.636719,0.17334,0
10660,0.71582,-0.703125,0.22168,0
10680,0.682129,-0.790039,0.224121,0
10700,0.649414,-0.754395,0.253906,0
10720,0.631348,-0.688965,0.263184,0
10740,0.634766,-0.72168,0.246094,0
10760,0.595215,-0.791016,0.273438,0
10780,0.542969,-0.796387,0.276855,0
10800,0.553711,-0.744629,0.29834,0
10820,0.563477,-0.76123,0.300293,0
10840,0.571289,-0.812012,0.263184,0
10860,0.512695,-0.849121,0.30957,0
10880,0.487305,-0.800293,0.316406,0
10900,0.462402,-0.766113,0.29834,0
10920,0.446289,-0.79248,0.302246,0
10930,0.441895,-0.844727,0.272461,0
10950,0.404785,-0.855469,0.244629,0
10970,0.355469,-0.842773,0.205566,0
10990,0.370117,-0.814941,0.249023,0
11010,0.368164,-0.805176,0.244629,0
11030,0.381348,-0.835938,0.197266,0
11050,0.355469,-0.872559,0.205566,0
11070,0.349121,-0.854492,0.183105,0
11090,0.378906,-0.832031,0.180176,0
11110,0.366699,-0.821777,0.167969,0
11130,0.359863,-0.871094,0.149414,0
11150,0.351074,-0.885254,0.128906,0
11170,0.340332,-0.884766,0.131836,0
11190,0.354004,-0.866211,0.138672,0
11210,0.345215,-0.857422,0.11377,0
11230,0.336914,-0.885254,0.0952148,0
11250,0.336426,-0.914551,0.09375,0
11270,0.344727,-0.916504,0.0864258,0
11290,0.349121,-0.920898,0.0581055,0
11320,0.319336,-0.899902,0.0219727,0
11340,0.33252,-0.939941,-0.00683594,0
11360,0.318359,-0.92334,-0.0117188,0
11380,0.291992,-0.901855,-0.0380859,0
11400,0.257812,-0.888672,-0.0620117,0
11420,0.25,-0.878418,-0.0957031,0
11440,0.288574,-0.905273,-0.0996094,0
11460,0.310059,-0.901367,-0.0917969,0
11480,0.29541,-0.899902,-0.109375,0
11500,0.316895,-0.901855,-0.0859375,0
11520,0.343262,-0.881348,-0.0722656,0
11540,0.375,-0.85791,-0.0742188,0
11540,0.407715,-0.859375,-0.0654297,0
11560,0.416016,-0.888672,-0.0844727,0
11570,0.448242,-0.889648,-0.0927734,0
11590,0.508789,-0.844238,-0.0761719,0
11610,0.524902,-0.797363,-0.081543,0
11630,0.530762,-0.808594,-0.097168,0
11650,0.575195,-0.816406,-0.103516,0
11670,0.616699,-0.79541,-0.0683594,0
11690,0.639648,-0.776367,-0.0854492,0
11710,0.658203,-0.73291,-0.128906,0
11730,0.649414,-0.702148,-0.0991211,0
11750,0.676758,-0.694336,-0.0620117,0
11770,0.734863,-0.731445,-0.0913086,0
11790,0.757324,-0.706055,-0.119141,0
11810,0.739258,-0.669922,-0.137207,0
11830,0.731934,-0.628906,-0.129395,0
11850,0.743652,-0.631348,-0.114258,0
11870,0.726074,-0.637695,-0.101074,0
11890,0.76123,-0.623535,-0.100586,0
11910,0.816406,-0.612305,-0.0888672,0
11930,0.821289,-0.571777,-0.0786133,0
11950,0.827148,-0.589355,-0.0756836,0
11970,0.842773,-0.591797,-0.0732422,0
11990,0.846191,-0.55957,-0.0483398,0
12010,0.869141,-0.541504,-0.0234375,0
12030,0.859863,-0.524902,-0.00976562,0
12050,0.846191,-0.504395,0.0146484,0
12070,0.862793,-0.489258,0.0297852,0
12090,0.88916,-0.476562,0.0561523,0
12110,0.932617,-0.480469,0.0581055,0
12130,0.952148,-0.509766,0.0698242,0
12150,0.922852,-0.542969,0.104492,0
12170,0.90918,-0.515625,0.164062,0
12190,0.931641,-0.489258,0.175781,0
12210,0.941895,-0.475098,0.203613,0
12230,0.918457,-0.485352,0.250977,0
12250,0.881348,-0.525391,0.244629,0
12270,0.851562,-0.535645,0.264648,0
12290,0.81543,-0.510254,0.311035,0
12310,0.812988,-0.516113,0.325684,0
12330,0.816895,-0.601562,0.318359,0
12350,0.761719,-0.630859,0.341309,0
12370,0.717773,-0.621094,0.312012,0
12390,0.763672,-0.632324,0.341309,0
12410,0.711914,-0.680176,0.317383,0
12430,0.604004,-0.718262,0.340332,0
12450,0.59668,-0.69043,0.395996,0
12470,0.640625,-0.631348,0.365723,0
12490,0.573242,-0.609863,0.351074,0
12510,0.500488,-0.681152,0.377441,0
12530,0.513184,-0.712402,0.368164,0
12550,0.491699,-0.640625,0.374023,0
12570,0.474609,-0.618164,0.357422,0
12590,0.462891,-0.690918,0.335449,0
12610,0.418945,-0.720215,0.321777,0
12630,0.441406,-0.678223,0.347168,0
12650,0.463867,-0.680176,0.32666,0
12670,0.44873,-0.701172,0.318359,0
12690,0.423828,-0.704102,0.314453,0
12710,0.43457,-0.72998,0.294922,0
12730,0.42627,-0.741211,0.291992,0
12750,0.452148,-0.751953,0.275391,0
12770,0.449219,-0.769043,0.277344,0
12790,0.437988,-0.79248,0.256348,0
12810,0.430176,-0.810547,0.234375,0
12830,0.42627,-0.799316,0.220215,0
12850,0.422852,-0.789551,0.193848,0
12860,0.415527,-0.821289,0.180176,0
12880,0.392578,-0.842285,0.153809,0
12900,0.394043,-0.848633,0.140137,0
12920,0.415039,-0.802734,0.117188,0
12940,0.392578,-0.802246,0.101562,0
12960,0.39502,-0.846191,0.0639648,0
12980,0.421875,-0.861816,0.0322266,0
13000,0.492676,-0.860352,0.0195312,0
13020,0.481934,-0.833984,0.00390625,0
13040,0.461426,-0.869629,-0.0180664,0
13060,0.479004,-0.877441,-0.0244141,0
13080,0.48877,-0.853516,-0.0244141,0
13100,0.518066,-0.87793,-0.0273438,0
13120,0.541504,-0.885254,-0.0395508,0
13140,0.545898,-0.854004,-0.0410156,0
13160,0.558594,-0.811523,-0.0419922,0
13180,0.606445,-0.819336,-0.0356445,0
13200,0.64209,-0.817871,-0.0546875,0
13220,0.628418,-0.78418,-0.0693359,0
13240,0.655762,-0.755371,-0.0825195,0
13260,0.696777,-0.762207,-0.0957031,0
13280,0.694824,-0.73584,-0.0874023,0
13300,0.703613,-0.706543,-0.101562,0
13320,0.703613,-0.67334,-0.123047,0
13340,0.685547,-0.643066,-0.133789,0
13360,0.683105,-0.601562,-0.129395,0
13380,0.662598,-0.564453,-0.145996,0
13400,0.655762,-0.54248,-0.17627,0
13420,0.750977,-0.575684,-0.204102,0
13440,0.831543,-0.550293,-0.13916,0
13460,0.819336,-0.587402,-0.130859,2001
13480,0.842773,-0.61084,-0.148926,0
13500,0.90625,-0.562012,-0.160645,0
13520,0.878906,-0.520996,-0.137207,0
13540,0.80127,-0.533203,-0.109375,0
13560,0.743652,-0.629395,-0.143066,0
13580,0.700684,-0.603027,-0.171875,0
13600,0.67334,-0.550293,-0.182617,0
13620,0.666016,-0.509277,-0.178223,0
13640,0.611328,-0.514648,-0.126953,0
13660,0.57373,-0.525391,-0.116211,0
13680,0.570801,-0.554688,-0.138672,0
13700,0.608398,-0.53418,-0.115723,0
13720,0.608887,-0.529297,-0.0791016,0
13740,0.616211,-0.53418,-0.0751953,0
13760,0.65625,-0.569336,-0.111816,0
13780,0.681152,-0.582031,-0.102539,0
13800,0.6875,-0.581055,-0.0649414,0
13820,0.739746,-0.624512,-0.0419922,0
13840,0.714844,-0.661133,-0.00537109,0
13860,0.70166,-0.69043,-0.0478516,0
13880,0.722168,-0.696777,-0.0195312,0
13900,0.755371,-0.684082,0,0
13920,0.751465,-0.722168,-0.0117188,0
13940,0.702148,-0.791504,-0.0375977,0
13960,0.717285,-0.839844,0.0375977,0
13980,0.713867,-0.849609,0.0478516,0
14000,0.695801,-0.87207,-0.00634766,0
14020,0.63623,-0.887695,0.0366211,0
14040,0.562012,-0.867676,0.00244141,0
14060,0.604492,-0.899414,-0.0463867,0
14080,0.540039,-0.929688,0.0366211,0
14100,0.482422,-0.94873,-0.000488281,0
14120,0.482422,-1.00293,-0.0244141,0
14140,0.443848,-1.02197,0.00585938,0
14160,0.39502,-1.01855,0.0224609,0
14180,0.366699,-1.0127,0.0297852,0
14200,0.317871,-1.04785,0.0288086,0
14220,0.258301,-1.07031,0.0444336,0
14240,0.208984,-1.0166,0.0644531,0
14260,0.242676,-0.993164,0.0805664,0
14280,0.257324,-1.01709,0.0454102,0
14300,0.221191,-1.04785,0.0419922,0
14320,0.211426,-1.01465,0.0664062,0
14340,0.217285,-1.00928,0.0717773,0
14360,0.230469,-1.03564,0.0742188,0
14380,0.212891,-1.04443,0.0859375,0
14400,0.189941,-1.03369,0.0864258,0
14420,0.166016,-0.996582,0.0800781,0
14440,0.154297,-0.947754,0.0644531,0
14460,0.158203,-0.95166,0.0795898,0
14480,0.125977,-0.990234,0.0849609,0
14500,0.133301,-0.999512,0.0625,0
14520,0.14209,-0.952148,0.0537109,0
14540,0.142578,-0.950195,0.0683594,0
14560,0.140625,-0.990723,0.106445,0
14580,0.167969,-0.96582,0.117676,0
14600,0.195312,-0.947754,0.105957,0
14620,0.21875,-0.942871,0.100098,0
14640,0.233887,-0.96875,0.0893555,0
14660,0.235352,-0.966309,0.0698242,0
14680,0.249512,-0.944336,0.0722656,0
14700,0.226562,-0.946777,0.0683594,0
14720,0.20459,-0.964844,0.078125,0
14740,0.210449,-0.981445,0.0712891,0
14760,0.213379,-0.969238,0.0766602,0
14780,0.191406,-0.956055,0.0810547,0
14800,0.180664,-0.958496,0.09375,2000
14820,0.169434,-0.95166,0.0488281,0
14840,0.166504,-0.945312,0.0830078,0
14860,0.135742,-0.992188,0.0566406,0
14880,0.126465,-0.990234,0.0688477,0
14900,0.121582,-0.952637,0.101074,0
14920,0.135742,-0.952148,0.107422,0
14940,0.137695,-0.969238,0.106934,0
14960,0.132324,-0.993652,0.0942383,0
14980,0.155273,-0.995605,0.0893555,0
15000,0.15918,-0.983887,0.0825195,0
15020,0.131348,-0.990234,0.0615234,0
15040,0.114258,-0.981934,0.0478516,0
15060,0.120605,-0.999512,0.0424805,0
15080,0.174316,-1.00098,0.050293,0
15100,0.202148,-0.994629,0.0810547,0
15120,0.177246,-0.978027,0.0644531,0
15140,0.195312,-0.971191,0.0507812,0
15160,0.239258,-0.967773,0.0556641,0
15180,0.243164,-0.975586,0.0449219,0
15200,0.228516,-0.96582,0.0385742,0
15220,0.226074,-0.960449,0.0302734,0
15240,0.228516,-0.966309,0.0244141,0
15260,0.220703,-0.962402,0.0458984,0
15280,0.220703,-0.973633,0.0507812,0
15300,0.227539,-0.927734,0.0551758,0
15320,0.255371,-0.905762,0.0664062,0
15340,0.273926,-0.925781,0.03125,0
15360,0.267578,-0.92627,0.0136719,0
15380,0.266602,-0.931641,0.0229492,0
15400,0.286621,-0.936523,0.0385742,0
15420,0.290527,-0.92627,0.0483398,0
15440,0.291504,-0.917969,0.0424805,0
15460,0.331055,-0.921875,0.0180664,0
15480,0.364258,-0.949219,0.00390625,0
15500,0.380859,-0.980469,0.00927734,0
15520,0.385742,-0.978027,0.0410156,0
15540,0.413574,-0.979004,0.034668,0
15560,0.408203,-0.976562,-0.0209961,0
15580,0.421387,-0.948242,-0.0522461,0
15600,0.425293,-0.916992,-0.050293,0
15620,0.421875,-0.89502,-0.0463867,0
15640,0.449219,-0.864746,-0.0185547,0
15660,0.458496,-0.836914,-0.015625,0
15680,0.479492,-0.818359,-0.0224609,0
15700,0.520508,-0.829102,-0.0112305,0
15720,0.560547,-0.802734,-0.00488281,0
15740,0.560059,-0.799805,-0.0117188,0
15760,0.559082,-0.79834,-0.0112305,0
15780,0.577148,-0.782715,0.00439453,0
15800,0.594727,-0.796875,-0.00244141,0
15820,0.647461,-0.773438,0.012207,0
15840,0.616699,-0.784668,0.0141602,0
15860,0.648438,-0.769531,0.0244141,0
15880,0.708984,-0.78418,0.0205078,0
15900,0.697754,-0.761719,0.0205078,0
15920,0.713867,-0.753906,0.0332031,0
15940,0.705078,-0.75293,0.0478516,0
15960,0.717285,-0.736328,0.0644531,0
15980,0.725586,-0.758301,0.0859375,0
16000,0.715332,-0.770508,0.0927734,0
16020,0.65918,-0.803223,0.0966797,0
16040,0.64209,-0.819824,0.0869141,0
16060,0.655273,-0.786133,0.101074,0
16080,0.67334,-0.790039,0.167969,0
16100,0.634766,-0.836914,0.172363,0
16120,0.582031,-0.876465,0.194336,0
16140,0.553711,-0.836426,0.235352,0
16160,0.524902,-0.780273,0.262207,0
16180,0.474121,-0.8125,0.294922,0
16200,0.458496,-0.841309,0.321777,0
16220,0.42334,-0.832031,0.306641,0
16240,0.434082,-0.84668,0.312988,0
16260,0.419922,-0.850098,0.34668,0
16270,0.396973,-0.784668,0.352051,0
16290,0.39502,-0.770996,0.356934,0
16310,0.369141,-0.817383,0.335938,0
16330,0.365234,-0.822266,0.366211,0
16350,0.339844,-0.807617,0.397949,0
16370,0.326172,-0.799316,0.390137,0
16390,0.291992,-0.80127,0.352051,0
16410,0.280273,-0.846191,0.339355,0
16430,0.293945,-0.857422,0.360352,0
16450,0.318848,-0.825684,0.355469,0
16470,0.32959,-0.821289,0.346191,0
16490,0.320312,-0.839844,0.354492,0
16510,0.337891,-0.909668,0.295898,0
16530,0.382324,-0.892578,0.293457,0
16550,0.381348,-0.82373,0.320312,0
16570,0.305664,-0.849121,0.335449,0
16590,0.253906,-0.870605,0.311035,0
16610,0.253906,-0.875977,0.294922,0
16630,0.296387,-0.874023,0.297363,0
16650,0.266113,-0.858398,0.30127,0
16670,0.251465,-0.871582,0.286133,0
16690,0.230469,-0.866699,0.273438,0
16710,0.215332,-0.868652,0.249512,0
16730,0.244141,-0.883301,0.260254,0
16750,0.256836,-0.851074,0.254395,0
16770,0.250977,-0.848145,0.248047,0
16790,0.209473,-0.880859,0.242188,0
16810,0.183594,-0.888672,0.237305,0
16830,0.203613,-0.879883,0.227051,0
16850,0.216797,-0.871582,0.232422,0
16870,0.214355,-0.894043,0.216309,0
16890,0.236816,-0.90918,0.210449,0
16910,0.195312,-0.891113,0.206543,0
16930,0.158203,-0.884766,0.164551,0
16950,0.131348,-0.873047,0.14209,0
16970,0.0952148,-0.830078,0.133301,0
16990,0.132324,-0.910156,0.103027,0
17010,0.23584,-0.958496,0.119141,0
17030,0.232422,-0.969238,0.14502,0
17050,0.236816,-0.938965,0.135742,0
17070,0.253418,-0.962891,0.11377,0
17090,0.276855,-0.983398,0.115723,0
17110,0.299316,-0.991211,0.0981445,0
17130,0.3125,-0.983398,0.106445,0
17150,0.302734,-0.977539,0.0893555,0
17170,0.295898,-0.991699,0.0712891,0
17190,0.331055,-0.966797,0.0883789,0
17210,0.337402,-0.947266,0.0908203,0
17230,0.355957,-0.94043,0.0761719,0
17250,0.356445,-0.930664,0.0537109,0
17270,0.365723,-0.925293,0.0512695,0
17290,0.346191,-0.924805,0.0400391,0
17310,0.344727,-0.898438,0.03125,0
17330,0.353027,-0.888184,0.00244141,0
17350,0.36084,-0.906738,-0.00634766,0
17370,0.375977,-0.925781,0.0244141,0
17390,0.391113,-0.893066,0.015625,0
17410,0.416992,-0.874512,0.00878906,0
17430,0.462891,-0.845215,0.0224609,0
17450,0.453125,-0.841797,0.0219727,0
17470,0.432617,-0.816895,-0.0170898,0
17490,0.442383,-0.82373,-0.0507812,0
17510,0.509277,-0.864746,-0.0830078,0
17530,0.520996,-0.898926,-0.0717773,0
17550,0.477051,-0.894531,-0.0722656,0
17570,0.46582,-0.852539,-0.0893555,0
17590,0.469238,-0.839844,-0.0888672,0
17610,0.507812,-0.854492,-0.0756836,0
17630,0.518066,-0.84375,-0.0600586,0
17650,0.48877,-0.820801,-0.0703125,0
17670,0.462402,-0.772461,-0.0805664,0
17690,0.464355,-0.751953,-0.0668945,0
17710,0.489746,-0.75,-0.0551758,0
17730,0.527344,-0.75,-0.0488281,0
17750,0.552246,-0.744141,-0.0581055,0
17770,0.572754,-0.716797,-0.0473633,0
17790,0.685059,-0.728516,0.00634766,0
17810,0.720215,-0.745605,-0.00927734,0
17830,0.692871,-0.699707,-0.0678711,0
17850,0.68457,-0.717285,-0.0610352,0
17870,0.713867,-0.724609,-0.0224609,0
17890,0.739258,-0.72998,0.0195312,0
17910,0.74707,-0.688477,0.0126953,0
17930,0.751465,-0.66748,0.0146484,0
17950,0.766113,-0.664551,0.03125,0
17970,0.805176,-0.669922,0.0327148,0
17990,0.811523,-0.634766,0.0512695,0
18010,0.808594,-0.619141,0.0585938,0
18030,0.84082,-0.637695,0.0898438,0
18050,0.839355,-0.63916,0.0986328,0
18070,0.833496,-0.625488,0.0922852,0
18090,0.825684,-0.586426,0.106445,0
18110,0.826172,-0.578125,0.127441,0
18130,0.811035,-0.601562,0.152344,0
18150,0.82373,-0.595215,0.154297,0
18170,0.830078,-0.603027,0.150391,0
18190,0.780762,-0.598633,0.156738,0
18210,0.76416,-0.606445,0.192871,0
18230,0.795898,-0.62793,0.165039,0
18240,0.863281,-0.61084,0.206543,0
18260,0.82959,-0.582031,0.23877,0
18280,0.788574,-0.557129,0.24707,0
18300,0.788574,-0.615723,0.26416,0
18320,0.763184,-0.629395,0.291504,0
18340,0.748535,-0.617188,0.334473,0
18360,0.722656,-0.612793,0.359375,0
18380,0.702148,-0.617676,0.349121,0
18400,0.697754,-0.650391,0.386719,0
18420,0.649414,-0.655762,0.395508,0
18440,0.580078,-0.652344,0.398438,0
18460,0.544922,-0.615234,0.396973,0
18480,0.57373,-0.62793,0.368652,0
18500,0.566895,-0.705566,0.355957,0
18520,0.525391,-0.728516,0.404297,0
18540,0.498535,-0.640137,0.424316,0
18560,0.494141,-0.653809,0.399414,0
18580,0.484375,-0.735352,0.397461,0
18600,0.455566,-0.765137,0.368652,0
18620,0.438965,-0.70166,0.373047,0
18640,0.46875,-0.678711,0.38623,0
18660,0.468262,-0.755859,0.376465,0
18680,0.467285,-0.754395,0.358398,0
18700,0.459961,-0.715332,0.360352,0
18720,0.4375,-0.727539,0.32959,0
18740,0.431152,-0.72998,0.333008,0
18760,0.427246,-0.762695,0.316895,0
18780,0.400391,-0.771484,0.31543,0
18800,0.379883,-0.756348,0.306641,0
18820,0.381836,-0.748535,0.297363,0
18840,0.413574,-0.76709,0.297363,0
18860,0.394531,-0.754395,0.283203,0
18880,0.408691,-0.758789,0.261719,0
18900,0.435547,-0.780762,0.274414,0
18920,0.427246,-0.773438,0.291504,0
18940,0.411133,-0.807129,0.27002,0
18960,0.396484,-0.83252,0.273438,0
18980,0.367188,-0.82666,0.264648,0
19000,0.362305,-0.833984,0.250977,0
19020,0.363281,-0.858398,0.237793,0
19040,0.351562,-0.870605,0.228027,0
19060,0.378418,-0.881348,0.228516,0
19080,0.417969,-0.884277,0.213379,0
19100,0.429688,-0.899414,0.194824,0
19120,0.410156,-0.887207,0.177734,0
19140,0.391602,-0.872559,0.147461,0
19160,0.392578,-0.858887,0.119141,0
19180,0.428223,-0.888184,0.138184,0
19200,0.45166,-0.912109,0.149414,0
19220,0.46582,-0.895508,0.128418,0
19240,0.479492,-0.879395,0.109375,0
19260,0.481445,-0.861328,0.105957,0
19280,0.505371,-0.849121,0.0751953,0
19300,0.519043,-0.857422,0.0688477,0
19320,0.514648,-0.839355,0.0507812,0
19340,0.494629,-0.839844,0.034668,0
19360,0.485352,-0.833496,0.0151367,0
19380,0.504395,-0.822266,0.00830078,0
19400,0.521484,-0.820801,0.00830078,0
19420,0.514648,-0.814941,-0.00878906,0
19440,0.510742,-0.807129,-0.0375977,0
19460,0.491699,-0.79248,-0.0332031,0
19480,0.481934,-0.779297,-0.0537109,0
19500,0.515625,-0.780762,-0.0737305,0
19520,0.544922,-0.758789,-0.0732422,0
19540,0.594238,-0.75293,-0.0820312,0
19560,0.615723,-0.712402,-0.0859375,0
19580,0.627441,-0.712891,-0.10498,0
19600,0.647461,-0.717285,-0.0878906,0
19620,0.676758,-0.734375,-0.108398,0
19640,0.683594,-0.712402,-0.102539,0
19660,0.68457,-0.666504,-0.105957,0
19680,0.733887,-0.664551,-0.140137,0
19700,0.758789,-0.689453,-0.142578,0
19720,0.761719,-0.667969,-0.11084,0
19740,0.776855,-0.629883,-0.120117,0
19770,0.803223,-0.620605,-0.12207,0
19790,0.807129,-0.59668,-0.0927734,0
19810,0.803223,-0.588867,-0.0927734,0
19830,0.817383,-0.587402,-0.0976562,0
19850,0.830078,-0.571289,-0.0849609,0
19870,0.825195,-0.546875,-0.0976562,0
19890,0.836426,-0.54541,-0.0849609,0
19910,0.829102,-0.502441,-0.0546875,0
19930,0.835449,-0.469727,-0.0273438,0
19950,0.853516,-0.472168,-0.0102539,0
19970,0.852539,-0.452148,-0.00292969,0
19990,0.873047,-0.430664,0.0107422,0
20010,0.88623,-0.436523,0.0341797,0
20030,0.881836,-0.419434,0.0410156,0
20050,0.888184,-0.413574,0.0698242,0
20070,0.914551,-0.379395,0.0854492,0
20090,0.944336,-0.370117,0.105469,0
20110,0.970703,-0.379395,0.123535,0
20130,0.932129,-0.415527,0.169434,0
20150,0.900879,-0.391602,0.177734,0
20170,0.945312,-0.377441,0.191406,0
20190,0.945312,-0.418945,0.23291,0
20210,0.88916,-0.466309,0.238281,0
20230,0.858398,-0.450684,0.271484,0
20250,0.82959,-0.43457,0.283691,0
20270,0.82959,-0.47998,0.294922,0
20290,0.802246,-0.507812,0.276855,0
20310,0.79248,-0.477539,0.317383,0
20330,0.793945,-0.498535,0.371094,0
20350,0.77832,-0.520996,0.383789,0
20370,0.748535,-0.529785,0.372559,0
20390,0.696777,-0.541504,0.42041,0
20410,0.640625,-0.523926,0.415527,0
20430,0.607422,-0.546875,0.411621,0
20450,0.630371,-0.54834,0.421387,0
20470,0.671875,-0.591309,0.398438,0
20490,0.670898,-0.593262,0.437012,0
20510,0.574219,-0.586426,0.421387,0
20530,0.52832,-0.636719,0.399414,0
20550,0.52002,-0.654297,0.401855,0
20570,0.510254,-0.654297,0.411133,0
20590,0.460449,-0.655273,0.378906,0
20610,0.456055,-0.669434,0.387695,0
20630,0.506348,-0.689453,0.375977,0
20650,0.513672,-0.694336,0.394043,0
20670,0.52002,-0.688477,0.364746,0
20690,0.495605,-0.716309,0.362305,0
20710,0.490234,-0.726074,0.328613,0
20730,0.485352,-0.713867,0.320312,0
20750,0.479004,-0.714844,0.320312,0
20770,0.496094,-0.745117,0.294922,0
20790,0.468262,-0.75,0.27002,0
20810,0.466309,-0.760742,0.240234,0
20830,0.505371,-0.796387,0.222656,0
20850,0.512695,-0.803223,0.189941,0
20870,0.501953,-0.793945,0.166504,0
20890,0.511719,-0.824707,0.128906,0
20910,0.537109,-0.846191,0.100098,0
20930,0.524414,-0.838867,0.0966797,0
20950,0.518066,-0.813477,0.10791,0
20970,0.537109,-0.825684,0.0600586,0
20990,0.549316,-0.812988,0.0288086,0
21010,0.523926,-0.806152,0.019043,0
21030,0.541992,-0.813965,-0.0239258,0
21050,0.601074,-0.810547,-0.0429688,0
21070,0.590332,-0.813965,-0.0742188,0
21090,0.577637,-0.811523,-0.111328,0
21110,0.544434,-0.774414,-0.105469,0
21130,0.570801,-0.763184,-0.152344,0
21150,0.635254,-0.768066,-0.156738,0
21170,0.649902,-0.76416,-0.177734,0
21190,0.661621,-0.757324,-0.190918,0
21210,0.662109,-0.71582,-0.166016,0
21220,0.696777,-0.66748,-0.165527,0
21240,0.73584,-0.671875,-0.186035,0
21260,0.717285,-0.664062,-0.180664,0
21280,0.723633,-0.64209,-0.177734,0
21300,0.723145,-0.581055,-0.149902,0
21320,0.67041,-0.525879,-0.141602,2001
21340,0.702148,-0.498047,-0.185059,0
21360,0.778809,-0.499512,-0.192383,0
21380,0.786133,-0.488281,-0.202148,0
21400,0.834473,-0.487305,-0.185547,0
21420,0.841309,-0.485352,-0.186523,0
21440,0.819824,-0.451172,-0.192383,0
21460,0.816895,-0.400391,-0.186035,0
21480,0.79541,-0.427734,-0.159668,0
21500,0.757324,-0.477051,-0.177734,0
21520,0.63623,-0.442871,-0.161621,0
21540,0.582031,-0.422363,-0.175293,0
21560,0.561035,-0.457031,-0.183594,0
21580,0.526855,-0.48291,-0.183105,0
21600,0.574219,-0.508789,-0.155273,0
21610,0.661133,-0.499023,-0.108398,0
21630,0.716309,-0.495605,-0.0537109,0
21650,0.75,-0.516602,0.0419922,0
21670,0.743652,-0.556641,0.00341797,0
21690,0.778809,-0.594727,-0.14209,0
21710,0.82666,-0.633789,-0.0600586,0
21730,0.769531,-0.682129,-0.0078125,0
21750,0.686035,-0.76123,-0.0957031,0
21770,0.665527,-0.786133,-0.118652,0
21790,0.604004,-0.800293,-0.0410156,0
21810,0.576172,-0.877441,-0.0419922,0
21830,0.62207,-0.982422,-0.043457,0
21850,0.632812,-0.952148,0.0214844,0
21870,0.566406,-0.925293,0.034668,0
21890,0.498535,-0.962891,0.0219727,0
21910,0.470703,-1.01514,0.0571289,0
21930,0.447754,-1.01074,0.101562,0
21950,0.414551,-1.01367,0.11084,0
21970,0.384766,-1.03613,0.129395,0
21990,0.369141,-1.04541,0.120605,0
22010,0.374023,-1.07422,0.170898,0
22030,0.324219,-1.03271,0.172852,0
22050,0.290039,-0.996582,0.165527,0
22070,0.305664,-0.974609,0.149902,0
22090,0.311035,-0.989746,0.143555,0
22110,0.277832,-1.00195,0.132324,0
22130,0.233887,-0.97168,0.147949,0
22150,0.221191,-0.95459,0.153809,0
22170,0.23291,-0.961914,0.128906,0
22190,0.197754,-0.966797,0.135742,0
22210,0.179199,-0.958496,0.138672,0
22230,0.199707,-0.955078,0.163574,0
22250,0.1875,-0.933594,0.183105,0
22270,0.217285,-0.912598,0.150391,0
22290,0.254395,-0.953613,0.146973,0
22310,0.259766,-0.977539,0.144531,0
22330,0.240723,-0.974609,0.154297,0
22350,0.226562,-0.958008,0.175293,0
22370,0.212891,-0.976562,0.17041,0
22390,0.225586,-0.977539,0.106934,2000
22410,0.202148,-0.943848,0.160156,0
22430,0.133301,-0.983398,0.182617,0
22450,0.104004,-0.961426,0.176758,0
22470,0.0708008,-0.910156,0.193359,0
22490,0.0688477,-0.904785,0.185547,0
22510,0.0834961,-0.938965,0.191895,0
22530,0.106445,-0.972168,0.177246,0
22550,0.130371,-0.952637,0.198242,0
22570,0.136719,-0.933594,0.20166,0
22590,0.151855,-0.94873,0.185059,0
22610,0.206543,-0.981445,0.1875,0
22630,0.226562,-0.983398,0.199707,0
22650,0.223145,-0.959961,0.189941,0
22670,0.199707,-0.947266,0.162109,0
22690,0.218262,-0.978027,0.141113,0
22710,0.235352,-0.990234,0.154297,0
22730,0.222656,-0.949707,0.172363,0
22750,0.221191,-0.933594,0.171875,0
22770,0.225586,-0.940918,0.148926,0
22790,0.232422,-0.977539,0.124512,0
22810,0.259277,-0.948242,0.144531,0
22830,0.254395,-0.903809,0.147949,0
22850,0.26709,-0.861328,0.144043,0
22870,0.261719,-0.861816,0.121582,0
22890,0.272949,-0.878418,0.104492,0
22910,0.361816,-0.933105,0.128418,0
22930,0.425781,-0.939453,0.14502,0
22950,0.43457,-0.894531,0.0947266,0
22970,0.398926,-0.880859,0.0825195,0
22990,0.417969,-0.899414,0.123047,0
23010,0.431641,-0.917969,0.175293,0
23030,0.402832,-0.90332,0.138672,0
23050,0.444824,-0.877441,0.107422,0
23070,0.477539,-0.869629,0.112305,0
23090,0.469238,-0.841797,0.112305,0
23110,0.442871,-0.838379,0.125,0
23130,0.458008,-0.87207,0.114258,0
23150,0.48584,-0.841309,0.107422,0
23170,0.469727,-0.822266,0.0961914,0
23190,0.487793,-0.813477,0.104492,0
23210,0.48877,-0.796875,0.112793,0
23230,0.522949,-0.786133,0.13916,0
23250,0.552734,-0.784668,0.134766,0
23270,0.554199,-0.775391,0.130371,0
23290,0.571777,-0.763184,0.130859,0
23330,0.638672,-0.763184,0.166016,0
23350,0.633301,-0.760742,0.165039,0
23370,0.632812,-0.745605,0.159668,0
23390,0.643066,-0.744629,0.182129,0
23420,0.671387,-0.758301,0.225586,0
23440,0.650391,-0.724121,0.233887,0
23460,0.631348,-0.710938,0.237793,0
23480,0.666016,-0.734863,0.236816,0
23500,0.659668,-0.766113,0.251953,0
23520,0.570801,-0.745605,0.294434,0
23540,0.5625,-0.712402,0.283691,0
23580,0.551758,-0.741699,0.329102,0
23600,0.557617,-0.718262,0.339844,0
23620,0.568848,-0.733398,0.359863,0
23640,0.556641,-0.739258,0.370605,0
23660,0.514648,-0.748047,0.365234,0
23680,0.533691,-0.759766,0.375977,0
23700,0.555664,-0.730469,0.390137,0
23720,0.552734,-0.739746,0.391602,0
23740,0.524902,-0.749512,0.425293,0
23760,0.48584,-0.773438,0.453125,0
23780,0.455566,-0.762207,0.433594,0
23800,0.463379,-0.742188,0.433105,0
23820,0.441406,-0.777344,0.45166,0
23840,0.401855,-0.762695,0.460938,0
23860,0.388672,-0.73584,0.465332,0
23880,0.410156,-0.726562,0.454102,0
23900,0.374512,-0.778809,0.431641,0
23920,0.31543,-0.777832,0.498535,0
23940,0.316406,-0.746094,0.47998,0
23960,0.341797,-0.728027,0.48877,0
23980,0.331543,-0.76709,0.487793,0
24000,0.302246,-0.778809,0.5,0
24020,0.288574,-0.741211,0.520508,0
24040,0.293457,-0.740723,0.47998,0
24060,0.3125,-0.750977,0.495117,0
24080,0.267578,-0.73584,0.481934,0
24100,0.252441,-0.743652,0.467773,0
24120,0.283203,-0.773926,0.473633,0
24140,0.318359,-0.795898,0.491211,0
24160,0.338379,-0.750488,0.50293,0
24180,0.290039,-0.747559,0.495117,0
24200,0.242676,-0.782227,0.493164,0
24220,0.207031,-0.796387,0.470703,0
24240,0.204102,-0.777832,0.461426,0
24260,0.228516,-0.779297,0.438965,0
24280,0.231934,-0.788574,0.412109,0
24300,0.21875,-0.80957,0.428711,0
24320,0.229004,-0.796875,0.40625,0
24340,0.23291,-0.808105,0.389648,0
24360,0.220703,-0.8125,0.389648,0
24380,0.222656,-0.804199,0.386719,0
24400,0.22998,-0.819336,0.380859,0
24420,0.219727,-0.820801,0.395508,0
24440,0.239258,-0.838867,0.36084,0
24460,0.249023,-0.850098,0.370605,0
24480,0.236328,-0.850098,0.36084,0
24500,0.234375,-0.851562,0.364746,0
24520,0.246582,-0.862793,0.352539,0
24540,0.249512,-0.858398,0.335938,0
24560,0.221191,-0.841309,0.310547,0
24580,0.229004,-0.825684,0.299805,0
24600,0.25,-0.851562,0.297363,0
24620,0.329102,-0.922852,0.277344,0
24640,0.286621,-0.919922,0.263672,0
24660,0.205566,-0.89209,0.268555,0
24680,0.200684,-0.883301,0.260742,0
24700,0.222656,-0.883301,0.246582,0
24720,0.209473,-0.894043,0.234375,0
24740,0.1875,-0.907715,0.228027,0
24760,0.216797,-0.911621,0.219727,0
24780,0.222656,-0.896484,0.199219,0
24800,0.212402,-0.879395,0.164062,0
24820,0.243652,-0.913574,0.154785,0
24840,0.246094,-0.932617,0.176758,0
24860,0.262207,-0.941406,0.168457,0
24880,0.294434,-0.921875,0.146484,0
24900,0.285156,-0.906738,0.133789,0
24920,0.295898,-0.908203,0.141113,0
24940,0.330566,-0.924316,0.131836,0
24960,0.340332,-0.922852,0.125,0
24980,0.346191,-0.923828,0.102051,0
25000,0.338867,-0.925781,0.090332,0
25020,0.32959,-0.920898,0.121582,0
25040,0.320801,-0.907715,0.100586,0
25060,0.403809,-0.911133,0.0566406,0
25080,0.473145,-0.908203,0.059082,0
25100,0.44873,-0.922363,0.065918,0
25120,0.413086,-0.890625,0.081543,0
25140,0.38623,-0.880859,0.0683594,0
25160,0.391602,-0.88623,0.0566406,0
25180,0.42334,-0.90625,0.0439453,0
25200,0.438477,-0.869629,0.034668,0
25220,0.425293,-0.835449,0.0151367,0
25240,0.415039,-0.852539,-0.00341797,0
25260,0.435547,-0.888672,0.00537109,0
25280,0.493652,-0.849121,0.0297852,0
25300,0.520508,-0.810547,0.0522461,0
25320,0.476074,-0.790039,0.0449219,0
25340,0.448242,-0.750488,0.074707,0
25360,0.462402,-0.761719,0.105957,0
25380,0.452148,-0.709473,0.122559,0
25400,0.497559,-0.709473,0.043457,0
25420,0.649902,-0.800781,0.0209961,0
25440,0.727539,-0.819824,0.0444336,0
25460,0.663086,-0.782227,0.0483398,0
25480,0.665527,-0.743164,0.0532227,0
25500,0.724609,-0.744629,0.0449219,0
25520,0.755371,-0.736816,0.059082,0
25540,0.743164,-0.725586,0.0561523,0
25560,0.746582,-0.709473,0.0424805,0
25580,0.78125,-0.710449,0.0512695,0
25600,0.785156,-0.683594,0.0708008,0
25620,0.790039,-0.662109,0.0825195,0
25640,0.791504,-0.679688,0.0830078,0
25660,0.792969,-0.626465,0.102051,0
25680,0.82959,-0.601562,0.124023,0
25700,0.849121,-0.611816,0.138672,0
25720,0.807617,-0.604492,0.164551,0
25740,0.774414,-0.609863,0.189453,0
25760,0.76416,-0.600098,0.203613,0
25780,0.740234,-0.583984,0.225098,0
25800,0.720215,-0.563965,0.24707,0
25820,0.701172,-0.603027,0.25293,0
25840,0.710449,-0.650879,0.262695,0
25860,0.714844,-0.626953,0.303711,0
25880,0.722168,-0.583496,0.312988,0
25900,0.739258,-0.604004,0.323242,0
25920,0.706543,-0.666504,0.342285,0
25940,0.644043,-0.683594,0.358887,0
25960,0.651367,-0.61084,0.370605,0
25980,0.679688,-0.567383,0.354004,0
26000,0.659668,-0.628906,0.362305,0
26020,0.562012,-0.69873,0.349121,0
26040,0.554688,-0.651855,0.385742,0
26060,0.599121,-0.564941,0.430664,0
26080,0.622559,-0.567871,0.435059,0
26100,0.616211,-0.624023,0.448242,0
26120,0.562012,-0.627441,0.467773,0
26140,0.515137,-0.625488,0.470215,0
26160,0.536133,-0.65332,0.456543,0
26180,0.521484,-0.651367,0.48877,0
26200,0.46875,-0.637695,0.482422,0
26220,0.484375,-0.65918,0.474609,0
26240,0.458008,-0.66748,0.475586,0
26260,0.454102,-0.672363,0.484375,0
26280,0.464355,-0.661133,0.492188,0
26300,0.42627,-0.676758,0.500977,0
26320,0.411133,-0.697754,0.490723,0
26340,0.396484,-0.685547,0.472656,0
26360,0.398926,-0.679688,0.5,0
26380,0.373047,-0.675781,0.497559,0
26400,0.385254,-0.703613,0.462891,0
26420,0.383301,-0.711426,0.449707,0
26440,0.376953,-0.716797,0.435547,0
26460,0.39209,-0.788574,0.433594,0
26480,0.371094,-0.75293,0.451172,0
26500,0.361816,-0.723633,0.427246,0
26520,0.359863,-0.734863,0.420898,0
26540,0.300781,-0.774414,0.411621,0
26560,0.305176,-0.785645,0.386719,0
26580,0.290527,-0.755859,0.37793,0
26600,0.279785,-0.772461,0.35791,0
26620,0.309082,-0.817871,0.337402,0
26640,0.299316,-0.812988,0.336914,0
26660,0.276855,-0.794434,0.341309,0
26680,0.302246,-0.796387,0.32666,0
26700,0.29834,-0.833496,0.321289,0
26720,0.331055,-0.866699,0.316406,0
26740,0.35498,-0.862305,0.297852,0
26760,0.347656,-0.878418,0.267578,0
26780,0.345215,-0.911621,0.254883,0
26800,0.34668,-0.905273,0.242188,0
26820,0.36084,-0.893066,0.216797,0
26840,0.347168,-0.898438,0.188477,0
26860,0.333496,-0.897949,0.153809,0
26880,0.352051,-0.878906,0.165527,0
26900,0.374512,-0.856934,0.172852,0
26920,0.380859,-0.888184,0.160645,0
26940,0.395508,-0.897461,0.134277,0
26960,0.40918,-0.865723,0.121582,0
26970,0.421875,-0.834961,0.121582,0
26990,0.429688,-0.840332,0.10791,0
27010,0.458496,-0.87793,0.101562,0
27030,0.475586,-0.84375,0.0820312,0
27050,0.490234,-0.831543,0.0537109,0
27070,0.514648,-0.820801,0.0678711,0
27090,0.526367,-0.825195,0.0527344,0
27110,0.54541,-0.810547,0.0205078,0
27130,0.541016,-0.83252,-0.00195312,0
27150,0.569824,-0.837891,0.0200195,0
27170,0.591309,-0.78418,0.0180664,0
27190,0.590332,-0.76709,-0.0102539,0
27210,0.583496,-0.756836,-0.0283203,0
27230,0.608887,-0.753906,-0.0263672,0
27250,0.641602,-0.733398,-0.0288086,0
27270,0.653809,-0.723145,-0.0322266,0
27290,0.662109,-0.718262,-0.0380859,0
27310,0.671387,-0.704102,-0.0595703,0
27330,0.692383,-0.668945,-0.0571289,0
27350,0.717773,-0.651855,-0.0581055,0
27370,0.723145,-0.631836,-0.0537109,0
27390,0.729492,-0.626465,-0.0605469,0
27410,0.751465,-0.626465,-0.0742188,0
27430,0.742676,-0.615723,-0.0708008,0
27450,0.74707,-0.580078,-0.0981445,0
27470,0.736328,-0.575195,-0.0795898,0
27490,0.778809,-0.590332,-0.0375977,0
27510,0.83252,-0.578613,-0.0410156,0
27530,0.848633,-0.531738,-0.0297852,0
27550,0.872559,-0.496094,-0.0166016,0
27570,0.869629,-0.469727,-0.00292969,0
27590,0.874023,-0.460449,-0.00244141,0
27610,0.883301,-0.451172,0.0166016,0
27630,0.887695,-0.414551,0.0424805,0
27650,0.894043,-0.42041,0.059082,0
27670,0.900391,-0.412598,0.0878906,0
27690,0.912109,-0.40918,0.102539,0
27710,0.929199,-0.385742,0.119629,0
27730,0.942383,-0.39209,0.125488,0
27750,0.911621,-0.412109,0.165039,0
27770,0.896973,-0.417969,0.220703,0
27790,0.888672,-0.401855,0.233398,0
27810,0.879883,-0.369629,0.243652,0
27830,0.871094,-0.376465,0.274902,0
27850,0.817871,-0.415527,0.326172,0
27870,0.774902,-0.421387,0.340332,0
27890,0.808594,-0.387207,0.360352,0
27910,0.84375,-0.380371,0.382812,0
27930,0.810059,-0.410156,0.392578,0
27950,0.759766,-0.439453,0.414062,0
27970,0.757812,-0.474121,0.438477,0
27990,0.797852,-0.486816,0.43457,0
28010,0.751465,-0.483398,0.444824,0
28030,0.694336,-0.506348,0.4375,0
28050,0.695801,-0.521973,0.452148,0
28070,0.67627,-0.523926,0.441406,0
28090,0.65625,-0.54541,0.433105,0
28110,0.609375,-0.577148,0.45166,0
28130,0.598633,-0.54541,0.442871,0
28150,0.62207,-0.539551,0.408691,0
28170,0.597656,-0.598145,0.395996,0
28190,0.54541,-0.612793,0.432129,0
28210,0.57373,-0.623535,0.449707,0
28230,0.5625,-0.649414,0.428223,0
28230,0.538086,-0.643066,0.443359,0
28250,0.493652,-0.648926,0.441406,0
28270,0.477539,-0.671875,0.40918,0
28290,0.463867,-0.707031,0.382324,0
28310,0.436523,-0.715332,0.362793,0
28330,0.430664,-0.717773,0.360352,0
28350,0.428711,-0.71875,0.357422,0
28370,0.418457,-0.733398,0.342285,0
28390,0.401367,-0.731445,0.32959,0
28410,0.413086,-0.735352,0.317871,0
28430,0.434082,-0.731934,0.318359,0
28450,0.450684,-0.755859,0.296387,0
28470,0.461426,-0.757812,0.29248,0
28490,0.407715,-0.741211,0.280762,0
28510,0.407227,-0.762207,0.269043,0
28530,0.478516,-0.796875,0.267578,0
28550,0.483887,-0.80957,0.246582,0
28570,0.462402,-0.802734,0.233398,0
28590,0.456543,-0.805176,0.185547,0
28610,0.432617,-0.806152,0.128418,0
28630,0.444336,-0.85791,0.0976562,0
28650,0.474121,-0.919922,0.0830078,0
28670,0.475098,-0.913574,0.0805664,0
28690,0.464844,-0.882812,0.0566406,0
28710,0.475098,-0.875977,0.0214844,0
28730,0.469727,-0.871582,0.0131836,0
28750,0.462402,-0.861328,0.0273438,0
28770,0.51123,-0.88623,0.00683594,0
28790,0.544434,-0.852051,-0.0151367,0
28820,0.540039,-0.844238,0.00244141,0
28840,0.592285,-0.834473,0.0078125,0
28860,0.583496,-0.828613,0.00341797,0
28880,0.56543,-0.810547,-0.027832,0
28900,0.591797,-0.784668,-0.0722656,0
28920,0.650391,-0.745605,-0.105469,0
28930,0.645508,-0.727539,-0.132812,0
28950,0.60498,-0.719238,-0.128906,0
28970,0.612793,-0.71582,-0.103027,0
28990,0.660645,-0.720215,-0.126953,0
29010,0.692383,-0.700684,-0.145508,0
29030,0.668945,-0.712402,-0.135742,0
29050,0.645508,-0.6875,-0.140625,0
29070,0.657227,-0.669922,-0.166992,0
29090,0.67041,-0.643555,-0.171387,0
29110,0.693359,-0.625977,-0.165039,0
29130,0.70752,-0.612793,-0.125977,0
29150,0.729004,-0.564453,-0.102539,0
29170,0.791016,-0.575195,-0.190918,0
29190,0.812988,-0.603516,-0.195312,2001
29210,0.745117,-0.605957,-0.149414,0
29230,0.805176,-0.622559,-0.172852,0
29250,0.880371,-0.618652,-0.194824,0
29270,0.871094,-0.5625,-0.188477,0
29290,0.833984,-0.56543,-0.195312,0
29310,0.777344,-0.578125,-0.199219,0
29330,0.78418,-0.570801,-0.217773,0
29350,0.771973,-0.556641,-0.197266,0
29370,0.734863,-0.557129,-0.183594,0
29390,0.680176,-0.556641,-0.19043,0
29410,0.617188,-0.484375,-0.170898,0
29430,0.575195,-0.459961,-0.165039,0
29450,0.518555,-0.489258,-0.18457,0
29470,0.48291,-0.513672,-0.174805,0
29490,0.498047,-0.539062,-0.137695,0
29510,0.535156,-0.515137,-0.129883,0
29530,0.51123,-0.517578,-0.112305,0
29550,0.512695,-0.541016,-0.0820312,0
29570,0.655762,-0.606445,-0.0942383,0
29590,0.728516,-0.63916,-0.0488281,0
29610,0.637207,-0.603027,-0.0737305,0
29630,0.621582,-0.632324,-0.121094,0
29650,0.75293,-0.690918,-0.0766602,0
29670,0.777832,-0.727051,0.00537109,0
29690,0.680664,-0.746094,-0.0878906,0
29710,0.723633,-0.845215,-0.153809,0
29720,0.81543,-0.896484,-0.00341797,0
29740,0.776367,-0.896484,0.0380859,0
29760,0.669922,-0.929199,-0.00732422,0
29780,0.60498,-0.976074,-0.0258789,0
29800,0.568359,-0.970215,0.0537109,0
29820,0.54248,-0.937988,0.124512,0
29840,0.504883,-0.92334,0.119629,0
29860,0.468262,-0.93457,0.0576172,0
29880,0.493164,-0.98877,0.0566406,0
29900,0.461914,-1.03955,0.0786133,0
29920,0.38623,-1.06689,0.111816,0
29940,0.376465,-1.07959,0.125,0
29960,0.359863,-1.02197,0.103027,0
29980,0.317871,-0.995117,0.122559,0
30000,0.279297,-0.995117,0.160645,0
30020,0.258789,-1.01172,0.205078,0
30040,0.233887,-0.973145,0.212891,0
30060,0.199707,-0.959473,0.160645,0
30080,0.196289,-0.964844,0.163086,0
30100,0.195312,-0.981934,0.176758,0
30120,0.175293,-0.989746,0.186523,0
30140,0.162598,-0.978516,0.20166,0
30160,0.160156,-0.961426,0.181641,0
30180,0.12793,-0.971191,0.190918,0
30200,0.101562,-0.969727,0.185059,2000
30220,0.110352,-0.937012,0.194336,0
30240,0.126953,-0.935547,0.195312,0
30260,0.131348,-0.991211,0.142578,0
30280,0.132812,-0.987305,0.14502,0
30300,0.112305,-0.975098,0.167969,0
30320,0.139648,-0.951172,0.186523,0
30340,0.158691,-0.957031,0.163086,0
30360,0.175781,-0.972168,0.168945,0
30380,0.200684,-0.955566,0.187012,0
30400,0.212402,-0.956543,0.17041,0
30420,0.20459,-0.94043,0.139648,0
30440,0.196289,-0.944824,0.132812,0
30460,0.208008,-0.952637,0.125977,0
30480,0.218262,-0.952637,0.148438,0
30500,0.216797,-0.953125,0.128906,0
30520,0.223145,-0.949219,0.117676,0
30540,0.224609,-0.924805,0.123047,0
30560,0.231934,-0.908691,0.16748,0
30580,0.238281,-0.880859,0.169922,0
30600,0.236816,-0.861816,0.169434,0
30620,0.237305,-0.872559,0.132812,0
30640,0.271484,-0.88916,0.135742,0
30660,0.306641,-0.911621,0.143555,0
30680,0.331055,-0.902832,0.153809,0
30700,0.341309,-0.892578,0.152344,0
30720,0.33252,-0.901855,0.143555,0
30740,0.305176,-0.907227,0.145996,0
30760,0.337402,-0.925781,0.145996,0
30780,0.385742,-0.93457,0.128906,0
30800,0.382812,-0.928711,0.123047,0
30820,0.370605,-0.921387,0.122559,0
30840,0.386719,-0.944336,0.122559,0
30860,0.402832,-0.962891,0.113281,0
30880,0.419922,-0.969727,0.078125,0
30900,0.441895,-0.991699,0.0820312,0
30920,0.449219,-0.984863,0.0800781,0
30940,0.440918,-0.921875,0.09375,0
30960,0.451172,-0.902832,0.128906,0
30980,0.435059,-0.850586,0.119141,0
31000,0.42627,-0.830078,0.123535,0
31020,0.422363,-0.821289,0.155762,0
31040,0.428711,-0.812988,0.179199,0
31060,0.488281,-0.784668,0.19873,0
31080,0.485352,-0.755371,0.17041,0
31100,0.483887,-0.762695,0.158691,0
31120,0.492188,-0.773926,0.151367,0
31140,0.48877,-0.763184,0.163574,0
31160,0.510742,-0.760742,0.164551,0
31180,0.512695,-0.76416,0.169922,0
31200,0.538574,-0.776855,0.185059,0
31220,0.584961,-0.807129,0.175293,0
31240,0.552246,-0.791504,0.184082,0
31260,0.561035,-0.787109,0.196289,0
31280,0.57959,-0.803711,0.208496,0
31300,0.602539,-0.792969,0.230469,0
31320,0.611328,-0.807129,0.199219,0
31340,0.606445,-0.791992,0.211426,0
31360,0.608398,-0.802734,0.227539,0
31380,0.620605,-0.816895,0.239258,0
31400,0.62207,-0.808105,0.241211,0
31420,0.619629,-0.780273,0.248047,0
31440,0.629395,-0.756836,0.278809,0
31460,0.594238,-0.784668,0.268555,0
31480,0.560059,-0.785645,0.292969,0
31500,0.536621,-0.755859,0.300293,0
31520,0.535156,-0.71875,0.318848,0
31540,0.550293,-0.724609,0.340332,0
31560,0.504395,-0.753906,0.348145,0
31580,0.485352,-0.747559,0.351562,0
31600,0.5,-0.731934,0.366211,0
31620,0.521484,-0.72168,0.396484,0
31640,0.51123,-0.75,0.412598,0
31660,0.520508,-0.755371,0.387695,0
31680,0.515625,-0.779297,0.373535,0
31700,0.491699,-0.76709,0.379395,0
31720,0.476562,-0.76709,0.397461,0
31740,0.470215,-0.760254,0.413086,0
31760,0.475586,-0.753418,0.424316,0
31780,0.446777,-0.75,0.424805,0
31800,0.42334,-0.750977,0.436523,0
31820,0.405273,-0.745605,0.456543,0
31840,0.39209,-0.725586,0.448242,0
31860,0.405273,-0.747559,0.438965,0
31880,0.389648,-0.743164,0.473633,0
31900,0.379883,-0.755371,0.46582,0
31920,0.373047,-0.793945,0.458984,0
31940,0.374512,-0.796387,0.479004,0
31960,0.359375,-0.771484,0.494629,0
31980,0.325684,-0.751953,0.501953,0
32000,0.314941,-0.787109,0.47168,0
32020,0.311035,-0.806152,0.472656,0
32040,0.267578,-0.776367,0.478516,0
32060,0.253418,-0.746094,0.493164,0
32080,0.275879,-0.775391,0.487305,0
32100,0.262695,-0.811035,0.483398,0
32120,0.231445,-0.817871,0.472656,0
32140,0.268066,-0.786621,0.462402,0
32160,0.272949,-0.764648,0.444824,0
32180,0.221191,-0.796875,0.449707,0
32200,0.221191,-0.815918,0.430176,0
32220,0.213379,-0.821777,0.401855,0
32240,0.208984,-0.829102,0.407715,0
32260,0.19873,-0.813477,0.38623,0
32280,0.188477,-0.828125,0.378418,0
32300,0.194824,-0.834473,0.368164,0
32320,0.193848,-0.845703,0.369629,0
32330,0.180664,-0.859863,0.36377,0
32350,0.164551,-0.867676,0.346191,0
32370,0.170898,-0.869629,0.335449,0
32390,0.147949,-0.879883,0.3125,0
32410,0.130859,-0.898438,0.305664,0
32430,0.123047,-0.876953,0.290527,0
32450,0.0878906,-0.871094,0.265625,0
32470,0.0834961,-0.87793,0.219238,0
32490,0.090332,-0.918945,0.203613,0
32510,0.130859,-0.943359,0.216797,0
32530,0.119629,-0.957031,0.199219,0
32550,0.106934,-0.95752,0.187012,0
32570,0.0932617,-0.910645,0.188965,0
32590,0.090332,-0.897949,0.185059,0
32610,0.113281,-0.915039,0.179199,0
32630,0.148438,-0.955078,0.180176,0
32650,0.203125,-0.97168,0.179199,0
32670,0.237305,-0.964844,0.193848,0
32690,0.231934,-0.930664,0.190918,0
32710,0.236328,-0.915039,0.180176,0
32730,0.258301,-0.949219,0.164551,0
32750,0.306641,-0.966797,0.171387,0
32770,0.333496,-0.955078,0.161621,0
32790,0.368164,-0.953613,0.125,0
32810,0.395996,-0.955078,0.097168,0
32830,0.384277,-0.96582,0.104004,0
32850,0.346191,-0.952148,0.115234,0
32870,0.352539,-0.916504,0.0825195,0
32890,0.369141,-0.879883,0.0625,0
32910,0.35498,-0.905273,0.0380859,0
32930,0.356934,-0.92041,0.0361328,0
32950,0.366211,-0.908203,0.0268555,0
32970,0.378906,-0.866211,0.0439453,0
32990,0.399414,-0.847656,0.0288086,0
33010,0.40625,-0.833984,0.019043,0
33030,0.393555,-0.841797,0.0126953,0
33050,0.420898,-0.816895,0.0258789,0
33070,0.48877,-0.808594,0.0322266,0
33090,0.495605,-0.810547,0.0307617,0
33110,0.501953,-0.805664,-0.00683594,0
33130,0.522949,-0.799316,-0.0205078,0
33150,0.563965,-0.791504,-0.00976562,0
33170,0.604004,-0.785156,0.0288086,0
33190,0.590332,-0.769043,-0.000488281,0
33210,0.588867,-0.762695,-0.0078125,0
33230,0.639648,-0.764648,0.00830078,0
33250,0.667969,-0.743652,-0.0117188,0
33270,0.686035,-0.725586,0.00146484,0
33290,0.708984,-0.699707,0.0517578,0
33310,0.719238,-0.665527,0.0605469,0
33330,0.750977,-0.664551,0.0195312,0
33350,0.774414,-0.674316,0.0200195,0
33370,0.784668,-0.634766,0.0419922,0
33390,0.82666,-0.625488,0.043457,0
33410,0.863281,-0.623047,0.0932617,0
33430,0.852539,-0.620117,0.103027,0
33450,0.856934,-0.628418,0.0820312,0
33470,0.862793,-0.615234,0.11084,0
33490,0.847656,-0.589355,0.130371,0
33510,0.842285,-0.580078,0.153809,0
33530,0.842773,-0.586914,0.193848,0
33550,0.854004,-0.623535,0.193848,0
33570,0.847168,-0.615723,0.218262,0
33590,0.802734,-0.575195,0.243164,0
33610,0.779785,-0.535156,0.25293,0
33630,0.771973,-0.564453,0.262695,0
33650,0.747559,-0.612305,0.280762,0
33670,0.673828,-0.614258,0.328613,0
33690,0.633301,-0.579102,0.342285,0
33710,0.687012,-0.571777,0.339844,0
33730,0.694824,-0.609863,0.366211,0
33750,0.625488,-0.634766,0.389648,0
33770,0.57959,-0.626465,0.413574,0
33790,0.620117,-0.619629,0.420898,0
33810,0.602539,-0.641113,0.431641,0
33830,0.544922,-0.643066,0.418945,0
33850,0.524902,-0.649414,0.439941,0
33870,0.540527,-0.657715,0.44873,0
33890,0.500488,-0.65625,0.4375,0
33910,0.47998,-0.653809,0.438477,0
33930,0.502441,-0.665039,0.429688,0
33950,0.492188,-0.691895,0.437988,0
33970,0.466797,-0.704102,0.420898,0
33990,0.454102,-0.672852,0.408691,0
34020,0.475586,-0.670898,0.390625,0
34040,0.458984,-0.695312,0.436523,0
34060,0.416016,-0.702148,0.431152,0
34080,0.436523,-0.725098,0.413574,0
34100,0.418945,-0.720215,0.378906,0
34120,0.38623,-0.758789,0.385742,0
34140,0.382324,-0.779297,0.375,0
34160,0.358398,-0.780762,0.347168,0
34180,0.333008,-0.785156,0.324219,0
34200,0.345703,-0.802734,0.31543,0
34220,0.34375,-0.820312,0.289551,0
34240,0.354492,-0.845703,0.277344,0
34260,0.355957,-0.855469,0.272949,0
34280,0.339844,-0.86084,0.233887,0
34290,0.322266,-0.869141,0.205078,0
34310,0.335938,-0.890625,0.163086,0
34330,0.383789,-0.925781,0.14209,0
34350,0.381348,-0.950684,0.194824,0
34370,0.29834,-0.900391,0.19043,0
34390,0.306152,-0.898438,0.150391,0
34410,0.291992,-0.888672,0.128418,0
34430,0.257324,-0.887207,0.104004,0
34450,0.278809,-0.906738,0.0864258,0
34470,0.305176,-0.890137,0.0576172,0
34490,0.34375,-0.921875,0.0283203,0
34510,0.367188,-0.936523,0.0444336,0
34530,0.32959,-0.924805,0.0317383,0
34550,0.334961,-0.927246,0.0444336,0
34570,0.372559,-0.908691,0.0449219,0
34590,0.415527,-0.892578,0.065918,0
34610,0.462891,-0.925293,0.0424805,0
34630,0.504395,-0.939941,0.0634766,0
34650,0.480957,-0.890137,0.0664062,0
34670,0.466797,-0.864746,0.0175781,0
34690,0.532715,-0.862305,-0.0390625,0
34710,0.556152,-0.855957,-0.0224609,0
34730,0.515625,-0.845703,-0.0292969,0
34750,0.541992,-0.856445,-0.0668945,0
34770,0.581055,-0.853027,-0.0844727,0
34790,0.599609,-0.814453,-0.0927734,0
34810,0.586914,-0.791016,-0.103027,0
34830,0.604492,-0.772949,-0.126953,0
34850,0.612305,-0.750977,-0.13623,0
34870,0.628906,-0.733887,-0.13916,0
34890,0.651855,-0.708496,-0.132812,0
34910,0.639648,-0.678711,-0.13916,0
34930,0.644043,-0.652344,-0.127441,0
34950,0.644043,-0.642578,-0.12793,0
34970,0.662109,-0.64209,-0.140625,0
34990,0.675781,-0.604492,-0.144531,0
35010,0.693359,-0.576172,-0.145508,0
35030,0.696289,-0.571289,-0.150391,0
35050,0.711426,-0.573242,-0.137695,0
35070,0.724609,-0.554199,-0.118164,0
35090,0.720215,-0.53418,-0.125977,0
35110,0.789062,-0.536621,-0.138184,0
35130,0.85791,-0.528809,-0.102539,0
35150,0.872559,-0.504883,-0.0654297,0
35170,0.891602,-0.50293,-0.0400391,0
35190,0.90625,-0.496094,-0.0234375,0
35210,0.915039,-0.472168,-0.0151367,0
35230,0.942383,-0.469238,0.00732422,0
35250,0.958496,-0.459961,0.0297852,0
35270,0.964844,-0.470703,0.0473633,0
35290,0.96582,-0.446289,0.0756836,0
35310,0.962402,-0.432129,0.0947266,0
35330,0.966797,-0.444824,0.113281,0
35350,0.929688,-0.477539,0.140137,0
35370,0.89502,-0.495605,0.20166,0
35390,0.891602,-0.458008,0.237793,0
35410,0.905762,-0.458984,0.259277,0
35430,0.866699,-0.509277,0.286133,0
35450,0.796875,-0.541992,0.319336,0
35470,0.76709,-0.521973,0.34082,0
35490,0.771484,-0.546387,0.357422,0
35510,0.762207,-0.584961,0.358398,0
35530,0.70752,-0.573242,0.376465,0
35550,0.661133,-0.585938,0.387695,0
35570,0.657715,-0.646973,0.398926,0
35590,0.625977,-0.652832,0.413086,0
35610,0.61377,-0.620117,0.411621,0
35630,0.594727,-0.633789,0.398926,0
35650,0.587402,-0.65332,0.362793,0
35670,0.493164,-0.696777,0.346191,0
35690,0.42627,-0.694824,0.287109,0
35710,0.533691,-0.720215,0.272949,0
35730,0.546387,-0.743164,0.299805,0
35750,0.463867,-0.760254,0.29541,0
35770,0.489746,-0.749512,0.296387,0
35790,0.489258,-0.739746,0.310547,0
35810,0.483887,-0.766113,0.294922,0
35830,0.496582,-0.78125,0.29541,0
35850,0.499023,-0.796875,0.293457,0
35870,0.472168,-0.803711,0.29248,0
35890,0.442383,-0.803223,0.286133,0
35910,0.430664,-0.811523,0.241699,0
35930,0.410156,-0.83252,0.209961,0
35950,0.410645,-0.828613,0.201172,0
35970,0.418945,-0.837402,0.189941,0
35990,0.421387,-0.870605,0.162109,0
36010,0.446777,-0.882812,0.120605,0
36030,0.441406,-0.878418,0.0805664,0
36050,0.446289,-0.858887,0.0625,0
36070,0.447754,-0.878906,0.0566406,0
36090,0.463379,-0.898926,0.0488281,0
36110,0.459473,-0.900879,0.0415039,0
36130,0.445801,-0.901367,0.00439453,0
36150,0.448242,-0.930176,-0.0395508,0
36170,0.41748,-0.874512,-0.0639648,0
36190,0.399902,-0.864258,-0.0722656,0
36210,0.426758,-0.874512,-0.0917969,0
36230,0.474121,-0.865723,-0.109863,0
36250,0.469238,-0.85791,-0.118164,0
36270,0.461426,-0.833008,-0.124512,0
36290,0.483887,-0.818848,-0.15332,0
36310,0.540527,-0.776855,-0.180176,0
36330,0.57373,-0.744141,-0.149414,0
36350,0.60791,-0.740234,-0.171875,0
36370,0.638672,-0.730957,-0.1875,0
36390,0.708984,-0.719238,-0.197754,0
36410,0.706543,-0.710938,-0.17334,0
36430,0.694336,-0.654785,-0.172852,0
36450,0.710938,-0.625488,-0.206055,0
36470,0.731934,-0.603516,-0.230469,0
36490,0.780273,-0.600098,-0.212402,0
36510,0.755371,-0.586914,-0.186035,0
36530,0.717773,-0.547852,-0.209473,0
36550,0.747559,-0.555176,-0.265625,2001
36570,0.758301,-0.541992,-0.210449,0
36590,0.695801,-0.489258,-0.167969,0
36610,0.712891,-0.51123,-0.146484,0
36630,0.785645,-0.561523,-0.15918,0
36650,0.814453,-0.564941,-0.18457,0
36670,0.812012,-0.493652,-0.154785,0
36690,0.764648,-0.471191,-0.169434,0
36710,0.789551,-0.496582,-0.222656,0
36730,0.852051,-0.549316,-0.202148,0
36750,0.80127,-0.532227,-0.141113,0
36770,0.755859,-0.506836,-0.118164,0
36790,0.730957,-0.509277,-0.133789,0
36810,0.663086,-0.535645,-0.134277,0
36830,0.690918,-0.587402,-0.187012,0
36850,0.785645,-0.614258,-0.141113,0
36870,0.743652,-0.621582,-0.0874023,0
36890,0.652344,-0.621094,-0.0957031,0
36910,0.552246,-0.640137,-0.090332,0
36930,0.473145,-0.652344,-0.137695,0
36950,0.484863,-0.644531,-0.158203,0
36970,0.483887,-0.641113,-0.115234,0
36990,0.469238,-0.676758,-0.0634766,0
37010,0.460449,-0.79248,-0.100098,0
37030,0.462402,-0.842285,-0.0898438,0
37050,0.44043,-0.790527,-0.0356445,0
37070,0.472168,-0.804199,-0.0419922,0
37090,0.52002,-0.914551,-0.0317383,0
37110,0.499512,-0.946289,0.027832,0
37130,0.458984,-0.928711,0.0219727,0
37150,0.4375,-0.98877,-0.0239258,0
37170,0.442383,-1.02734,-0.0654297,0
37190,0.38623,-1.00049,0.0214844,0
37210,0.322754,-1.02344,0.00878906,0
37230,0.341797,-1.08984,-0.0234375,0
37250,0.36377,-1.1123,-0.0219727,0
37270,0.329102,-1.06689,0.0151367,0
37290,0.294434,-1.0957,0.0166016,0
37310,0.312012,-1.13525,-0.00585938,0
37330,0.321777,-1.13525,0.0585938,0
37350,0.298828,-1.08203,0.0678711,0
37370,0.293945,-1.08105,0.0795898,0
37390,0.283203,-1.08057,0.0883789,0
37410,0.254395,-1.03076,0.09375,0
37430,0.196777,-1.01953,0.0859375,0
37450,0.202637,-1.01758,0.112305,0
37470,0.205566,-1.04932,0.123047,0
37490,0.185059,-1.00293,0.105957,0
37510,0.150391,-0.933594,0.108887,0
37530,0.151855,-0.94873,0.0839844,0
37550,0.150391,-0.967285,0.0673828,0
37570,0.131836,-0.967773,0.0898438,0
37590,0.118652,-0.946289,0.102539,0
37610,0.120605,-0.968262,0.0673828,0
37630,0.118652,-0.950684,0.0498047,0
37650,0.12207,-0.949219,0.0395508,0
37670,0.126465,-0.956055,0.0424805,0
37690,0.124023,-0.949707,0.0737305,0
37710,0.144531,-0.944824,0.0844727,0
37720,0.171387,-0.939941,0.0839844,0
37740,0.184082,-0.915527,0.059082,0
37760,0.190918,-0.918457,0.0507812,0
37780,0.181152,-0.899902,0.0732422,0
37800,0.203125,-0.88623,0.0898438,0
37820,0.272949,-0.937988,0.0654297,0
37840,0.309082,-0.937988,0.0766602,0
37860,0.324219,-0.906738,0.050293,0
37880,0.358887,-0.914062,0.0942383,0
37900,0.416016,-0.921875,0.107422,0
37920,0.455566,-0.964844,0.0673828,0
37940,0.513184,-0.956543,0.00585938,0
37960,0.626465,-0.95752,-0.0185547,0
37980,0.741699,-0.923828,-0.0170898,0
38000,0.771484,-0.897949,-0.0214844,0
38020,0.751465,-0.835938,0,0
38040,0.755371,-0.790527,0.00439453,0
38060,0.769531,-0.779785,0.00830078,0
38080,0.734863,-0.745117,0.0170898,0
38100,0.727539,-0.719727,0.00927734,0
38120,0.730469,-0.748535,0.0195312,0
38140,0.648926,-0.767578,0.0605469,0
38160,0.620117,-0.765625,0.0800781,0
38180,0.607422,-0.795898,0.104492,0
38200,0.553711,-0.848145,0.11377,0
38220,0.478516,-0.84668,0.151367,0
38240,0.443359,-0.852051,0.13623,0
38260,0.388184,-0.868652,0.133789,0
38280,0.331055,-0.907715,0.157715,0
38300,0.244141,-0.979004,0.160156,0
38320,0.19873,-1.0127,0.136719,0
38340,0.16748,-0.983398,0.185547,0
38360,0.137695,-0.941406,0.207031,0
38380,0.106934,-0.953125,0.183105,0
38400,0.0854492,-1.00391,0.162109,0
38420,0.0698242,-1.03076,0.160156,0
38440,0.0766602,-0.987793,0.199219,0
38460,0.0732422,-0.949707,0.192871,0
38480,0.081543,-0.937012,0.173828,0
38500,0.0678711,-0.949707,0.182129,0
38520,0.0668945,-1.00879,0.188965,0
38540,0.078125,-0.958984,0.160156,0
38560,0.0830078,-0.894531,0.162598,2000
38580,0.123047,-0.915527,0.201172,0
38600,0.152344,-0.979004,0.194336,0
38620,0.125488,-0.987305,0.133789,0
38640,0.10791,-0.898926,0.150879,0
38660,0.0839844,-0.861328,0.164551,0
38680,0.101562,-0.914551,0.154297,0
38700,0.132812,-0.962402,0.155273,0
38720,0.155762,-0.959473,0.157715,0
38740,0.166016,-0.950195,0.152832,0
38760,0.15918,-0.94043,0.147949,0
38780,0.179199,-0.932129,0.140625,0
38800,0.207031,-0.960938,0.15625,0
38820,0.218262,-0.96582,0.128418,0
38840,0.203125,-0.934082,0.114258,0
38860,0.216309,-0.928223,0.115723,0
38880,0.263184,-0.976562,0.0986328,0
38900,0.264648,-0.950684,0.107422,0
38920,0.255371,-0.927734,0.108398,0
38940,0.272949,-0.938477,0.115234,0
38960,0.298828,-0.947266,0.121582,0
38980,0.347656,-0.939453,0.12793,0
39000,0.380371,-0.905762,0.135742,0
39020,0.361816,-0.902832,0.128418,0
39040,0.351074,-0.878418,0.105957,0
39060,0.40918,-0.868164,0.0932617,0
39080,0.445801,-0.907715,0.0732422,0
39100,0.410645,-0.88916,0.0717773,0
39120,0.383789,-0.842773,0.10791,0
39140,0.432129,-0.864746,0.116211,0
39160,0.477051,-0.87793,0.116211,0
39180,0.464355,-0.848633,0.0834961,0
39200,0.45752,-0.824219,0.0517578,0
39220,0.493164,-0.833984,0.0693359,0
39240,0.472168,-0.851562,0.101074,0
39260,0.509766,-0.834473,0.124512,0
39280,0.533691,-0.789551,0.114746,0
39300,0.527832,-0.78125,0.119629,0
39320,0.489746,-0.752441,0.162598,0
39340,0.52832,-0.773438,0.206543,0
39360,0.567383,-0.751953,0.205078,0
39380,0.59375,-0.742676,0.185059,0
39400,0.618164,-0.750488,0.177734,0
39420,0.652832,-0.764648,0.203125,0
39440,0.65625,-0.753906,0.21582,0
39460,0.697266,-0.735352,0.196289,0
39480,0.683594,-0.736328,0.185059,0
39500,0.671875,-0.739258,0.197754,0
39520,0.683105,-0.741211,0.209961,0
39540,0.706055,-0.728516,0.216309,0
39560,0.711914,-0.679688,0.235352,0
39580,0.72168,-0.665039,0.251953,0
39600,0.72998,-0.705566,0.257812,0
39620,0.685059,-0.746094,0.242188,0
39640,0.678711,-0.692871,0.257812,0
39660,0.712891,-0.646973,0.276855,0
39670,0.711426,-0.639648,0.326172,0
39690,0.655273,-0.678223,0.374512,0
39710,0.585449,-0.708008,0.378906,0
39730,0.520996,-0.689941,0.413086,0
39750,0.524414,-0.660156,0.444824,0
39770,0.577148,-0.655273,0.445801,0
39790,0.570801,-0.711426,0.464355,0
39810,0.498535,-0.770996,0.451172,0
39830,0.406738,-0.781738,0.498047,0
39850,0.443848,-0.736816,0.508789,0
39870,0.448242,-0.717773,0.516602,0
39890,0.404785,-0.737793,0.527832,0
39910,0.345703,-0.762695,0.527344,0
39930,0.319336,-0.808594,0.505371,0
39950,0.319336,-0.758301,0.540527,0
39970,0.291016,-0.71582,0.55127,0
39990,0.265625,-0.757812,0.491699,0
40010,0.269531,-0.802246,0.505371,0
40030,0.233398,-0.779785,0.522949,0
40050,0.225098,-0.782227,0.509277,0
40070,0.242188,-0.761719,0.469727,0
40090,0.240234,-0.745605,0.489258,0
40110,0.202148,-0.736816,0.470215,0
40130,0.194336,-0.75293,0.458008,0
40150,0.175781,-0.786621,0.453613,0
40170,0.164551,-0.807617,0.442383,0
40190,0.180176,-0.791992,0.441406,0
40210,0.165039,-0.784668,0.416992,0
40230,0.17627,-0.803223,0.399414,0
40250,0.179688,-0.830566,0.405273,0
40270,0.194824,-0.822266,0.39502,0
40290,0.185059,-0.836426,0.379883,0
40310,0.175781,-0.845703,0.378906,0
40330,0.166504,-0.85791,0.364746,0
40350,0.154297,-0.858887,0.346191,0
40370,0.164551,-0.847168,0.365723,0
40390,0.149902,-0.865234,0.334473,0
40410,0.165527,-0.876465,0.311523,0
40430,0.17627,-0.892578,0.288086,0
40450,0.202148,-0.902832,0.291504,0
40470,0.162109,-0.916504,0.273438,0
40490,0.143066,-0.924316,0.270508,0
40510,0.150391,-0.908203,0.265137,0
40530,0.175293,-0.909668,0.229004,0
40550,0.196289,-0.926758,0.21582,0
40570,0.178223,-0.930176,0.219727,0
40590,0.193359,-0.928223,0.21875,0
40610,0.202148,-0.916504,0.208984,0
40630,0.194824,-0.923828,0.19043,0
40650,0.209961,-0.923828,0.191406,0
40670,0.215332,-0.922852,0.207031,0
40690,0.217285,-0.880371,0.240234,0
40710,0.287598,-0.894043,0.220215,0
40730,0.317871,-0.908203,0.178223,0
40750,0.306641,-0.918457,0.160156,0
40770,0.318359,-0.90918,0.128418,0
40790,0.335449,-0.913574,0.126953,0
40810,0.345215,-0.927734,0.129883,0
40830,0.354004,-0.939941,0.124023,0
40850,0.337891,-0.914062,0.121094,0
40870,0.331055,-0.901855,0.102539,0
40890,0.314941,-0.894043,0.0844727,0
40910,0.346191,-0.879883,0.0620117,0
40930,0.381836,-0.86377,0.0913086,0
40950,0.342285,-0.84668,0.0732422,0
40970,0.309082,-0.84082,0.059082,0
40990,0.291504,-0.851074,0.0473633,0
41010,0.399902,-0.862305,0.0161133,0
41030,0.532715,-0.87793,0.0356445,0
41050,0.530762,-0.83252,0.0322266,0
41070,0.501465,-0.879395,0.0161133,0
41090,0.490723,-0.916016,0.0527344,0
41110,0.519531,-0.903809,0.0581055,0
41130,0.538086,-0.854492,0.0224609,0
41150,0.567383,-0.844238,0.000976562,0
41170,0.551758,-0.871582,0.0219727,0
41190,0.555664,-0.834473,0.065918,0
41210,0.572754,-0.835449,0.0253906,0
41230,0.583496,-0.746094,0.0419922,0
41250,0.625,-0.73291,0.0976562,0
41270,0.665039,-0.702637,0.0927734,0
41290,0.676758,-0.695801,0.0717773,0
41310,0.702148,-0.651367,0.10498,0
41330,0.746582,-0.642578,0.124023,0
41350,0.794434,-0.617676,0.0688477,0
41370,0.83252,-0.57959,0.0541992,0
41390,0.81543,-0.578125,0.0668945,0
41410,0.8125,-0.595215,0.103516,0
41430,0.844727,-0.596191,0.117676,0
41450,0.856934,-0.55957,0.124023,0
41470,0.874023,-0.55957,0.114258,0
41490,0.891113,-0.580566,0.130859,0
41510,0.884277,-0.587891,0.175293,0
41530,0.849609,-0.598145,0.196777,0
41550,0.868652,-0.56543,0.214844,0
41570,0.884277,-0.538574,0.213379,0
41590,0.864258,-0.55127,0.23291,0
41610,0.810547,-0.570312,0.288574,0
41630,0.776855,-0.549316,0.311523,0
41650,0.800781,-0.555664,0.303711,0
41670,0.776855,-0.568848,0.322266,0
41690,0.674316,-0.580078,0.379883,0
41710,0.671875,-0.577148,0.378418,0
41730,0.713379,-0.636719,0.327148,0
41750,0.665527,-0.697266,0.336426,0
41770,0.587891,-0.742676,0.428223,0
41790,0.570312,-0.603516,0.450195,0
41810,0.55957,-0.522949,0.431152,0
41830,0.539551,-0.650391,0.463867,0
41850,0.442383,-0.728027,0.474121,0
41870,0.433594,-0.715332,0.473633,0
41890,0.470215,-0.614258,0.469238,0
41910,0.444824,-0.600586,0.494141,0
41930,0.420898,-0.666016,0.475098,0
41950,0.394043,-0.709473,0.443359,0
41970,0.365234,-0.740723,0.463867,0
41990,0.361328,-0.711914,0.448242,0
42010,0.356934,-0.687012,0.41748,0
42030,0.385254,-0.724609,0.415039,0
42050,0.353516,-0.728027,0.371094,0
42070,0.317383,-0.774902,0.37207,0
42090,0.344238,-0.812012,0.370117,0
42110,0.375977,-0.80127,0.37207,0
42130,0.339844,-0.756348,0.376953,0
42150,0.32666,-0.797363,0.332031,0
42170,0.32959,-0.827637,0.339355,0
42190,0.312988,-0.826172,0.349609,0
42210,0.314453,-0.831543,0.326172,0
42230,0.310547,-0.82666,0.288086,0
42250,0.300781,-0.842285,0.26709,0
42270,0.283691,-0.847656,0.25293,0
42290,0.285156,-0.858398,0.226562,0
42310,0.319824,-0.873535,0.207031,0
42330,0.296875,-0.883789,0.188477,0
42350,0.291992,-0.878906,0.16748,0
42370,0.309082,-0.845703,0.123535,0
42390,0.282227,-0.868164,0.152344,0
42410,0.337891,-0.905762,0.138672,0
42430,0.335938,-0.938965,0.0864258,0
42450,0.303711,-0.951172,0.0795898,0
42470,0.32959,-0.93457,0.0615234,0
42490,0.353027,-0.910645,0.00976562,0
42510,0.335449,-0.914062,-0.0195312,0
42530,0.30127,-0.941895,-0.027832,0
42550,0.310059,-0.962891,-0.0302734,0
42570,0.339355,-0.95166,-0.0375977,0
42590,0.388184,-0.918945,-0.0209961,0
42610,0.40625,-0.920898,-0.0288086,0
42630,0.405273,-0.927734,-0.0263672,0
42650,0.437012,-0.93457,-0.0327148,0
42670,0.425293,-0.903809,-0.0405273,0
42690,0.445312,-0.87207,-0.0693359,0
42710,0.493164,-0.878906,-0.0888672,0
42730,0.513672,-0.905273,-0.133301,0
42750,0.500488,-0.933105,-0.181641,0
42770,0.486328,-0.930176,-0.166504,0
42790,0.443359,-0.894043,-0.125,0
42810,0.448242,-0.834473,-0.150391,0
42830,0.496094,-0.85498,-0.216797,0
42850,0.519043,-0.822754,-0.154785,0
42870,0.546875,-0.769043,-0.143066,0
42890,0.567871,-0.733887,-0.169434,0
42910,0.599121,-0.711914,-0.165039,0
42930,0.65332,-0.686523,-0.181641,0
42950,0.645508,-0.627441,-0.162598,0
42970,0.67334,-0.612305,-0.148926,0
42990,0.70752,-0.609375,-0.166016,0
43010,0.745605,-0.594727,-0.164062,0
43030,0.766113,-0.558594,-0.129883,0
43050,0.777344,-0.541992,-0.111816,0
43060,0.81543,-0.53125,-0.120117,0
43080,0.84082,-0.516602,-0.124023,0
43100,0.860352,-0.519043,-0.103516,0
43120,0.847168,-0.492676,-0.0703125,0
43140,0.844727,-0.457031,-0.0839844,0
43160,0.893555,-0.469238,-0.090332,0
43180,0.921875,-0.478516,-0.0415039,0
43200,0.923828,-0.465332,-0.0205078,0
43220,0.944824,-0.464844,-0.0078125,0
43240,0.960938,-0.460449,0.0107422,0
43260,0.979004,-0.456543,0.0332031,0
43280,0.980469,-0.455078,0.0498047,0
43300,0.967285,-0.460938,0.074707,0
43320,0.972168,-0.467285,0.102051,0
43340,0.943359,-0.498535,0.118164,0
43360,0.897461,-0.51123,0.133789,0
43380,0.879395,-0.536133,0.145996,0
43400,0.845215,-0.566406,0.158203,0
43420,0.828125,-0.566895,0.183594,0
43440,0.819824,-0.574707,0.200684,0
43460,0.804199,-0.566895,0.210449,0
43480,0.768066,-0.605957,0.21875,0
43500,0.740234,-0.652344,0.260742,0
43520,0.699219,-0.664062,0.288086,0
43540,0.687012,-0.657227,0.27832,0
43560,0.645996,-0.678223,0.28418,0
43580,0.574219,-0.737793,0.316895,0
43600,0.557617,-0.751953,0.348145,0
43620,0.51123,-0.625488,0.335449,0
43640,0.547363,-0.619629,0.335449,0
43660,0.540527,-0.76416,0.340332,0
43680,0.537109,-0.812988,0.316895,0
43700,0.503418,-0.712891,0.331543,0
43720,0.512207,-0.631348,0.331543,0
43740,0.496582,-0.685547,0.320312,0
43760,0.485352,-0.744629,0.316406,0
43780,0.480957,-0.742676,0.282227,0
43800,0.47168,-0.718262,0.293457,0
43820,0.482422,-0.6875,0.288574,0
43840,0.486816,-0.725586,0.286621,0
43860,0.475098,-0.775391,0.275879,0
43880,0.45166,-0.769043,0.269531,0
43900,0.473145,-0.771484,0.255859,0
43920,0.486328,-0.783691,0.234375,0
43940,0.465332,-0.820801,0.206055,0
43960,0.474121,-0.826172,0.203125,0
43980,0.467285,-0.808105,0.1875,0
44000,0.458008,-0.815918,0.166016,0
44020,0.372559,-0.807617,0.101074,0
44040,0.3125,-0.791016,0.0683594,0
44060,0.436035,-0.849121,0.0498047,0
44080,0.495605,-0.916504,0.0654297,0
44100,0.481934,-0.952637,0.0307617,0
44120,0.463379,-0.92334,-0.0185547,0
44140,0.459961,-0.866699,-0.0249023,0
44160,0.457031,-0.894531,-0.00732422,0
44180,0.461426,-0.925781,-0.0268555,0
44200,0.489258,-0.916992,-0.0629883,0
44220,0.518066,-0.90918,-0.0854492,0
44240,0.530762,-0.89502,-0.0830078,0
44260,0.522461,-0.89502,-0.0986328,0
44280,0.537109,-0.888184,-0.114258,0
44300,0.553711,-0.879395,-0.120117,0
44320,0.576172,-0.886719,-0.170898,0
44340,0.567871,-0.869629,-0.158203,0
44360,0.536621,-0.809082,-0.148438,0
44380,0.540527,-0.746582,-0.187988,0
44400,0.524902,-0.739258,-0.277832,0
44420,0.490723,-0.746094,-0.283203,0
44440,0.428711,-0.74707,-0.243652,0
44460,0.465332,-0.70166,-0.255859,0
44480,0.586426,-0.650879,-0.317383,0
44500,0.593262,-0.645996,-0.307617,0
44520,0.547852,-0.617188,-0.244629,0
44540,0.544434,-0.586426,-0.225098,0
44560,0.614746,-0.540039,-0.285156,2001
44580,0.710449,-0.501953,-0.340332,0
44600,0.82373,-0.54541,-0.332031,0
44620,0.784668,-0.57959,-0.299805,0
44640,0.779297,-0.514648,-0.321289,0
44660,0.870605,-0.540527,-0.34082,0
44680,0.876953,-0.527344,-0.325684,0
44700,0.80957,-0.45166,-0.258301,0
44720,0.837402,-0.469238,-0.286133,0
44740,0.895996,-0.480957,-0.307617,0
44760,0.892578,-0.458984,-0.280273,0
44780,0.840332,-0.382812,-0.269043,0
44800,0.799316,-0.338867,-0.265137,0
44820,0.827637,-0.358887,-0.27002,0
44840,0.85791,-0.384277,-0.254395,0
44860,0.80957,-0.344238,-0.211426,0
44880,0.77832,-0.273926,-0.191895,0
44900,0.78125,-0.267578,-0.178711,0
44920,0.803711,-0.273438,-0.142578,0
44940,0.807129,-0.272949,-0.100586,0
44960,0.802246,-0.260254,-0.0883789,0
44980,0.800293,-0.225586,-0.0722656,0
45000,0.855957,-0.168457,-0.0161133,0
45020,0.912109,-0.132812,0.0131836,0
45030,0.922852,-0.115234,0.0703125,0
45050,0.919434,-0.129883,0.105469,0
45070,0.913574,-0.169922,0.166504,0
45090,0.914551,-0.148926,0.23291,0
45110,0.922852,-0.0869141,0.291016,0
45130,0.876465,-0.10498,0.342773,0
45150,0.835938,-0.162109,0.410645,0
45170,0.772461,-0.20752,0.521484,0
45190,0.668945,-0.263672,0.603027,0
45210,0.668457,-0.34082,0.519531,0
45230,0.853027,-0.317871,0.456055,0
45250,0.826172,-0.217285,0.599121,0
45270,0.666504,-0.28125,0.61377,0
45290,0.663086,-0.397461,0.565918,0
45310,0.579102,-0.477539,0.63623,0
45330,0.541016,-0.561035,0.700195,0
45350,0.525879,-0.608887,0.71875,0
45370,0.496094,-0.676758,0.719238,0
45390,0.5,-0.749512,0.64209,0
45410,0.471191,-0.774414,0.635254,0
45430,0.429199,-0.771484,0.623535,0
45450,0.376465,-0.759766,0.555664,0
45470,0.303711,-0.829102,0.519043,0
45490,0.251953,-0.931641,0.487305,0
45510,0.187988,-0.951172,0.407715,0
45530,0.138184,-1.02393,0.447754,0
45550,0.110352,-0.96875,0.401855,0
45570,0.112305,-0.952637,0.308594,0
45590,0.0893555,-0.990723,0.319336,0
45610,0.0913086,-0.984375,0.269531,0
45630,0.101074,-1.00732,0.20752,0
45650,0.144531,-1.07471,0.209961,0
45670,0.131348,-1.06982,0.199707,0
45690,0.109863,-1.0415,0.163574,0
45710,0.0791016,-1.06104,0.179199,0
45730,0.0595703,-1.00293,0.183594,0
45750,0.10498,-0.953613,0.180176,0
45770,0.140137,-0.944336,0.112793,0
45790,0.164062,-0.92334,0.0209961,2000
45810,0.13916,-0.994629,0.0195312,0
45830,0.0195312,-1.0957,0.0175781,0
45850,-0.0351562,-1.18066,0.0224609,0
45870,0.0302734,-1.05029,0.0375977,0
45890,0.152832,-0.86377,0.00146484,0
45910,0.230957,-0.818359,0.0117188,0
45930,0.203125,-0.901855,0.0161133,0
45950,0.156738,-0.930176,0.0708008,0
45970,0.165039,-0.90918,0.0712891,0
45990,0.229004,-0.870605,0.0117188,0
46010,0.319824,-0.799805,-0.00488281,0
46030,0.419434,-0.780762,-0.000488281,0
46050,0.422363,-0.812988,0.0078125,0
46070,0.341797,-0.784668,0.0561523,0
46090,0.319336,-0.755371,0.120605,0
46110,0.398438,-0.733398,0.10791,0
46130,0.432617,-0.723633,0.097168,0
46150,0.435547,-0.703125,0.164062,0
46170,0.47168,-0.672852,0.209961,0
46190,0.566895,-0.727539,0.17041,0
46210,0.580566,-0.700684,0.120117,0
46230,0.635254,-0.679688,0.14209,0
46250,0.666016,-0.733398,0.166016,0
46270,0.635254,-0.743652,0.186523,0
46290,0.631348,-0.6875,0.248535,0
46310,0.666016,-0.692383,0.286621,0
46330,0.668945,-0.708496,0.294922,0
46350,0.672852,-0.679199,0.304688,0
46370,0.713867,-0.665039,0.317871,0
46390,0.722168,-0.64209,0.359375,0
46410,0.72168,-0.622559,0.366699,0
46430,0.727051,-0.618652,0.367676,0
46450,0.714355,-0.605957,0.385742,0
46470,0.727051,-0.577148,0.40918,0
46490,0.68457,-0.563477,0.431152,0
46510,0.716797,-0.539062,0.467773,0
46530,0.734375,-0.561523,0.481934,0
46550,0.67334,-0.530762,0.523926,0
46570,0.677246,-0.515625,0.519043,0
46590,0.655273,-0.521973,0.523926,0
46610,0.64502,-0.459473,0.557129,0
46630,0.613281,-0.477051,0.593262,0
46650,0.623535,-0.477539,0.581055,0
46670,0.626465,-0.48584,0.619141,0
46690,0.615723,-0.517578,0.584961,0
46710,0.584961,-0.498047,0.65332,0
46730,0.59082,-0.508789,0.652344,0
46750,0.647949,-0.577148,0.635254,0
46770,0.611328,-0.527344,0.663086,0
46790,0.508789,-0.490723,0.6875,0
46810,0.484863,-0.521484,0.70752,0
46830,0.457031,-0.531738,0.662109,0
46850,0.440918,-0.500488,0.708496,0
46870,0.312012,-0.48584,0.730957,0
46890,0.324707,-0.578613,0.739258,0
46910,0.433105,-0.54541,0.680664,0
46930,0.327148,-0.513184,0.72998,0
46950,0.265137,-0.518066,0.692871,0
46970,0.195312,-0.554688,0.729004,0
46990,0.242188,-0.638184,0.695801,0
47010,0.324219,-0.684082,0.666016,0
47030,0.253906,-0.561523,0.67041,0
47050,0.222168,-0.525879,0.641602,0
47070,0.254395,-0.590332,0.623047,0
47090,0.273926,-0.684082,0.612305,0
47110,0.269043,-0.685547,0.589844,0
47130,0.253418,-0.63623,0.587402,0
47150,0.30957,-0.672363,0.606934,0
47170,0.345703,-0.728516,0.583984,0
47190,0.365234,-0.759277,0.486816,0
47210,0.346191,-0.768066,0.470215,0
47230,0.294922,-0.677734,0.488281,0
47250,0.342773,-0.68457,0.440918,0
47270,0.315918,-0.78125,0.444336,0
47290,0.226562,-0.867188,0.431641,0
47310,0.230957,-0.860352,0.421387,0
47330,0.28125,-0.759766,0.383301,0
47350,0.324219,-0.76416,0.354004,0
47370,0.227051,-0.884277,0.338379,0
47390,0.214844,-0.972656,0.304199,0
47410,0.213867,-0.871582,0.300781,0
47430,0.258789,-0.797363,0.258301,0
47450,0.209473,-0.813965,0.229004,0
47470,0.17041,-0.907227,0.219727,0
47490,0.178223,-0.911621,0.197754,0
47510,0.20166,-0.885254,0.20752,0
47530,0.211426,-0.863281,0.152344,0
47550,0.230469,-0.934082,0.14502,0
47570,0.215332,-0.963379,0.12207,0
47590,0.245605,-0.996094,0.124512,0
47610,0.263672,-0.94873,0.10791,0
47630,0.265625,-0.921387,0.0913086,0
47650,0.29248,-0.930176,0.0703125,0
47670,0.325684,-0.929199,0.0419922,0
47690,0.327148,-0.915527,0.0244141,0
47710,0.358398,-0.916504,0.0317383,0
47730,0.317871,-0.949707,0.012207,0
47750,0.313477,-0.925781,-0.0166016,0
47770,0.349609,-0.941895,-0.050293,0
47790,0.35498,-0.934082,-0.0292969,0
47810,0.378906,-0.945801,-0.0527344,0
47830,0.350586,-0.903809,-0.0429688,0
47850,0.320312,-0.870117,-0.0551758,0
47870,0.340332,-0.855957,-0.0805664,0
47890,0.398438,-0.860352,-0.0454102,0
47910,0.435547,-0.904785,-0.050293,0
47930,0.417969,-0.87793,-0.0981445,0
47950,0.419434,-0.818848,-0.081543,0
47970,0.424805,-0.803711,-0.0566406,0
47990,0.491699,-0.772949,-0.0561523,0
48010,0.530762,-0.742676,-0.0556641,0
48030,0.503906,-0.731445,-0.0151367,0
48050,0.506836,-0.71582,-0.0288086,0
48070,0.583008,-0.694336,-0.050293,0
48090,0.597656,-0.650879,-0.0126953,0
48110,0.546387,-0.65918,-0.0136719,0
48130,0.597168,-0.71875,-0.00585938,0
48150,0.666016,-0.734375,0.00683594,0
48170,0.743164,-0.704102,0.0439453,0
48190,0.748047,-0.719238,0.0507812,0
48210,0.714844,-0.711914,0.116699,0
48230,0.733398,-0.717285,0.154297,0
48250,0.749023,-0.691895,0.178223,0
48270,0.74707,-0.662598,0.175293,0
48290,0.751953,-0.658691,0.188477,0
48310,0.763184,-0.647461,0.22168,0
48330,0.761719,-0.625488,0.253906,0
48350,0.789062,-0.635254,0.231934,0
48370,0.776855,-0.626953,0.265137,0
48390,0.76123,-0.594238,0.298828,0
48410,0.786133,-0.577637,0.310059,0
48430,0.806152,-0.543945,0.30127,0
48440,0.805664,-0.506348,0.364258,0
48460,0.838867,-0.534668,0.407715,0
48480,0.851074,-0.529785,0.356934,0
48500,0.851074,-0.42627,0.378906,0
48520,0.811035,-0.387207,0.414062,0
48540,0.797363,-0.444336,0.436523,0
48560,0.782227,-0.456055,0.459473,0
48580,0.769043,-0.428711,0.48877,0
48600,0.746582,-0.388184,0.443848,0
48620,0.694336,-0.347168,0.500977,0
48640,0.665039,-0.410645,0.514648,0
48660,0.665527,-0.443848,0.528809,0
48680,0.712891,-0.458496,0.522461,0
48700,0.688965,-0.37793,0.557617,0
48720,0.621582,-0.407227,0.607422,0
48740,0.65918,-0.463379,0.543457,0
48760,0.661133,-0.456543,0.578613,0
48780,0.602539,-0.438965,0.601562,0
48800,0.59082,-0.379395,0.65918,0
48820,0.630371,-0.507812,0.516602,0
48840,0.568359,-0.501465,0.577637,0
48860,0.54834,-0.464355,0.560059,0
48880,0.608398,-0.371582,0.507812,0
48900,0.535156,-0.433105,0.592285,0
48920,0.456055,-0.601074,0.550781,0
48940,0.410156,-0.577637,0.596191,0
48960,0.456543,-0.527832,0.536133,0
48980,0.440918,-0.52832,0.492188,0
49000,0.449707,-0.56543,0.519531,0
49020,0.386719,-0.584961,0.477539,0
49040,0.385254,-0.604004,0.451172,0
49060,0.389648,-0.649414,0.447266,0
49080,0.441406,-0.66748,0.463379,0
49100,0.496094,-0.6875,0.404297,0
49120,0.465332,-0.722656,0.384277,0
49140,0.424316,-0.754883,0.35791,0
49160,0.431152,-0.760742,0.376465,0
49180,0.429199,-0.697754,0.34375,0
49200,0.399902,-0.723145,0.330566,0
49220,0.401855,-0.838379,0.280273,0
49240,0.449219,-0.977539,0.223145,0
49260,0.42041,-0.87793,0.354004,0
49280,0.374512,-0.601074,0.272461,0
49300,0.497559,-0.661133,0.241211,0
49320,0.473145,-0.974121,0.204102,0
49340,0.471191,-1.17578,0.208008,0
49360,0.385742,-0.86377,0.265137,0
49380,0.497559,-0.599609,0.186035,0
49400,0.530273,-0.755859,0.12793,0
49420,0.476074,-1.02637,0.0727539,0
49440,0.386719,-1.03955,0.133301,0
49460,0.38916,-0.761719,0.0952148,0
49480,0.447266,-0.696289,0.0395508,0
49500,0.487793,-0.895996,-0.00341797,0
49520,0.447754,-0.975586,0.0297852,0
49540,0.390137,-0.942871,-0.0322266,0
49560,0.440918,-0.753418,-0.015625,0
49580,0.541504,-0.73877,-0.0136719,0
49600,0.549316,-0.877441,-0.0410156,0
49620,0.447754,-0.846191,-0.0483398,0
49640,0.495117,-0.700684,-0.00976562,0
49660,0.657227,-0.693848,-0.0288086,0
49680,0.638672,-0.777832,-0.0766602,0
49700,0.548828,-0.800781,-0.0996094,0
49720,0.557129,-0.731934,-0.0825195,0
49740,0.628418,-0.692871,-0.108398,0
49760,0.643066,-0.677246,-0.152832,0
49780,0.632812,-0.689453,-0.146973,0
49800,0.623047,-0.726562,-0.146484,0
49820,0.619141,-0.693359,-0.128418,0
49840,0.654785,-0.629395,-0.114746,0
49860,0.713379,-0.597656,-0.128906,0
49880,0.74707,-0.600098,-0.13916,0
49900,0.757324,-0.633789,-0.0825195,0
49920,0.769531,-0.624512,-0.0522461,0
49940,0.782227,-0.568848,-0.0454102,0
49960,0.838379,-0.541504,-0.0454102,0
49980,0.86377,-0.577148,-0.0356445,0
50000,0.79541,-0.578125,0.0654297,0
50020,0.788574,-0.557617,0.0708008,0
50040,0.870117,-0.50293,0.0371094,0
50060,0.918945,-0.480957,0.078125,0
50080,0.895996,-0.450684,0.134766,0
50100,0.871094,-0.481934,0.117188,0
50120,0.886719,-0.417969,0.10791,0
50140,0.904785,-0.341309,0.125977,0
50160,0.947754,-0.330078,0.135742,0
50180,0.939941,-0.338867,0.139648,0
50200,0.926758,-0.350586,0.161133,0
50220,0.942871,-0.333496,0.186035,0
50240,0.93457,-0.344727,0.227539,0
50260,0.966309,-0.397949,0.26416,0
50280,1.01953,-0.414551,0.275879,0
50300,1.0083,-0.375977,0.316895,0
50320,1.00928,-0.369141,0.339355,0
50340,0.881348,-0.30957,0.393555,0
50360,0.801758,-0.285645,0.425293,0
50380,0.887207,-0.347656,0.414551,0
50400,0.879395,-0.373535,0.416016,0
50420,0.719238,-0.274414,0.484375,0
50430,0.668457,-0.231445,0.524414,0
50450,0.854004,-0.396484,0.370117,0
50470,0.899902,-0.459473,0.427246,0
50490,0.493652,-0.514648,0.512695,0
50510,0.441895,-0.382324,0.536621,0
50530,0.575684,-0.355469,0.478027,0
50550,0.553711,-0.50293,0.490234,0
50570,0.410645,-0.675781,0.504883,0
50590,0.443848,-0.736328,0.408691,0
50610,0.568359,-0.664551,0.450195,0
50630,0.481445,-0.499023,0.426758,0
50650,0.443359,-0.541016,0.356445,0
50670,0.446289,-0.786133,0.305176,0
50690,0.585449,-1.10254,0.108398,0
50710,0.418945,-0.99707,0.310059,0
50730,0.387207,-0.537109,0.322754,0
50750,0.484375,-0.467773,0.208984,0
50770,0.526855,-0.842285,0.153809,0
50790,0.520996,-1.15186,0.0195312,0
50810,0.387207,-1.02295,0.180664,0
50830,0.44873,-0.591797,0.149414,0
50850,0.607422,-0.554199,0.0214844,0
50870,0.592773,-0.844238,-0.0351562,0
50890,0.566895,-1.09375,-0.131836,0
50910,0.570801,-1.10693,-0.0878906,0
50930,0.529785,-0.714355,-0.0654297,0
50950,0.61377,-0.462402,-0.117676,0
50970,0.599609,-0.620605,-0.154297,0
50990,0.641113,-0.964844,-0.220703,0
51010,0.602539,-1.01562,-0.152832,0
51030,0.596191,-0.709473,-0.168945,0
51050,0.657227,-0.53125,-0.218262,0
51070,0.70752,-0.599609,-0.216797,0
51090,0.676758,-0.775391,-0.22998,0
51110,0.635254,-0.775391,-0.251953,0
51130,0.650879,-0.597168,-0.212402,0
51150,0.736816,-0.510742,-0.231934,0
51170,0.760742,-0.537598,-0.292969,0
51190,0.732422,-0.574707,-0.304688,0
51210,0.696289,-0.570801,-0.283691,0
51230,0.693359,-0.528809,-0.275879,0
51250,0.742188,-0.463867,-0.303223,0
51270,0.785156,-0.42627,-0.327637,0
51290,0.799316,-0.445312,-0.341309,0
51310,0.773926,-0.439941,-0.301758,0
51330,0.73877,-0.408203,-0.283203,0
51350,0.732422,-0.32959,-0.274414,2001
51370,0.785645,-0.384766,-0.278809,0
51390,0.650391,-0.39209,-0.265137,0
51410,0.697266,-0.414062,-0.312012,0
51430,0.751953,-0.475098,-0.308594,0
51450,0.686035,-0.405762,-0.160156,0
51470,0.618164,-0.438965,-0.146973,0
51490,0.75,-0.470215,-0.238281,0
51510,0.879883,-0.515137,-0.179199,0
51530,0.880371,-0.506836,-0.152344,0
51550,0.754883,-0.45752,-0.0922852,0
51570,0.687988,-0.46875,-0.0917969,0
51590,0.708008,-0.555664,-0.078125,0
51610,0.771973,-0.575195,-0.0322266,0
51630,0.744141,-0.523926,-0.00488281,0
51650,0.695312,-0.521484,-0.0546875,0
51670,0.747559,-0.620117,-0.0546875,0
51690,0.777344,-0.716309,-0.0175781,0
51710,0.716309,-0.734863,0.0830078,0
51730,0.685547,-0.725098,-0.0322266,0
51750,0.719238,-0.782227,-0.0927734,0
51770,0.72168,-0.868164,-0.000976562,0
51790,0.648438,-0.911133,0.0517578,0
51810,0.624512,-0.946777,-0.0317383,0
51830,0.625488,-1.0249,-0.0673828,0
51850,0.572266,-1.02686,0.046875,0
51870,0.483398,-0.904297,0.137695,0
51890,0.456055,-0.905273,0.00292969,0
51910,0.391602,-0.998047,-0.0161133,0
51930,0.25,-0.949707,0.0932617,0
51950,0.250488,-0.879395,0.0380859,0
51970,0.26123,-1.01074,0.0620117,0
51990,0.229492,-1.02881,0.0678711,0
52010,0.23291,-1.03955,0.0585938,0
52030,0.293457,-1.14746,0.0688477,0
52050,0.255371,-1.146,0.124023,0
52070,0.273926,-1.00049,0.0961914,0
52090,0.290527,-0.987305,0.00634766,0
52110,0.335938,-1.09961,-0.0649414,0
52130,0.283691,-1.18457,-0.0444336,0
52150,0.223633,-1.0874,-0.0161133,0
52170,0.273926,-0.987793,-0.0117188,2000
52190,0.306641,-1.01514,-0.0888672,0
52210,0.263672,-1.05225,-0.0996094,0
52230,0.1875,-0.991211,-0.0991211,0
52250,0.162109,-0.931641,-0.14209,0
52270,0.147461,-0.896973,-0.126465,0
52290,0.123047,-0.888184,-0.118164,0
52310,0.13916,-0.912109,-0.197266,0
52330,0.140625,-0.868652,-0.249023,0
52350,0.154785,-0.8125,-0.222168,0
52370,0.236816,-0.835938,-0.120605,0
52390,0.247559,-0.905273,-0.0859375,0
52410,0.204102,-0.880859,-0.141113,0
52430,0.256836,-0.833008,-0.226562,0
52450,0.310547,-0.84375,-0.19043,0
52470,0.346191,-0.846191,-0.111328,0
52490,0.383301,-0.864746,-0.0698242,0
52510,0.300781,-0.89209,-0.0332031,0
52530,0.273438,-0.85791,0.0366211,0
52550,0.331055,-0.817383,0.0175781,0
52570,0.442383,-0.81543,0.0292969,0
52590,0.569824,-0.799316,0.126953,0
52610,0.550293,-0.761719,0.116211,0
52630,0.568848,-0.736328,0.103516,0
52650,0.572266,-0.751465,0.120117,0
52670,0.628906,-0.733398,0.175781,0
52690,0.686035,-0.724121,0.189941,0
52710,0.675781,-0.714355,0.193359,0
52730,0.741699,-0.716797,0.200684,0
52750,0.78125,-0.747559,0.248535,0
52770,0.82959,-0.763184,0.28418,0
52790,0.807129,-0.721191,0.275391,0
52810,0.779297,-0.726074,0.259277,0
52830,0.793945,-0.749023,0.343262,0
52850,0.799805,-0.721191,0.409668,0
52870,0.79834,-0.646484,0.420898,0
52890,0.768555,-0.617676,0.420898,0
52910,0.736328,-0.594238,0.482422,0
52930,0.715332,-0.601074,0.481934,0
52950,0.702148,-0.57373,0.476074,0
52970,0.651367,-0.542969,0.542969,0
52990,0.625,-0.533203,0.518555,0
53010,0.616211,-0.533203,0.574707,0
53030,0.568848,-0.538574,0.62207,0
53050,0.476074,-0.591309,0.618164,0
53070,0.508301,-0.556152,0.59082,0
53090,0.495605,-0.535156,0.631836,0
53110,0.400879,-0.516602,0.662109,0
53130,0.387207,-0.595703,0.637207,0
53150,0.466309,-0.54834,0.585449,0
53170,0.331055,-0.458984,0.712402,0
53190,0.28125,-0.497559,0.680176,0
53210,0.344727,-0.712402,0.630859,0
53230,0.296875,-0.695312,0.634766,0
53250,0.183594,-0.57373,0.703613,0
53270,0.198242,-0.571777,0.635742,0
53290,0.29834,-0.661133,0.570312,0
53310,0.267578,-0.76123,0.565918,0
53330,0.226074,-0.747559,0.518066,0
53350,0.195312,-0.671875,0.547363,0
53370,0.213867,-0.666016,0.541992,0
53390,0.212891,-0.793457,0.519043,0
53400,0.268555,-0.882812,0.525879,0
53420,0.319824,-0.848633,0.521484,0
53440,0.339844,-0.729004,0.504395,0
53460,0.325684,-0.70752,0.465332,0
53480,0.322754,-0.813477,0.423828,0
53500,0.337402,-0.917969,0.409668,0
53520,0.306641,-0.883301,0.401855,0
53540,0.353027,-0.851074,0.333008,0
53560,0.359375,-0.837891,0.345703,0
53580,0.341797,-0.910645,0.277344,0
53600,0.308594,-0.900879,0.296387,0
53620,0.260742,-0.844238,0.301758,0
53640,0.341309,-0.874023,0.192383,0
53660,0.332031,-0.935547,0.177246,0
53680,0.280762,-0.958008,0.154785,0
53700,0.255371,-0.865723,0.158691,0
53720,0.262207,-0.825684,0.119629,0
53740,0.278809,-0.900391,0.0688477,0
53760,0.275879,-0.991211,0.0488281,0
53780,0.260254,-0.939453,0.0737305,0
53800,0.277832,-0.828613,0.0356445,0
53820,0.29834,-0.839355,-0.0180664,0
53830,0.301758,-0.9375,-0.0512695,0
53850,0.260254,-1.02441,-0.0371094,0
53870,0.260742,-0.912109,-0.0424805,0
53890,0.320801,-0.838867,-0.090332,0
53910,0.328613,-0.889648,-0.0800781,0
53930,0.293945,-0.95459,-0.0878906,0
53950,0.322754,-0.918457,-0.0976562,0
53970,0.393066,-0.804199,-0.115723,0
53990,0.340332,-0.818848,-0.059082,0
54010,0.371582,-0.863281,-0.0957031,0
54030,0.433594,-0.818359,-0.0600586,0
54050,0.479492,-0.763184,-0.0800781,0
54070,0.47168,-0.723633,-0.0820312,0
54090,0.435059,-0.706055,-0.0952148,0
54110,0.531738,-0.769531,-0.0820312,0
54130,0.647461,-0.791016,-0.0991211,0
54150,0.63623,-0.751953,-0.0234375,0
54170,0.591797,-0.752441,0.0688477,0
54190,0.587402,-0.768066,0.0644531,0
54210,0.676758,-0.737305,0.027832,0
54230,0.76123,-0.712891,0.00439453,0
54250,0.757324,-0.704102,0.0507812,0
54270,0.727051,-0.666016,0.10791,0
54290,0.724121,-0.664551,0.135254,0
54310,0.748535,-0.674805,0.165527,0
54330,0.737793,-0.632812,0.187012,0
54350,0.770996,-0.627441,0.197754,0
54370,0.831055,-0.62207,0.23877,0
54390,0.86377,-0.618652,0.250488,0
54410,0.848633,-0.598145,0.25293,0
54430,0.8125,-0.561035,0.29541,0
54450,0.807129,-0.564453,0.33252,0
54470,0.825195,-0.57959,0.320312,0
54490,0.766602,-0.562988,0.361328,0
54510,0.728516,-0.493652,0.399414,0
54530,0.714355,-0.481445,0.434082,0
54550,0.786133,-0.533691,0.44873,0
54570,0.835938,-0.540039,0.37207,0
54590,0.693848,-0.45752,0.463379,0
54610,0.633301,-0.462402,0.525879,0
54630,0.694336,-0.552734,0.45459,0
54650,0.739258,-0.569824,0.5,0
54670,0.678711,-0.540039,0.527832,0
54690,0.561035,-0.483398,0.554688,0
54710,0.531738,-0.529297,0.552734,0
54730,0.585449,-0.604004,0.516602,0
54750,0.5625,-0.616699,0.525391,0
54770,0.490723,-0.543945,0.58252,0
54790,0.449219,-0.513672,0.567383,0
54810,0.48877,-0.637207,0.51709,0
54830,0.455566,-0.688965,0.536133,0
54850,0.397461,-0.651855,0.540527,0
54870,0.407715,-0.608887,0.540527,0
54890,0.444336,-0.647949,0.484375,0
54910,0.441895,-0.71875,0.472168,0
54930,0.398438,-0.730469,0.451172,0
54950,0.415527,-0.763672,0.433594,0
54970,0.399902,-0.769531,0.40332,0
54990,0.407227,-0.745117,0.36377,0
55010,0.384766,-0.741211,0.342285,0
55030,0.324219,-0.793457,0.337891,0
55050,0.314941,-0.833496,0.278809,0
55070,0.319824,-0.89209,0.23877,0
55090,0.311035,-0.802734,0.237305,0
55110,0.295898,-0.765625,0.203613,0
55130,0.289062,-0.866699,0.174316,0
55150,0.306641,-0.929199,0.134277,0
55170,0.321777,-0.96582,0.117188,0
55190,0.338379,-0.87793,0.0947266,0
55210,0.370605,-0.87207,0.074707,0
55230,0.355469,-0.911133,0.0449219,0
55250,0.3125,-0.929199,0.0639648,0
55270,0.347656,-0.891602,0.0595703,0
55290,0.415527,-0.86377,0.0561523,0
55310,0.425781,-0.86084,0.00976562,0
55330,0.425293,-0.864258,-0.0268555,0
55350,0.420898,-0.867676,-0.0263672,0
55370,0.428223,-0.884766,-0.03125,0
55390,0.448242,-0.859375,-0.0786133,0
55410,0.490723,-0.832031,-0.0820312,0
55430,0.522461,-0.797852,-0.0917969,0
55450,0.557129,-0.845703,-0.097168,0
55470,0.527344,-0.834473,-0.0961914,0
55490,0.523926,-0.763184,-0.09375,0
55510,0.607422,-0.736816,-0.114746,0
55530,0.638672,-0.739746,-0.108398,0
55550,0.619629,-0.740723,-0.125,0
55570,0.64209,-0.694824,-0.110352,0
55590,0.677246,-0.633301,-0.113281,0
55610,0.71582,-0.636719,-0.123535,0
55630,0.719727,-0.634277,-0.140137,0
55650,0.722168,-0.628418,-0.10791,0
55670,0.785645,-0.613281,-0.106934,0
55690,0.848145,-0.568848,-0.0976562,0
55710,0.797363,-0.507324,-0.0991211,0
55730,0.822266,-0.48877,-0.0600586,0
55750,0.90918,-0.481934,-0.0288086,0
55770,0.910645,-0.459961,-0.03125,0
55780,0.894043,-0.422852,-0.0722656,0
55800,0.904297,-0.388184,-0.0327148,0
55820,0.926758,-0.375977,0.00244141,0
55840,0.956543,-0.413574,0.00341797,0
55860,0.969727,-0.421387,0.0498047,0
55880,0.958008,-0.383301,0.0869141,0
55900,0.95752,-0.380371,0.0664062,0
55920,0.970703,-0.428223,0.0917969,0
55940,0.950684,-0.468262,0.115234,0
55960,0.925781,-0.480469,0.149414,0
55980,0.930176,-0.491211,0.185059,0
56000,0.943848,-0.501465,0.221191,0
56020,0.947266,-0.527344,0.245605,0
56040,0.869629,-0.536621,0.309082,0
56060,0.829102,-0.512207,0.349121,0
56080,0.817383,-0.518555,0.340332,0
56100,0.809082,-0.562012,0.312988,0
56120,0.727051,-0.600098,0.360352,0
56140,0.594238,-0.59082,0.394531,0
56160,0.64209,-0.587402,0.381836,0
56180,0.682617,-0.647949,0.350586,0
56200,0.610352,-0.680664,0.342773,0
56220,0.559082,-0.722656,0.332031,0
56240,0.59082,-0.722168,0.353027,0
56270,0.549316,-0.760742,0.319824,0
56290,0.495117,-0.789062,0.322754,0
56310,0.484375,-0.797363,0.287109,0
56330,0.437988,-0.805664,0.304199,0
56350,0.393555,-0.834473,0.243164,0
56370,0.368652,-0.855469,0.23584,0
56390,0.344727,-0.849121,0.217285,0
56410,0.356934,-0.848633,0.195801,0
56430,0.330566,-0.864746,0.166992,0
56450,0.329102,-0.885254,0.120117,0
56470,0.303711,-0.898438,0.109863,0
56490,0.321777,-0.876953,0.081543,0
56510,0.331055,-0.871094,0.0205078,0
56530,0.291992,-0.905762,0.00683594,0
56550,0.320801,-0.89502,-0.0195312,0
56570,0.354492,-0.873535,-0.0488281,0
56590,0.339844,-0.858887,-0.0888672,0
56610,0.316895,-0.86377,-0.17041,0
56630,0.324219,-0.854492,-0.17334,0
56650,0.302734,-0.825684,-0.124512,0
56670,0.391113,-0.810547,-0.154297,0
56690,0.529785,-0.790527,-0.134766,0
56710,0.50293,-0.804199,-0.139648,0
56730,0.463867,-0.82373,-0.162109,0
56750,0.572266,-0.818848,-0.189453,0
56770,0.690918,-0.848145,-0.149414,0
56790,0.69043,-0.818848,-0.155273,0
56810,0.729492,-0.787598,-0.202148,0
56830,0.743164,-0.738281,-0.231445,0
56850,0.689453,-0.657227,-0.185547,0
56870,0.720703,-0.572266,-0.21582,0
56890,0.712402,-0.520508,-0.249512,2001
56910,0.738281,-0.540039,-0.275391,0
56930,0.76123,-0.609375,-0.306641,0
56950,0.699707,-0.561035,-0.316895,0
56970,0.690918,-0.45166,-0.338379,0
56990,0.753906,-0.444824,-0.30957,0
57010,0.768066,-0.36377,-0.291016,0
57030,0.786621,-0.330078,-0.308105,0
57050,0.751953,-0.35498,-0.25293,0
57070,0.739258,-0.367676,-0.246094,0
57090,0.764648,-0.358887,-0.259277,0
57110,0.850098,-0.37793,-0.255371,0
57130,0.798828,-0.350586,-0.205078,0
57150,0.730957,-0.324219,-0.185547,0
57170,0.658203,-0.35791,-0.215332,0
57190,0.683105,-0.392578,-0.270508,0
57210,0.695312,-0.399414,-0.153809,0
57230,0.706055,-0.380859,-0.081543,0
57250,0.751465,-0.42041,-0.125,0
57270,0.753906,-0.494629,-0.14209,0
57290,0.78125,-0.495605,-0.0864258,0
57310,0.803223,-0.509277,-0.0258789,0
57330,0.776367,-0.573242,-0.00439453,0
57350,0.720215,-0.622559,-0.00488281,0
57370,0.743164,-0.648438,0.015625,0
57390,0.773926,-0.740723,-0.00683594,0
57410,0.818359,-0.837402,0.015625,0
57430,0.802246,-0.875977,0.0600586,0
57450,0.753906,-0.93457,0.00439453,0
57470,0.745117,-0.977539,-0.0205078,0
57490,0.711426,-1.0376,0.0380859,0
57510,0.610352,-1.04297,0.101074,0
57530,0.519043,-1.08057,0.145996,0
57550,0.465332,-1.15576,0.157227,0
57570,0.442383,-1.14844,0.142578,0
57590,0.427246,-1.07324,0.120605,0
57610,0.383789,-1.01514,0.108398,0
57630,0.333496,-0.952637,0.10791,0
57650,0.298828,-0.936523,0.157715,0
57670,0.246582,-0.972168,0.140625,0
57690,0.185059,-1.01123,0.15918,0
57710,0.156738,-0.992188,0.146973,0
57730,0.153809,-0.933594,0.163574,0
57750,0.121094,-0.871582,0.173828,2000
57770,0.0668945,-0.95752,0.158691,0
57790,0.0415039,-1.01123,0.150879,0
57810,0.0175781,-1.02197,0.161621,0
57830,0.0200195,-1.00244,0.124023,0
57850,0.0234375,-0.966797,0.102539,0
57870,0.00976562,-0.965332,0.0976562,0
57890,0.0371094,-0.995117,0.101562,0
57910,0.0673828,-0.983398,0.125,0
57930,0.106445,-0.976074,0.132812,0
57950,0.106934,-0.958984,0.124023,0
57970,0.118652,-0.927246,0.137207,0
57990,0.171387,-0.937988,0.105469,0
58010,0.209473,-0.92041,0.097168,0
58030,0.24707,-0.924805,0.0927734,0
58050,0.266602,-0.972656,0.0322266,0
58070,0.274902,-0.973633,0.0410156,0
58090,0.254883,-0.947754,0.0727539,0
58110,0.260254,-0.921875,0.0444336,0
58130,0.282227,-0.922852,0.0507812,0
58150,0.30127,-0.943848,0.0620117,0
58170,0.296387,-0.883789,0.0888672,0
58190,0.284668,-0.864746,0.0732422,0
58210,0.273926,-0.870605,0.0859375,0
58230,0.294922,-0.890625,0.097168,0
58250,0.333984,-0.930664,0.0830078,0
58270,0.343262,-0.894043,0.0878906,0
58290,0.365723,-0.866699,0.0820312,0
58310,0.413574,-0.928711,0.0976562,0
58330,0.429199,-0.929199,0.10791,0
58350,0.42334,-0.89209,0.0917969,0
58370,0.460449,-0.894043,0.0927734,0
58390,0.5,-0.879883,0.104492,0
58410,0.536621,-0.874512,0.11084,0
58430,0.533203,-0.847656,0.105957,0
58450,0.541504,-0.845703,0.11084,0
58470,0.564453,-0.824707,0.123535,0
58490,0.630859,-0.734863,0.127441,0
58530,0.661621,-0.683594,0.211426,0
58540,0.666992,-0.688965,0.215332,0
58560,0.716797,-0.703125,0.230957,0
58580,0.708008,-0.694824,0.239746,0
58600,0.699707,-0.69873,0.259766,0
58620,0.705566,-0.69873,0.282715,0
58640,0.723145,-0.717285,0.277344,0
58660,0.682129,-0.70752,0.308594,0
58680,0.636719,-0.68457,0.325684,0
58700,0.618652,-0.729492,0.349121,0
58720,0.631348,-0.753906,0.361328,0
58740,0.65918,-0.755371,0.39502,0
58760,0.672363,-0.789062,0.398438,0
58780,0.65918,-0.796387,0.416504,0
58800,0.571289,-0.748535,0.45752,0
58820,0.504883,-0.765625,0.446777,0
58840,0.458984,-0.784668,0.482422,0
58860,0.421387,-0.74707,0.523926,0
58880,0.431152,-0.706055,0.521973,0
58900,0.424316,-0.729492,0.525879,0
58920,0.364746,-0.745117,0.496582,0
58940,0.334473,-0.73584,0.530273,0
58960,0.328125,-0.742676,0.546875,0
58980,0.347168,-0.743164,0.529785,0
59000,0.309082,-0.719727,0.469727,0
59020,0.244141,-0.746582,0.51416,0
59040,0.231445,-0.794434,0.514648,0
59060,0.245605,-0.755371,0.521484,0
59070,0.220215,-0.768555,0.474121,0
59090,0.237305,-0.759766,0.463867,0
59110,0.215332,-0.79248,0.448242,0
59130,0.220703,-0.770996,0.478027,0
59150,0.194824,-0.74707,0.466309,0
59170,0.161133,-0.791016,0.441895,0
59190,0.163086,-0.838867,0.375488,0
59210,0.18457,-0.797363,0.421875,0
59230,0.153809,-0.733887,0.415527,0
59250,0.118164,-0.808105,0.38916,0
59270,0.142578,-0.857422,0.355957,0
59290,0.15332,-0.854492,0.354004,0
59310,0.129883,-0.79541,0.370605,0
59330,0.113281,-0.771484,0.333496,0
59350,0.109863,-0.837402,0.319824,0
59370,0.144531,-0.882812,0.335938,0
59390,0.162109,-0.898438,0.337402,0
59410,0.136719,-0.885254,0.311523,0
59430,0.112305,-0.893555,0.28418,0
59450,0.102539,-0.91748,0.294434,0
59470,0.0898438,-0.919434,0.273926,0
59490,0.104004,-0.95166,0.229492,0
59510,0.133789,-0.970215,0.230469,0
59530,0.144531,-0.990234,0.211914,0
59550,0.137207,-0.965332,0.208496,0
59570,0.134277,-0.91748,0.185059,0
59590,0.149414,-0.92334,0.175293,0
59610,0.189453,-0.946289,0.201172,0
59630,0.188965,-0.930664,0.188477,0
59650,0.208496,-0.919922,0.149902,0
59670,0.224609,-0.866699,0.153809,0
59690,0.211914,-0.85498,0.175293,0
59710,0.238281,-0.900391,0.158203,0
59730,0.311523,-0.909668,0.144531,0
59750,0.339844,-0.910645,0.114746,0
59770,0.321777,-0.916992,0.10791,0
59790,0.321289,-0.915527,0.14502,0
59810,0.322266,-0.922363,0.133789,0
59830,0.342285,-0.921875,0.0976562,0
59850,0.395508,-0.922852,0.0874023,0
59870,0.429688,-0.915039,0.131836,0
59890,0.434082,-0.894531,0.115234,0
59910,0.427734,-0.880859,0.0629883,0
59930,0.458984,-0.862305,0.0600586,0
59950,0.472656,-0.862305,0.0517578,0
59970,0.478027,-0.86377,0.0239258,0
59990,0.506836,-0.861328,0.0410156,0
60010,0.535156,-0.803223,0.0693359,0
60030,0.552734,-0.797363,0.0463867,0
60050,0.548828,-0.772461,0.059082,0
60070,0.59668,-0.800293,0.0375977,0
60090,0.609863,-0.782715,0.00927734,0
60110,0.62793,-0.757324,0.0234375,0
60130,0.648926,-0.724609,0.0205078,0
60150,0.673828,-0.732422,0.034668,0
60170,0.697754,-0.743164,0.0366211,0
60190,0.713867,-0.71875,0.0234375,0
60210,0.706543,-0.685547,0.00537109,0
60230,0.72168,-0.664062,0.0317383,0
60250,0.764648,-0.648926,0.0791016,0
60270,0.78418,-0.637695,0.097168,0
60290,0.78418,-0.619629,0.0844727,0
60310,0.794922,-0.60498,0.0541992,0
60330,0.779785,-0.604492,0.0649414,0
60350,0.788574,-0.563477,0.109375,0
60370,0.836426,-0.545898,0.154297,0
60390,0.872559,-0.577148,0.166016,0
60410,0.848145,-0.592773,0.132812,0
60430,0.821289,-0.587402,0.160645,0
60450,0.80957,-0.56543,0.187012,0
60470,0.818848,-0.562988,0.213379,0
60490,0.821289,-0.572754,0.266113,0
60510,0.814453,-0.591797,0.278809,0
60530,0.773926,-0.578613,0.275879,0
60550,0.771484,-0.571777,0.310059,0
60570,0.758301,-0.584473,0.364258,0
60590,0.753906,-0.621094,0.374023,0
60610,0.729492,-0.611816,0.375977,0
60630,0.672852,-0.59082,0.421387,0
60650,0.650391,-0.570312,0.472656,0
60670,0.668457,-0.575195,0.445801,0
60690,0.70459,-0.620605,0.459961,0
60710,0.676758,-0.631836,0.466797,0
60730,0.633789,-0.631348,0.432617,0
60750,0.581543,-0.611328,0.393555,0
60770,0.57666,-0.60498,0.410645,0
60790,0.568848,-0.641602,0.438477,0
60810,0.519043,-0.683594,0.447754,0
60830,0.481934,-0.687988,0.443848,0
60850,0.484375,-0.709473,0.449219,0
60870,0.461426,-0.708496,0.464355,0
60890,0.398438,-0.71582,0.459473,0
60910,0.331543,-0.730957,0.440918,0
60930,0.324707,-0.754395,0.398438,0
60950,0.32373,-0.762207,0.401855,0
60970,0.305664,-0.768066,0.378418,0
60990,0.321289,-0.78125,0.373047,0
61010,0.318359,-0.817383,0.350098,0
61020,0.286133,-0.82666,0.361816,0
61050,0.292969,-0.83252,0.352051,0
61060,0.320801,-0.837402,0.34082,0
61080,0.308594,-0.845703,0.289062,0
61100,0.279785,-0.843262,0.25,0
61120,0.192871,-0.866699,0.230957,0
61140,0.204102,-0.886719,0.192871,0
61160,0.24707,-0.897461,0.17041,0
61180,0.246094,-0.875,0.172363,0
61200,0.266113,-0.87793,0.148438,0
61220,0.279297,-0.938477,0.103027,0
61240,0.303223,-0.933105,0.0976562,0
61260,0.300293,-0.914551,0.0917969,0
61280,0.351074,-0.899414,0.078125,0
61300,0.412109,-0.932617,0.0522461,0
61320,0.412109,-0.927246,0.0126953,0
61340,0.383789,-0.90918,0.0161133,0
61360,0.387695,-0.868164,0.0195312,0
61380,0.396973,-0.844238,0.00390625,0
61400,0.427246,-0.865234,-0.00244141,0
61420,0.479492,-0.868164,0.0268555,0
61440,0.521973,-0.833496,0.0224609,0
61460,0.523926,-0.810059,-0.0249023,0
61480,0.487305,-0.76416,-0.0385742,0
61500,0.499512,-0.739746,-0.0249023,0
61520,0.600098,-0.741699,-0.0268555,0
61540,0.658691,-0.729492,-0.0356445,0
61560,0.65918,-0.691895,-0.0893555,0
61580,0.663574,-0.695312,-0.119141,0
61600,0.726074,-0.656738,-0.074707,0
61620,0.768066,-0.623047,-0.0727539,0
61640,0.770508,-0.614258,-0.123047,0
61660,0.76709,-0.615234,-0.108887,0
61680,0.836914,-0.594727,-0.0458984,0
61700,0.877441,-0.556152,-0.0708008,0
61720,0.833008,-0.505859,-0.124023,0
61740,0.812012,-0.46875,-0.166016,0
61760,0.875,-0.472168,-0.0654297,0
61780,0.9375,-0.460938,-0.00488281,0
61800,0.926758,-0.410645,-0.0410156,0
61820,0.914062,-0.368652,-0.0742188,0
61840,0.947754,-0.333008,-0.0200195,0
61860,0.962402,-0.338379,0.0268555,0
61880,0.946777,-0.330566,0.00976562,0
61900,0.95166,-0.303223,0.0126953,0
61920,0.986816,-0.276855,0.0649414,0
61940,1.02637,-0.276367,0.0927734,0
61960,0.996094,-0.29248,0.110352,0
61980,0.955566,-0.27002,0.149902,0
62000,0.936523,-0.263184,0.183105,0
62020,0.933594,-0.251465,0.199219,0
62040,0.941406,-0.286621,0.22168,0
62060,0.944824,-0.302246,0.245605,0
62080,0.940918,-0.330078,0.275391,0
62100,0.959961,-0.347656,0.301758,0
62120,0.941406,-0.364746,0.337402,0
62140,0.905273,-0.355957,0.374512,0
62160,0.880371,-0.375977,0.379395,0
62180,0.842773,-0.419434,0.428223,0
62200,0.786133,-0.425781,0.454102,0
62220,0.77002,-0.462891,0.458984,0
62240,0.748047,-0.482422,0.464355,0
62260,0.711426,-0.48584,0.494141,0
62280,0.65332,-0.506836,0.525391,0
62300,0.616699,-0.553223,0.512695,0
62320,0.599609,-0.61377,0.536133,0
62340,0.53418,-0.630371,0.497559,0
62360,0.553223,-0.644531,0.481445,0
62380,0.541992,-0.620605,0.464844,0
62400,0.505371,-0.660645,0.416992,0
62420,0.468262,-0.734375,0.395508,0
62440,0.429688,-0.745117,0.374023,0
62460,0.364746,-0.78418,0.288574,0
62480,0.376953,-0.819336,0.272949,0
62500,0.389648,-0.836914,0.242676,0
62520,0.430176,-0.841309,0.185059,0
62540,0.430664,-0.834961,0.165527,0
62560,0.397949,-0.849121,0.132812,0
62580,0.438477,-0.862305,0.103516,0
62600,0.476562,-0.855957,0.0566406,0
62620,0.516113,-0.852539,-0.0131836,0
62640,0.554199,-0.895996,-0.0332031,0
62660,0.499023,-0.841797,-0.0439453,0
62680,0.499512,-0.769531,-0.0859375,0
62700,0.563477,-0.774902,-0.151367,0
62720,0.525879,-0.76416,-0.163574,0
62740,0.493652,-0.726562,-0.239258,0
62760,0.510254,-0.708496,-0.268066,0
62780,0.520508,-0.606445,-0.304199,0
62800,0.523926,-0.588867,-0.286621,2001
62820,0.477539,-0.385742,-0.315918,0
62840,0.596191,-0.280762,-0.241211,0
62860,0.512207,-0.441406,-0.127441,0
62880,0.758301,-0.560059,-0.311523,0
62900,1.15723,-0.510254,-0.274902,0
62920,1.07422,-0.138672,-0.0454102,0
62940,1.04834,-0.104492,-0.123535,0
62960,1.07861,-0.120605,-0.176758,0
62980,1.00684,-0.166016,-0.0874023,0
63000,0.946289,-0.192383,-0.0537109,0
63020,0.872559,-0.206055,-0.0629883,0
63040,0.870117,-0.20166,-0.0424805,0
63060,0.878418,-0.200195,0.0151367,0
63080,0.819824,-0.20459,0.0698242,0
63100,0.730469,-0.173828,0.117676,0
63120,0.719727,-0.15332,0.141602,0
63140,0.75293,-0.161621,0.208984,0
63160,0.799316,-0.177734,0.209961,0
63180,0.834473,-0.174316,0.235352,0
63200,0.81543,-0.212402,0.289551,0
63220,0.869141,-0.245117,0.353027,0
63240,0.907715,-0.282227,0.381348,0
63260,0.907227,-0.308594,0.380859,0
63280,0.868164,-0.337891,0.344238,0
63300,0.84082,-0.382812,0.378906,0
63320,0.807129,-0.469238,0.433105,0
63340,0.770996,-0.51709,0.408203,0
63360,0.804199,-0.535645,0.438965,0
63380,0.805664,-0.581543,0.483887,0
63400,0.758301,-0.623535,0.50293,0
63420,0.706543,-0.670898,0.457031,0
63440,0.65625,-0.683105,0.479492,0
63460,0.56543,-0.75293,0.513184,0
63480,0.533691,-0.760254,0.444824,0
63500,0.557129,-0.773926,0.42334,0
63510,0.536621,-0.801758,0.439941,0
63530,0.473145,-0.751953,0.458984,0
63550,0.411133,-0.789551,0.450195,0
63570,0.359863,-0.834961,0.42334,0
63590,0.351074,-0.873535,0.413086,0
63610,0.307129,-0.864258,0.399414,0
63630,0.277832,-0.851562,0.402832,0
63650,0.248047,-0.86084,0.370605,0
63670,0.183594,-0.886719,0.333984,0
63690,0.138184,-0.967773,0.311523,0
63710,0.175293,-0.957031,0.267578,0
63730,0.184082,-0.913574,0.273926,0
63750,0.11377,-0.932617,0.306152,0
63770,0.0761719,-0.972168,0.285156,0
63790,0.114258,-0.995117,0.268066,0
63810,0.155762,-1.0127,0.26416,0
63830,0.180176,-0.96582,0.273438,0
63850,0.214355,-0.884277,0.279785,0
63870,0.229492,-0.87207,0.261719,0
63890,0.273438,-0.915039,0.236328,0
63910,0.286133,-0.871094,0.224121,0
63930,0.288086,-0.806641,0.23291,0
63950,0.335938,-0.844727,0.208496,0
63970,0.338379,-0.832031,0.210449,0
63990,0.338379,-0.801758,0.243652,0
64010,0.414551,-0.79541,0.253418,0
64030,0.450195,-0.786621,0.27002,0
64050,0.425781,-0.757812,0.275879,0
64070,0.443848,-0.763184,0.277344,0
64090,0.550293,-0.796387,0.306152,0
64110,0.664062,-0.784668,0.300781,0
64130,0.623535,-0.731934,0.231934,0
64150,0.629883,-0.717773,0.214844,0
64170,0.712402,-0.722168,0.250977,0
64190,0.759766,-0.719727,0.248047,0
64210,0.78418,-0.666016,0.174805,0
64230,0.87793,-0.646973,0.167969,0
64250,0.887207,-0.643555,0.183594,0
64270,0.863281,-0.649414,0.181641,0
64290,0.852539,-0.638672,0.184082,0
64310,0.835938,-0.646973,0.223145,0
64330,0.78418,-0.647461,0.265625,0
64350,0.719727,-0.702148,0.291504,0
64370,0.716797,-0.723633,0.314941,0
64380,0.689453,-0.730469,0.333984,0
64400,0.588867,-0.740723,0.39209,0
64420,0.498535,-0.719727,0.370117,0
64440,0.51416,-0.760742,0.366699,0
64460,0.51123,-0.807129,0.379395,0
64480,0.421875,-0.852539,0.383789,0
64500,0.339355,-0.81543,0.384277,0
64520,0.29834,-0.817383,0.374023,0
64540,0.253906,-0.844727,0.366699,0
64560,0.159668,-0.891602,0.356934,0
64580,0.0727539,-0.948242,0.347168,0
64600,0.0561523,-0.915039,0.365234,0
64620,0.0615234,-0.828125,0.369141,0
64640,0.0913086,-0.811035,0.362305,0
64660,0.102539,-0.89209,0.353516,0
64680,0.0766602,-0.933105,0.359863,0
64700,0.0751953,-0.894531,0.351074,2000
64720,0.106934,-0.82666,0.344727,0
64740,0.15332,-0.818359,0.308105,0
64760,0.103027,-0.912109,0.291992,0
64780,0.0693359,-0.925781,0.274414,0
64800,0.0424805,-0.878418,0.257324,0
64820,0.0473633,-0.818848,0.251465,0
64840,0.0620117,-0.86084,0.308105,0
64860,0.100586,-0.92041,0.334473,0
64880,0.154785,-0.928223,0.306152,0
64900,0.219238,-0.876953,0.292969,0
64920,0.211426,-0.812012,0.282227,0
64940,0.211426,-0.837891,0.286133,0
64960,0.231445,-0.874023,0.307129,0
64980,0.220703,-0.890625,0.305664,0
65000,0.266113,-0.887695,0.262207,0
65020,0.327148,-0.870605,0.233398,0
65040,0.317871,-0.842773,0.259277,0
65060,0.328125,-0.851562,0.290039,0
65080,0.382324,-0.870117,0.307129,0
65100,0.397949,-0.818848,0.272461,0
65120,0.374023,-0.79248,0.238281,0
65140,0.404297,-0.820801,0.266602,0
65160,0.458008,-0.867188,0.310059,0
65180,0.509766,-0.831543,0.294434,0
65200,0.529785,-0.791504,0.23291,0
65220,0.524414,-0.829102,0.228516,0
65240,0.50293,-0.866699,0.245117,0
65260,0.447266,-0.875977,0.235352,0
65280,0.492188,-0.848633,0.260742,0
65300,0.530762,-0.823242,0.266113,0
65320,0.538574,-0.809082,0.23877,0
65340,0.528809,-0.793945,0.233887,0
65360,0.480469,-0.762695,0.244141,0
65380,0.509277,-0.760742,0.264648,0
65400,0.537109,-0.716797,0.266602,0
65420,0.494141,-0.692871,0.284668,0
65440,0.529785,-0.679688,0.322266,0
65460,0.584473,-0.699219,0.348633,0
65480,0.628906,-0.658203,0.331543,0
65500,0.624512,-0.652344,0.310547,0
65520,0.627441,-0.666016,0.310059,0
65540,0.657227,-0.70166,0.328613,0
65560,0.67041,-0.713379,0.327637,0
65580,0.674316,-0.709473,0.319824,0
65600,0.693359,-0.69873,0.317383,0
65620,0.702637,-0.70166,0.314453,0
65640,0.722656,-0.713379,0.366699,0
65660,0.696289,-0.720703,0.362793,0
65680,0.631348,-0.728516,0.348145,0
65700,0.606934,-0.736328,0.329102,0
65720,0.683105,-0.72168,0.385742,0
65740,0.685547,-0.741211,0.414062,0
65760,0.597168,-0.757812,0.460449,0
65780,0.523926,-0.658691,0.561523,0
65800,0.532227,-0.615234,0.518066,0
65820,0.523438,-0.666992,0.532227,0
65840,0.422852,-0.702637,0.554199,0
65860,0.376465,-0.665039,0.589844,0
65880,0.422363,-0.621094,0.571289,0
65900,0.396973,-0.645996,0.531738,0
65920,0.360352,-0.672363,0.589355,0
65940,0.291016,-0.686523,0.598633,0
65960,0.261719,-0.727051,0.568359,0
65980,0.296875,-0.702637,0.584961,0
66000,0.273438,-0.671387,0.60791,0
66020,0.23291,-0.693359,0.618652,0
66040,0.208496,-0.744141,0.601562,0
66060,0.201172,-0.760254,0.565918,0
66080,0.239258,-0.731445,0.592773,0
66100,0.212402,-0.642578,0.595703,0
66120,0.197754,-0.726562,0.536621,0
66140,0.165039,-0.790527,0.522461,0
66160,0.128906,-0.790527,0.516113,0
66180,0.141113,-0.729492,0.486328,0
66200,0.15918,-0.747559,0.499023,0
66220,0.127441,-0.768555,0.498047,0
66240,0.111816,-0.841797,0.428711,0
66260,0.125977,-0.822266,0.431641,0
66280,0.123047,-0.766602,0.407715,0
66300,0.103516,-0.826172,0.442383,0
66320,0.129395,-0.859863,0.39209,0
66340,0.167969,-0.881836,0.356445,0
66350,0.14209,-0.815918,0.351074,0
