Timestamp, Acceleration x, Acceleration y, Acceleration z, Marker
20,-0.341309,-0.781738,0.480469,0
50,-0.342773,-0.779785,0.479492,0
70,-0.341309,-0.779297,0.478516,0
90,-0.341797,-0.779297,0.478516,0
110,-0.337402,-0.780273,0.478516,0
130,-0.340332,-0.786133,0.472656,0
140,-0.335938,-0.783691,0.476074,0
140,-0.334961,-0.787109,0.469238,0
180,-0.338379,-0.781738,0.483398,0
200,-0.340332,-0.785156,0.474609,0
220,-0.34082,-0.781738,0.477539,0
240,-0.338379,-0.77832,0.470703,0
260,-0.337891,-0.783203,0.476074,0
280,-0.339844,-0.779785,0.474121,0
300,-0.336426,-0.787109,0.479492,0
320,-0.336914,-0.787109,0.479492,0
340,-0.338867,-0.78125,0.479004,0
360,-0.337891,-0.788086,0.483887,0
380,-0.337402,-0.77832,0.479004,0
400,-0.339355,-0.78125,0.479004,0
420,-0.338379,-0.77832,0.482422,0
440,-0.349121,-0.786133,0.48291,0
460,-0.347656,-0.782715,0.481934,0
480,-0.348633,-0.780762,0.480957,0
500,-0.341309,-0.780762,0.469727,0
520,-0.339355,-0.782715,0.474121,0
540,-0.345215,-0.789062,0.465332,0
560,-0.34668,-0.782715,0.472656,0
580,-0.347168,-0.783691,0.47168,0
600,-0.351074,-0.791016,0.476074,0
620,-0.352051,-0.788574,0.474609,0
640,-0.345703,-0.788086,0.472168,0
660,-0.348145,-0.783203,0.464844,0
680,-0.350586,-0.789062,0.463379,0
700,-0.34375,-0.782227,0.462891,0
720,-0.345215,-0.779785,0.472168,0
740,-0.352539,-0.777344,0.470215,0
760,-0.352539,-0.779297,0.472168,0
780,-0.353027,-0.783691,0.468262,0
800,-0.345215,-0.773438,0.470703,0
820,-0.345215,-0.78125,0.469727,0
840,-0.350586,-0.783203,0.473145,0
860,-0.349121,-0.783691,0.473633,0
880,-0.352051,-0.78418,0.46875,0
900,-0.350098,-0.785645,0.46875,0
920,-0.35498,-0.786621,0.466309,0
940,-0.350586,-0.785156,0.467285,0
960,-0.350586,-0.789062,0.467285,0
980,-0.352539,-0.787598,0.474121,0
1000,-0.347656,-0.783691,0.466797,0
1020,-0.347656,-0.789062,0.467285,0
1040,-0.351562,-0.784668,0.470215,0
1060,-0.354004,-0.783691,0.474609,0
1080,-0.356934,-0.782227,0.46875,0
1100,-0.356934,-0.779785,0.47168,0
1120,-0.350098,-0.782227,0.463867,0
1140,-0.352539,-0.778809,0.474121,0
1160,-0.350586,-0.78125,0.46582,0
1180,-0.344727,-0.776367,0.462891,0
1200,-0.350586,-0.78418,0.468262,0
1220,-0.354004,-0.785156,0.468262,0
1240,-0.355957,-0.790527,0.476074,0
1260,-0.360352,-0.788574,0.466797,0
1280,-0.352539,-0.787598,0.467773,0
1300,-0.34668,-0.789551,0.460938,0
1320,-0.345215,-0.786621,0.467773,0
1340,-0.351074,-0.782715,0.474121,0
1360,-0.352051,-0.782227,0.471191,0
1380,-0.347168,-0.782715,0.475586,0
1400,-0.352051,-0.786133,0.468262,0
1420,-0.353027,-0.78418,0.473633,0
1440,-0.348145,-0.787109,0.472656,0
1460,-0.351074,-0.784668,0.470215,0
1480,-0.347656,-0.781738,0.469238,0
1500,-0.34668,-0.786133,0.470215,0
1520,-0.350098,-0.779785,0.470703,0
1540,-0.351074,-0.787598,0.471191,0
1560,-0.348633,-0.785156,0.471191,0
1580,-0.350098,-0.783691,0.469238,0
1600,-0.347168,-0.782227,0.466309,0
1620,-0.348633,-0.783691,0.469238,0
1640,-0.348633,-0.785645,0.464355,0
1660,-0.351562,-0.783691,0.469727,0
1680,-0.348145,-0.786133,0.467773,0
1700,-0.351562,-0.780273,0.467773,0
1720,-0.352051,-0.786621,0.466797,0
1740,-0.349121,-0.783691,0.467285,0
1760,-0.347656,-0.775879,0.463867,0
1780,-0.348633,-0.785645,0.470703,0
1800,-0.343262,-0.781738,0.457031,0
1820,-0.34375,-0.783691,0.478516,0
1840,-0.347656,-0.785156,0.471191,0
1860,-0.347656,-0.788574,0.472168,0
1880,-0.351074,-0.788086,0.471191,0
1900,-0.346191,-0.78125,0.475098,0
1920,-0.346191,-0.787598,0.470215,0
1940,-0.34668,-0.783691,0.47168,0
1960,-0.343262,-0.785645,0.468262,0
1980,-0.343262,-0.783203,0.46875,0
2000,-0.342285,-0.78125,0.467773,0
2020,-0.346191,-0.786133,0.473633,0
2040,-0.350586,-0.782715,0.473145,0
2060,-0.349609,-0.787109,0.470703,0
2080,-0.34082,-0.78418,0.467285,0
2100,-0.336426,-0.788086,0.466797,0
2120,-0.340332,-0.788086,0.470215,0
2140,-0.345703,-0.782227,0.469238,0
2160,-0.348145,-0.787598,0.471191,0
2180,-0.347168,-0.782227,0.478027,0
2200,-0.344727,-0.789551,0.475098,0
2220,-0.346191,-0.786621,0.473145,0
2240,-0.341797,-0.785156,0.476562,0
2260,-0.347168,-0.790527,0.47168,0
2280,-0.338867,-0.786621,0.472656,0
2300,-0.34082,-0.786133,0.472168,0
2320,-0.34668,-0.778809,0.467773,0
2340,-0.346191,-0.780273,0.471191,0
2360,-0.347656,-0.786621,0.475098,0
2380,-0.341797,-0.779785,0.473633,0
2400,-0.343262,-0.788086,0.470215,0
2420,-0.347168,-0.782227,0.474609,0
2440,-0.341797,-0.786621,0.470703,0
2450,-0.345215,-0.783203,0.472656,0
2470,-0.344238,-0.78125,0.473633,0
2490,-0.347168,-0.786133,0.471191,0
2510,-0.34375,-0.782227,0.471191,0
2530,-0.345215,-0.789551,0.46875,0
2550,-0.344238,-0.784668,0.469238,0
2570,-0.341309,-0.787598,0.475098,0
2590,-0.344727,-0.786133,0.478027,0
2610,-0.345703,-0.785156,0.474121,0
2630,-0.347168,-0.78418,0.47168,0
2650,-0.34375,-0.780762,0.474609,0
2670,-0.345703,-0.785156,0.477051,0
2690,-0.34375,-0.787109,0.475098,0
2710,-0.342285,-0.786133,0.473145,0
2730,-0.341309,-0.789551,0.469238,0
2750,-0.342773,-0.784668,0.475586,0
2770,-0.345215,-0.786621,0.46875,0
2790,-0.338379,-0.781738,0.467773,0
2810,-0.341797,-0.787109,0.473633,0
2830,-0.345703,-0.782227,0.477051,0
2850,-0.349121,-0.787109,0.483398,0
2870,-0.349121,-0.787598,0.472656,0
2890,-0.342285,-0.782715,0.46582,0
2910,-0.339844,-0.78125,0.468262,0
2930,-0.338379,-0.779297,0.469727,0
2950,-0.340332,-0.783691,0.470703,0
2970,-0.349121,-0.781738,0.474609,0
2990,-0.34082,-0.783203,0.472656,0
3010,-0.347168,-0.789062,0.474609,0
3030,-0.34082,-0.789062,0.473633,0
3050,-0.344238,-0.786621,0.472168,0
3070,-0.344727,-0.787109,0.474609,0
3090,-0.338867,-0.780273,0.470215,0
3110,-0.34082,-0.785156,0.474609,0
3130,-0.343262,-0.773926,0.486328,0
3150,-0.342773,-0.783691,0.479492,0
3170,-0.34375,-0.78418,0.480957,0
3190,-0.338379,-0.784668,0.475586,0
3210,-0.337402,-0.787598,0.476562,0
3230,-0.341797,-0.782715,0.473633,0
3250,-0.345703,-0.78125,0.476562,0
3270,-0.342285,-0.78125,0.473145,0
3290,-0.345703,-0.782227,0.478027,0
3310,-0.343262,-0.781738,0.474609,0
3330,-0.338867,-0.785156,0.474121,0
3350,-0.342285,-0.787109,0.46875,0
3370,-0.342285,-0.789062,0.467773,0
3390,-0.341309,-0.791504,0.477539,0
3410,-0.345703,-0.790039,0.474609,0
3430,-0.345215,-0.787598,0.475586,0
3450,-0.34082,-0.787109,0.467773,0
3470,-0.337402,-0.782227,0.474121,0
3490,-0.341797,-0.786621,0.472656,0
3510,-0.342773,-0.783691,0.473145,0
3530,-0.34082,-0.785645,0.479492,0
3550,-0.338379,-0.787109,0.472656,0
3570,-0.341797,-0.783691,0.477539,0
3590,-0.343262,-0.787598,0.472168,0
3610,-0.342773,-0.784668,0.472656,0
3630,-0.342285,-0.785156,0.467773,0
3650,-0.34082,-0.77832,0.474121,0
3670,-0.34375,-0.77832,0.472656,0
3690,-0.346191,-0.783203,0.479004,0
3710,-0.350098,-0.78418,0.466797,0
3730,-0.350098,-0.78418,0.473633,0
3750,-0.341309,-0.786133,0.464844,0
3770,-0.338867,-0.793457,0.468262,0
3790,-0.347168,-0.788574,0.46875,0
3810,-0.344238,-0.789062,0.473145,0
3830,-0.349609,-0.786133,0.46875,0
3850,-0.350586,-0.785156,0.467285,0
3870,-0.349121,-0.782227,0.467773,0
3890,-0.34375,-0.783691,0.46875,0
3910,-0.345703,-0.79248,0.464355,0
3930,-0.347656,-0.785156,0.464844,0
3950,-0.342773,-0.781738,0.470215,0
3970,-0.349609,-0.78418,0.470215,0
3990,-0.354492,-0.777344,0.46582,0
4010,-0.354492,-0.780273,0.47168,0
4030,-0.349609,-0.780273,0.466309,0
4050,-0.349121,-0.785156,0.464844,0
4070,-0.344727,-0.785645,0.468262,0
4090,-0.347168,-0.787109,0.469238,0
4110,-0.350098,-0.785645,0.471191,0
4130,-0.353027,-0.786621,0.464844,0
4150,-0.351074,-0.788086,0.46582,0
4170,-0.349609,-0.783691,0.458008,0
4190,-0.353027,-0.787109,0.468262,0
4210,-0.348633,-0.783203,0.466309,0
4230,-0.350098,-0.783691,0.465332,0
4250,-0.348633,-0.792969,0.461914,0
4270,-0.345703,-0.780762,0.466797,0
4290,-0.351074,-0.782227,0.470703,0
4310,-0.350586,-0.781738,0.466309,0
4330,-0.355469,-0.77832,0.466797,0
4350,-0.354492,-0.786621,0.460938,0
4370,-0.351562,-0.785156,0.470215,0
4390,-0.352539,-0.785156,0.466797,0
4410,-0.348633,-0.777344,0.46582,0
4420,-0.353516,-0.785156,0.464355,0
4440,-0.352539,-0.783691,0.458496,0
4460,-0.349609,-0.782715,0.470703,0
4480,-0.354492,-0.789062,0.474609,0
4500,-0.354004,-0.788574,0.474609,0
4520,-0.359375,-0.789551,0.469238,0
4540,-0.351562,-0.788086,0.462402,0
4560,-0.341309,-0.788574,0.460449,0
4580,-0.34668,-0.789062,0.464355,0
4600,-0.347656,-0.782227,0.466797,0
4620,-0.356934,-0.786133,0.466797,0
4640,-0.350098,-0.785156,0.467773,0
4660,-0.351562,-0.788086,0.463867,0
4680,-0.350098,-0.783691,0.467285,0
4700,-0.34668,-0.788574,0.46875,0
4720,-0.350586,-0.791992,0.458984,0
4740,-0.346191,-0.780762,0.462402,0
4760,-0.345215,-0.790039,0.470703,0
4780,-0.355957,-0.782227,0.47168,0
4800,-0.354492,-0.786621,0.464355,0
4820,-0.348145,-0.790039,0.465332,0
4840,-0.348633,-0.78125,0.465332,0
4860,-0.349609,-0.790527,0.464844,0
4880,-0.344727,-0.785645,0.46875,0
4900,-0.350098,-0.788574,0.472168,0
4920,-0.352539,-0.787598,0.46582,0
4940,-0.345215,-0.78418,0.465332,0
4960,-0.353516,-0.790527,0.470703,0
4980,-0.346191,-0.785645,0.466309,0
5000,-0.347168,-0.794434,0.460449,0
5020,-0.350586,-0.784668,0.473145,0
5040,-0.344727,-0.788574,0.466797,0
5060,-0.349121,-0.790039,0.472656,0
5080,-0.347656,-0.787598,0.466797,0
5100,-0.345703,-0.791504,0.463867,0
5120,-0.350586,-0.78418,0.469727,0
5140,-0.347168,-0.783691,0.469727,0
5160,-0.347168,-0.786133,0.472656,0
5180,-0.347168,-0.782715,0.467285,0
5200,-0.345703,-0.786621,0.469238,0
5220,-0.343262,-0.78125,0.468262,0
5240,-0.350098,-0.792969,0.47168,0
5260,-0.344727,-0.783203,0.463379,0
5280,-0.345703,-0.786133,0.467285,0
5300,-0.343262,-0.787598,0.46582,0
5320,-0.348145,-0.791016,0.480957,0
5340,-0.353516,-0.786621,0.475098,0
5360,-0.350098,-0.783691,0.469727,0
5380,-0.342285,-0.786133,0.465332,0
5400,-0.344238,-0.789062,0.467285,0
5420,-0.345703,-0.788086,0.474121,0
5440,-0.351074,-0.787598,0.472168,0
5460,-0.349609,-0.786133,0.470703,0
5480,-0.348145,-0.789062,0.463379,0
5500,-0.348145,-0.788574,0.46582,0
5520,-0.346191,-0.788574,0.472656,0
5540,-0.34668,-0.786621,0.467285,0
5560,-0.348145,-0.788574,0.467285,0
5580,-0.343262,-0.78418,0.465332,0
5600,-0.344727,-0.777832,0.473633,0
5620,-0.351562,-0.782227,0.46875,0
5640,-0.352051,-0.78418,0.470215,0
5660,-0.352539,-0.786621,0.473633,0
5680,-0.344238,-0.786621,0.470215,0
5700,-0.347656,-0.783203,0.467773,0
5720,-0.34668,-0.788086,0.463867,0
5740,-0.347656,-0.786621,0.474609,0
5760,-0.348145,-0.787598,0.472168,0
5780,-0.350098,-0.78418,0.466309,0
5800,-0.349121,-0.791016,0.462402,0
5820,-0.350098,-0.79248,0.467773,0
5840,-0.34375,-0.786621,0.465332,0
5860,-0.348145,-0.790039,0.467285,0
5880,-0.34375,-0.782715,0.472168,0
5900,-0.349609,-0.787109,0.463379,0
5920,-0.347168,-0.783691,0.468262,0
5940,-0.344727,-0.786133,0.467285,0
5960,-0.350098,-0.786133,0.469238,0
5980,-0.347656,-0.78418,0.468262,0
6000,-0.348633,-0.793945,0.466797,0
6020,-0.344727,-0.790039,0.468262,0
6040,-0.343262,-0.783691,0.469727,0
6060,-0.348145,-0.783203,0.473633,0
6080,-0.34668,-0.78125,0.468262,0
6100,-0.347656,-0.788574,0.469727,0
6120,-0.346191,-0.780762,0.46875,0
6140,-0.346191,-0.782227,0.467285,0
6160,-0.34668,-0.786133,0.475586,0
6180,-0.351074,-0.789551,0.473633,0
6200,-0.351074,-0.787109,0.470215,0
6220,-0.34668,-0.787598,0.468262,0
6240,-0.343262,-0.79248,0.461914,0
6260,-0.342773,-0.786133,0.474121,0
6280,-0.345215,-0.781738,0.475586,0
6300,-0.346191,-0.782227,0.476562,0
6320,-0.347168,-0.780273,0.472168,0
6340,-0.347168,-0.788574,0.467285,0
6360,-0.345215,-0.785156,0.469238,0
6380,-0.343262,-0.789551,0.466797,0
6400,-0.342773,-0.78418,0.470703,0
6420,-0.349609,-0.784668,0.464844,0
6440,-0.347168,-0.785645,0.463379,0
6460,-0.343262,-0.778809,0.478027,0
6480,-0.339844,-0.787109,0.472168,0
6500,-0.356445,-0.786621,0.467285,0
6520,-0.352539,-0.805176,0.46582,0
6540,-0.337891,-0.80127,0.444336,0
6560,-0.346191,-0.785156,0.434082,0
6580,-0.341309,-0.779297,0.460449,0
6600,-0.320312,-0.774902,0.48584,0
6620,-0.319336,-0.779297,0.504883,0
6640,-0.338867,-0.775391,0.520508,0
6660,-0.344238,-0.774414,0.521973,0
6680,-0.345703,-0.797852,0.514648,0
6700,-0.35791,-0.805664,0.484863,0
6720,-0.385254,-0.797363,0.444336,0
6740,-0.395508,-0.794922,0.427734,0
6760,-0.383301,-0.790039,0.424805,0
6780,-0.38623,-0.790527,0.436035,0
6800,-0.37207,-0.787109,0.44043,0
6820,-0.359863,-0.786133,0.439453,0
6840,-0.348145,-0.772461,0.450684,0
6860,-0.344727,-0.776855,0.451172,0
6890,-0.345215,-0.770508,0.445312,0
6910,-0.342285,-0.779297,0.451172,0
6930,-0.349609,-0.787109,0.452148,0
6950,-0.346191,-0.789062,0.455078,0
6970,-0.353027,-0.790039,0.452148,0
6990,-0.35791,-0.800293,0.464355,0
7010,-0.364746,-0.802246,0.47168,0
7030,-0.366211,-0.795898,0.46582,0
7050,-0.363281,-0.790527,0.456543,0
7070,-0.351074,-0.775391,0.461914,0
7090,-0.355469,-0.780762,0.456543,0
7110,-0.357422,-0.784668,0.47168,0
7130,-0.353027,-0.785156,0.475586,0
7150,-0.352051,-0.786133,0.477539,0
7170,-0.351074,-0.784668,0.482422,0
7190,-0.353516,-0.782227,0.475098,0
7210,-0.347168,-0.778809,0.468262,0
7230,-0.342285,-0.778809,0.47168,0
7250,-0.34668,-0.769531,0.463379,0
7270,-0.34375,-0.77832,0.477051,0
7290,-0.34375,-0.779785,0.484375,0
7310,-0.34375,-0.785156,0.480957,0
7330,-0.346191,-0.791992,0.484863,0
7350,-0.347168,-0.791016,0.479492,0
7370,-0.354004,-0.790039,0.476562,0
7390,-0.354004,-0.779785,0.469727,0
7410,-0.356445,-0.780762,0.473633,0
7430,-0.356934,-0.77832,0.46875,0
7450,-0.354004,-0.772461,0.476562,0
7470,-0.351074,-0.779785,0.470703,0
7490,-0.347168,-0.778809,0.470215,0
7510,-0.348145,-0.783691,0.47168,0
7530,-0.346191,-0.784668,0.477539,0
7550,-0.34375,-0.78418,0.464844,0
7570,-0.340332,-0.784668,0.475098,0
7590,-0.339355,-0.779297,0.476562,0
7610,-0.342773,-0.783203,0.483398,0
7630,-0.344727,-0.77832,0.480469,0
7650,-0.342773,-0.780762,0.484375,0
7670,-0.342773,-0.78418,0.478027,0
7690,-0.34082,-0.77832,0.485352,0
7710,-0.34082,-0.780762,0.481445,0
7730,-0.338379,-0.769043,0.481445,0
7750,-0.341797,-0.771484,0.484375,0
7770,-0.341797,-0.776855,0.479492,0
7790,-0.342773,-0.783203,0.486816,0
7810,-0.340332,-0.787109,0.484863,0
7820,-0.337891,-0.779297,0.490723,0
7840,-0.339355,-0.783691,0.486816,0
7860,-0.335938,-0.785645,0.486816,0
7880,-0.336914,-0.791992,0.483887,0
7900,-0.343262,-0.783203,0.492676,0
7920,-0.344727,-0.774414,0.484375,0
7940,-0.342285,-0.783203,0.487305,0
7960,-0.339844,-0.775391,0.477539,0
7980,-0.337891,-0.774902,0.476562,0
8000,-0.34082,-0.773926,0.480469,0
8020,-0.337891,-0.776855,0.474609,0
8040,-0.342285,-0.783691,0.48877,0
8060,-0.342773,-0.777344,0.482422,0
8080,-0.344727,-0.787109,0.486328,0
8100,-0.342773,-0.780762,0.48877,0
8120,-0.341797,-0.780762,0.485352,0
8140,-0.338867,-0.77832,0.484863,0
8160,-0.345703,-0.774414,0.479004,0
8180,-0.343262,-0.777344,0.478027,0
8200,-0.341797,-0.774902,0.475098,0
8220,-0.345215,-0.779297,0.473633,0
8240,-0.343262,-0.779297,0.47998,0
8260,-0.343262,-0.782715,0.478027,0
8280,-0.345703,-0.783203,0.472168,0
8300,-0.335938,-0.779297,0.470215,0
8320,-0.333008,-0.778809,0.475586,0
8340,-0.322266,-0.773926,0.488281,0
8360,-0.330078,-0.782715,0.500488,0
8380,-0.336914,-0.773438,0.492188,0
8400,-0.336914,-0.773438,0.482422,0
8420,-0.333008,-0.778809,0.487793,0
8440,-0.333496,-0.776855,0.488281,0
8460,-0.336914,-0.779297,0.480957,0
8480,-0.331055,-0.774414,0.488281,0
8500,-0.328125,-0.777832,0.491211,0
8520,-0.327637,-0.778809,0.500488,0
8540,-0.328125,-0.773438,0.506348,0
8560,-0.333984,-0.779785,0.505371,0
8580,-0.335938,-0.774902,0.515625,0
8600,-0.344238,-0.77832,0.501953,0
8620,-0.345703,-0.776855,0.501953,0
8640,-0.342285,-0.779785,0.481934,0
8660,-0.349609,-0.777344,0.478027,0
8680,-0.342285,-0.778809,0.492676,0
8700,-0.344727,-0.801758,0.502441,0
8720,-0.335449,-0.797363,0.447754,0
8740,-0.399902,-0.739258,0.42041,0
8760,-0.391113,-0.763672,0.472168,0
8780,-0.286133,-0.777344,0.496094,0
8800,-0.178711,-0.838379,0.518555,0
8820,-0.275391,-0.765137,0.483887,0
8840,-0.446777,-0.764648,0.504395,0
8860,-0.375488,-0.827148,0.479492,0
8880,-0.304199,-0.813965,0.445801,0
8900,-0.400879,-0.720215,0.419922,0
8920,-0.428223,-0.722168,0.48584,0
8940,-0.364258,-0.80957,0.495117,0
8960,-0.268555,-0.790039,0.492188,0
8980,-0.286133,-0.751465,0.491211,0
9000,-0.346191,-0.774414,0.494141,0
9020,-0.322754,-0.821777,0.48291,0
9040,-0.31543,-0.807617,0.467285,0
9060,-0.374512,-0.751953,0.446289,0
9080,-0.375488,-0.789062,0.465332,0
9100,-0.353516,-0.818359,0.478516,0
9120,-0.342285,-0.78125,0.476074,0
9140,-0.338867,-0.772949,0.48291,0
9160,-0.328613,-0.789062,0.477051,0
9180,-0.333496,-0.774414,0.476562,0
9200,-0.339844,-0.765137,0.478516,0
9220,-0.344727,-0.776855,0.471191,0
9240,-0.362793,-0.783691,0.47168,0
9260,-0.361328,-0.793457,0.45752,0
9280,-0.359863,-0.797852,0.461914,0
9300,-0.354492,-0.785156,0.459473,0
9320,-0.348145,-0.777832,0.458008,0
9340,-0.338867,-0.774902,0.460938,0
9360,-0.344238,-0.779297,0.476562,0
9380,-0.344727,-0.77832,0.467285,0
9400,-0.336426,-0.774414,0.469238,0
9420,-0.345703,-0.780762,0.46875,0
9440,-0.343262,-0.776855,0.466309,0
9460,-0.347656,-0.792969,0.464355,0
9480,-0.347168,-0.785645,0.460938,0
9500,-0.352051,-0.789551,0.460938,0
9520,-0.344238,-0.786621,0.461426,0
9540,-0.346191,-0.787109,0.466797,0
9560,-0.354004,-0.783203,0.464844,0
9580,-0.347656,-0.775879,0.467773,0
9600,-0.351074,-0.786133,0.467285,0
9620,-0.344727,-0.782227,0.469238,0
9640,-0.342285,-0.779297,0.466309,0
9660,-0.344727,-0.77832,0.476074,0
9680,-0.336914,-0.779785,0.468262,0
9700,-0.339355,-0.782227,0.475586,0
9720,-0.334961,-0.775391,0.472656,0
9740,-0.33252,-0.77832,0.486328,0
9760,-0.34082,-0.780273,0.486816,0
9780,-0.335938,-0.775391,0.48584,0
9800,-0.335449,-0.783691,0.492188,0
9810,-0.332031,-0.780762,0.492676,0
9830,-0.337402,-0.788574,0.493164,0
9850,-0.325684,-0.790039,0.491211,0
9870,-0.32959,-0.789062,0.490234,0
9890,-0.330078,-0.789062,0.490723,0
9910,-0.328613,-0.779297,0.496582,0
9930,-0.333496,-0.784668,0.499023,0
9950,-0.32959,-0.776855,0.492676,0
9970,-0.333496,-0.779297,0.500488,0
9990,-0.336914,-0.776367,0.499512,0
10010,-0.330566,-0.769531,0.495605,0
10030,-0.330566,-0.770996,0.495605,0
10050,-0.330078,-0.771484,0.491211,0
10070,-0.328613,-0.771484,0.483398,0
10090,-0.330566,-0.771484,0.48584,0
10110,-0.32959,-0.777344,0.489258,0
10130,-0.336426,-0.78125,0.486328,0
10150,-0.334473,-0.779785,0.490723,0
10170,-0.331543,-0.776855,0.481934,0
10190,-0.328125,-0.777344,0.480469,0
10210,-0.332031,-0.781738,0.482422,0
10230,-0.333984,-0.780273,0.484375,0
10250,-0.335938,-0.775391,0.488281,0
10270,-0.338379,-0.788574,0.494141,0
10290,-0.342773,-0.794922,0.508789,0
10310,-0.340332,-0.80127,0.512207,0
10330,-0.330078,-0.79248,0.492676,0
10350,-0.316406,-0.789551,0.480469,0
10370,-0.319336,-0.768555,0.46582,0
10390,-0.324707,-0.753906,0.470215,0
10410,-0.338867,-0.747559,0.477539,0
10430,-0.34082,-0.744141,0.487305,0
10450,-0.333984,-0.759277,0.490723,0
10470,-0.333496,-0.763184,0.491699,0
10490,-0.336426,-0.770996,0.480469,0
10510,-0.335938,-0.784668,0.48291,0
10530,-0.337402,-0.786133,0.470703,0
10550,-0.338379,-0.797852,0.478516,0
10570,-0.339844,-0.794434,0.476074,0
10590,-0.338379,-0.787109,0.483398,0
10610,-0.335938,-0.78418,0.489746,0
10630,-0.339844,-0.779785,0.492676,0
10650,-0.335449,-0.779297,0.495605,0
10670,-0.332031,-0.770996,0.501465,0
10690,-0.331055,-0.774902,0.497559,0
10710,-0.325684,-0.760742,0.498535,0
10730,-0.326172,-0.76123,0.494629,0
10750,-0.322754,-0.763184,0.499023,0
10770,-0.320312,-0.76416,0.499512,0
10790,-0.328125,-0.770996,0.501465,0
10810,-0.330078,-0.77002,0.493164,0
10830,-0.324707,-0.767578,0.491699,0
10850,-0.324707,-0.769531,0.498047,0
10870,-0.329102,-0.765625,0.500488,0
10890,-0.337402,-0.776855,0.516602,0
10910,-0.337891,-0.774414,0.516602,0
10930,-0.333008,-0.776855,0.507324,0
10950,-0.324219,-0.771973,0.503906,0
10970,-0.32373,-0.775391,0.506836,0
10990,-0.326172,-0.778809,0.506836,0
11010,-0.333008,-0.769531,0.506348,0
11030,-0.332031,-0.774902,0.509277,0
11050,-0.323242,-0.763672,0.501465,0
11070,-0.325684,-0.768555,0.503418,0
11090,-0.331055,-0.763672,0.498535,0
11110,-0.334473,-0.763672,0.498535,0
11130,-0.327637,-0.764648,0.48291,0
11150,-0.324219,-0.76709,0.496582,0
11170,-0.336426,-0.777344,0.5,0
11190,-0.339355,-0.771484,0.488281,0
11210,-0.333008,-0.776367,0.493164,0
11230,-0.338379,-0.772461,0.491211,0
11250,-0.342285,-0.775879,0.480957,0
11270,-0.335449,-0.772949,0.472656,0
11290,-0.328613,-0.768066,0.484375,0
11310,-0.336426,-0.772949,0.490723,0
11330,-0.336914,-0.777344,0.492188,0
11350,-0.329102,-0.775391,0.48584,0
11370,-0.330078,-0.78125,0.495605,0
11390,-0.328125,-0.779297,0.487793,0
11410,-0.33252,-0.78125,0.493652,0
11430,-0.334961,-0.770996,0.495117,0
11450,-0.333008,-0.77002,0.491699,0
11470,-0.334473,-0.771973,0.493164,0
11490,-0.32959,-0.771484,0.49707,0
11510,-0.335938,-0.777832,0.490234,0
11530,-0.329102,-0.768555,0.498535,0
11550,-0.335938,-0.776855,0.504395,0
11570,-0.32959,-0.770508,0.490723,0
11590,-0.331543,-0.775879,0.489746,0
11610,-0.336914,-0.785156,0.497559,0
11630,-0.338379,-0.779297,0.496582,0
11650,-0.333984,-0.777832,0.495117,0
11670,-0.326172,-0.764648,0.484863,0
11690,-0.330566,-0.763672,0.476074,0
11710,-0.328125,-0.769531,0.477051,0
11730,-0.335938,-0.773926,0.485352,0
11750,-0.330078,-0.773926,0.491211,0
11770,-0.325684,-0.775879,0.491699,0
11790,-0.322266,-0.77832,0.487793,0
11810,-0.322754,-0.780762,0.492188,0
11830,-0.328125,-0.77832,0.491699,0
11850,-0.32959,-0.779785,0.495605,0
11870,-0.33252,-0.773438,0.491699,0
11890,-0.331055,-0.778809,0.499023,0
11910,-0.331055,-0.765137,0.499512,0
11930,-0.331543,-0.766602,0.504883,0
11950,-0.334473,-0.765625,0.502441,0
11970,-0.327148,-0.769531,0.498047,0
11990,-0.32666,-0.772949,0.496582,0
12010,-0.321289,-0.77002,0.498047,0
12030,-0.325195,-0.769043,0.492676,0
12050,-0.321289,-0.772461,0.498535,0
12070,-0.326172,-0.777344,0.499512,0
12090,-0.324707,-0.777832,0.497559,0
12110,-0.325195,-0.774414,0.494141,0
12130,-0.325684,-0.772461,0.492676,0
12150,-0.327148,-0.771484,0.49707,0
12170,-0.330566,-0.769531,0.495605,0
12190,-0.328125,-0.772949,0.492676,0
12210,-0.328613,-0.77002,0.498535,0
12230,-0.328613,-0.771973,0.498535,0
12250,-0.325195,-0.773926,0.497559,0
12270,-0.327148,-0.774902,0.49707,0
12290,-0.318848,-0.780273,0.499512,0
12310,-0.319824,-0.775879,0.497559,0
12330,-0.319824,-0.767578,0.500488,0
12350,-0.318848,-0.765625,0.499023,0
12370,-0.328613,-0.775391,0.506348,0
12390,-0.330566,-0.769043,0.506836,0
12410,-0.334473,-0.779297,0.501465,0
12430,-0.334961,-0.774414,0.498047,0
12450,-0.328613,-0.77832,0.495117,0
12470,-0.330566,-0.777832,0.500488,0
12490,-0.331055,-0.77002,0.497559,0
12510,-0.328125,-0.764648,0.487793,0
12530,-0.322754,-0.762695,0.491211,0
12550,-0.318359,-0.773438,0.495117,0
12570,-0.325195,-0.779785,0.498535,0
12590,-0.32373,-0.785645,0.493652,0
12610,-0.329102,-0.786133,0.496582,0
12630,-0.325195,-0.775879,0.490723,0
12650,-0.33252,-0.778809,0.488281,0
12670,-0.34375,-0.762207,0.490234,0
12690,-0.339355,-0.76416,0.489746,0
12710,-0.336914,-0.770508,0.490234,0
12730,-0.330566,-0.765137,0.493164,0
12750,-0.328125,-0.777832,0.499512,0
12770,-0.327637,-0.774414,0.496094,0
12790,-0.330078,-0.77832,0.489258,0
12810,-0.334473,-0.782715,0.490234,0
12830,-0.328125,-0.781738,0.491699,0
12850,-0.330078,-0.781738,0.491699,0
12870,-0.328613,-0.777344,0.489746,0
12890,-0.330566,-0.782227,0.492188,0
12910,-0.331543,-0.777344,0.491211,0
12930,-0.331543,-0.782715,0.493652,0
12950,-0.336426,-0.773926,0.490234,0
12970,-0.333984,-0.775879,0.490234,0
12990,-0.334961,-0.77832,0.486816,0
13010,-0.334473,-0.771973,0.490723,0
13030,-0.32959,-0.77832,0.488281,0
13050,-0.331055,-0.775879,0.490234,0
13070,-0.330078,-0.777832,0.486328,0
13090,-0.334473,-0.772461,0.487793,0
13110,-0.333496,-0.769531,0.48291,0
13130,-0.335449,-0.77832,0.491699,0
13150,-0.341797,-0.77832,0.496582,0
13170,-0.344727,-0.784668,0.486816,0
13190,-0.345215,-0.78125,0.475586,0
13210,-0.334473,-0.779785,0.481934,0
13220,-0.333008,-0.780273,0.478027,0
13240,-0.333984,-0.770508,0.480469,0
13260,-0.334961,-0.778809,0.477051,0
13280,-0.33252,-0.773926,0.486328,0
13300,-0.339844,-0.774902,0.478027,0
13320,-0.344238,-0.782715,0.486328,0
13340,-0.339844,-0.77832,0.474609,0
13360,-0.34375,-0.783203,0.479004,0
13380,-0.342285,-0.773926,0.479492,0
13400,-0.339844,-0.778809,0.479492,0
13420,-0.347168,-0.773438,0.479004,0
13440,-0.345703,-0.772949,0.477051,0
13460,-0.34375,-0.779297,0.479492,0
13480,-0.34082,-0.773926,0.482422,0
13500,-0.339355,-0.783203,0.484375,0
13520,-0.337402,-0.778809,0.484863,0
13540,-0.338867,-0.784668,0.483887,0
13560,-0.344727,-0.780762,0.486328,0
13580,-0.344238,-0.781738,0.486328,0
13600,-0.346191,-0.780273,0.48584,0
13620,-0.34375,-0.773926,0.483887,0
13640,-0.339844,-0.777344,0.48584,0
13660,-0.339355,-0.77832,0.482422,0
13680,-0.337402,-0.778809,0.486816,0
13700,-0.342285,-0.778809,0.489746,0
13720,-0.339844,-0.773926,0.480957,0
13740,-0.34668,-0.776367,0.480469,0
13770,-0.344238,-0.777832,0.481934,0
13790,-0.34082,-0.777344,0.477051,0
13810,-0.339355,-0.775391,0.483398,0
13830,-0.341309,-0.775391,0.482422,0
13850,-0.34375,-0.774414,0.48291,0
13870,-0.346191,-0.779297,0.484863,0
13890,-0.346191,-0.775879,0.481934,0
13910,-0.338867,-0.783691,0.476562,0
13930,-0.337402,-0.783203,0.476562,0
13950,-0.337891,-0.77832,0.480469,0
13970,-0.345703,-0.780762,0.48291,0
13990,-0.342773,-0.775391,0.48291,0
14010,-0.344727,-0.782715,0.482422,0
14030,-0.345215,-0.781738,0.480469,0
14050,-0.339355,-0.78125,0.475098,0
14070,-0.348145,-0.78418,0.479004,0
14090,-0.342285,-0.780762,0.476074,0
14110,-0.342285,-0.782715,0.47168,0
14130,-0.344238,-0.779297,0.479004,0
14150,-0.347168,-0.776855,0.474121,0
14170,-0.346191,-0.776367,0.483887,0
14190,-0.339355,-0.774902,0.477539,0
14210,-0.338867,-0.776855,0.479004,0
14230,-0.336426,-0.776855,0.482422,0
14250,-0.343262,-0.782715,0.477051,0
14270,-0.345703,-0.779785,0.481934,0
14290,-0.339844,-0.786133,0.479492,0
14310,-0.344727,-0.791016,0.483887,0
14330,-0.34375,-0.789551,0.477539,0
14350,-0.345215,-0.792969,0.491699,0
14370,-0.339844,-0.784668,0.484375,0
14390,-0.335938,-0.785156,0.483398,0
14410,-0.330078,-0.771484,0.475098,0
14430,-0.338867,-0.766602,0.478027,0
14450,-0.339355,-0.775391,0.479004,0
14470,-0.341309,-0.763672,0.46875,0
14490,-0.344727,-0.775879,0.469727,0
14510,-0.338379,-0.77832,0.482422,0
14530,-0.34375,-0.786621,0.481445,0
14550,-0.341309,-0.779297,0.474121,0
14570,-0.339844,-0.780762,0.473145,0
14590,-0.344238,-0.78125,0.482422,0
14610,-0.345703,-0.782715,0.482422,0
14630,-0.347168,-0.782715,0.481934,0
14650,-0.343262,-0.787598,0.474121,0
14670,-0.333008,-0.790527,0.478027,0
14690,-0.333496,-0.789551,0.481445,0
14710,-0.335449,-0.780762,0.477539,0
14730,-0.344238,-0.77832,0.480957,0
14750,-0.34082,-0.775879,0.488281,0
14770,-0.338867,-0.776367,0.481445,0
14790,-0.339844,-0.778809,0.480469,0
14810,-0.342285,-0.779785,0.485352,0
14830,-0.344727,-0.782227,0.480957,0
14850,-0.339355,-0.785156,0.475586,0
14870,-0.335449,-0.787109,0.47168,0
14890,-0.34082,-0.783691,0.477539,0
14910,-0.341797,-0.779785,0.475586,0
14930,-0.342773,-0.78125,0.478027,0
14950,-0.339844,-0.777344,0.475098,0
14970,-0.338379,-0.78418,0.474609,0
14990,-0.339355,-0.782227,0.472656,0
15010,-0.34082,-0.783691,0.476562,0
15030,-0.342773,-0.780273,0.476074,0
15050,-0.345215,-0.776855,0.476074,0
15070,-0.345703,-0.784668,0.473145,0
15090,-0.34375,-0.781738,0.478516,0
15110,-0.344238,-0.786621,0.475098,0
15130,-0.343262,-0.783691,0.476562,0
15150,-0.345215,-0.782715,0.477539,0
15170,-0.338867,-0.780762,0.476074,0
15190,-0.342285,-0.78125,0.474609,0
15200,-0.342285,-0.783691,0.477051,0
15220,-0.342285,-0.782227,0.484863,0
15240,-0.345703,-0.785156,0.477539,0
15260,-0.34375,-0.783691,0.478516,0
15280,-0.343262,-0.775879,0.478027,0
15300,-0.343262,-0.784668,0.466797,0
15320,-0.341797,-0.780273,0.460938,0
15340,-0.341309,-0.77832,0.467285,0
15360,-0.339844,-0.779297,0.467773,0
15380,-0.345703,-0.784668,0.481445,0
15400,-0.345703,-0.78418,0.483887,0
15420,-0.348145,-0.782227,0.473145,0
15440,-0.345703,-0.788574,0.46875,0
15460,-0.34082,-0.790039,0.46875,0
15480,-0.342773,-0.788086,0.46875,0
15500,-0.345703,-0.786621,0.468262,0
15520,-0.347168,-0.781738,0.478027,0
15540,-0.346191,-0.783203,0.475098,0
15550,-0.339844,-0.78418,0.474609,0
15570,-0.345215,-0.788086,0.471191,0
15590,-0.342773,-0.782715,0.477539,0
15610,-0.347168,-0.791016,0.471191,0
15630,-0.343262,-0.780273,0.464844,0
15650,-0.342285,-0.782227,0.474609,0
15670,-0.345215,-0.782227,0.47998,0
15690,-0.346191,-0.782227,0.475098,0
15710,-0.34375,-0.786621,0.473145,0
15730,-0.338379,-0.783691,0.476074,0
15750,-0.339355,-0.782715,0.473145,0
15770,-0.342773,-0.779297,0.472168,0
15790,-0.34375,-0.783203,0.473145,0
15810,-0.347656,-0.789551,0.475586,0
15830,-0.345215,-0.782227,0.476562,0
15850,-0.348145,-0.785156,0.468262,0
15870,-0.347656,-0.785156,0.47168,0
15890,-0.345215,-0.787109,0.475586,0
15910,-0.345703,-0.786621,0.470703,0
15930,-0.341309,-0.78125,0.476074,0
15950,-0.347168,-0.791016,0.473145,0
15970,-0.34668,-0.779297,0.472168,0
15990,-0.351562,-0.782227,0.473145,0
16010,-0.350586,-0.788086,0.472168,0
16030,-0.347656,-0.786621,0.470703,0
16050,-0.351074,-0.788574,0.468262,0
16070,-0.34668,-0.781738,0.473145,0
16090,-0.352539,-0.788086,0.464844,0
16110,-0.347656,-0.777344,0.465332,0
16130,-0.350586,-0.779785,0.472168,0
16150,-0.348145,-0.786133,0.476562,0
16170,-0.357422,-0.783691,0.475586,0
16190,-0.355957,-0.787109,0.466797,0
16210,-0.350586,-0.782715,0.466797,0
16230,-0.344238,-0.791016,0.464844,0
16250,-0.350098,-0.785645,0.464844,0
16270,-0.349609,-0.786621,0.469727,0
16290,-0.350098,-0.78418,0.46582,0
16310,-0.351562,-0.780273,0.473145,0
16330,-0.352051,-0.785645,0.468262,0
16350,-0.354004,-0.781738,0.465332,0
16370,-0.351562,-0.783203,0.467773,0
16390,-0.351562,-0.783691,0.468262,0
16410,-0.34668,-0.781738,0.46582,0
16430,-0.354004,-0.788086,0.469238,0
16450,-0.352539,-0.773926,0.470703,0
16470,-0.351562,-0.785645,0.466797,0
16490,-0.354004,-0.77832,0.469238,0
16510,-0.351562,-0.778809,0.46582,0
16530,-0.352051,-0.785156,0.466797,0
16550,-0.355957,-0.780273,0.46875,0
16570,-0.353516,-0.787598,0.46875,0
16590,-0.357422,-0.785156,0.472656,0
16610,-0.353516,-0.78418,0.469727,0
16630,-0.356934,-0.786621,0.470703,0
16650,-0.355469,-0.785645,0.467773,0
16670,-0.352051,-0.787598,0.469238,0
16690,-0.350586,-0.786621,0.468262,0
16710,-0.350586,-0.786621,0.46582,0
16730,-0.352539,-0.790039,0.463867,0
16750,-0.35498,-0.784668,0.474609,0
16770,-0.355469,-0.78418,0.469727,0
16790,-0.354004,-0.783691,0.462891,0
16810,-0.35498,-0.787598,0.467773,0
16830,-0.351074,-0.779785,0.464355,0
16850,-0.351074,-0.779297,0.464844,0
16870,-0.351074,-0.777832,0.463379,0
16890,-0.354004,-0.781738,0.478516,0
16910,-0.35791,-0.785645,0.473145,0
16930,-0.353516,-0.780762,0.470703,0
16950,-0.348145,-0.790527,0.464355,0
16970,-0.349609,-0.789062,0.459961,0
16990,-0.350586,-0.788574,0.464355,0
17010,-0.353516,-0.789062,0.464844,0
17030,-0.356934,-0.784668,0.472168,0
17050,-0.353027,-0.791016,0.462891,0
17070,-0.350586,-0.789062,0.462402,0
17090,-0.351562,-0.791992,0.460938,0
17110,-0.353516,-0.788574,0.46582,0
17130,-0.34668,-0.786133,0.456055,0
17150,-0.348633,-0.78418,0.462402,0
17170,-0.354492,-0.779785,0.466797,0
17190,-0.355957,-0.776367,0.464844,0
17210,-0.348633,-0.78418,0.46875,0
17230,-0.348633,-0.781738,0.464844,0
17250,-0.348633,-0.786133,0.466797,0
17270,-0.349121,-0.786133,0.464844,0
17290,-0.350586,-0.794434,0.464844,0
17310,-0.350586,-0.785156,0.462402,0
17330,-0.353516,-0.796387,0.460938,0
17350,-0.353027,-0.785645,0.459961,0
17370,-0.351562,-0.788574,0.459961,0
17390,-0.354004,-0.793945,0.462402,0
17410,-0.348145,-0.788574,0.465332,0
17430,-0.351562,-0.788086,0.459961,0
17450,-0.344727,-0.779785,0.45752,0
17470,-0.352051,-0.785156,0.467773,0
17490,-0.347656,-0.786621,0.475098,0
17510,-0.351074,-0.786133,0.470215,0
17530,-0.349121,-0.787598,0.473633,0
17550,-0.351562,-0.78418,0.466309,0
17570,-0.349609,-0.783203,0.463379,0
17590,-0.345703,-0.789062,0.469238,0
17610,-0.344238,-0.78418,0.458496,0
17630,-0.345215,-0.781738,0.46582,0
17650,-0.348145,-0.775879,0.469727,0
17670,-0.350586,-0.791016,0.469727,0
17690,-0.355957,-0.785645,0.467285,0
17710,-0.350586,-0.788086,0.470703,0
17730,-0.34668,-0.79248,0.462891,0
17750,-0.341797,-0.791504,0.464844,0
17770,-0.347656,-0.788574,0.468262,0
17790,-0.350098,-0.780762,0.465332,0
17810,-0.351074,-0.786133,0.463867,0
17830,-0.348145,-0.783691,0.46582,0
17850,-0.347168,-0.785645,0.463379,0
17870,-0.346191,-0.785645,0.465332,0
17890,-0.347656,-0.785156,0.47168,0
17910,-0.349121,-0.790039,0.465332,0
17930,-0.34375,-0.781738,0.466309,0
17950,-0.350586,-0.784668,0.469727,0
17970,-0.350098,-0.789551,0.476074,0
17990,-0.350586,-0.78125,0.472656,0
18010,-0.349609,-0.789062,0.467773,0
18030,-0.34375,-0.78125,0.472168,0
18050,-0.347168,-0.78418,0.469238,0
18070,-0.349609,-0.783203,0.473633,0
18090,-0.351074,-0.786133,0.466309,0
18110,-0.353027,-0.78418,0.467773,0
18130,-0.351562,-0.785156,0.469727,0
18150,-0.352051,-0.792969,0.463867,0
18170,-0.347656,-0.785645,0.466309,0
18190,-0.347168,-0.786621,0.468262,0
18210,-0.348633,-0.786621,0.463867,0
18230,-0.351562,-0.784668,0.468262,0
18250,-0.348145,-0.792969,0.466797,0
18270,-0.346191,-0.78418,0.463867,0
18290,-0.353027,-0.78418,0.473633,0
18310,-0.348633,-0.782227,0.467773,0
18330,-0.347656,-0.791992,0.468262,0
18350,-0.347656,-0.78418,0.46875,0
18370,-0.348633,-0.784668,0.46582,0
18390,-0.348145,-0.789551,0.466797,0
18410,-0.34668,-0.784668,0.46582,0
18430,-0.34668,-0.782715,0.464844,0
18450,-0.348633,-0.782227,0.468262,0
18470,-0.349121,-0.786133,0.470703,0
18490,-0.358398,-0.785156,0.476074,0
18510,-0.351074,-0.783691,0.468262,0
18530,-0.350586,-0.792969,0.467773,0
18550,-0.346191,-0.789551,0.462402,0
18570,-0.344238,-0.792969,0.471191,0
18590,-0.349121,-0.787598,0.469238,0
18600,-0.348633,-0.78125,0.466797,0
18620,-0.349609,-0.791016,0.464844,0
18640,-0.348145,-0.783203,0.468262,0
18660,-0.355957,-0.789551,0.466309,0
18680,-0.350098,-0.789551,0.464844,0
18700,-0.352539,-0.787598,0.456055,0
18720,-0.350586,-0.785156,0.463379,0
18740,-0.352539,-0.781738,0.459961,0
18760,-0.356934,-0.785156,0.469238,0
18780,-0.353516,-0.780762,0.467285,0
18800,-0.353027,-0.788574,0.470703,0
18820,-0.347656,-0.784668,0.460938,0
18840,-0.345215,-0.780762,0.469238,0
18860,-0.351074,-0.788574,0.468262,0
18880,-0.349609,-0.783691,0.467773,0
18900,-0.35498,-0.789062,0.473633,0
18920,-0.355957,-0.791992,0.463867,0
18940,-0.355469,-0.790527,0.467285,0
18960,-0.355469,-0.791504,0.463867,0
18980,-0.35791,-0.788086,0.460938,0
19000,-0.355957,-0.791016,0.461914,0
19020,-0.353027,-0.786621,0.463867,0
19040,-0.353516,-0.790039,0.461914,0
19060,-0.354004,-0.784668,0.458496,0
19080,-0.358887,-0.780273,0.465332,0
19100,-0.361816,-0.787598,0.462402,0
19120,-0.359863,-0.783203,0.465332,0
19140,-0.364746,-0.789062,0.461914,0
19160,-0.356934,-0.785645,0.460449,0
19180,-0.360352,-0.789551,0.45752,0
19200,-0.349121,-0.784668,0.452148,0
19220,-0.354004,-0.78125,0.461914,0
19240,-0.360352,-0.791992,0.463379,0
19260,-0.366699,-0.786133,0.465332,0
19280,-0.365234,-0.785156,0.458496,0
19300,-0.360352,-0.780762,0.456055,0
19320,-0.359863,-0.781738,0.454102,0
19340,-0.358887,-0.785645,0.454102,0
19360,-0.366211,-0.785156,0.458496,0
19380,-0.36084,-0.788574,0.460449,0
19400,-0.359863,-0.789551,0.457031,0
19420,-0.364258,-0.791016,0.449707,0
19440,-0.361816,-0.799805,0.449707,0
19460,-0.360352,-0.792969,0.452637,0
19480,-0.362793,-0.790527,0.450195,0
19500,-0.362305,-0.781738,0.452148,0
19520,-0.368164,-0.782715,0.45459,0
19540,-0.366211,-0.780762,0.453125,0
19560,-0.36377,-0.78125,0.460449,0
19580,-0.362793,-0.783203,0.452637,0
19600,-0.358887,-0.783691,0.455078,0
19620,-0.36084,-0.789551,0.454102,0
19640,-0.359375,-0.782715,0.456055,0
19660,-0.356445,-0.790527,0.456055,0
19680,-0.36377,-0.789551,0.45459,0
19700,-0.36084,-0.786621,0.460449,0
19720,-0.362305,-0.790039,0.45752,0
19740,-0.358398,-0.789062,0.463379,0
19760,-0.354004,-0.789062,0.463379,0
19780,-0.355469,-0.788574,0.468262,0
19800,-0.354004,-0.788086,0.462891,0
19820,-0.353027,-0.792969,0.469727,0
19840,-0.361328,-0.790039,0.462891,0
19860,-0.360352,-0.794434,0.463867,0
19880,-0.353027,-0.796875,0.464844,0
19900,-0.352539,-0.785156,0.469727,0
19920,-0.362305,-0.785156,0.462402,0
19940,-0.352051,-0.786621,0.459473,0
19960,-0.349121,-0.785156,0.46875,0
19980,-0.349609,-0.775391,0.461914,0
20000,-0.36084,-0.791504,0.468262,0
20020,-0.359863,-0.789062,0.467773,0
20040,-0.35791,-0.791504,0.456055,0
20060,-0.352539,-0.793945,0.456055,0
20080,-0.350586,-0.794922,0.461426,0
20100,-0.358887,-0.79541,0.458496,0
20120,-0.363281,-0.788574,0.460449,0
20140,-0.358398,-0.786621,0.460449,0
20160,-0.358398,-0.788574,0.459473,0
20180,-0.363281,-0.79248,0.459961,0
20200,-0.362305,-0.789062,0.455566,0
20220,-0.357422,-0.79248,0.459473,0
20240,-0.356445,-0.800781,0.458008,0
20260,-0.352539,-0.785156,0.451172,0
20280,-0.36084,-0.785645,0.456543,0
20300,-0.356934,-0.785645,0.459961,0
20320,-0.360352,-0.78418,0.457031,0
20340,-0.361816,-0.79248,0.457031,0
20360,-0.359863,-0.782227,0.448242,0
20380,-0.358887,-0.793945,0.45459,0
20400,-0.361328,-0.79248,0.456543,0
20420,-0.36084,-0.794922,0.448242,0
20440,-0.371582,-0.792969,0.448242,0
20460,-0.365723,-0.796387,0.439941,0
20480,-0.36377,-0.804199,0.438477,0
20500,-0.362305,-0.788086,0.449219,0
20520,-0.361816,-0.790039,0.443359,0
20540,-0.35791,-0.792969,0.450195,0
20560,-0.362305,-0.792969,0.450195,0
20580,-0.362793,-0.791504,0.45166,0
20590,-0.364746,-0.786621,0.452637,0
20610,-0.367188,-0.790039,0.449219,0
20630,-0.362305,-0.790039,0.447754,0
20650,-0.368164,-0.790527,0.444824,0
20670,-0.366699,-0.793945,0.447754,0
20690,-0.366699,-0.793457,0.438477,0
20710,-0.362793,-0.79248,0.443359,0
20730,-0.366211,-0.786621,0.442383,0
20750,-0.371094,-0.797852,0.44873,0
20770,-0.370605,-0.794922,0.451172,0
20790,-0.366699,-0.793457,0.446777,0
20810,-0.362305,-0.801758,0.441406,0
20830,-0.358887,-0.797363,0.442383,0
20850,-0.359375,-0.800781,0.445801,0
20870,-0.364258,-0.796387,0.452148,0
20890,-0.365234,-0.791992,0.447754,0
20910,-0.361816,-0.790039,0.444824,0
20930,-0.364746,-0.791016,0.449707,0
20950,-0.370605,-0.798828,0.443359,0
20970,-0.369141,-0.793457,0.442383,0
20990,-0.364746,-0.791992,0.445312,0
21010,-0.36084,-0.791504,0.438477,0
21030,-0.36377,-0.789551,0.446289,0
21050,-0.369629,-0.793945,0.452637,0
21070,-0.365234,-0.791016,0.44873,0
21090,-0.366211,-0.793945,0.450195,0
21110,-0.359863,-0.790527,0.442871,0
21130,-0.359863,-0.792969,0.449219,0
21150,-0.359375,-0.791016,0.45166,0
21170,-0.359863,-0.790527,0.454102,0
21190,-0.362305,-0.793945,0.45166,0
21210,-0.361328,-0.788086,0.458496,0
21230,-0.359863,-0.795898,0.453613,0
21250,-0.362793,-0.793457,0.45459,0
21270,-0.359863,-0.795898,0.453125,0
21290,-0.357422,-0.79541,0.449219,0
21310,-0.359375,-0.794434,0.453613,0
21330,-0.356445,-0.794434,0.455078,0
21350,-0.358887,-0.793945,0.458984,0
21370,-0.356445,-0.79248,0.460938,0
21390,-0.358887,-0.792969,0.455566,0
21410,-0.356934,-0.787109,0.45459,0
21430,-0.356445,-0.790039,0.45459,0
21450,-0.356445,-0.793457,0.453613,0
21470,-0.358887,-0.791504,0.458984,0
21490,-0.355957,-0.777832,0.454102,0
21510,-0.358887,-0.782227,0.455078,0
21530,-0.369629,-0.789551,0.459473,0
21550,-0.375488,-0.788574,0.464844,0
21570,-0.373047,-0.791016,0.456543,0
21590,-0.369141,-0.79541,0.446289,0
21610,-0.363281,-0.795898,0.443359,0
21630,-0.36084,-0.793457,0.448242,0
21650,-0.359863,-0.785645,0.448242,0
21670,-0.36377,-0.787109,0.442383,0
21690,-0.357422,-0.783691,0.452637,0
21710,-0.356445,-0.78418,0.456543,0
21730,-0.350586,-0.78418,0.44873,0
21750,-0.350586,-0.785156,0.45459,0
21770,-0.35498,-0.777832,0.453613,0
21790,-0.35498,-0.770996,0.45752,0
21810,-0.354004,-0.784668,0.467773,0
21830,-0.35791,-0.772461,0.458496,0
21850,-0.367676,-0.781738,0.461426,0
21870,-0.35791,-0.791992,0.477539,0
21890,-0.347656,-0.788086,0.470703,0
21910,-0.343262,-0.791504,0.476074,0
21930,-0.349121,-0.785156,0.485352,0
21950,-0.350586,-0.787109,0.483887,0
21970,-0.350098,-0.780273,0.48291,0
21990,-0.348145,-0.787109,0.486328,0
22010,-0.350586,-0.783203,0.487305,0
22030,-0.342773,-0.785156,0.487305,0
22050,-0.343262,-0.779785,0.48877,0
22070,-0.338379,-0.776855,0.493164,0
22090,-0.335449,-0.779297,0.48877,0
22110,-0.339844,-0.770508,0.491699,0
22130,-0.34375,-0.771973,0.490723,0
22150,-0.351074,-0.778809,0.48584,0
22170,-0.349121,-0.770508,0.486816,0
22190,-0.347656,-0.780273,0.484375,0
22210,-0.34375,-0.770996,0.468262,0
22230,-0.345215,-0.76709,0.475098,0
22250,-0.339844,-0.760742,0.470215,0
22270,-0.345703,-0.762695,0.476074,0
22290,-0.350586,-0.758789,0.467773,0
22310,-0.353027,-0.765137,0.476074,0
22330,-0.354492,-0.769043,0.474609,0
22350,-0.345215,-0.771973,0.474609,0
22370,-0.345215,-0.780273,0.477051,0
22390,-0.345703,-0.780273,0.485352,0
22410,-0.328613,-0.788574,0.490723,0
22430,-0.33252,-0.790039,0.496582,0
22450,-0.325684,-0.785156,0.502441,0
22470,-0.327637,-0.78418,0.507812,0
22490,-0.326172,-0.779785,0.510742,0
22510,-0.331543,-0.771484,0.503906,0
22530,-0.328613,-0.766602,0.505859,0
22550,-0.32959,-0.759766,0.513184,0
22570,-0.341309,-0.760254,0.516113,0
22590,-0.32959,-0.75293,0.516113,0
22610,-0.324707,-0.74707,0.513672,0
22630,-0.328613,-0.752441,0.515137,0
22650,-0.324219,-0.755859,0.515625,0
22670,-0.327637,-0.770508,0.511719,0
22690,-0.32373,-0.773438,0.509766,0
22710,-0.325684,-0.784668,0.503906,0
22730,-0.327148,-0.786621,0.504883,0
22750,-0.330078,-0.781738,0.500488,0
22770,-0.329102,-0.78418,0.504883,0
22790,-0.326172,-0.772461,0.508301,0
22810,-0.323242,-0.768066,0.503906,0
22830,-0.323242,-0.761719,0.510254,0
22850,-0.32373,-0.759766,0.506348,0
22870,-0.322754,-0.755371,0.508789,0
22890,-0.324707,-0.750488,0.511719,0
22910,-0.325195,-0.765625,0.515625,0
22930,-0.324219,-0.76123,0.509277,0
22950,-0.318359,-0.765137,0.507812,0
22970,-0.322754,-0.764648,0.513184,0
22990,-0.324219,-0.768555,0.510742,0
23010,-0.32959,-0.771484,0.510254,0
23030,-0.325195,-0.763184,0.509766,0
23050,-0.325684,-0.77002,0.501953,0
23070,-0.316895,-0.771973,0.504883,0
23090,-0.325684,-0.777344,0.507812,0
23110,-0.321289,-0.770508,0.509766,0
23130,-0.325195,-0.768555,0.510742,0
23150,-0.319336,-0.769043,0.507812,0
23170,-0.321777,-0.766602,0.515625,0
23190,-0.321777,-0.767578,0.511719,0
23210,-0.320312,-0.764648,0.508789,0
23230,-0.319824,-0.769043,0.510254,0
23250,-0.317383,-0.766602,0.507812,0
23270,-0.321289,-0.759277,0.509277,0
23290,-0.328125,-0.76416,0.507812,0
23310,-0.327148,-0.76416,0.510254,0
23330,-0.32666,-0.765625,0.506836,0
23350,-0.32373,-0.765137,0.508789,0
23370,-0.32373,-0.764648,0.507812,0
23390,-0.322754,-0.767578,0.505859,0
23410,-0.319336,-0.764648,0.504883,0
23430,-0.327148,-0.767578,0.506348,0
23450,-0.326172,-0.769531,0.506348,0
23470,-0.323242,-0.76709,0.505859,0
23490,-0.324219,-0.773926,0.501465,0
23510,-0.321777,-0.768066,0.505371,0
23530,-0.322266,-0.769043,0.504395,0
23550,-0.324219,-0.766602,0.507324,0
23570,-0.322266,-0.768066,0.508789,0
23590,-0.32666,-0.768066,0.505371,0
23610,-0.324707,-0.76709,0.505859,0
23630,-0.319824,-0.768066,0.503418,0
23650,-0.320801,-0.76709,0.499512,0
23670,-0.319336,-0.768555,0.506348,0
23690,-0.318848,-0.766602,0.502441,0
23710,-0.322266,-0.768555,0.507324,0
23730,-0.331055,-0.768066,0.515137,0
23750,-0.32666,-0.763672,0.504883,0
23770,-0.324707,-0.768555,0.504883,0
23790,-0.321777,-0.768066,0.498047,0
23810,-0.318359,-0.774902,0.500977,0
23830,-0.32373,-0.776367,0.501465,0
23850,-0.32666,-0.77002,0.501465,0
23870,-0.329102,-0.769531,0.5,0
23890,-0.32666,-0.768555,0.503418,0
23910,-0.328125,-0.771484,0.501465,0
23930,-0.32666,-0.769043,0.500977,0
23950,-0.330078,-0.773438,0.504883,0
23970,-0.325684,-0.767578,0.504395,0
23990,-0.326172,-0.768555,0.501953,0
24000,-0.324707,-0.766113,0.509766,0
24020,-0.32373,-0.769531,0.503906,0
24040,-0.327148,-0.770996,0.505859,0
24060,-0.324219,-0.768066,0.498535,0
24080,-0.320312,-0.770508,0.499023,0
24100,-0.325684,-0.768555,0.5,0
24120,-0.324707,-0.77002,0.499512,0
24140,-0.328125,-0.772949,0.502441,0
24160,-0.327148,-0.768555,0.500488,0
24180,-0.327148,-0.771973,0.500977,0
24200,-0.326172,-0.771973,0.499512,0
24220,-0.322266,-0.773438,0.499023,0
24240,-0.327148,-0.774414,0.497559,0
24260,-0.321289,-0.772461,0.5,0
24280,-0.327637,-0.776367,0.495117,0
24300,-0.327637,-0.773926,0.499512,0
24320,-0.32666,-0.77832,0.501953,0
24340,-0.325195,-0.775391,0.510254,0
24360,-0.325195,-0.771484,0.505859,0
24380,-0.33252,-0.774414,0.494629,0
24400,-0.32373,-0.773438,0.492676,0
24420,-0.322266,-0.764648,0.499512,0
24440,-0.326172,-0.763184,0.504883,0
24460,-0.327637,-0.772949,0.506348,0
24480,-0.331543,-0.773926,0.504883,0
24500,-0.327637,-0.768555,0.503906,0
24520,-0.325195,-0.772461,0.49707,0
24540,-0.319824,-0.772461,0.496582,0
24560,-0.322754,-0.779297,0.494629,0
24580,-0.328125,-0.779297,0.501465,0
24600,-0.334961,-0.769531,0.499512,0
24620,-0.33252,-0.774902,0.498535,0
24640,-0.331055,-0.768066,0.5,0
24660,-0.330078,-0.776367,0.503906,0
24680,-0.32959,-0.773926,0.496582,0
24700,-0.327148,-0.777832,0.504883,0
24720,-0.323242,-0.775391,0.499512,0
24740,-0.328613,-0.768555,0.486328,0
24760,-0.325684,-0.776855,0.496582,0
24780,-0.336426,-0.76416,0.495117,0
24800,-0.331055,-0.774414,0.494141,0
24820,-0.332031,-0.780273,0.493164,0
24840,-0.331543,-0.772949,0.491699,0
24860,-0.329102,-0.775391,0.489746,0
24880,-0.331543,-0.774414,0.486328,0
24900,-0.337402,-0.776855,0.488281,0
24920,-0.336426,-0.774414,0.491699,0
24940,-0.337402,-0.777832,0.486816,0
24960,-0.34082,-0.775879,0.486328,0
24980,-0.333984,-0.775391,0.487305,0
25000,-0.339844,-0.783203,0.481445,0
25020,-0.338379,-0.777832,0.485352,0
25040,-0.336914,-0.782715,0.486816,0
25060,-0.338867,-0.782227,0.48584,0
25080,-0.34375,-0.775879,0.485352,0
25100,-0.346191,-0.777832,0.489258,0
25120,-0.34082,-0.770996,0.486816,0
25140,-0.339355,-0.773926,0.476562,0
25160,-0.338379,-0.765625,0.490723,0
25180,-0.339355,-0.77002,0.491699,0
25200,-0.347656,-0.776855,0.495117,0
25220,-0.34375,-0.771484,0.48291,0
25240,-0.345703,-0.779785,0.477051,0
25260,-0.339355,-0.770508,0.481934,0
25280,-0.340332,-0.775391,0.478027,0
25300,-0.34375,-0.777344,0.479492,0
25320,-0.347656,-0.770508,0.483887,0
25340,-0.347656,-0.777832,0.479492,0
25360,-0.345215,-0.776855,0.47998,0
25380,-0.34668,-0.781738,0.478027,0
25400,-0.351562,-0.78125,0.479492,0
25420,-0.349609,-0.781738,0.478516,0
25440,-0.34668,-0.772949,0.476074,0
25460,-0.34375,-0.776855,0.475586,0
25480,-0.348145,-0.771484,0.475098,0
25500,-0.349609,-0.775879,0.481934,0
25520,-0.347656,-0.774414,0.478516,0
25540,-0.347168,-0.773926,0.473633,0
25560,-0.342773,-0.781738,0.479492,0
25580,-0.347168,-0.783203,0.481934,0
25600,-0.344727,-0.774414,0.47168,0
25620,-0.353516,-0.779297,0.482422,0
25640,-0.349609,-0.776855,0.480957,0
25660,-0.353027,-0.780762,0.474609,0
25680,-0.348145,-0.781738,0.46875,0
25700,-0.348633,-0.778809,0.47168,0
25720,-0.346191,-0.778809,0.475098,0
25740,-0.351562,-0.784668,0.475098,0
25760,-0.351562,-0.780273,0.479492,0
25780,-0.348633,-0.78125,0.476074,0
25800,-0.352051,-0.778809,0.478027,0
25820,-0.348633,-0.777832,0.485352,0
25840,-0.348145,-0.778809,0.473145,0
25860,-0.343262,-0.776855,0.476074,0
25880,-0.343262,-0.773926,0.475098,0
25900,-0.348633,-0.779297,0.483887,0
25920,-0.353516,-0.784668,0.484863,0
25940,-0.352051,-0.779785,0.475098,0
25960,-0.34668,-0.785156,0.480469,0
25970,-0.343262,-0.780273,0.477539,0
25990,-0.344238,-0.786621,0.478027,0
26010,-0.344238,-0.780762,0.483398,0
26030,-0.352051,-0.776855,0.479492,0
26050,-0.352051,-0.779785,0.483398,0
26070,-0.352539,-0.774414,0.475586,0
26090,-0.345703,-0.78125,0.472168,0
26110,-0.344727,-0.780273,0.476562,0
26130,-0.344727,-0.786133,0.479492,0
26150,-0.348145,-0.777832,0.47168,0
26170,-0.345215,-0.777344,0.483887,0
26190,-0.345215,-0.774902,0.476562,0
26210,-0.349121,-0.774414,0.476562,0
26230,-0.345703,-0.775879,0.479492,0
26250,-0.343262,-0.779297,0.48291,0
26270,-0.342285,-0.784668,0.483887,0
26290,-0.339844,-0.782715,0.481934,0
26310,-0.34375,-0.778809,0.480469,0
26330,-0.349121,-0.784668,0.482422,0
26350,-0.347168,-0.782227,0.483887,0
26370,-0.345703,-0.786133,0.479492,0
26390,-0.339355,-0.783691,0.473145,0
26410,-0.345215,-0.783691,0.472656,0
26430,-0.341309,-0.783203,0.473145,0
26450,-0.341309,-0.777344,0.478027,0
26470,-0.34668,-0.780762,0.483887,0
26490,-0.344727,-0.78125,0.475098,0
26510,-0.34668,-0.781738,0.478516,0
26530,-0.348145,-0.782715,0.48291,0
26550,-0.341797,-0.776855,0.479492,0
26570,-0.346191,-0.780762,0.477051,0
26590,-0.337891,-0.777832,0.471191,0
26610,-0.340332,-0.777344,0.474609,0
26630,-0.337891,-0.773438,0.479004,0
26650,-0.345703,-0.780762,0.487793,0
26670,-0.350586,-0.780273,0.481445,0
26690,-0.349121,-0.779297,0.477539,0
26710,-0.340332,-0.783203,0.472168,0
26730,-0.334473,-0.783691,0.47168,0
26750,-0.344238,-0.781738,0.479492,0
26770,-0.34668,-0.781738,0.476074,0
26790,-0.344238,-0.778809,0.478516,0
26810,-0.344727,-0.78125,0.478027,0
26830,-0.342773,-0.786133,0.478027,0
26850,-0.344238,-0.783203,0.47998,0
26870,-0.337891,-0.782227,0.476562,0
26890,-0.343262,-0.783691,0.479004,0
26910,-0.338867,-0.779785,0.478516,0
26930,-0.342773,-0.777832,0.482422,0
26950,-0.349121,-0.778809,0.484863,0
26970,-0.347168,-0.778809,0.480469,0
26990,-0.34375,-0.782227,0.482422,0
27010,-0.341797,-0.780273,0.48877,0
27030,-0.34082,-0.780273,0.476074,0
27050,-0.34375,-0.783203,0.476562,0
27070,-0.342773,-0.779785,0.48291,0
27090,-0.34082,-0.785645,0.476562,0
27110,-0.341797,-0.783203,0.480469,0
27130,-0.338867,-0.78125,0.480957,0
27150,-0.34375,-0.782227,0.477051,0
27170,-0.344238,-0.77832,0.475586,0
27190,-0.346191,-0.782715,0.480469,0
27210,-0.342773,-0.774414,0.478516,0
27230,-0.345215,-0.779785,0.48584,0
27250,-0.345215,-0.77832,0.478516,0
27270,-0.345703,-0.774414,0.478516,0
27290,-0.347168,-0.780762,0.479004,0
27310,-0.345703,-0.775391,0.473145,0
27330,-0.344238,-0.780762,0.476562,0
27350,-0.344727,-0.776855,0.480957,0
27370,-0.341797,-0.775879,0.470703,0
27390,-0.346191,-0.774414,0.472168,0
27410,-0.345215,-0.770996,0.480469,0
27430,-0.348145,-0.782227,0.484863,0
27450,-0.352539,-0.783203,0.477539,0
27470,-0.348145,-0.782227,0.476562,0
27490,-0.344727,-0.784668,0.474609,0
27510,-0.345703,-0.781738,0.470215,0
27530,-0.348633,-0.785645,0.478516,0
27550,-0.349609,-0.774414,0.475586,0
27570,-0.351074,-0.780273,0.477051,0
27590,-0.349609,-0.777832,0.477051,0
27610,-0.347168,-0.782715,0.479492,0
27630,-0.34375,-0.781738,0.470215,0
27650,-0.348145,-0.787598,0.473145,0
27670,-0.349121,-0.787598,0.470215,0
27690,-0.345703,-0.772461,0.469238,0
27710,-0.348145,-0.777832,0.476562,0
27730,-0.353516,-0.770996,0.480469,0
27750,-0.353027,-0.776367,0.474609,0
27770,-0.352051,-0.778809,0.478516,0
27790,-0.345703,-0.775391,0.476074,0
27810,-0.348145,-0.780273,0.477051,0
27830,-0.353027,-0.777832,0.477051,0
27850,-0.347656,-0.780762,0.478027,0
27870,-0.351074,-0.780762,0.477539,0
27890,-0.353516,-0.777832,0.472656,0
27910,-0.353027,-0.78418,0.46875,0
27930,-0.350586,-0.774902,0.473633,0
27950,-0.346191,-0.781738,0.475586,0
27970,-0.349121,-0.775879,0.473633,0
27990,-0.349121,-0.782715,0.473633,0
28010,-0.353516,-0.782227,0.473633,0
28030,-0.350586,-0.77832,0.472168,0
28050,-0.353027,-0.782227,0.476562,0
28070,-0.349121,-0.772949,0.478027,0
28090,-0.354492,-0.780273,0.473633,0
28110,-0.345215,-0.773438,0.469727,0
28130,-0.342285,-0.772949,0.477051,0
28150,-0.347656,-0.774902,0.476562,0
28170,-0.35498,-0.783691,0.48877,0
28190,-0.351562,-0.781738,0.480469,0
28210,-0.349609,-0.776367,0.469727,0
28230,-0.345703,-0.782227,0.476074,0
28250,-0.34375,-0.782227,0.47998,0
28270,-0.34668,-0.777832,0.478516,0
28290,-0.357422,-0.780762,0.477539,0
28310,-0.351074,-0.779297,0.476562,0
28330,-0.351562,-0.784668,0.474121,0
28350,-0.347168,-0.779297,0.477539,0
28370,-0.342285,-0.782715,0.477539,0
28390,-0.346191,-0.786621,0.485352,0
28410,-0.344238,-0.777344,0.47168,0
28430,-0.343262,-0.777344,0.476074,0
28450,-0.348145,-0.775391,0.479004,0
28470,-0.349609,-0.776855,0.480957,0
28490,-0.347168,-0.77832,0.484863,0
28510,-0.341797,-0.777344,0.480469,0
28530,-0.339355,-0.782715,0.475586,0
28550,-0.34668,-0.773926,0.48291,0
28570,-0.348145,-0.782715,0.478027,0
28590,-0.348633,-0.779297,0.476074,0
28610,-0.347168,-0.780273,0.475098,0
28630,-0.349121,-0.781738,0.478516,0
28650,-0.347656,-0.776855,0.476074,0
28670,-0.349121,-0.778809,0.476074,0
28690,-0.345703,-0.780273,0.478516,0
28710,-0.34668,-0.778809,0.472168,0
28730,-0.345703,-0.78125,0.475586,0
28750,-0.350098,-0.78418,0.479492,0
28770,-0.34375,-0.780762,0.478516,0
28790,-0.348145,-0.779785,0.480469,0
28810,-0.34668,-0.782227,0.477539,0
28830,-0.350586,-0.77832,0.476074,0
28850,-0.344238,-0.776855,0.475586,0
28870,-0.349121,-0.780762,0.47998,0
28890,-0.348633,-0.775391,0.463867,0
28910,-0.347656,-0.774414,0.472656,0
28930,-0.344238,-0.775879,0.477539,0
28950,-0.354492,-0.789062,0.485352,0
28970,-0.353027,-0.796387,0.478516,0
28990,-0.349121,-0.79834,0.47168,0
29010,-0.346191,-0.809082,0.475586,0
29030,-0.349121,-0.820801,0.484863,0
29050,-0.354004,-0.827637,0.530762,0
29070,-0.351074,-0.813477,0.505371,0
29090,-0.351074,-0.733887,0.454102,0
29110,-0.351074,-0.703125,0.42041,0
29130,-0.358398,-0.699707,0.416016,0
29150,-0.347168,-0.724121,0.418945,0
29170,-0.339844,-0.738281,0.461914,0
29190,-0.359863,-0.770508,0.503906,0
29210,-0.356934,-0.784668,0.516602,0
29230,-0.337891,-0.811523,0.524902,0
29250,-0.333496,-0.821777,0.493164,0
29270,-0.338379,-0.805664,0.476562,0
29290,-0.354004,-0.792969,0.457031,0
29310,-0.36084,-0.773926,0.459473,0
29330,-0.347656,-0.772461,0.464355,0
29350,-0.344727,-0.765625,0.476074,0
29370,-0.342285,-0.768066,0.472656,0
29390,-0.338379,-0.779297,0.482422,0
29400,-0.334473,-0.789062,0.489746,0
29420,-0.335449,-0.79248,0.48291,0
29440,-0.341309,-0.793945,0.473633,0
29460,-0.335449,-0.784668,0.470215,0
29480,-0.34375,-0.785645,0.457031,0
29500,-0.346191,-0.786621,0.460938,0
29520,-0.349121,-0.791016,0.480469,0
29540,-0.344238,-0.781738,0.492188,0
29560,-0.344238,-0.775879,0.491211,0
29580,-0.333496,-0.773926,0.494629,0
29600,-0.331543,-0.782715,0.49707,0
29620,-0.332031,-0.785156,0.491211,0
29640,-0.338379,-0.783203,0.486816,0
29660,-0.345215,-0.788086,0.481445,0
29680,-0.345215,-0.779785,0.481445,0
29700,-0.35791,-0.786133,0.485352,0
29720,-0.37207,-0.780273,0.47998,0
29740,-0.39502,-0.776855,0.472168,0
29760,-0.404297,-0.770996,0.46875,0
29780,-0.38916,-0.753906,0.486328,0
29800,-0.373047,-0.756348,0.487793,0
29820,-0.354492,-0.765625,0.495605,0
29840,-0.348145,-0.783203,0.491699,0
29860,-0.341797,-0.787598,0.486816,0
29880,-0.329102,-0.77832,0.478516,0
29900,-0.324707,-0.772949,0.467773,0
29920,-0.31543,-0.760742,0.467773,0
29940,-0.308105,-0.767578,0.499512,0
29960,-0.286621,-0.768555,0.513184,0
29980,-0.274902,-0.761719,0.522461,0
30000,-0.271973,-0.755859,0.54248,0
30020,-0.27002,-0.758789,0.54541,0
30040,-0.293457,-0.748047,0.537598,0
30080,-0.330078,-0.750977,0.496094,0
30100,-0.341797,-0.757324,0.474609,0
30120,-0.347168,-0.735352,0.467285,0
30140,-0.329102,-0.716309,0.476562,0
30160,-0.299805,-0.711426,0.494141,0
30180,-0.28418,-0.719238,0.510742,0
30200,-0.275879,-0.741211,0.526855,0
30220,-0.289551,-0.758789,0.530273,0
30240,-0.311035,-0.775391,0.530762,0
30260,-0.339355,-0.782715,0.526367,0
30280,-0.362305,-0.778809,0.519531,0
30300,-0.385742,-0.779297,0.509277,0
30320,-0.380371,-0.777344,0.515137,0
30340,-0.372559,-0.79248,0.522949,0
30360,-0.332031,-0.784668,0.52832,0
30380,-0.321289,-0.77832,0.536133,0
30400,-0.29248,-0.750488,0.551758,0
30420,-0.277832,-0.734863,0.574219,0
30440,-0.243652,-0.723145,0.595703,0
30460,-0.222168,-0.708496,0.600098,0
30480,-0.229004,-0.691406,0.605469,0
30500,-0.255371,-0.699219,0.615234,0
30520,-0.25293,-0.729492,0.618652,0
30540,-0.245117,-0.719727,0.619141,0
30560,-0.248535,-0.706055,0.604492,0
30580,-0.241699,-0.710449,0.60498,0
30600,-0.242188,-0.715332,0.597168,0
30620,-0.258301,-0.736328,0.588867,0
30640,-0.251953,-0.745117,0.581543,0
30660,-0.258789,-0.740234,0.58252,0
30680,-0.259766,-0.729492,0.572754,0
30700,-0.263672,-0.733887,0.573242,0
30720,-0.27002,-0.735352,0.57666,0
30740,-0.269043,-0.735352,0.569824,0
30760,-0.271973,-0.739746,0.566406,0
30780,-0.279297,-0.731934,0.567383,0
30800,-0.270508,-0.741211,0.576172,0
30820,-0.268066,-0.739258,0.570312,0
30840,-0.258789,-0.733887,0.57373,0
30860,-0.257324,-0.736328,0.575195,0
30880,-0.255859,-0.729004,0.581543,0
30900,-0.256348,-0.736328,0.577637,0
30920,-0.257324,-0.731445,0.583984,0
30940,-0.253906,-0.729004,0.57666,0
30960,-0.262695,-0.733398,0.569336,0
30980,-0.26123,-0.72168,0.562988,0
31000,-0.263672,-0.719238,0.572754,0
31020,-0.258301,-0.716797,0.57959,0
31040,-0.256348,-0.720215,0.579102,0
31060,-0.257324,-0.724609,0.583984,0
31080,-0.252441,-0.728516,0.58252,0
31100,-0.259766,-0.738281,0.584961,0
31120,-0.256348,-0.742676,0.567871,0
31140,-0.259277,-0.748535,0.566895,0
31160,-0.257324,-0.736816,0.560059,0
31180,-0.262695,-0.733398,0.55957,0
31200,-0.260254,-0.726562,0.564941,0
31220,-0.265625,-0.727051,0.571289,0
31240,-0.268555,-0.730469,0.578125,0
31260,-0.262695,-0.729492,0.572754,0
31280,-0.260254,-0.729492,0.574707,0
31300,-0.251465,-0.733398,0.569824,0
31320,-0.250488,-0.740234,0.578613,0
31340,-0.253906,-0.733887,0.575195,0
31360,-0.247559,-0.730469,0.585449,0
31380,-0.25,-0.727539,0.583496,0
31390,-0.253906,-0.724609,0.583008,0
31410,-0.258301,-0.727539,0.585938,0
31430,-0.260742,-0.72998,0.579102,0
31450,-0.262207,-0.730957,0.571777,0
31470,-0.26123,-0.736816,0.57373,0
31490,-0.266113,-0.73877,0.585938,0
31510,-0.267578,-0.738281,0.570801,0
31530,-0.268066,-0.731445,0.57373,0
31550,-0.271973,-0.723145,0.569824,0
31570,-0.272949,-0.722168,0.563965,0
31590,-0.261719,-0.725098,0.564453,0
31610,-0.26709,-0.729492,0.56543,0
31630,-0.260254,-0.729004,0.569824,0
31650,-0.255371,-0.737305,0.562012,0
31670,-0.260742,-0.736328,0.56543,0
31690,-0.259277,-0.740723,0.564941,0
31710,-0.258301,-0.740234,0.561523,0
31730,-0.257812,-0.733398,0.57373,0
31750,-0.26123,-0.73877,0.574219,0
31770,-0.259277,-0.73291,0.567383,0
31790,-0.258301,-0.729004,0.57373,0
31810,-0.259277,-0.728027,0.577637,0
31830,-0.261719,-0.725586,0.580566,0
31850,-0.259766,-0.725098,0.588379,0
31870,-0.258301,-0.726562,0.585449,0
31890,-0.255859,-0.732422,0.583008,0
31910,-0.253906,-0.726562,0.582031,0
31930,-0.250488,-0.723633,0.578125,0
31950,-0.252441,-0.728027,0.580078,0
31970,-0.258789,-0.724609,0.589355,0
31990,-0.26123,-0.733398,0.582031,0
32010,-0.258789,-0.726562,0.583984,0
32030,-0.25,-0.730469,0.577637,0
32050,-0.255371,-0.730957,0.575195,0
32070,-0.258301,-0.734863,0.574707,0
32090,-0.260742,-0.731445,0.573242,0
32110,-0.259277,-0.725586,0.578125,0
32130,-0.255859,-0.731445,0.574219,0
32150,-0.258789,-0.728027,0.578125,0
32170,-0.263672,-0.73291,0.57373,0
32190,-0.271484,-0.762207,0.583008,0
32210,-0.253418,-0.76709,0.589355,0
32230,-0.253906,-0.765137,0.592773,0
32250,-0.253418,-0.728516,0.584961,0
32270,-0.257812,-0.708984,0.59668,0
32290,-0.279297,-0.704102,0.591309,0
32310,-0.274414,-0.706543,0.547852,0
32330,-0.233398,-0.696289,0.527344,0
32350,-0.24707,-0.713379,0.55127,0
32370,-0.259766,-0.752441,0.561523,0
32390,-0.251465,-0.776367,0.581543,0
32410,-0.263184,-0.741211,0.599609,0
32430,-0.26709,-0.719727,0.602051,0
32450,-0.272461,-0.716309,0.591797,0
32470,-0.277344,-0.72998,0.564941,0
32490,-0.290039,-0.725586,0.551758,0
32510,-0.290039,-0.708984,0.547852,0
32530,-0.300781,-0.695312,0.539551,0
32550,-0.291504,-0.702148,0.559082,0
32570,-0.283691,-0.734863,0.579102,0
32590,-0.255371,-0.743652,0.586426,0
32610,-0.236328,-0.748535,0.596191,0
32630,-0.225098,-0.748047,0.595703,0
32650,-0.225098,-0.734863,0.5625,0
32670,-0.223145,-0.745117,0.557617,0
32690,-0.254395,-0.746094,0.567383,0
32710,-0.288574,-0.748047,0.558594,0
32730,-0.300293,-0.741699,0.552246,0
32750,-0.297852,-0.727051,0.566895,0
32770,-0.277832,-0.722168,0.581055,0
32790,-0.264648,-0.709473,0.574219,0
32810,-0.246582,-0.71582,0.582031,0
32830,-0.236816,-0.706055,0.57959,0
32850,-0.259277,-0.722656,0.58252,0
32870,-0.269531,-0.720215,0.578125,0
32890,-0.280273,-0.732422,0.581543,0
32910,-0.275391,-0.737793,0.57373,0
32930,-0.266113,-0.749023,0.574707,0
32950,-0.256836,-0.747559,0.566895,0
32970,-0.248047,-0.742676,0.571777,0
32990,-0.250977,-0.747559,0.583984,0
33010,-0.259766,-0.750488,0.591797,0
33030,-0.26416,-0.745605,0.591797,0
33050,-0.266113,-0.738281,0.58252,0
33070,-0.263672,-0.72998,0.588379,0
33090,-0.263184,-0.728516,0.586914,0
33110,-0.254883,-0.735352,0.57666,0
33130,-0.257812,-0.737793,0.562988,0
33150,-0.263184,-0.732422,0.562012,0
33170,-0.263672,-0.733398,0.563477,0
33190,-0.267578,-0.736816,0.551758,0
33210,-0.267578,-0.733398,0.555176,0
33230,-0.263184,-0.725098,0.551758,0
33250,-0.262207,-0.724609,0.556152,0
33270,-0.259277,-0.728516,0.562988,0
33290,-0.266113,-0.732422,0.572754,0
33310,-0.255859,-0.736816,0.571289,0
33330,-0.258789,-0.743652,0.576172,0
33350,-0.263184,-0.743164,0.571777,0
33370,-0.270508,-0.742188,0.566895,0
33390,-0.272461,-0.742188,0.564941,0
33410,-0.272461,-0.733398,0.568359,0
33430,-0.271973,-0.732422,0.566406,0
33450,-0.269531,-0.722168,0.574219,0
33470,-0.273926,-0.732422,0.583496,0
33490,-0.273926,-0.729492,0.57959,0
33510,-0.272461,-0.729492,0.574707,0
33530,-0.268555,-0.723633,0.562988,0
33550,-0.271973,-0.726074,0.555664,0
33570,-0.273438,-0.736816,0.56543,0
33590,-0.276367,-0.730957,0.562988,0
33610,-0.276855,-0.734375,0.563477,0
33630,-0.27002,-0.727051,0.55957,0
33650,-0.269043,-0.722656,0.560059,0
33670,-0.271484,-0.725098,0.558105,0
33690,-0.274902,-0.722656,0.551758,0
33710,-0.274902,-0.730957,0.554688,0
33730,-0.274902,-0.731934,0.556152,0
33750,-0.280762,-0.734375,0.554199,0
33770,-0.278809,-0.733887,0.558594,0
33790,-0.272461,-0.745605,0.560547,0
33810,-0.266602,-0.739258,0.55957,0
33830,-0.26416,-0.736816,0.563965,0
33850,-0.266113,-0.740234,0.563965,0
33870,-0.271484,-0.73877,0.567871,0
33890,-0.269043,-0.730469,0.57373,0
33910,-0.274414,-0.731934,0.570801,0
33930,-0.270508,-0.726074,0.572754,0
33950,-0.27002,-0.731934,0.567383,0
33970,-0.263672,-0.727051,0.570312,0
33990,-0.265137,-0.726562,0.582031,0
34010,-0.259277,-0.736328,0.576172,0
34030,-0.255371,-0.740723,0.580566,0
34050,-0.256836,-0.738281,0.578613,0
34070,-0.255859,-0.728516,0.583496,0
34090,-0.260254,-0.730957,0.583984,0
34110,-0.256836,-0.73291,0.57959,0
34130,-0.257812,-0.737305,0.580566,0
34150,-0.257812,-0.733398,0.577148,0
34170,-0.258301,-0.729004,0.583008,0
34190,-0.262207,-0.735352,0.592773,0
34210,-0.260742,-0.728516,0.592773,0
34230,-0.258301,-0.724609,0.584473,0
34250,-0.258301,-0.725586,0.579102,0
34270,-0.255859,-0.725098,0.578613,0
34290,-0.255859,-0.730469,0.583984,0
34310,-0.252441,-0.735352,0.586426,0
34330,-0.247559,-0.73584,0.583984,0
34350,-0.246094,-0.729004,0.57959,0
34380,-0.252441,-0.733398,0.576172,0
34400,-0.253906,-0.724609,0.566895,0
34420,-0.254883,-0.727539,0.563477,0
34440,-0.255371,-0.725586,0.566895,0
34460,-0.260254,-0.728516,0.568848,0
34480,-0.259277,-0.727539,0.579102,0
34500,-0.258789,-0.730957,0.586426,0
34520,-0.251953,-0.72998,0.585938,0
34540,-0.243164,-0.733398,0.583008,0
34560,-0.240723,-0.737793,0.577148,0
34580,-0.242676,-0.73584,0.57373,0
34600,-0.248535,-0.730957,0.570801,0
34620,-0.255371,-0.72998,0.578125,0
34640,-0.255859,-0.72998,0.584473,0
34660,-0.252441,-0.725098,0.57959,0
34680,-0.250488,-0.717773,0.583984,0
34700,-0.251953,-0.726562,0.583984,0
34720,-0.25,-0.726074,0.58252,0
34740,-0.252441,-0.726562,0.578125,0
34760,-0.256836,-0.727051,0.574707,0
34780,-0.251465,-0.729004,0.578613,0
34790,-0.24707,-0.73584,0.580566,0
34810,-0.248047,-0.734863,0.580078,0
34830,-0.241211,-0.737793,0.583984,0
34850,-0.248535,-0.725586,0.588867,0
34870,-0.251465,-0.714355,0.584473,0
34890,-0.257812,-0.715332,0.584473,0
34910,-0.258301,-0.721191,0.57959,0
34930,-0.270508,-0.726074,0.569336,0
34950,-0.270508,-0.714355,0.569336,0
34970,-0.260742,-0.718262,0.576172,0
34990,-0.24707,-0.730957,0.57959,0
35010,-0.233398,-0.729004,0.588379,0
35030,-0.228516,-0.73584,0.586426,0
35050,-0.229004,-0.738281,0.586426,0
35070,-0.237305,-0.739258,0.578613,0
35090,-0.257324,-0.745117,0.574707,0
35110,-0.255859,-0.72998,0.560547,0
35130,-0.254395,-0.731445,0.569336,0
35150,-0.248047,-0.729004,0.577637,0
35170,-0.251953,-0.737305,0.594238,0
35190,-0.254883,-0.729492,0.609863,0
35210,-0.260742,-0.722656,0.588379,0
35230,-0.249512,-0.711914,0.583496,0
35250,-0.232422,-0.707031,0.580078,0
35270,-0.234375,-0.715332,0.59375,0
35290,-0.23291,-0.730957,0.584961,0
35310,-0.233887,-0.733887,0.584961,0
35330,-0.247559,-0.728516,0.580078,0
35350,-0.258301,-0.727539,0.578613,0
35370,-0.265137,-0.724121,0.577637,0
35390,-0.262695,-0.717773,0.585938,0
35410,-0.259766,-0.722168,0.588379,0
35430,-0.243652,-0.731445,0.598633,0
35450,-0.227539,-0.748047,0.592773,0
35470,-0.230957,-0.735352,0.59375,0
35490,-0.241699,-0.718262,0.57959,0
35510,-0.246094,-0.722656,0.57959,0
35530,-0.251953,-0.72998,0.581543,0
35550,-0.246094,-0.717773,0.57959,0
35570,-0.233887,-0.713867,0.591797,0
35590,-0.232422,-0.724609,0.597168,0
35610,-0.240234,-0.721191,0.59668,0
35630,-0.246094,-0.713379,0.593262,0
35650,-0.25293,-0.716309,0.59375,0
35670,-0.255371,-0.708496,0.583008,0
35690,-0.254395,-0.71582,0.582031,0
35710,-0.253418,-0.719727,0.583008,0
35730,-0.252441,-0.727051,0.581543,0
35750,-0.25,-0.734863,0.583008,0
35770,-0.245605,-0.731445,0.585449,0
35790,-0.248535,-0.729004,0.580078,0
35810,-0.258301,-0.728027,0.582031,0
35830,-0.251465,-0.727539,0.570312,0
35850,-0.251953,-0.734375,0.583008,0
35870,-0.248535,-0.723145,0.587402,0
35890,-0.248047,-0.731445,0.585938,0
35910,-0.245605,-0.722656,0.588867,0
35930,-0.248047,-0.717773,0.591309,0
35950,-0.25,-0.716797,0.593262,0
35970,-0.247559,-0.713379,0.589355,0
35990,-0.246094,-0.711914,0.591797,0
36010,-0.251465,-0.71582,0.583984,0
36030,-0.251953,-0.71875,0.585449,0
36050,-0.252441,-0.72168,0.584473,0
36070,-0.256348,-0.726074,0.583496,0
36090,-0.255859,-0.72998,0.582031,0
36110,-0.251953,-0.726562,0.583984,0
36130,-0.254883,-0.72998,0.57959,0
36150,-0.249023,-0.730469,0.574707,0
36170,-0.250977,-0.734375,0.583496,0
36190,-0.25,-0.730957,0.579102,0
36210,-0.246582,-0.722168,0.585938,0
36230,-0.25293,-0.729004,0.587891,0
36250,-0.250488,-0.720703,0.579102,0
36270,-0.249512,-0.718262,0.581055,0
36290,-0.249512,-0.712402,0.582031,0
36310,-0.257812,-0.716309,0.595215,0
36330,-0.257812,-0.723633,0.587891,0
36350,-0.259766,-0.723633,0.585938,0
36370,-0.254883,-0.730469,0.578125,0
36390,-0.251465,-0.728027,0.575684,0
36410,-0.254883,-0.733887,0.580566,0
36430,-0.253906,-0.733398,0.581055,0
36450,-0.25293,-0.729492,0.580566,0
36470,-0.250977,-0.729492,0.57959,0
36490,-0.246094,-0.722656,0.581055,0
36510,-0.251953,-0.727539,0.590332,0
36530,-0.251953,-0.722168,0.57959,0
36550,-0.24707,-0.726562,0.585938,0
36570,-0.25,-0.717773,0.583984,0
36590,-0.255371,-0.71875,0.587402,0
36610,-0.255859,-0.724609,0.583984,0
36630,-0.253906,-0.719727,0.587402,0
36650,-0.248535,-0.724121,0.586426,0
36670,-0.250488,-0.723145,0.577148,0
36690,-0.24707,-0.727539,0.584473,0
36710,-0.25,-0.728516,0.586914,0
36730,-0.254395,-0.728027,0.585449,0
36750,-0.252441,-0.726562,0.576172,0
36770,-0.25293,-0.726074,0.580078,0
36780,-0.249512,-0.731934,0.58252,0
36800,-0.251465,-0.727051,0.57959,0
36820,-0.250977,-0.726074,0.577148,0
36840,-0.25,-0.731445,0.578125,0
36860,-0.250977,-0.728027,0.583008,0
36880,-0.249023,-0.729492,0.581055,0
36900,-0.253906,-0.726074,0.580566,0
36920,-0.251465,-0.723633,0.584473,0
36930,-0.249512,-0.726562,0.581543,0
36950,-0.249512,-0.722656,0.582031,0
36970,-0.246094,-0.720215,0.582031,0
36990,-0.252441,-0.720703,0.591309,0
37010,-0.253906,-0.728516,0.584961,0
37030,-0.251953,-0.728027,0.583008,0
37050,-0.245117,-0.725586,0.577637,0
37070,-0.245117,-0.735352,0.578613,0
37090,-0.251953,-0.728516,0.58252,0
37110,-0.253906,-0.744141,0.578125,0
37130,-0.254883,-0.739746,0.589844,0
37150,-0.253418,-0.737305,0.584473,0
37170,-0.249023,-0.73291,0.584473,0
37190,-0.251953,-0.723633,0.586426,0
37210,-0.248535,-0.722168,0.575195,0
37230,-0.245117,-0.711914,0.581055,0
37250,-0.247559,-0.713867,0.57666,0
37270,-0.251465,-0.719238,0.578125,0
37290,-0.249512,-0.721191,0.582031,0
37310,-0.250977,-0.727539,0.582031,0
37330,-0.245117,-0.722168,0.572266,0
37350,-0.249023,-0.73291,0.577637,0
37370,-0.247559,-0.731445,0.577148,0
37390,-0.250977,-0.73584,0.576172,0
37410,-0.257324,-0.73877,0.577637,0
37430,-0.25293,-0.739258,0.577148,0
37450,-0.258789,-0.740723,0.578125,0
37470,-0.251465,-0.726562,0.58252,0
37490,-0.252441,-0.732422,0.578613,0
37510,-0.254883,-0.726074,0.583496,0
37530,-0.254395,-0.723633,0.574707,0
37550,-0.249023,-0.72168,0.579102,0
37570,-0.248535,-0.717285,0.578125,0
37590,-0.253418,-0.735352,0.585449,0
37610,-0.255371,-0.728027,0.584473,0
37630,-0.245605,-0.726074,0.574707,0
37650,-0.248047,-0.734863,0.581543,0
37670,-0.249512,-0.729004,0.577148,0
37690,-0.252441,-0.731934,0.57959,0
37710,-0.255371,-0.727539,0.575684,0
37730,-0.257812,-0.741211,0.577637,0
37750,-0.26123,-0.734863,0.57959,0
37760,-0.259766,-0.733398,0.575684,0
37780,-0.254883,-0.728516,0.578613,0
37800,-0.248047,-0.732422,0.576172,0
37820,-0.245605,-0.73584,0.577637,0
37840,-0.245117,-0.731445,0.572266,0
37860,-0.251465,-0.726074,0.577637,0
37880,-0.249023,-0.724609,0.575195,0
37900,-0.254883,-0.731445,0.577637,0
37920,-0.253906,-0.735352,0.572266,0
37940,-0.258301,-0.735352,0.574219,0
37960,-0.255371,-0.730957,0.5625,0
37980,-0.253906,-0.730957,0.571777,0
38000,-0.255859,-0.732422,0.581055,0
38030,-0.25293,-0.72998,0.57373,0
38050,-0.251953,-0.734375,0.574707,0
38070,-0.250977,-0.727051,0.571777,0
38090,-0.251465,-0.731445,0.575195,0
38110,-0.25,-0.73584,0.572754,0
38130,-0.25,-0.734863,0.576172,0
38150,-0.251953,-0.734863,0.577637,0
38170,-0.251465,-0.729492,0.567871,0
38190,-0.25293,-0.732422,0.57666,0
38210,-0.253418,-0.730469,0.58252,0
38230,-0.252441,-0.731445,0.571777,0
38250,-0.254395,-0.731445,0.572754,0
38270,-0.251465,-0.728027,0.570312,0
38290,-0.254395,-0.734863,0.577637,0
38310,-0.252441,-0.730957,0.579102,0
38330,-0.253418,-0.733398,0.57959,0
38350,-0.25293,-0.731934,0.581055,0
38370,-0.252441,-0.732422,0.573242,0
38390,-0.254883,-0.73877,0.57373,0
38410,-0.250977,-0.731934,0.568848,0
38430,-0.25293,-0.73291,0.572754,0
38450,-0.249512,-0.727051,0.570801,0
38470,-0.25293,-0.735352,0.581543,0
38490,-0.259766,-0.738281,0.583008,0
38510,-0.258789,-0.738281,0.574219,0
38530,-0.260254,-0.740234,0.576172,0
38550,-0.252441,-0.73877,0.572266,0
38570,-0.258789,-0.748535,0.583008,0
38590,-0.262695,-0.770996,0.59375,0
38610,-0.268066,-0.782227,0.620605,0
38630,-0.254395,-0.806152,0.619141,0
38650,-0.260254,-0.775879,0.617188,0
38670,-0.280762,-0.782715,0.583008,0
38690,-0.276855,-0.771973,0.561523,0
38710,-0.289062,-0.754883,0.549316,0
38730,-0.296387,-0.725586,0.52832,0
38750,-0.30127,-0.721191,0.527344,0
38770,-0.308594,-0.705078,0.53125,0
38790,-0.308105,-0.702637,0.538086,0
38810,-0.304199,-0.714844,0.541504,0
38830,-0.289062,-0.721191,0.532227,0
38850,-0.290039,-0.725098,0.527832,0
38870,-0.297852,-0.734863,0.522949,0
38890,-0.304688,-0.742676,0.516602,0
38910,-0.315918,-0.762207,0.502441,0
38930,-0.31543,-0.771973,0.481934,0
38950,-0.321289,-0.779785,0.475586,0
38970,-0.325195,-0.784668,0.476074,0
38990,-0.32959,-0.800781,0.483887,0
39010,-0.327148,-0.812988,0.496582,0
39030,-0.333984,-0.805176,0.47998,0
39050,-0.335449,-0.806641,0.480469,0
39070,-0.322754,-0.800781,0.486328,0
39090,-0.320312,-0.804688,0.472168,0
39110,-0.341797,-0.802246,0.469727,0
39130,-0.342773,-0.788574,0.47998,0
39150,-0.348633,-0.787598,0.476074,0
39170,-0.348633,-0.790039,0.486816,0
39190,-0.348633,-0.785645,0.480957,0
39210,-0.362305,-0.774902,0.475098,0
39230,-0.381836,-0.780762,0.467285,0
39250,-0.375488,-0.79248,0.471191,0
39270,-0.370605,-0.786621,0.450195,0
39290,-0.418945,-0.77002,0.42627,0
39310,-0.441895,-0.767578,0.414551,0
39330,-0.419922,-0.782227,0.402344,0
39350,-0.404785,-0.789062,0.405762,0
39370,-0.411133,-0.776367,0.379883,0
39390,-0.425781,-0.790039,0.390625,0
39410,-0.415039,-0.800293,0.390625,0
39430,-0.402344,-0.811523,0.385742,0
39450,-0.399902,-0.802734,0.385254,0
39470,-0.406738,-0.786621,0.379395,0
39490,-0.410156,-0.796387,0.379395,0
39510,-0.407227,-0.79541,0.371582,0
39530,-0.411133,-0.811035,0.363281,0
39550,-0.416992,-0.803711,0.360352,0
39570,-0.421875,-0.808594,0.358398,0
39590,-0.421875,-0.813965,0.36377,0
39610,-0.427734,-0.814453,0.371094,0
39630,-0.438477,-0.816895,0.365234,0
39650,-0.457031,-0.805664,0.355957,0
39670,-0.464844,-0.799805,0.352051,0
39690,-0.450684,-0.790527,0.335938,0
39710,-0.442383,-0.782227,0.335449,0
39730,-0.435059,-0.784668,0.323242,0
39750,-0.41748,-0.800293,0.319336,0
39770,-0.412109,-0.824707,0.328613,0
39790,-0.412109,-0.826172,0.337891,0
39810,-0.421387,-0.831543,0.347168,0
39830,-0.42041,-0.82959,0.370117,0
39850,-0.425293,-0.836914,0.375977,0
39870,-0.432617,-0.828613,0.378418,0
39890,-0.442383,-0.8125,0.375,0
39910,-0.454102,-0.810059,0.367676,0
39930,-0.453613,-0.790527,0.375488,0
39950,-0.462891,-0.778809,0.375,0
39970,-0.44873,-0.79248,0.371582,0
39990,-0.437012,-0.796387,0.381836,0
40010,-0.430176,-0.806152,0.367676,0
40030,-0.432617,-0.810547,0.367676,0
40050,-0.421387,-0.814453,0.365234,0
40070,-0.412598,-0.816406,0.371094,0
40090,-0.419922,-0.82373,0.371582,0
40110,-0.42334,-0.831055,0.382324,0
40130,-0.432129,-0.826172,0.386719,0
40150,-0.444824,-0.824219,0.377441,0
40160,-0.433594,-0.820312,0.371094,0
40180,-0.424316,-0.814941,0.384277,0
40200,-0.431641,-0.819336,0.38916,0
40220,-0.442383,-0.804199,0.375,0
40240,-0.442383,-0.808594,0.365234,0
40260,-0.435059,-0.79248,0.368164,0
40280,-0.433105,-0.79834,0.371582,0
40300,-0.429688,-0.799805,0.370117,0
40320,-0.435059,-0.807129,0.366211,0
40340,-0.42627,-0.815918,0.370117,0
40360,-0.41748,-0.80957,0.37793,0
40380,-0.429199,-0.814453,0.383789,0
40400,-0.436035,-0.81543,0.375977,0
40420,-0.445801,-0.827148,0.37207,0
40440,-0.438477,-0.830078,0.376465,0
40460,-0.430176,-0.819336,0.368652,0
40480,-0.432129,-0.824707,0.379883,0
40500,-0.432617,-0.810059,0.375488,0
40520,-0.426758,-0.808105,0.371582,0
40540,-0.424316,-0.812012,0.359375,0
40560,-0.422363,-0.798828,0.351562,0
40580,-0.437012,-0.791504,0.351074,0
40600,-0.445801,-0.789062,0.347168,0
40620,-0.440918,-0.808105,0.34375,0
40640,-0.437988,-0.816895,0.364746,0
40660,-0.448242,-0.821777,0.363281,0
40680,-0.447266,-0.832031,0.367676,0
40700,-0.437012,-0.819824,0.368164,0
40720,-0.443359,-0.817383,0.362305,0
40740,-0.439941,-0.80957,0.368164,0
40760,-0.442383,-0.803223,0.367188,0
40780,-0.439453,-0.807129,0.36084,0
40800,-0.43457,-0.806641,0.36084,0
40820,-0.423828,-0.814941,0.363281,0
40840,-0.431641,-0.813965,0.369141,0
40860,-0.427734,-0.823242,0.370117,0
40880,-0.42627,-0.813477,0.359863,0
40900,-0.438477,-0.814941,0.359863,0
40920,-0.445801,-0.817871,0.35791,0
40940,-0.457031,-0.81543,0.353516,0
40960,-0.458496,-0.811523,0.34668,0
40980,-0.453125,-0.808105,0.342285,0
41000,-0.443359,-0.818848,0.343262,0
41020,-0.434082,-0.816406,0.347168,0
41040,-0.430176,-0.813477,0.339355,0
41060,-0.43457,-0.803223,0.350098,0
41080,-0.434082,-0.807129,0.362793,0
41100,-0.437988,-0.816895,0.373535,0
41120,-0.432617,-0.821289,0.374512,0
41140,-0.439453,-0.823242,0.373047,0
41160,-0.442871,-0.816895,0.366211,0
41180,-0.437988,-0.816895,0.366699,0
41200,-0.446777,-0.81543,0.36084,0
41220,-0.456055,-0.806152,0.356445,0
41240,-0.455566,-0.8125,0.358887,0
41260,-0.447754,-0.81543,0.349121,0
41280,-0.452637,-0.810059,0.341797,0
41300,-0.458496,-0.813477,0.343262,0
41320,-0.450195,-0.814453,0.343262,0
41340,-0.442871,-0.816406,0.351074,0
41360,-0.44043,-0.807617,0.358887,0
41380,-0.436523,-0.816406,0.347656,0
41400,-0.432129,-0.823242,0.356934,0
41420,-0.428711,-0.813965,0.355957,0
41440,-0.424805,-0.827148,0.352539,0
41460,-0.425781,-0.8125,0.350586,0
41480,-0.438965,-0.8125,0.352539,0
41500,-0.443848,-0.806152,0.346191,0
41520,-0.445801,-0.812988,0.34375,0
41540,-0.45166,-0.813477,0.347656,0
41560,-0.444824,-0.821289,0.34375,0
41580,-0.452637,-0.822754,0.347168,0
41600,-0.457031,-0.820801,0.350586,0
41620,-0.448242,-0.824219,0.353027,0
41640,-0.445801,-0.820801,0.350098,0
41660,-0.448242,-0.813965,0.354004,0
41680,-0.45166,-0.818848,0.348145,0
41700,-0.454102,-0.816406,0.352051,0
41720,-0.447754,-0.813965,0.350586,0
41740,-0.452637,-0.812012,0.352051,0
41760,-0.451172,-0.824707,0.353516,0
41780,-0.458496,-0.832031,0.358398,0
41800,-0.471191,-0.826172,0.356934,0
41820,-0.461914,-0.814941,0.348145,0
41840,-0.452148,-0.817871,0.338867,0
41860,-0.444824,-0.823242,0.333496,0
41880,-0.437988,-0.819824,0.334961,0
41900,-0.451172,-0.81543,0.328125,0
41920,-0.453125,-0.811523,0.328125,0
41940,-0.45752,-0.820312,0.32959,0
41960,-0.458984,-0.824707,0.327148,0
41980,-0.461426,-0.824219,0.319824,0
42000,-0.47168,-0.820312,0.315918,0
42020,-0.48291,-0.81543,0.302246,0
42040,-0.478027,-0.813477,0.293945,0
42060,-0.490234,-0.811523,0.282227,0
42080,-0.499512,-0.779297,0.268066,0
42100,-0.498535,-0.775879,0.250977,0
42120,-0.483398,-0.779297,0.257324,0
42140,-0.46582,-0.8125,0.277344,0
42150,-0.444336,-0.845703,0.292969,0
42170,-0.421387,-0.878906,0.287109,0
42190,-0.404785,-0.961914,0.311523,0
42210,-0.398926,-1.00537,0.356445,0
42230,-0.38623,-0.992676,0.369629,0
42250,-0.36084,-0.95752,0.339844,0
42270,-0.349609,-0.916504,0.338379,0
42290,-0.394043,-0.901855,0.38623,0
42310,-0.412598,-0.892578,0.379883,0
42330,-0.396973,-0.87793,0.35498,0
42350,-0.411621,-0.930664,0.415039,0
42370,-0.368652,-0.908691,0.460449,0
42390,-0.278809,-1.01367,0.467285,0
42410,-0.186035,-1.00977,0.450684,0
42430,-0.138184,-0.98877,0.474609,0
42450,-0.0415039,-0.970215,0.490723,0
42470,0.00488281,-0.98291,0.5,0
42490,0.0644531,-0.947266,0.458984,0
42510,0.103027,-0.92041,0.432129,0
42530,0.146484,-0.901855,0.413086,0
42550,0.155762,-0.893555,0.398438,0
42570,0.150879,-0.871094,0.387695,0
42590,0.147461,-0.833496,0.376953,0
42610,0.143066,-0.807129,0.352539,0
42630,0.175781,-0.769043,0.345703,0
42650,0.182129,-0.746094,0.335449,0
42670,0.170898,-0.740234,0.311523,0
42690,0.171875,-0.749512,0.281738,0
42710,0.18457,-0.772949,0.300781,0
42730,0.175293,-0.767578,0.298828,0
42750,0.174316,-0.791504,0.279297,0
42770,0.181641,-0.816406,0.299316,0
42790,0.189941,-0.827148,0.303223,0
42810,0.193848,-0.828125,0.266113,0
42830,0.179688,-0.830566,0.270508,0
42850,0.162598,-0.848145,0.270996,0
42870,0.15625,-0.850098,0.245117,0
42890,0.148438,-0.850586,0.23291,0
42910,0.132324,-0.851074,0.216797,0
42930,0.125488,-0.84082,0.199707,0
42950,0.147949,-0.866699,0.216309,0
42970,0.158203,-0.887695,0.21875,0
42990,0.162109,-0.884277,0.214355,0
43010,0.160645,-0.896973,0.223633,0
43030,0.175293,-0.908203,0.222656,0
43050,0.179199,-0.928711,0.226074,0
43070,0.178223,-0.942383,0.224121,0
43090,0.182617,-0.937988,0.213379,0
43110,0.173828,-0.962402,0.223633,0
43130,0.184082,-0.972656,0.231934,0
43150,0.178711,-0.96582,0.240234,0
43170,0.168945,-0.932617,0.262695,0
43190,0.166016,-0.941895,0.259277,0
43210,0.162598,-0.927734,0.271484,0
43230,0.167969,-0.919434,0.291016,0
43250,0.175781,-0.92041,0.291504,0
43270,0.194336,-0.935059,0.31543,0
43290,0.190918,-0.964355,0.321777,0
43310,0.180664,-0.941406,0.312988,0
43330,0.171387,-0.931152,0.302734,0
43350,0.169922,-0.917969,0.299316,0
43370,0.161133,-0.91748,0.280273,0
43390,0.160156,-0.931641,0.275879,0
43410,0.164551,-0.941406,0.283691,0
43430,0.133789,-0.935547,0.284668,0
43450,0.125977,-0.911133,0.286133,0
43470,0.135254,-0.919922,0.305176,0
43490,0.160156,-0.930664,0.318359,0
43510,0.163574,-0.917969,0.307129,0
43530,0.159668,-0.924805,0.299316,0
43550,0.153809,-0.928223,0.310547,0
43570,0.148926,-0.925293,0.307129,0
43590,0.155273,-0.940918,0.314941,0
43610,0.145996,-0.958008,0.322266,0
43630,0.125488,-0.950195,0.322754,0
43650,0.124512,-0.945312,0.322266,0
43670,0.12207,-0.922852,0.31543,0
43690,0.124512,-0.913574,0.331055,0
43710,0.115723,-0.914551,0.341797,0
43730,0.112305,-0.889648,0.350586,0
43750,0.115723,-0.873535,0.336914,0
43770,0.10498,-0.853516,0.353027,0
43790,0.107422,-0.860352,0.382324,0
43810,0.123047,-0.884277,0.388184,0
43830,0.122559,-0.87793,0.388184,0
43850,0.111328,-0.862305,0.380371,0
43870,0.125488,-0.872559,0.376953,0
43890,0.127441,-0.888184,0.383301,0
43910,0.131836,-0.901855,0.383789,0
43930,0.139648,-0.898926,0.374023,0
43950,0.132812,-0.902344,0.370117,0
43970,0.116211,-0.90332,0.368652,0
43990,0.11084,-0.900391,0.371582,0
44010,0.117188,-0.890625,0.365723,0
44030,0.112793,-0.893066,0.36377,0
44050,0.102539,-0.895996,0.373535,0
44070,0.106934,-0.893066,0.381836,0
44090,0.119141,-0.889648,0.381836,0
44110,0.115723,-0.881836,0.366699,0
44130,0.0981445,-0.871094,0.37207,0
44150,0.0966797,-0.871094,0.385742,0
44170,0.100586,-0.865234,0.383789,0
44190,0.108398,-0.859375,0.365234,0
44210,0.129883,-0.873535,0.373535,0
44230,0.151855,-0.890625,0.370605,0
44250,0.163086,-0.907715,0.379395,0
44270,0.158203,-0.882324,0.376465,0
44290,0.134277,-0.865234,0.373047,0
44310,0.134766,-0.876465,0.370117,0
44330,0.11084,-0.912598,0.365723,0
44350,0.0986328,-0.895508,0.369141,0
44370,0.0976562,-0.870605,0.34375,0
44390,0.0913086,-0.884277,0.338867,0
44410,0.0805664,-0.878906,0.343262,0
44430,0.0708008,-0.897461,0.344727,0
44450,0.0634766,-0.902344,0.339844,0
44470,0.0717773,-0.894531,0.345703,0
44490,0.0732422,-0.894043,0.342773,0
44510,0.0683594,-0.902344,0.343262,0
44530,0.0683594,-0.91748,0.338379,0
44550,0.0800781,-0.916992,0.346191,0
44570,0.0830078,-0.902344,0.354004,0
44590,0.078125,-0.912109,0.365234,0
44610,0.0766602,-0.921387,0.366211,0
44630,0.0839844,-0.92334,0.361816,0
44650,0.0761719,-0.916992,0.368652,0
44670,0.0712891,-0.915527,0.358398,0
44690,0.0668945,-0.921875,0.351562,0
44710,0.0566406,-0.918945,0.358398,0
44730,0.0556641,-0.929688,0.346191,0
44750,0.0537109,-0.915039,0.359863,0
44770,0.0454102,-0.915039,0.351562,0
44790,0.0444336,-0.909668,0.36377,0
44810,0.0532227,-0.918457,0.351074,0
44830,0.0625,-0.925293,0.358887,0
44850,0.0615234,-0.915527,0.357422,0
44870,0.0654297,-0.916992,0.356445,0
44890,0.0629883,-0.913086,0.357422,0
44910,0.065918,-0.90918,0.357422,0
44930,0.0800781,-0.918457,0.355957,0
44950,0.0791016,-0.916992,0.340332,0
44970,0.078125,-0.917969,0.344727,0
44990,0.0751953,-0.900391,0.351562,0
45010,0.065918,-0.907715,0.356934,0
45030,0.0688477,-0.896973,0.346191,0
45050,0.0634766,-0.890137,0.354004,0
45070,0.0605469,-0.899902,0.35498,0
45090,0.0668945,-0.896484,0.349609,0
45110,0.0634766,-0.896973,0.351074,0
45130,0.0551758,-0.889648,0.353027,0
45150,0.0693359,-0.898438,0.340332,0
45170,0.0634766,-0.900879,0.339844,0
45190,0.0576172,-0.910645,0.337891,0
45210,0.0556641,-0.905273,0.347168,0
45230,0.0498047,-0.906738,0.338379,0
45250,0.0522461,-0.924316,0.341309,0
45270,0.059082,-0.929199,0.338379,0
45290,0.059082,-0.924316,0.350586,0
45310,0.0527344,-0.906738,0.346191,0
45330,0.0546875,-0.906738,0.337402,0
45350,0.0458984,-0.911621,0.318848,1000
45370,0.0532227,-0.922852,0.345703,0
45390,0.0683594,-0.908203,0.340332,0
45410,0.0498047,-0.918457,0.326172,0
45430,0.0449219,-0.919434,0.321289,0
45450,0.0512695,-0.935059,0.321289,0
45470,0.046875,-0.919922,0.336426,0
45490,0.0458984,-0.916016,0.331055,0
45510,0.0512695,-0.916992,0.336426,0
45530,0.0400391,-0.912598,0.337402,0
45550,0.0522461,-0.905762,0.342285,0
45560,0.0605469,-0.912598,0.341797,0
45580,0.059082,-0.908203,0.341309,0
45600,0.0595703,-0.898926,0.343262,0
45620,0.0708008,-0.904785,0.347168,0
45640,0.0761719,-0.900879,0.347656,0
45660,0.0766602,-0.90918,0.342285,0
45680,0.0703125,-0.908691,0.339844,0
45700,0.0605469,-0.908691,0.332031,0
45720,0.0639648,-0.919922,0.341797,0
45740,0.0581055,-0.910645,0.346191,0
45760,0.0512695,-0.915527,0.333984,0
45780,0.0375977,-0.911133,0.334961,0
45800,0.027832,-0.905762,0.339355,0
45820,0.0263672,-0.905273,0.325684,0
45840,0.0078125,-0.918945,0.303711,0
45860,-0.00146484,-0.92627,0.304199,0
45880,-0.0107422,-0.898438,0.310547,0
45900,-0.00292969,-0.887207,0.318359,0
45920,0.00244141,-0.904785,0.347168,0
45940,0.0209961,-0.925293,0.345703,0
45960,0.027832,-0.930176,0.32959,0
45980,0.0410156,-0.916016,0.335449,0
46000,0.0561523,-0.897949,0.331055,0
46020,0.0625,-0.907227,0.322754,0
46040,0.0639648,-0.909668,0.325684,0
46060,0.0756836,-0.92334,0.340332,0
46080,0.0805664,-0.907227,0.332031,0
46100,0.0595703,-0.901855,0.322266,0
46120,0.0581055,-0.902344,0.334473,0
46140,0.0683594,-0.914551,0.336426,0
46160,0.0805664,-0.922852,0.344238,0
46180,0.0976562,-0.913574,0.35791,0
46200,0.097168,-0.922363,0.365723,0
46220,0.109863,-0.913574,0.34668,0
46240,0.123047,-0.921875,0.336426,0
46260,0.126953,-0.900391,0.333496,0
46280,0.118652,-0.885742,0.333984,0
46300,0.114746,-0.895508,0.342285,0
46320,0.138184,-0.910645,0.334473,0
46340,0.129883,-0.907227,0.340332,0
46360,0.120117,-0.892578,0.331055,0
46380,0.108398,-0.898438,0.336914,0
46400,0.0996094,-0.91748,0.325684,0
46420,0.0961914,-0.921387,0.334961,0
46440,0.0805664,-0.926758,0.337891,0
46460,0.09375,-0.911621,0.331543,0
46480,0.113281,-0.925293,0.320312,0
46500,0.115723,-0.926758,0.33252,0
46520,0.109863,-0.928711,0.32666,0
46540,0.12793,-0.925781,0.331055,0
46560,0.134766,-0.913574,0.327148,0
46580,0.112305,-0.928711,0.335449,0
46600,0.107422,-0.924316,0.332031,0
46620,0.11084,-0.928223,0.330078,0
46640,0.119141,-0.908203,0.313477,0
46660,0.126953,-0.901367,0.322266,0
46680,0.129883,-0.901855,0.327637,0
46700,0.148926,-0.891113,0.311523,0
46720,0.154785,-0.912109,0.323242,0
46740,0.15625,-0.919434,0.345215,0
46760,0.154785,-0.904785,0.332031,0
46780,0.154785,-0.89502,0.318359,0
46800,0.166504,-0.885742,0.317871,0
46820,0.1875,-0.88623,0.333496,0
46840,0.178711,-0.894531,0.334961,0
46860,0.178223,-0.878418,0.321777,0
46880,0.188477,-0.859863,0.332031,0
46900,0.18457,-0.845215,0.331543,0
46920,0.188965,-0.857422,0.32959,0
46940,0.184082,-0.872559,0.331543,0
46960,0.183105,-0.875,0.324219,0
46980,0.200684,-0.869629,0.321777,0
47000,0.214355,-0.867188,0.329102,0
47020,0.213867,-0.874512,0.324219,0
47040,0.217285,-0.883789,0.337402,0
47060,0.224121,-0.88623,0.339844,0
47080,0.235352,-0.879395,0.334473,0
47100,0.240234,-0.875977,0.32373,0
47120,0.241699,-0.886719,0.334961,0
47140,0.233887,-0.881348,0.326172,0
47160,0.256348,-0.886719,0.334961,0
47180,0.264648,-0.883301,0.340332,0
47200,0.277832,-0.88623,0.333496,0
47220,0.279297,-0.885254,0.339355,0
47240,0.286621,-0.884277,0.34082,0
47260,0.300781,-0.883301,0.347168,0
47280,0.29834,-0.887695,0.346191,0
47300,0.291504,-0.87207,0.346191,0
47320,0.291992,-0.855469,0.340332,0
47340,0.271484,-0.855957,0.351074,0
47360,0.283691,-0.863281,0.362793,0
47380,0.280273,-0.856934,0.359375,0
47400,0.29248,-0.849609,0.35498,0
47420,0.291992,-0.837402,0.361816,0
47440,0.291992,-0.868652,0.363281,0
47460,0.309082,-0.870605,0.383789,0
47480,0.296875,-0.856934,0.380859,0
47500,0.311523,-0.852539,0.387207,0
47520,0.288574,-0.842285,0.388672,0
47540,0.285645,-0.867676,0.400391,0
47550,0.296387,-0.848145,0.403809,0
47570,0.305176,-0.826172,0.39209,0
47590,0.318848,-0.808594,0.387695,0
47610,0.299805,-0.838867,0.40332,0
47630,0.255371,-0.836914,0.411621,0
47650,0.265625,-0.832031,0.407715,0
47670,0.29541,-0.821289,0.397949,0
47690,0.291992,-0.811035,0.399902,0
47710,0.29541,-0.834473,0.398438,0
47730,0.292969,-0.834961,0.419922,0
47750,0.317871,-0.838867,0.415039,0
47770,0.330566,-0.830078,0.412109,0
47790,0.330566,-0.824707,0.437012,0
47810,0.35791,-0.830078,0.42627,0
47830,0.339355,-0.835938,0.407227,0
47850,0.298828,-0.830566,0.434082,0
47870,0.275879,-0.833984,0.441895,0
47890,0.271973,-0.814941,0.430176,0
47910,0.287109,-0.830078,0.430664,0
47930,0.29834,-0.810059,0.45166,0
47950,0.277832,-0.805664,0.467285,0
47970,0.270508,-0.8125,0.46582,0
47990,0.273926,-0.845703,0.441406,0
48010,0.272949,-0.859375,0.436523,0
48030,0.23291,-0.831055,0.444824,0
48050,0.218262,-0.808105,0.458008,0
48070,0.202637,-0.795898,0.464844,0
48090,0.213867,-0.788086,0.446289,0
48110,0.225098,-0.783691,0.466309,0
48130,0.203125,-0.786133,0.475586,0
48150,0.14502,-0.8125,0.470215,0
48170,0.147461,-0.819824,0.456543,0
48190,0.183594,-0.797852,0.460938,0
48210,0.206543,-0.827148,0.476074,0
48230,0.180176,-0.84375,0.461426,0
48250,0.170898,-0.869629,0.445312,0
48270,0.177734,-0.864258,0.436523,0
48290,0.169434,-0.842773,0.453125,0
48310,0.159668,-0.82666,0.449219,0
48330,0.164551,-0.847168,0.440918,0
48350,0.168457,-0.864746,0.44043,0
48370,0.153809,-0.830078,0.460938,0
48390,0.138184,-0.836914,0.441895,0
48410,0.126953,-0.864258,0.442871,0
48430,0.0952148,-0.870117,0.45166,0
48450,0.0761719,-0.830566,0.433105,0
48470,0.0849609,-0.815918,0.419434,0
48490,0.0688477,-0.807129,0.424805,0
48510,0.0585938,-0.790527,0.416016,0
48530,0.0751953,-0.794922,0.414551,0
48550,0.0883789,-0.818848,0.40918,0
48570,0.0996094,-0.839844,0.408203,0
48590,0.0986328,-0.844238,0.410156,0
48610,0.0996094,-0.836914,0.403809,0
48630,0.0927734,-0.861328,0.398926,0
48650,0.0927734,-0.868164,0.40918,0
48670,0.0668945,-0.870605,0.396484,0
48690,0.0791016,-0.868164,0.39209,0
48710,0.0620117,-0.858887,0.384277,0
48730,0.0424805,-0.867188,0.378906,0
48750,0.0507812,-0.875488,0.380371,0
48770,0.0507812,-0.881348,0.359863,0
48790,0.0522461,-0.89502,0.358398,0
48810,0.0258789,-0.877441,0.34082,0
48830,0.00830078,-0.864258,0.327637,0
48850,0.000976562,-0.878906,0.32666,0
48870,-0.0126953,-0.893555,0.312012,0
48890,0.00292969,-0.91748,0.306641,0
48910,0.0498047,-0.926758,0.321777,0
48930,0.0800781,-0.910645,0.321289,0
48950,0.0874023,-0.919922,0.324219,0
48970,0.112305,-0.958496,0.340332,0
48990,0.158691,-0.949707,0.375488,0
49010,0.187012,-0.930176,0.342773,0
49030,0.188965,-0.923828,0.311035,0
49050,0.170898,-0.94873,0.312988,0
49070,0.165527,-0.923828,0.330078,0
49090,0.15625,-0.905762,0.313965,0
49110,0.14502,-0.910645,0.291504,0
49130,0.160156,-0.912109,0.323242,0
49150,0.168945,-0.89209,0.3125,0
49170,0.162598,-0.891602,0.300293,0
49190,0.132324,-0.902344,0.315918,0
49210,0.114746,-0.899902,0.307129,0
49230,0.152344,-0.905273,0.300781,0
49250,0.166992,-0.895508,0.286621,0
49270,0.172363,-0.892578,0.275391,0
49290,0.192871,-0.883789,0.275879,0
49310,0.213379,-0.872559,0.282715,0
49330,0.223633,-0.871582,0.277344,0
49350,0.220703,-0.858887,0.268066,0
49370,0.205078,-0.874512,0.266113,0
49390,0.234863,-0.902344,0.193359,0
49410,0.271973,-0.914062,0.221191,0
49430,0.288086,-0.917969,0.244629,0
49450,0.276855,-0.887207,0.23584,0
49470,0.279297,-0.884766,0.220703,0
49490,0.311035,-0.918457,0.226562,0
49510,0.344727,-0.943848,0.231934,0
49530,0.365234,-0.928223,0.230957,0
49550,0.370605,-0.892578,0.226074,0
49570,0.326172,-0.85498,0.236328,0
49590,0.292969,-0.856934,0.232422,0
49610,0.342285,-0.901367,0.222168,0
49630,0.383301,-0.893555,0.208496,0
49650,0.371582,-0.873535,0.220703,0
49670,0.378418,-0.852051,0.230469,0
49690,0.374023,-0.859375,0.231445,0
49710,0.393066,-0.855957,0.213867,0
49730,0.4375,-0.868164,0.191406,0
49750,0.450684,-0.850098,0.182129,0
49770,0.470215,-0.838867,0.204102,0
49790,0.456543,-0.833496,0.206543,0
49810,0.45752,-0.825195,0.239746,0
49830,0.465332,-0.820312,0.25293,0
49850,0.500488,-0.807129,0.246094,0
49870,0.503418,-0.795898,0.231445,0
49890,0.516602,-0.79248,0.23291,0
49910,0.542969,-0.777344,0.241211,0
49930,0.553711,-0.765137,0.252441,0
49950,0.546875,-0.777344,0.23584,0
49970,0.560059,-0.766113,0.256348,0
49990,0.590332,-0.750977,0.269531,0
50010,0.591797,-0.75,0.28125,0
50030,0.578125,-0.725586,0.277832,0
50050,0.533203,-0.722168,0.302246,0
50070,0.496094,-0.713867,0.303223,0
50090,0.491699,-0.713867,0.351074,0
50110,0.510742,-0.724121,0.358398,0
50130,0.535645,-0.729492,0.341309,0
50150,0.560059,-0.718262,0.366699,0
50170,0.552246,-0.723145,0.383789,0
50190,0.590332,-0.751953,0.40332,0
50210,0.617188,-0.767578,0.384766,0
50230,0.637695,-0.758789,0.384277,0
50250,0.647461,-0.739746,0.396973,0
50270,0.637695,-0.741211,0.398926,0
50290,0.587402,-0.749023,0.405273,0
50310,0.585449,-0.746582,0.437012,0
50330,0.59375,-0.720215,0.430664,0
50350,0.583008,-0.708496,0.441406,0
50370,0.531738,-0.700195,0.445312,0
50390,0.521484,-0.709961,0.449707,0
50410,0.487793,-0.711914,0.467773,0
50430,0.466309,-0.706543,0.468262,0
50450,0.464844,-0.6875,0.450195,0
50470,0.47168,-0.713379,0.458008,0
50490,0.446289,-0.731445,0.461426,0
50510,0.408691,-0.683594,0.462891,0
50530,0.407715,-0.665527,0.473633,0
50550,0.410156,-0.696289,0.459961,0
50570,0.38916,-0.714355,0.455078,0
50590,0.397949,-0.726074,0.437012,0
50610,0.408203,-0.722168,0.464844,0
50630,0.373535,-0.722168,0.473145,0
50650,0.352539,-0.757324,0.445801,0
50670,0.359375,-0.753906,0.444336,0
50690,0.331055,-0.708984,0.467285,0
50710,0.297852,-0.722168,0.442871,0
50730,0.287109,-0.78125,0.443848,0
50750,0.286133,-0.797363,0.44043,0
50770,0.277344,-0.772949,0.401855,0
50790,0.286621,-0.778809,0.431641,0
50810,0.270508,-0.781738,0.420898,0
50830,0.249023,-0.795898,0.413086,0
50850,0.266602,-0.796875,0.398926,0
50870,0.28418,-0.827637,0.395508,0
50890,0.274902,-0.813477,0.395508,0
50910,0.246582,-0.813477,0.402344,0
50930,0.228027,-0.803711,0.390137,0
50950,0.258301,-0.823242,0.400391,0
50960,0.219727,-0.834961,0.402832,0
50980,0.209473,-0.845703,0.406738,0
51000,0.192383,-0.84375,0.410645,0
51020,0.149414,-0.82373,0.373047,0
51040,0.162598,-0.831055,0.374023,0
51060,0.147461,-0.837891,0.371094,0
51080,0.140137,-0.84668,0.368652,0
51100,0.17627,-0.858887,0.385254,0
51120,0.131836,-0.852051,0.372559,0
51140,0.112305,-0.880371,0.36084,0
51160,0.127441,-0.902344,0.346191,0
51180,0.138672,-0.874512,0.336914,0
51200,0.128418,-0.865723,0.330078,0
51220,0.129883,-0.893555,0.315918,0
51240,0.137695,-0.896973,0.310059,0
51260,0.103516,-0.859863,0.287109,0
51280,0.0869141,-0.88916,0.255371,0
51300,0.121582,-0.897949,0.240723,0
51320,0.112793,-0.888184,0.22998,0
51340,0.0932617,-0.872559,0.228027,0
51360,0.112793,-0.887695,0.21582,0
51380,0.161621,-0.910156,0.203613,0
51400,0.195801,-0.915039,0.219727,0
51420,0.196289,-0.914551,0.232422,0
51440,0.199707,-0.910156,0.227539,0
51460,0.210449,-0.905762,0.21875,0
51480,0.216309,-0.901367,0.237793,0
51500,0.230957,-0.943848,0.239746,0
51520,0.31543,-0.95752,0.229492,0
51540,0.38916,-0.902832,0.25,0
51560,0.365723,-0.859375,0.273926,0
51580,0.353516,-0.877441,0.256836,0
51600,0.403809,-0.914062,0.269043,0
51620,0.469727,-0.90625,0.257324,0
51640,0.450195,-0.867188,0.257812,0
51660,0.44043,-0.852051,0.240234,0
51680,0.446289,-0.850586,0.222656,0
51700,0.436523,-0.834473,0.240234,0
51720,0.440918,-0.812012,0.23584,0
51740,0.477539,-0.800293,0.203613,0
51760,0.519043,-0.808594,0.180664,0
51780,0.532715,-0.802734,0.199219,0
51800,0.526855,-0.792969,0.184082,0
51820,0.552246,-0.788086,0.181152,0
51840,0.586426,-0.794434,0.16748,0
51860,0.566895,-0.765137,0.186523,0
51880,0.54248,-0.746582,0.157227,0
51900,0.57959,-0.76123,0.119629,0
51920,0.601562,-0.776367,0.134766,0
51940,0.59082,-0.755371,0.171875,0
51960,0.581055,-0.740723,0.150391,0
51980,0.594727,-0.749023,0.130371,0
52000,0.611328,-0.75293,0.165039,0
52020,0.615234,-0.733398,0.161621,0
52040,0.622559,-0.714355,0.147461,0
52060,0.635742,-0.712891,0.157227,0
52080,0.651367,-0.717773,0.16748,0
52100,0.669922,-0.711914,0.169434,0
52120,0.685547,-0.708496,0.187988,0
52140,0.70166,-0.681641,0.197266,0
52160,0.698242,-0.679199,0.192383,0
52180,0.701172,-0.666504,0.192871,0
52200,0.728027,-0.666504,0.207031,0
52220,0.719727,-0.641113,0.230957,0
52240,0.720703,-0.633789,0.248535,0
52260,0.714355,-0.621094,0.259766,0
52280,0.703613,-0.600586,0.293945,0
52300,0.713379,-0.581543,0.288086,0
52320,0.730957,-0.586426,0.298828,0
52340,0.70166,-0.599609,0.293945,0
52360,0.655762,-0.587402,0.316895,0
52380,0.666016,-0.563477,0.311523,0
52400,0.69043,-0.578613,0.348633,0
52420,0.698242,-0.567383,0.359375,0
52440,0.705566,-0.562988,0.375,0
52460,0.742676,-0.570312,0.388672,0
52480,0.736328,-0.57373,0.414062,0
52500,0.724121,-0.577637,0.433594,0
52520,0.705078,-0.575195,0.431641,0
52540,0.680664,-0.561035,0.459961,0
52560,0.703613,-0.538574,0.467285,0
52580,0.663574,-0.557129,0.478027,0
52600,0.60498,-0.59375,0.522461,0
52620,0.608887,-0.559082,0.534668,0
52640,0.615234,-0.533691,0.536133,0
52660,0.614258,-0.553223,0.515625,0
52680,0.543457,-0.623047,0.548828,0
52700,0.522461,-0.640625,0.53125,0
52720,0.507812,-0.603027,0.544922,0
52740,0.477051,-0.576172,0.522461,0
52760,0.446289,-0.604492,0.495117,0
52780,0.44873,-0.664062,0.51416,0
52800,0.396484,-0.64209,0.503906,0
52820,0.401367,-0.634277,0.500977,0
52840,0.394043,-0.673828,0.493164,0
52860,0.391602,-0.67627,0.495117,0
52880,0.386719,-0.697754,0.496094,0
52900,0.392578,-0.697754,0.472168,0
52920,0.384277,-0.70752,0.452148,0
52930,0.428711,-0.707031,0.45166,0
52950,0.414062,-0.687988,0.465332,0
52970,0.322266,-0.687988,0.427246,0
52990,0.296387,-0.744141,0.442871,0
53010,0.249023,-0.765625,0.433105,0
53030,0.211426,-0.753418,0.433105,0
53050,0.192871,-0.75293,0.419922,0
53070,0.189941,-0.774414,0.415039,0
53090,0.20166,-0.794434,0.408691,0
53110,0.169922,-0.807617,0.385254,0
53130,0.14502,-0.802246,0.356934,0
53150,0.14502,-0.813477,0.351562,0
53170,0.177246,-0.798828,0.345215,0
53190,0.208008,-0.815918,0.332031,0
53210,0.230957,-0.825195,0.321777,0
53230,0.253906,-0.822266,0.300781,0
53250,0.300781,-0.857422,0.299316,0
53270,0.361816,-0.861328,0.280762,0
53290,0.391113,-0.855469,0.268555,0
53310,0.367188,-0.855469,0.225586,0
53330,0.349609,-0.863281,0.209961,0
53350,0.35791,-0.888184,0.189453,0
53370,0.375,-0.875488,0.17041,0
53390,0.378418,-0.879883,0.186523,0
53410,0.380859,-0.875,0.195312,0
53430,0.428711,-0.876465,0.206055,0
53450,0.443848,-0.89502,0.206543,0
53470,0.46875,-0.902832,0.215332,0
53490,0.514648,-0.873047,0.225098,0
53510,0.530273,-0.837891,0.20166,0
53530,0.55127,-0.804199,0.190918,0
53550,0.506348,-0.818359,0.180176,0
53570,0.537109,-0.790039,0.166504,0
53590,0.5625,-0.75293,0.172363,0
53610,0.594727,-0.731934,0.150391,0
53630,0.599609,-0.73291,0.146484,0
53650,0.58252,-0.745117,0.15918,0
53670,0.585449,-0.704102,0.15332,0
53690,0.619141,-0.692871,0.116211,0
53710,0.679688,-0.689453,0.109863,0
53730,0.687988,-0.684082,0.124512,0
53750,0.649414,-0.659668,0.137207,0
53770,0.68457,-0.64209,0.123047,0
53790,0.724609,-0.616211,0.125,0
53810,0.739258,-0.612305,0.149902,0
53830,0.741211,-0.621094,0.162598,0
53850,0.773438,-0.625,0.173828,0
53870,0.794922,-0.589355,0.183594,0
53890,0.804199,-0.552246,0.186523,0
53910,0.840332,-0.548828,0.191895,0
53930,0.844238,-0.541016,0.195312,0
53950,0.840332,-0.527832,0.200684,0
53970,0.826172,-0.518555,0.179688,0
53990,0.827637,-0.506836,0.179199,0
54010,0.832031,-0.51709,0.169434,0
54030,0.80957,-0.523438,0.182617,1001
54050,0.770996,-0.512207,0.175781,0
54070,0.766602,-0.493652,0.186035,0
54090,0.763184,-0.505859,0.149414,0
54110,0.761719,-0.52832,0.155273,0
54130,0.742676,-0.545898,0.160645,0
54150,0.734375,-0.546387,0.155762,0
54190,0.716309,-0.538574,0.118652,0
54210,0.736816,-0.563477,0.0834961,0
54230,0.705078,-0.566895,0.124023,0
54250,0.685547,-0.565918,0.126465,0
54280,0.740234,-0.555664,0.106445,0
54300,0.727051,-0.57959,0.113281,0
54320,0.722656,-0.578125,0.138184,0
54340,0.716797,-0.564941,0.123535,0
54360,0.72998,-0.569336,0.135254,0
54380,0.682129,-0.569824,0.156738,0
54400,0.618652,-0.569824,0.153809,0
54420,0.552734,-0.563965,0.157227,0
54440,0.484375,-0.550781,0.168945,0
54460,0.420898,-0.541016,0.166504,0
54480,0.398926,-0.563965,0.172852,0
54500,0.405273,-0.591797,0.207031,0
54520,0.446289,-0.59668,0.239258,0
54540,0.456055,-0.555176,0.247559,0
54560,0.504883,-0.623535,0.283691,0
54580,0.602051,-0.699219,0.335449,0
54600,0.617676,-0.743164,0.32666,0
54620,0.590332,-0.753418,0.350098,0
54640,0.605957,-0.775391,0.320801,0
54660,0.633301,-0.856934,0.349609,0
54680,0.628906,-0.906738,0.359863,0
54700,0.594727,-0.920898,0.311035,0
54720,0.605957,-0.882324,0.301758,0
54740,0.539551,-0.87793,0.343262,0
54760,0.51123,-0.936035,0.362305,0
54780,0.504395,-0.950195,0.32373,0
54800,0.478027,-0.95166,0.334473,0
54820,0.435059,-0.970215,0.35498,0
54840,0.401855,-0.983887,0.359863,0
54860,0.391602,-1.00781,0.348145,0
54880,0.37793,-0.988281,0.321289,0
54900,0.341309,-0.963379,0.322754,0
54920,0.280762,-0.939453,0.32959,0
54940,0.249023,-0.92627,0.336426,0
54960,0.225098,-0.907227,0.334473,0
54980,0.216797,-0.90918,0.338867,0
55000,0.185547,-0.896973,0.330078,0
55020,0.17627,-0.872559,0.29834,0
55040,0.177734,-0.875488,0.308594,0
55060,0.192383,-0.881348,0.318359,0
55080,0.201172,-0.881836,0.307129,0
55100,0.19873,-0.877441,0.30957,0
55120,0.190918,-0.876953,0.316895,0
55140,0.208984,-0.890625,0.319824,0
55160,0.19873,-0.911133,0.315918,0
55180,0.17041,-0.915527,0.317383,0
55200,0.146484,-0.917969,0.33252,0
55220,0.146973,-0.924316,0.330078,0
55240,0.146973,-0.926758,0.337402,0
55260,0.137207,-0.929199,0.331055,1000
55280,0.139648,-0.92627,0.328125,0
55300,0.132812,-0.922852,0.32373,0
55320,0.139648,-0.920898,0.33252,0
55340,0.137207,-0.912109,0.322266,0
55360,0.142578,-0.904297,0.32959,0
55380,0.138184,-0.900879,0.335449,0
55400,0.141602,-0.904785,0.334961,0
55420,0.132324,-0.909668,0.32666,0
55440,0.121094,-0.906738,0.324219,0
55460,0.112793,-0.909668,0.337402,0
55480,0.115234,-0.915527,0.335938,0
55500,0.119629,-0.92627,0.330078,0
55520,0.121094,-0.931152,0.318359,0
55540,0.114746,-0.925781,0.330566,0
55560,0.123047,-0.905762,0.329102,0
55580,0.132812,-0.910645,0.325195,0
55600,0.138672,-0.915527,0.320801,0
55620,0.132324,-0.913574,0.324219,0
55640,0.120605,-0.909668,0.321289,0
55660,0.125,-0.902344,0.311523,0
55680,0.123535,-0.927734,0.307617,0
55700,0.109863,-0.913574,0.330078,0
55720,0.107422,-0.903809,0.316895,0
55740,0.0849609,-0.940918,0.328613,0
55760,0.101074,-0.955566,0.316406,0
55780,0.0839844,-0.902832,0.325684,0
55800,0.0786133,-0.894043,0.327148,0
55820,0.0825195,-0.917969,0.33252,0
55840,0.0878906,-0.931641,0.327637,0
55860,0.09375,-0.919922,0.313965,0
55880,0.101074,-0.913086,0.289062,0
55900,0.0844727,-0.909668,0.309082,0
55920,0.0913086,-0.923828,0.303711,0
55940,0.0976562,-0.930176,0.299805,0
55960,0.0961914,-0.932617,0.307129,0
55980,0.114258,-0.933594,0.302734,0
56000,0.117676,-0.941406,0.291992,0
56020,0.137207,-0.940918,0.291504,0
56040,0.139648,-0.937988,0.291504,0
56060,0.14502,-0.937988,0.296875,0
56080,0.138672,-0.928223,0.276367,0
56100,0.173828,-0.942383,0.266602,0
56120,0.171387,-0.94043,0.271484,0
56140,0.138672,-0.925293,0.271973,0
56160,0.143066,-0.939453,0.274414,0
56180,0.14502,-0.945801,0.269043,0
56200,0.154785,-0.927246,0.26416,0
56220,0.156738,-0.90625,0.250488,0
56240,0.155273,-0.921875,0.272461,0
56260,0.163574,-0.931641,0.257324,0
56280,0.1875,-0.914551,0.250488,0
56300,0.213867,-0.908691,0.243652,0
56320,0.195801,-0.902832,0.228516,0
56340,0.220703,-0.92334,0.21582,0
56350,0.229004,-0.927734,0.20459,0
56370,0.244141,-0.904785,0.19873,0
56390,0.222168,-0.88623,0.198242,0
56410,0.241211,-0.895508,0.197754,0
56430,0.248535,-0.89502,0.186035,0
56450,0.259766,-0.887207,0.191406,0
56470,0.279297,-0.894043,0.191895,0
56490,0.243652,-0.906738,0.182617,0
56510,0.26416,-0.897949,0.188965,0
56530,0.278809,-0.90918,0.178711,0
56550,0.265625,-0.907227,0.180176,0
56570,0.277344,-0.918457,0.177246,0
56590,0.279785,-0.919434,0.171875,0
56610,0.297852,-0.921875,0.154785,0
56630,0.30957,-0.94043,0.166992,0
56650,0.30957,-0.929199,0.166016,0
56670,0.344727,-0.93457,0.183105,0
56690,0.352539,-0.922363,0.1875,0
56710,0.360352,-0.913574,0.197266,0
56730,0.374512,-0.909668,0.198242,0
56750,0.363281,-0.901367,0.213867,0
56770,0.367676,-0.883789,0.227539,0
56790,0.384766,-0.869141,0.222168,0
56810,0.405273,-0.862793,0.195801,0
56830,0.392578,-0.844727,0.220703,0
56850,0.396484,-0.831543,0.22168,0
56870,0.390625,-0.839844,0.21875,0
56890,0.391113,-0.844727,0.234375,0
56910,0.391602,-0.830078,0.238281,0
56930,0.408691,-0.815918,0.239258,0
56950,0.410645,-0.819336,0.247559,0
56970,0.429199,-0.827637,0.259277,0
56990,0.417969,-0.816895,0.270508,0
57010,0.429688,-0.812988,0.263184,0
57030,0.452637,-0.812012,0.259766,0
57050,0.478027,-0.809082,0.260254,0
57070,0.480957,-0.795898,0.257324,0
57090,0.501953,-0.793945,0.272949,0
57110,0.484863,-0.791016,0.311035,0
57130,0.510254,-0.79248,0.323242,0
57150,0.519043,-0.793457,0.350586,0
57170,0.508789,-0.79248,0.36377,0
57190,0.490234,-0.769531,0.35498,0
57210,0.459961,-0.751953,0.344238,0
57230,0.488281,-0.750488,0.35498,0
57250,0.512695,-0.806641,0.339844,0
57270,0.479492,-0.800293,0.373047,0
57290,0.493652,-0.791016,0.355957,0
57310,0.515625,-0.787109,0.367676,0
57330,0.462891,-0.769043,0.379395,0
57350,0.449219,-0.776367,0.40332,0
57370,0.426758,-0.778809,0.40918,0
57390,0.428223,-0.812988,0.413086,0
57410,0.422852,-0.791992,0.408691,0
57430,0.435059,-0.789551,0.424316,0
57450,0.406738,-0.792969,0.442871,0
57470,0.366699,-0.777344,0.43457,0
57490,0.359863,-0.809082,0.4375,0
57510,0.332031,-0.802246,0.403809,0
57530,0.344238,-0.806641,0.464355,0
57550,0.314941,-0.764648,0.465332,0
57570,0.289062,-0.76123,0.445312,0
57590,0.242676,-0.799805,0.446289,0
57610,0.230957,-0.82666,0.443359,0
57630,0.241211,-0.816406,0.475098,0
57650,0.26709,-0.777344,0.45752,0
57670,0.235352,-0.784668,0.461914,0
57690,0.227051,-0.81543,0.467773,0
57710,0.250488,-0.813965,0.492676,0
57730,0.254395,-0.772461,0.506348,0
57750,0.259766,-0.737793,0.518555,0
57770,0.259277,-0.782227,0.521484,0
57790,0.271973,-0.807617,0.525391,0
57810,0.260254,-0.771484,0.516602,0
57830,0.240234,-0.750977,0.487305,0
57850,0.211914,-0.754883,0.515625,0
57870,0.157227,-0.798828,0.517578,0
57890,0.120605,-0.80127,0.498535,0
57910,0.137695,-0.813965,0.512207,0
57930,0.134766,-0.793945,0.505859,0
57950,0.133301,-0.816406,0.505859,0
57970,0.118652,-0.833496,0.499023,0
57990,0.117676,-0.802246,0.498047,0
58010,0.125977,-0.779785,0.495605,0
58030,0.133301,-0.808594,0.5,0
58050,0.135742,-0.813477,0.49707,0
58070,0.135254,-0.814941,0.47168,0
58090,0.124023,-0.802246,0.475098,0
58110,0.125,-0.800781,0.48877,0
58130,0.104004,-0.798828,0.47168,0
58150,0.0932617,-0.812988,0.451172,0
58170,0.109375,-0.815918,0.455566,0
58190,0.103516,-0.801758,0.466797,0
58210,0.0864258,-0.814941,0.441895,0
58230,0.0917969,-0.852539,0.415527,0
58250,0.0893555,-0.845215,0.425293,0
58270,0.0683594,-0.82959,0.426758,0
58290,0.0795898,-0.844238,0.405762,0
58310,0.116211,-0.860352,0.40918,0
58320,0.0947266,-0.859375,0.380859,0
58340,0.0776367,-0.878906,0.369141,0
58360,0.128906,-0.883301,0.348145,0
58380,0.194824,-0.869629,0.383789,0
58400,0.18457,-0.855957,0.369629,0
58420,0.155762,-0.901855,0.339844,0
58440,0.134277,-0.955566,0.318848,0
58460,0.127441,-0.935547,0.305664,0
58480,0.0913086,-0.871094,0.280762,0
58500,0.043457,-0.855469,0.254395,0
58520,0.0209961,-0.876465,0.25,0
58540,0.0253906,-0.911621,0.230469,0
58560,0.081543,-0.91748,0.220215,0
58580,0.0874023,-0.919434,0.222168,0
58600,0.0844727,-0.907715,0.224609,0
58620,0.0952148,-0.918945,0.233398,0
58640,0.11084,-0.949707,0.23584,0
58660,0.151367,-0.960449,0.239258,0
58680,0.168457,-0.941895,0.250977,0
58700,0.153809,-0.92627,0.225098,0
58720,0.200195,-0.938965,0.224609,0
58740,0.267578,-0.933594,0.260742,0
58760,0.310059,-0.912598,0.27002,0
58780,0.320312,-0.912109,0.227051,0
58800,0.341797,-0.896973,0.236328,0
58820,0.350098,-0.901855,0.234863,0
58840,0.351074,-0.878418,0.214355,0
58860,0.366699,-0.876465,0.1875,0
58880,0.343262,-0.894531,0.183594,0
58900,0.387207,-0.893066,0.208984,0
58920,0.404785,-0.866211,0.195801,0
58940,0.382812,-0.845215,0.212891,0
58960,0.377441,-0.84668,0.187988,0
58980,0.39502,-0.842285,0.181152,0
59000,0.458008,-0.86377,0.171875,0
59020,0.416992,-0.831055,0.169434,0
59040,0.472656,-0.826172,0.188477,0
59060,0.462891,-0.833984,0.19043,0
59080,0.490723,-0.853516,0.172363,0
59100,0.551758,-0.84375,0.145996,0
59120,0.557129,-0.820312,0.164062,0
59140,0.54541,-0.794922,0.145508,0
59160,0.585449,-0.791504,0.171875,0
59180,0.59082,-0.755859,0.17627,0
59200,0.580566,-0.735352,0.178711,0
59220,0.619141,-0.722168,0.15625,0
59240,0.612305,-0.694824,0.163574,0
59260,0.612305,-0.691406,0.193359,0
59280,0.613281,-0.685059,0.200195,0
59300,0.619141,-0.682617,0.205566,0
59320,0.661133,-0.664062,0.208496,0
59340,0.684082,-0.668457,0.230469,0
59360,0.680664,-0.666504,0.232422,0
59380,0.705078,-0.65332,0.257324,0
59400,0.699707,-0.649414,0.268555,0
59420,0.685059,-0.621582,0.280762,0
59440,0.703125,-0.627441,0.307617,0
59460,0.699219,-0.634277,0.322266,0
59480,0.716797,-0.623535,0.336426,0
59500,0.765137,-0.601562,0.351074,0
59520,0.740234,-0.596191,0.361328,0
59540,0.697266,-0.614746,0.371094,0
59560,0.698242,-0.585938,0.393066,0
59580,0.70166,-0.585938,0.402832,0
59600,0.699707,-0.574707,0.407227,0
59620,0.674805,-0.590332,0.417969,0
59640,0.656738,-0.587402,0.464355,0
59660,0.617188,-0.589844,0.444336,0
59680,0.634766,-0.615723,0.436035,0
59700,0.646973,-0.631348,0.470703,0
59720,0.614746,-0.620605,0.491211,0
59740,0.627441,-0.635254,0.518066,0
59760,0.599609,-0.673828,0.536133,0
59780,0.591309,-0.677246,0.553223,0
59800,0.543945,-0.612793,0.518066,0
59820,0.512695,-0.572754,0.527344,0
59840,0.480469,-0.578613,0.522949,0
59860,0.479004,-0.663574,0.530762,0
59880,0.443848,-0.662109,0.532227,0
59900,0.441406,-0.656738,0.494629,0
59920,0.431641,-0.62793,0.529785,0
59940,0.403809,-0.647461,0.526855,0
59960,0.369141,-0.687988,0.523926,0
59980,0.328613,-0.724609,0.51123,0
60000,0.271484,-0.682617,0.499023,0
60020,0.263672,-0.680176,0.502441,0
60040,0.275879,-0.698242,0.488281,0
60060,0.25,-0.714355,0.466797,0
60080,0.245605,-0.752441,0.450195,0
60100,0.239746,-0.728516,0.458984,0
60120,0.236328,-0.70459,0.440918,0
60140,0.252441,-0.725586,0.431641,0
60160,0.236328,-0.77002,0.442383,0
60180,0.222656,-0.787598,0.41748,0
60200,0.246094,-0.808594,0.429199,0
60220,0.224121,-0.779785,0.42627,0
60240,0.205078,-0.796875,0.411621,0
60260,0.189941,-0.82373,0.414551,0
60280,0.182129,-0.813477,0.402832,0
60300,0.183105,-0.808594,0.399902,0
60320,0.180664,-0.816895,0.39209,0
60340,0.175781,-0.84082,0.369629,0
60360,0.163086,-0.847168,0.362305,0
60380,0.144531,-0.827148,0.35791,0
60400,0.156738,-0.835938,0.321777,0
60420,0.214844,-0.870117,0.333008,0
60440,0.219238,-0.885742,0.324707,0
60460,0.214355,-0.917969,0.294922,0
60480,0.240723,-0.899414,0.291504,0
60500,0.211914,-0.881836,0.266602,0
60520,0.193359,-0.910156,0.240723,0
60540,0.222168,-0.93457,0.240234,0
60560,0.233887,-0.915039,0.24707,0
60580,0.208984,-0.934082,0.244141,0
60600,0.227051,-0.938965,0.241699,0
60620,0.266602,-0.938477,0.227539,0
60640,0.27832,-0.916504,0.224609,0
60660,0.288086,-0.907227,0.227051,0
60680,0.274414,-0.902832,0.216797,0
60700,0.308105,-0.915527,0.189453,0
60720,0.374023,-0.901367,0.17334,0
60740,0.402832,-0.901367,0.177734,0
60760,0.410645,-0.876953,0.17334,0
60780,0.439453,-0.883301,0.186523,0
60800,0.474609,-0.866699,0.151855,0
60820,0.483398,-0.848145,0.164551,0
60840,0.450684,-0.833008,0.168457,0
60860,0.469238,-0.847656,0.151367,0
60880,0.490234,-0.805176,0.149902,0
60900,0.473633,-0.782227,0.141602,0
60920,0.480469,-0.790039,0.133789,0
60940,0.499512,-0.779785,0.0991211,0
60960,0.541504,-0.786133,0.0922852,0
60980,0.610352,-0.777344,0.0844727,0
61000,0.666992,-0.771484,0.0849609,0
61020,0.640137,-0.777832,0.0825195,0
61040,0.69873,-0.750977,0.0566406,0
61060,0.72168,-0.738281,0.0668945,0
61080,0.727051,-0.71875,0.0717773,0
61100,0.69873,-0.681152,0.0688477,0
61120,0.737305,-0.659668,0.0322266,0
61140,0.73584,-0.641602,0.0327148,0
61160,0.713379,-0.624023,0.0571289,0
61180,0.730469,-0.570312,0.0478516,0
61200,0.738281,-0.56543,0.0444336,0
61220,0.734375,-0.541504,0.03125,0
61240,0.787598,-0.530273,0.0507812,0
61260,0.76709,-0.518066,0.0283203,0
61280,0.79541,-0.492676,0.0478516,0
61300,0.810059,-0.472656,0.0683594,0
61320,0.852539,-0.44043,0.0551758,0
61340,0.870117,-0.435547,0.104492,0
61360,0.885742,-0.401855,0.117676,0
61380,0.902344,-0.381836,0.111328,0
61400,0.918457,-0.361816,0.130859,0
61420,0.915039,-0.339355,0.162598,0
61440,0.905762,-0.315918,0.175293,0
61460,0.917969,-0.297852,0.17041,0
61480,0.918945,-0.286621,0.205078,0
61500,0.905762,-0.294434,0.246094,0
61520,0.912598,-0.272461,0.289062,0
61540,0.935059,-0.293457,0.330078,0
61560,0.924316,-0.287598,0.35791,0
61580,0.941406,-0.29248,0.408203,0
61600,0.947754,-0.322754,0.391113,0
61620,0.893066,-0.317383,0.381836,0
61640,0.84082,-0.341797,0.387695,0
61660,0.791992,-0.358887,0.409668,0
61680,0.793457,-0.370117,0.456055,0
61700,0.749512,-0.396973,0.467773,0
61720,0.753906,-0.39209,0.493164,0
61730,0.731934,-0.412598,0.472656,0
61750,0.684082,-0.443359,0.493652,0
61770,0.655273,-0.457031,0.518066,0
61790,0.649414,-0.455078,0.517578,0
61810,0.640137,-0.483887,0.51709,0
61830,0.601562,-0.553711,0.477051,0
61850,0.55957,-0.59082,0.511719,0
61870,0.548828,-0.536621,0.50293,0
61890,0.489746,-0.454102,0.447266,0
61910,0.479004,-0.49707,0.42041,0
61930,0.491699,-0.588867,0.413574,0
61950,0.45166,-0.629883,0.436523,0
61970,0.449219,-0.630371,0.416016,0
61990,0.483887,-0.628906,0.42334,0
62010,0.486816,-0.627441,0.418945,0
62030,0.455078,-0.65332,0.436523,0
62050,0.433594,-0.669922,0.431152,0
62070,0.417969,-0.702148,0.439453,0
62090,0.399414,-0.70752,0.417969,0
62110,0.415527,-0.744629,0.406738,0
62130,0.420898,-0.754395,0.380371,0
62150,0.425781,-0.760742,0.371582,0
62170,0.432129,-0.763184,0.346191,0
62190,0.438477,-0.796875,0.334473,0
62210,0.449707,-0.820312,0.297363,0
62230,0.463379,-0.80957,0.266113,0
62250,0.451172,-0.818359,0.251953,0
62270,0.449707,-0.829102,0.226074,0
62290,0.451172,-0.834961,0.192871,0
62310,0.446289,-0.852051,0.178711,0
62330,0.452637,-0.84668,0.137695,0
62350,0.462891,-0.854492,0.109375,0
62370,0.46875,-0.842773,0.0874023,0
62390,0.499512,-0.864746,0.0966797,0
62410,0.520508,-0.855469,0.0786133,0
62430,0.528809,-0.861816,0.0444336,0
62450,0.518066,-0.86377,0.0463867,0
62470,0.535156,-0.861328,0.0322266,0
62490,0.608398,-0.854004,0.0126953,0
62510,0.655762,-0.851074,-0.00488281,0
62530,0.668457,-0.825684,-0.0136719,0
62550,0.666504,-0.80957,-0.000976562,0
62570,0.689941,-0.777344,-0.0297852,0
62590,0.692871,-0.743652,-0.0541992,0
62610,0.696777,-0.723145,-0.0551758,0
62630,0.736328,-0.713379,-0.0561523,0
62650,0.768066,-0.702637,-0.0610352,0
62670,0.755859,-0.671875,-0.0834961,0
62690,0.733887,-0.637207,-0.0874023,0
62710,0.755371,-0.595215,-0.0996094,0
62730,0.750488,-0.586426,-0.106445,0
62750,0.731445,-0.535156,-0.121094,0
62770,0.704102,-0.518555,-0.133789,0
62790,0.743652,-0.522949,-0.152344,0
62810,0.759766,-0.523926,-0.16748,0
62830,0.757324,-0.491211,-0.157227,0
62850,0.832031,-0.474121,-0.182129,0
62870,0.87793,-0.488281,-0.187988,0
62890,0.890137,-0.471191,-0.149902,1001
62910,0.866211,-0.438965,-0.133789,0
62930,0.856445,-0.429688,-0.134277,0
62950,0.85498,-0.427734,-0.15918,0
62970,0.81543,-0.418457,-0.131836,0
62990,0.806152,-0.38916,-0.123047,0
63010,0.77832,-0.368652,-0.109375,0
63030,0.792969,-0.367676,-0.144531,0
63050,0.77002,-0.372559,-0.140137,0
63070,0.779785,-0.381836,-0.162598,0
63090,0.765625,-0.392578,-0.20752,0
63110,0.739258,-0.40918,-0.210938,0
63130,0.765625,-0.417969,-0.207031,0
63150,0.727051,-0.45752,-0.222168,0
63170,0.705566,-0.458984,-0.150391,0
63190,0.704102,-0.435547,-0.147949,0
63210,0.724121,-0.433105,-0.134766,0
63230,0.727051,-0.454102,-0.114258,0
63250,0.688477,-0.472656,-0.0957031,0
63270,0.661133,-0.450684,-0.081543,0
63290,0.680664,-0.438965,-0.0356445,0
63310,0.683105,-0.464844,-0.0107422,0
63330,0.686035,-0.503418,-0.0126953,0
63350,0.723633,-0.508301,-0.0214844,0
63370,0.77832,-0.533203,0.0678711,0
63390,0.722656,-0.564941,0.120117,0
63410,0.640625,-0.581543,0.142578,0
63430,0.599609,-0.625977,0.194824,0
63450,0.603027,-0.649414,0.226562,0
63470,0.603516,-0.652344,0.252441,0
63490,0.533203,-0.692383,0.309082,0
63510,0.566895,-0.751953,0.318848,0
63530,0.609863,-0.781738,0.330078,0
63550,0.63623,-0.813965,0.373535,0
63570,0.621094,-0.87793,0.39502,0
63590,0.642578,-0.943359,0.40918,0
63610,0.643555,-0.959473,0.391602,0
63630,0.557617,-0.969727,0.415527,0
63650,0.483887,-0.983887,0.420898,0
63670,0.422363,-1.01123,0.416504,0
63690,0.382812,-0.993164,0.40625,0
63710,0.338867,-0.943359,0.396973,0
63720,0.291504,-0.935547,0.407715,0
63740,0.268555,-0.931641,0.40625,0
63760,0.276855,-0.934082,0.397949,0
63780,0.266602,-0.912598,0.404297,0
63800,0.259766,-0.915039,0.402344,0
63820,0.244629,-0.928711,0.392578,0
63840,0.259277,-0.899902,0.384766,0
63860,0.237793,-0.881836,0.379883,0
63880,0.198242,-0.870117,0.384766,0
63900,0.195312,-0.885742,0.392578,1000
63920,0.196777,-0.891602,0.40332,0
63940,0.179688,-0.875488,0.418457,0
63960,0.180664,-0.881348,0.416504,0
63980,0.188477,-0.888184,0.425293,0
64000,0.197754,-0.885254,0.429688,0
64020,0.171387,-0.873047,0.44043,0
64040,0.186523,-0.859375,0.428711,0
64050,0.192871,-0.871094,0.433594,0
64070,0.180176,-0.859863,0.431152,0
64090,0.168457,-0.861816,0.42334,0
64110,0.163086,-0.85791,0.414062,0
64130,0.167969,-0.848145,0.40918,0
64150,0.13623,-0.853516,0.404785,0
64170,0.126953,-0.853027,0.396484,0
64190,0.128906,-0.830078,0.367188,0
64210,0.0991211,-0.851562,0.413086,0
64230,0.0952148,-0.845215,0.427246,0
64250,0.0913086,-0.835938,0.435547,0
64270,0.101074,-0.844238,0.426758,0
64290,0.125,-0.847168,0.423828,0
64310,0.132324,-0.850586,0.411133,0
64330,0.125,-0.856445,0.410645,0
64350,0.121582,-0.863281,0.400879,0
64370,0.125488,-0.866699,0.404297,0
64390,0.132812,-0.86377,0.405273,0
64410,0.13623,-0.869141,0.420898,0
64430,0.160645,-0.870605,0.413086,0
64450,0.109375,-0.860352,0.395508,0
64470,0.121582,-0.867676,0.38623,0
64490,0.180664,-0.841797,0.396973,0
64510,0.208496,-0.825195,0.381348,0
64530,0.182129,-0.819336,0.399414,0
64550,0.196777,-0.882324,0.414551,0
64570,0.220703,-0.904297,0.40918,0
64590,0.240234,-0.852539,0.393555,0
64610,0.234863,-0.838867,0.388672,0
64630,0.20166,-0.892578,0.37207,0
64650,0.217773,-0.924316,0.384277,0
64670,0.210449,-0.927734,0.356445,0
64690,0.204102,-0.919434,0.346191,0
64710,0.197754,-0.916992,0.339844,0
64730,0.187012,-0.910645,0.344238,0
64750,0.183594,-0.876953,0.381348,0
64770,0.185059,-0.874512,0.374023,0
64790,0.212891,-0.85791,0.34668,0
64810,0.203613,-0.863281,0.337891,0
64830,0.210938,-0.834473,0.338867,0
64850,0.222168,-0.813965,0.323242,0
64870,0.22998,-0.816406,0.319824,0
64890,0.244629,-0.837891,0.305176,0
64910,0.277344,-0.836914,0.28125,0
64930,0.284668,-0.840332,0.263672,0
64950,0.294434,-0.866699,0.290527,0
64970,0.303223,-0.898926,0.268555,0
64990,0.337891,-0.898926,0.250977,0
65010,0.359375,-0.902344,0.256348,0
65030,0.348145,-0.873047,0.288086,0
65050,0.355957,-0.879883,0.29834,0
65070,0.339844,-0.868164,0.296387,0
65090,0.350586,-0.849121,0.300293,0
65110,0.333496,-0.82666,0.310547,0
65130,0.358398,-0.807617,0.337891,0
65150,0.357422,-0.810547,0.339844,0
65170,0.365234,-0.795898,0.333496,0
65190,0.411621,-0.800781,0.351074,0
65210,0.429199,-0.79248,0.355469,0
65230,0.424805,-0.783203,0.323242,0
65250,0.4375,-0.784668,0.306641,0
65270,0.435059,-0.785645,0.311035,0
65290,0.434082,-0.796875,0.32666,0
65310,0.45752,-0.779785,0.322754,0
65330,0.461914,-0.768066,0.32373,0
65350,0.467285,-0.775391,0.325684,0
65370,0.483398,-0.763184,0.352539,0
65390,0.469727,-0.759277,0.378906,0
65410,0.478027,-0.745605,0.38623,0
65430,0.479004,-0.737305,0.40625,0
65450,0.48584,-0.72998,0.405273,0
65470,0.506836,-0.720215,0.413574,0
65490,0.507324,-0.711914,0.42627,0
65510,0.506348,-0.703125,0.456543,0
65530,0.520508,-0.681152,0.456055,0
65550,0.504883,-0.681641,0.460449,0
65570,0.474609,-0.671387,0.48291,0
65590,0.498535,-0.663574,0.492676,0
65610,0.505859,-0.65332,0.508301,0
65630,0.507324,-0.674805,0.517578,0
65650,0.518555,-0.689941,0.525879,0
65670,0.533203,-0.662598,0.523926,0
65690,0.536621,-0.634277,0.521973,0
65710,0.469727,-0.66748,0.507324,0
65730,0.497559,-0.714844,0.567871,0
65750,0.431152,-0.688965,0.59082,0
65770,0.487305,-0.639648,0.598145,0
65790,0.412598,-0.665527,0.557617,0
65810,0.359375,-0.702637,0.610352,0
65830,0.346191,-0.696777,0.620605,0
65850,0.373047,-0.63916,0.597656,0
65870,0.421875,-0.652344,0.589355,0
65890,0.288086,-0.686035,0.600098,0
65910,0.267578,-0.73877,0.635254,0
65930,0.308594,-0.694336,0.597656,0
65950,0.327148,-0.647949,0.623535,0
65970,0.264648,-0.680176,0.633301,0
65990,0.203125,-0.691406,0.655273,0
66010,0.174316,-0.660645,0.633301,0
66030,0.167969,-0.650879,0.646484,0
66050,0.125,-0.669922,0.650391,0
