Timestamp, Acceleration x, Acceleration y, Acceleration z, Marker
30,-0.0507812,-0.764648,0.554199,0
50,-0.0610352,-0.765625,0.559082,0
70,-0.0629883,-0.757812,0.55957,0
90,-0.0668945,-0.749512,0.561523,0
110,-0.0703125,-0.741699,0.570801,0
130,-0.0722656,-0.749023,0.564941,0
150,-0.0708008,-0.762207,0.566895,0
170,-0.0703125,-0.764648,0.564453,0
180,-0.0727539,-0.765137,0.5625,0
180,-0.0844727,-0.760254,0.564453,0
230,-0.081543,-0.759766,0.564453,0
250,-0.0869141,-0.76416,0.55127,0
260,-0.0839844,-0.766602,0.555176,0
290,-0.09375,-0.76416,0.544922,0
310,-0.0947266,-0.762695,0.54541,0
330,-0.0878906,-0.764648,0.54834,0
350,-0.0942383,-0.765137,0.551758,0
370,-0.0952148,-0.763184,0.55127,0
390,-0.0908203,-0.758789,0.554688,0
410,-0.0927734,-0.765137,0.549805,0
430,-0.0947266,-0.768555,0.552246,0
450,-0.0991211,-0.767578,0.551758,0
470,-0.100586,-0.760742,0.563477,0
490,-0.0927734,-0.760254,0.556152,0
510,-0.0927734,-0.766602,0.545898,0
530,-0.0922852,-0.772949,0.554688,0
550,-0.0976562,-0.773926,0.552734,0
570,-0.097168,-0.768066,0.552734,0
590,-0.0947266,-0.770508,0.547852,0
610,-0.0947266,-0.763672,0.552734,0
630,-0.097168,-0.772461,0.550293,0
650,-0.0986328,-0.778809,0.547363,0
670,-0.0996094,-0.776367,0.546387,0
690,-0.102539,-0.769043,0.553223,0
710,-0.102539,-0.76123,0.553711,0
730,-0.100586,-0.76416,0.550781,0
750,-0.102051,-0.77002,0.54834,0
770,-0.111816,-0.768066,0.546875,0
790,-0.112305,-0.763184,0.544922,0
810,-0.111328,-0.764648,0.54834,0
830,-0.10791,-0.764648,0.543457,0
850,-0.105957,-0.774414,0.544434,0
870,-0.105469,-0.781738,0.547852,0
890,-0.11084,-0.776367,0.544434,0
910,-0.10791,-0.775391,0.542969,0
930,-0.109863,-0.775879,0.550781,0
950,-0.107422,-0.771973,0.550781,0
970,-0.106445,-0.771973,0.54248,0
990,-0.114258,-0.770508,0.549316,0
1010,-0.115234,-0.766113,0.55127,0
1030,-0.115234,-0.768555,0.537109,0
1050,-0.112793,-0.765625,0.541016,0
1070,-0.109863,-0.764648,0.548828,0
1090,-0.11084,-0.764648,0.556641,0
1110,-0.112305,-0.766113,0.553711,0
1130,-0.10791,-0.769043,0.546387,0
1150,-0.106934,-0.77832,0.543457,0
1170,-0.106934,-0.774902,0.541504,0
1190,-0.111816,-0.760254,0.555664,0
1210,-0.108887,-0.765625,0.546875,0
1230,-0.108887,-0.765625,0.547852,0
1250,-0.111816,-0.769043,0.543457,0
1260,-0.112305,-0.767578,0.55127,0
1280,-0.110352,-0.763672,0.547852,0
1300,-0.10791,-0.765625,0.54541,0
1320,-0.110352,-0.768555,0.54834,0
1340,-0.109375,-0.763672,0.546387,0
1360,-0.106445,-0.771973,0.562012,0
1380,-0.109863,-0.766113,0.553711,0
1400,-0.105957,-0.765137,0.545898,0
1420,-0.112305,-0.765137,0.553711,0
1440,-0.108887,-0.768066,0.552734,0
1460,-0.106445,-0.766113,0.55127,0
1480,-0.104492,-0.768066,0.547363,0
1500,-0.10498,-0.769531,0.542969,0
1520,-0.103516,-0.768066,0.550781,0
1540,-0.104492,-0.772461,0.555176,0
1560,-0.104492,-0.766602,0.562012,0
1580,-0.101562,-0.760254,0.558105,0
1600,-0.0981445,-0.768066,0.551758,0
1620,-0.108398,-0.772461,0.549805,0
1640,-0.11377,-0.768066,0.549316,0
1660,-0.108887,-0.76123,0.55957,0
1680,-0.11084,-0.76416,0.54834,0
1700,-0.113281,-0.773926,0.551758,0
1720,-0.112305,-0.772949,0.550293,0
1740,-0.115234,-0.761719,0.54541,0
1760,-0.114258,-0.759766,0.55127,0
1780,-0.118652,-0.757812,0.552246,0
1800,-0.12207,-0.759766,0.554199,0
1820,-0.120117,-0.768066,0.552246,0
1840,-0.120117,-0.766113,0.550781,0
1860,-0.119141,-0.762695,0.54541,0
1880,-0.117188,-0.766113,0.549805,0
1900,-0.116699,-0.766113,0.555176,0
1920,-0.116699,-0.772949,0.553223,0
1940,-0.121582,-0.771484,0.552246,0
1960,-0.123047,-0.764648,0.55127,0
1980,-0.123047,-0.758301,0.556152,0
2000,-0.113281,-0.763184,0.55957,0
2020,-0.113281,-0.761719,0.553711,0
2040,-0.117676,-0.771973,0.548828,0
2060,-0.117676,-0.775879,0.547852,0
2080,-0.123047,-0.767578,0.544922,0
2100,-0.128418,-0.769043,0.547852,0
2120,-0.128906,-0.762695,0.549316,0
2140,-0.128906,-0.758789,0.558105,0
2160,-0.127441,-0.762207,0.54248,0
2180,-0.131836,-0.765625,0.541504,0
2200,-0.12793,-0.76123,0.546387,0
2220,-0.131348,-0.760742,0.54834,0
2240,-0.130371,-0.759277,0.552246,0
2260,-0.128418,-0.767578,0.554688,0
2280,-0.126953,-0.769531,0.546387,0
2300,-0.126953,-0.765625,0.554199,0
2320,-0.123047,-0.773438,0.555176,0
2340,-0.125488,-0.767578,0.551758,0
2360,-0.122559,-0.769043,0.552734,0
2380,-0.128906,-0.766113,0.545898,0
2400,-0.125,-0.766602,0.544922,0
2420,-0.122559,-0.76416,0.549316,0
2440,-0.126465,-0.766113,0.554199,0
2460,-0.128418,-0.768066,0.549316,0
2480,-0.132324,-0.760742,0.546875,0
2500,-0.130371,-0.765625,0.557129,0
2520,-0.126953,-0.76416,0.552734,0
2540,-0.125,-0.76709,0.55127,0
2560,-0.127441,-0.767578,0.546875,0
2580,-0.125977,-0.758301,0.552246,0
2600,-0.124512,-0.757324,0.556641,0
2620,-0.12793,-0.763672,0.559082,0
2640,-0.125,-0.762207,0.557129,0
2660,-0.126953,-0.760254,0.552246,0
2680,-0.124023,-0.767578,0.54541,0
2700,-0.126953,-0.765137,0.55127,0
2720,-0.126953,-0.766602,0.550781,0
2740,-0.126465,-0.766113,0.552734,0
2760,-0.122559,-0.754883,0.563477,0
2780,-0.126465,-0.760742,0.555176,0
2800,-0.126465,-0.765137,0.549805,0
2810,-0.120117,-0.762695,0.553711,0
2830,-0.125,-0.766602,0.554688,0
2850,-0.122559,-0.764648,0.563477,0
2870,-0.120605,-0.764648,0.553223,0
2890,-0.118652,-0.765625,0.555176,0
2910,-0.125,-0.765625,0.553711,0
2930,-0.124512,-0.767578,0.5625,0
2950,-0.117676,-0.76123,0.560547,0
2970,-0.122559,-0.761719,0.553223,0
2990,-0.121582,-0.756348,0.553223,0
3010,-0.124512,-0.76416,0.556641,0
3030,-0.125977,-0.759277,0.557129,0
3050,-0.124512,-0.759766,0.558105,0
3070,-0.118164,-0.762207,0.551758,0
3090,-0.122559,-0.763184,0.560059,0
3110,-0.122559,-0.76709,0.555176,0
3130,-0.123047,-0.762207,0.559082,0
3150,-0.124023,-0.760254,0.55127,0
3170,-0.123047,-0.759766,0.566406,0
3190,-0.125,-0.764648,0.552734,0
3210,-0.122559,-0.759766,0.552734,0
3230,-0.12793,-0.763184,0.551758,0
3250,-0.125488,-0.761719,0.554199,0
3270,-0.124023,-0.760254,0.554688,0
3290,-0.124023,-0.759766,0.561035,0
3310,-0.125488,-0.763672,0.560059,0
3330,-0.125,-0.764648,0.547363,0
3350,-0.123535,-0.763672,0.556152,0
3370,-0.119629,-0.766113,0.558594,0
3390,-0.123535,-0.763672,0.560059,0
3410,-0.124023,-0.76416,0.552246,0
3430,-0.121582,-0.764648,0.556152,0
3450,-0.12207,-0.762207,0.555176,0
3470,-0.126953,-0.765625,0.557129,0
3490,-0.126465,-0.759277,0.553711,0
3510,-0.124512,-0.758301,0.559082,0
3530,-0.120605,-0.76416,0.554688,0
3550,-0.118652,-0.762207,0.556152,0
3570,-0.123535,-0.765137,0.548828,0
3590,-0.125,-0.763184,0.557129,0
3610,-0.123047,-0.760742,0.555176,0
3630,-0.121094,-0.758301,0.558594,0
3650,-0.119629,-0.761719,0.555664,0
3670,-0.123535,-0.769043,0.554688,0
3690,-0.127441,-0.763672,0.557129,0
3710,-0.123047,-0.764648,0.55127,0
3730,-0.118164,-0.759766,0.555176,0
3750,-0.126953,-0.762695,0.554199,0
3770,-0.123047,-0.76709,0.556641,0
3790,-0.118164,-0.760742,0.555664,0
3810,-0.116211,-0.768555,0.554199,0
3830,-0.120605,-0.763184,0.54834,0
3850,-0.126953,-0.762207,0.552246,0
3870,-0.125,-0.76416,0.553223,0
3890,-0.123535,-0.762207,0.560547,0
3910,-0.117188,-0.76123,0.555664,0
3930,-0.124023,-0.769043,0.55127,0
3950,-0.124023,-0.772949,0.546875,0
3970,-0.125977,-0.768555,0.547852,0
3990,-0.129883,-0.768555,0.551758,0
4010,-0.126465,-0.76123,0.562012,0
4030,-0.126465,-0.757812,0.557129,0
4050,-0.131348,-0.76416,0.553223,0
4070,-0.128906,-0.758789,0.549805,0
4090,-0.129883,-0.765137,0.556152,0
4110,-0.134277,-0.760254,0.549805,0
4130,-0.136719,-0.761719,0.54541,0
4150,-0.135254,-0.763184,0.544922,0
4170,-0.130859,-0.765137,0.547852,0
4190,-0.12793,-0.762695,0.553223,0
4210,-0.129883,-0.766602,0.546387,0
4230,-0.131348,-0.77002,0.544922,0
4250,-0.132812,-0.765137,0.549805,0
4270,-0.134277,-0.766113,0.543945,0
4290,-0.129395,-0.766602,0.55127,0
4310,-0.129395,-0.771973,0.545898,0
4330,-0.131348,-0.771484,0.549316,0
4350,-0.134277,-0.766113,0.558594,0
4370,-0.132812,-0.762207,0.553223,0
4390,-0.131348,-0.764648,0.550293,0
4410,-0.12793,-0.765625,0.54834,0
4430,-0.130859,-0.769043,0.552246,0
4450,-0.130859,-0.765625,0.555176,0
4470,-0.133301,-0.761719,0.552246,0
4490,-0.131836,-0.768066,0.549316,0
4510,-0.125,-0.763672,0.553223,0
4530,-0.130859,-0.765137,0.552734,0
4550,-0.130859,-0.76416,0.550781,0
4570,-0.127441,-0.768555,0.55127,0
4590,-0.131836,-0.762695,0.552734,0
4610,-0.129395,-0.765137,0.553711,0
4630,-0.125,-0.763672,0.553711,0
4650,-0.125488,-0.768555,0.553711,0
4670,-0.126953,-0.77002,0.549805,0
4690,-0.129883,-0.76123,0.555664,0
4700,-0.128418,-0.757324,0.560059,0
4720,-0.125,-0.765625,0.554688,0
4740,-0.127441,-0.76709,0.55127,0
4760,-0.129883,-0.765625,0.553223,0
4780,-0.132324,-0.765137,0.555664,0
4800,-0.126465,-0.756836,0.555176,0
4820,-0.125977,-0.766113,0.554688,0
4840,-0.131836,-0.765137,0.551758,0
4860,-0.126465,-0.759277,0.552734,0
4880,-0.128418,-0.768555,0.556152,0
4900,-0.127441,-0.762695,0.555664,0
4920,-0.12793,-0.759277,0.552734,0
4940,-0.132812,-0.76709,0.555664,0
4960,-0.124512,-0.762207,0.550293,0
4980,-0.126465,-0.761719,0.554199,0
5000,-0.125977,-0.769043,0.54834,0
5020,-0.128418,-0.766113,0.552734,0
5040,-0.128418,-0.766602,0.553711,0
5060,-0.129395,-0.766602,0.556152,0
5080,-0.125977,-0.76416,0.552246,0
5100,-0.126953,-0.76123,0.546875,0
5120,-0.128906,-0.763672,0.553711,0
5140,-0.125,-0.762207,0.55957,0
5160,-0.126953,-0.765625,0.552246,0
5180,-0.127441,-0.769043,0.548828,0
5200,-0.128906,-0.77002,0.547852,0
5210,-0.124023,-0.76416,0.549805,0
5230,-0.12793,-0.763672,0.550781,0
5260,-0.131348,-0.763184,0.552734,0
5280,-0.128418,-0.764648,0.552734,0
5300,-0.126953,-0.76416,0.549805,0
5320,-0.128906,-0.764648,0.555176,0
5330,-0.128418,-0.762695,0.545898,0
5350,-0.128418,-0.763672,0.562012,0
5370,-0.126465,-0.766113,0.564941,0
5390,-0.128906,-0.763184,0.545898,0
5410,-0.125977,-0.768066,0.552734,0
5430,-0.129883,-0.766602,0.552246,0
5450,-0.130859,-0.762695,0.551758,0
5460,-0.120605,-0.765137,0.556152,0
5480,-0.129883,-0.764648,0.548828,0
5490,-0.131836,-0.763672,0.556641,0
5510,-0.130371,-0.767578,0.552734,0
5530,-0.126465,-0.76123,0.545898,0
5550,-0.132812,-0.757324,0.553711,0
5570,-0.135254,-0.752441,0.55957,0
5590,-0.127441,-0.75,0.560547,0
5610,-0.130371,-0.749512,0.55127,0
5630,-0.131348,-0.74707,0.54834,0
5650,-0.0976562,-0.742188,0.564941,0
5670,-0.0820312,-0.78418,0.569336,0
5690,-0.133301,-0.73877,0.558594,0
5710,-0.136719,-0.689453,0.562988,0
5730,-0.144531,-0.737305,0.583984,0
5750,-0.151367,-0.760742,0.566895,0
5770,-0.137207,-0.788574,0.559082,0
5790,-0.102539,-0.797852,0.581055,0
5810,-0.0859375,-0.807617,0.576172,0
5830,-0.0834961,-0.780273,0.563965,0
5840,-0.0854492,-0.774902,0.578125,0
5860,-0.0957031,-0.763184,0.586426,0
5880,-0.103516,-0.756836,0.567383,0
5900,-0.13623,-0.75293,0.569336,0
5920,-0.162109,-0.754883,0.554199,0
5940,-0.164551,-0.773438,0.512207,0
5960,-0.152832,-0.775391,0.516602,0
5980,-0.155273,-0.788086,0.508301,0
6000,-0.148438,-0.79834,0.510254,0
6020,-0.158203,-0.791016,0.509277,0
6040,-0.17627,-0.786133,0.502441,0
6060,-0.161621,-0.798828,0.504395,0
6080,-0.15625,-0.805176,0.507324,0
6100,-0.126953,-0.83252,0.479004,0
6120,-0.146973,-0.842285,0.460449,0
6140,-0.158691,-0.849609,0.460938,0
6160,-0.170898,-0.855469,0.450684,0
6180,-0.166992,-0.861816,0.452148,0
6200,-0.175781,-0.858887,0.435547,0
6220,-0.204102,-0.852051,0.436035,0
6240,-0.219727,-0.843262,0.419922,0
6260,-0.208008,-0.845703,0.413086,0
6280,-0.214355,-0.855469,0.407715,0
6300,-0.215332,-0.867188,0.386719,0
6320,-0.237793,-0.900879,0.369629,0
6340,-0.253418,-0.92627,0.390625,0
6360,-0.233398,-0.96582,0.412598,0
6380,-0.212891,-0.961914,0.376465,0
6400,-0.208496,-0.972168,0.356934,0
6420,0.0200195,-1.10449,0.385742,0
6440,-0.100098,-1.04932,0.342773,0
6460,-0.153809,-1.05713,0.34082,0
6480,0.0209961,-1.14111,0.350098,0
6500,0.120117,-1.1709,0.366699,0
6520,0.210449,-1.13232,0.36084,0
6540,0.259766,-1.09717,0.339844,0
6560,0.260742,-1.0166,0.310547,0
6580,0.337402,-0.951172,0.295898,0
6600,0.436523,-0.921387,0.295898,0
6620,0.451172,-0.848633,0.285156,0
6640,0.483887,-0.778809,0.235352,0
6660,0.529297,-0.717285,0.17627,0
6680,0.534668,-0.676758,0.17627,0
6700,0.498047,-0.633789,0.0917969,0
6720,0.5625,-0.615723,0.0371094,0
6740,0.632324,-0.651855,-0.00537109,0
6760,0.668457,-0.611816,-0.0141602,0
6780,0.623047,-0.57959,-0.0737305,0
6800,0.62207,-0.526367,-0.0756836,0
6820,0.583008,-0.601074,-0.214355,0
6840,0.620117,-0.578125,-0.26416,0
6860,0.677246,-0.574219,-0.29834,0
6880,0.578125,-0.583008,-0.37207,0
6900,0.594727,-0.52832,-0.378906,0
6920,0.620605,-0.567871,-0.42041,0
6940,0.647461,-0.527832,-0.458984,0
6960,0.661133,-0.561035,-0.506348,0
6980,0.647461,-0.556152,-0.516113,0
7000,0.654785,-0.508789,-0.507812,0
7040,0.641602,-0.477051,-0.239746,0
7060,1.07617,-0.602539,-0.32959,0
7080,1.11133,-0.580078,-0.554688,0
7100,0.855469,-0.497559,-0.731445,0
7120,0.508301,-0.39502,-0.762695,0
7140,0.336426,-0.362305,-0.598145,0
7160,0.439453,-0.399902,-0.375977,0
7180,0.77002,-0.474609,-0.233887,0
7200,1.12891,-0.519531,-0.317383,0
7220,1.13623,-0.479004,-0.571289,0
7240,0.852539,-0.375488,-0.782715,0
7260,0.458984,-0.276367,-0.746094,0
7280,0.417969,-0.296387,-0.48291,0
7300,0.730469,-0.400879,-0.287598,0
7320,1.14307,-0.479492,-0.378906,0
7340,1.13184,-0.425781,-0.674805,0
7360,0.734375,-0.297363,-0.814453,0
7380,0.441406,-0.229004,-0.64502,0
7400,0.600098,-0.329102,-0.365723,0
7420,1.03223,-0.439941,-0.322266,0
7440,1.19141,-0.452148,-0.575195,0
7460,0.859863,-0.324707,-0.769531,0
7480,0.436035,-0.229004,-0.644531,0
7500,0.839355,-0.386719,-0.836426,0
7520,0.833008,-0.350098,-0.487793,0
7540,0.777832,-0.33252,-0.547852,0
7560,0.787109,-0.332031,-0.549316,0
7580,0.807617,-0.325195,-0.544434,0
7600,0.793945,-0.318359,-0.551758,0
7620,0.75,-0.30127,-0.543945,0
7640,0.725098,-0.330078,-0.848633,0
7660,0.979004,-0.399902,-0.757812,0
7680,0.598633,-0.214844,-0.670898,0
7700,0.521973,-0.175781,-0.348633,0
7710,0.63916,-0.227051,-0.243652,0
7730,0.794434,-0.282715,-0.274414,0
7750,0.939941,-0.339355,-0.372559,0
7770,1.08545,-0.374512,-0.522461,0
7790,1.0918,-0.394043,-0.666016,0
7810,1.07129,-0.389648,-0.797363,0
7830,0.994141,-0.358887,-0.867188,0
7850,0.880371,-0.314453,-0.857422,0
7870,0.731445,-0.264648,-0.807129,0
7890,0.608398,-0.220215,-0.708496,0
7910,0.563477,-0.170898,-0.454102,0
7930,0.830566,-0.257324,-0.459473,0
7950,0.763672,-0.23584,-0.507324,0
7970,0.758301,-0.208496,-0.463379,0
7990,0.729004,-0.163086,-0.422852,0
8010,0.696777,-0.131348,-0.354492,0
8030,0.646484,-0.110352,-0.348633,0
8050,0.646484,-0.106934,-0.314941,0
8070,0.678223,-0.0634766,-0.21875,0
8090,0.856934,-0.0532227,-0.0673828,0
8110,0.828125,-0.0756836,-0.208008,0
8130,0.987793,-0.180664,-0.479004,0
8150,1.13574,-0.203613,0.0219727,0
8170,0.873535,-0.175293,-0.220215,0
8190,1.11963,-0.320801,-0.0551758,0
8210,0.809082,-0.310547,-0.0966797,0
8230,1.14795,-0.499512,0.120117,0
8250,1.01904,-0.625977,0.17627,0
8270,0.944336,-0.73877,0.126465,0
8290,1.00977,-0.796387,0.182129,0
8310,0.883789,-0.911621,0.270996,0
8330,0.658691,-0.963379,0.352051,0
8350,0.564453,-0.865234,0.364746,0
8370,0.416016,-0.958008,0.338379,0
8390,0.280762,-0.968262,0.459961,0
8410,0.202148,-0.819336,0.456055,0
8430,0.0532227,-0.758789,0.456543,0
8450,0.000976562,-0.759277,0.51123,0
8470,0.0239258,-0.766602,0.593262,0
8490,0.0717773,-0.756348,0.498047,0
8510,0.0649414,-0.720215,0.378418,0
8530,-0.043457,-0.664551,0.429688,0
8550,-0.0869141,-0.82373,0.398438,0
8570,-0.0522461,-1.10059,0.358887,0
8590,-0.0336914,-0.971191,0.483398,0
8610,0.0244141,-0.841797,0.491211,0
8630,0.0761719,-0.882324,0.426758,0
8650,0.0107422,-1.03662,0.381836,0
8670,0.012207,-0.999512,0.549316,0
8690,0.162109,-0.89502,0.531738,0
8710,0.36377,-0.836914,0.370117,0
8730,0.313477,-0.826172,0.375488,0
8750,0.26123,-0.84082,0.544434,0
8770,0.293945,-0.770996,0.57373,0
8790,0.388672,-0.695312,0.547852,0
8810,0.420898,-0.724609,0.441406,0
8830,0.290527,-0.770508,0.487305,0
8850,0.294434,-0.828125,0.572266,0
8870,0.331543,-0.800781,0.708496,0
8890,0.358398,-0.771973,0.732422,0
8910,0.383301,-0.742676,0.753418,0
8930,0.391602,-0.679199,0.720215,0
8950,0.368164,-0.638672,0.686523,0
8970,0.327637,-0.580078,0.573242,0
8990,0.287109,-0.497559,0.484863,0
9010,0.273926,-0.45166,0.489746,0
9030,0.212402,-0.418945,0.503418,0
9050,0.162598,-0.358887,0.507812,0
9070,0.192871,-0.335449,0.550293,0
9090,0.243164,-0.347168,0.626465,0
9110,0.237305,-0.397949,0.70752,0
9130,0.1875,-0.449707,0.757324,0
9150,0.144043,-0.476562,0.74707,0
9170,0.101074,-0.526855,0.769531,0
9190,0.0791016,-0.612305,0.85791,0
9210,0.0541992,-0.651367,0.859375,0
9230,0.102539,-0.656738,0.782227,0
9250,0.0810547,-0.681641,0.720215,0
9270,0.0405273,-0.685059,0.687988,0
9290,0.0473633,-0.651855,0.615234,0
9310,0.118652,-0.671875,0.542969,0
9330,0.190918,-0.682617,0.558594,0
9350,0.230957,-0.686523,0.628906,0
9370,0.227051,-0.703613,0.639648,0
9390,0.239258,-0.708496,0.609375,0
9410,0.244141,-0.678223,0.590332,0
9430,0.272461,-0.659668,0.628906,0
9450,0.29834,-0.65625,0.686035,0
9470,0.316895,-0.674316,0.698242,0
9490,0.251953,-0.694824,0.67334,0
9510,0.242188,-0.702148,0.681641,0
9530,0.286621,-0.70752,0.727539,0
9550,0.307617,-0.725098,0.71875,0
9570,0.297363,-0.720703,0.664062,0
9590,0.27002,-0.680176,0.643066,0
9610,0.274414,-0.657227,0.628906,0
9630,0.305176,-0.674805,0.606934,0
9650,0.325195,-0.685547,0.561523,0
9670,0.34082,-0.672852,0.522461,0
9690,0.335449,-0.634277,0.534668,0
9710,0.364258,-0.597656,0.563965,0
9730,0.378906,-0.586426,0.597168,0
9750,0.380859,-0.601074,0.594727,0
9770,0.399414,-0.592285,0.591797,0
9790,0.409668,-0.578125,0.647949,0
9820,0.412109,-0.575684,0.645996,0
9840,0.402344,-0.592773,0.589844,0
9880,0.43457,-0.591309,0.612305,0
9900,0.444824,-0.606934,0.647461,0
9920,0.429199,-0.618164,0.622559,0
9940,0.428711,-0.624023,0.602051,0
9960,0.415039,-0.638672,0.625488,0
9970,0.410156,-0.657227,0.633789,0
9990,0.403809,-0.662109,0.617188,0
10010,0.394043,-0.662109,0.587402,0
10030,0.395996,-0.644531,0.544434,0
10050,0.396973,-0.620117,0.51123,0
10070,0.39502,-0.602539,0.470703,0
10090,0.41748,-0.588379,0.481445,0
10110,0.435059,-0.597168,0.522949,0
10130,0.452148,-0.612793,0.563965,0
10150,0.477051,-0.633301,0.603027,0
10170,0.464355,-0.633789,0.591309,0
10190,0.454102,-0.634277,0.551758,0
10210,0.448242,-0.631348,0.544922,0
10230,0.458496,-0.64209,0.540527,0
10240,0.452148,-0.648926,0.550293,0
10260,0.459961,-0.663574,0.543457,0
10280,0.486328,-0.65918,0.526367,0
10300,0.499023,-0.633789,0.523926,0
10320,0.535645,-0.621094,0.523926,0
10340,0.540039,-0.605957,0.521973,0
10360,0.57666,-0.582031,0.521973,0
10380,0.625977,-0.583984,0.497559,0
10400,0.649902,-0.564941,0.480469,0
10420,0.661621,-0.542969,0.472656,0
10440,0.631836,-0.514648,0.455566,0
10460,0.634766,-0.51709,0.433594,0
10480,0.680664,-0.520508,0.42627,0
10500,0.70459,-0.495605,0.432617,0
10520,0.726074,-0.491211,0.396484,0
10540,0.711426,-0.464844,0.377441,0
10560,0.731934,-0.479492,0.349121,0
10580,0.787109,-0.508301,0.321289,0
10600,0.839355,-0.483887,0.319336,0
10620,0.813477,-0.467773,0.314941,0
10640,0.816406,-0.437012,0.285645,0
10660,0.863281,-0.447754,0.250488,0
10680,0.896484,-0.47998,0.20166,0
10700,0.830566,-0.427246,0.209473,0
10720,0.833984,-0.405273,0.186035,0
10740,0.897461,-0.426758,0.125,0
10760,0.910645,-0.445312,0.0600586,0
10780,0.886719,-0.40918,0.0380859,0
10800,0.867188,-0.369141,0.0493164,0
10820,0.881836,-0.356445,-0.00683594,0
10840,0.873535,-0.340332,-0.0722656,0
10860,0.883789,-0.323242,-0.0727539,0
10880,0.897949,-0.305176,-0.0683594,0
10900,0.875977,-0.285645,-0.104492,0
10920,0.88623,-0.262695,-0.149414,0
10940,0.921387,-0.273438,-0.195312,0
10960,0.903809,-0.278809,-0.193848,0
10980,0.923828,-0.292969,-0.235352,0
11000,0.91748,-0.286133,-0.277832,0
11010,0.871582,-0.293457,-0.295898,0
11030,0.785156,-0.229004,-0.305664,0
11040,0.79541,-0.222656,-0.327148,0
11060,0.772461,-0.236816,-0.346191,0
11080,0.780273,-0.214844,-0.32959,0
11100,0.800781,-0.20459,-0.3125,0
11120,0.803223,-0.192383,-0.331543,0
11140,0.841309,-0.161133,-0.349609,0
11160,0.892578,-0.18457,-0.389648,0
11180,0.896973,-0.207031,-0.464355,0
11200,0.865234,-0.220215,-0.433105,0
11220,0.887695,-0.220703,-0.413086,0
11240,0.87207,-0.208496,-0.476562,0
11260,0.853516,-0.179688,-0.501465,0
11280,0.836914,-0.195312,-0.473633,0
11300,0.828125,-0.188965,-0.464844,0
11320,0.888672,-0.215332,-0.513672,0
11340,0.887695,-0.187012,-0.475098,0
11360,0.899902,-0.192383,-0.498047,0
11380,0.869629,-0.183105,-0.46875,0
11400,0.912109,-0.131836,-0.477539,0
11420,0.932617,-0.133301,-0.450684,0
11430,0.881348,-0.185059,-0.448242,0
11440,0.876953,-0.221191,-0.464355,0
11460,0.849609,-0.233398,-0.466797,0
11480,0.891602,-0.23584,-0.483887,0
11520,0.895508,-0.220703,-0.446289,0
11540,0.855957,-0.223145,-0.429688,0
11560,0.860352,-0.216797,-0.414062,0
11580,0.852051,-0.195801,-0.410645,0
11600,0.879883,-0.173828,-0.376465,0
11620,0.921387,-0.17627,-0.379395,0
11640,0.90332,-0.190918,-0.415527,0
11660,0.864746,-0.211914,-0.41748,0
11680,0.872559,-0.214355,-0.385742,0
11730,0.84082,-0.259277,-0.416016,0
11750,0.841309,-0.267578,-0.39502,0
11770,0.874023,-0.25293,-0.376953,0
11790,0.890625,-0.261719,-0.412598,0
11810,0.945801,-0.261719,-0.45752,0
11830,0.90625,-0.266113,-0.405762,0
11850,0.877441,-0.256348,-0.387695,0
11870,0.874023,-0.258301,-0.390625,0
11890,0.84668,-0.248535,-0.388672,0
11910,0.84668,-0.222656,-0.373535,0
11930,0.864258,-0.225586,-0.382812,0
11950,0.870117,-0.239258,-0.378906,0
11970,0.92041,-0.248535,-0.381348,0
11990,0.945801,-0.275391,-0.381836,0
12010,0.938965,-0.28125,-0.385254,0
12030,0.924805,-0.290039,-0.371582,0
12050,0.901855,-0.284668,-0.355469,0
12070,0.895508,-0.311523,-0.370605,0
12090,0.883301,-0.317871,-0.349609,0
12110,0.87207,-0.325684,-0.346191,0
12130,0.883301,-0.323242,-0.359863,0
12150,0.851074,-0.3125,-0.353027,0
12170,0.875488,-0.313477,-0.359375,0
12190,0.897949,-0.310547,-0.365234,0
12210,0.889648,-0.304199,-0.384766,0
12230,0.880371,-0.29834,-0.390137,0
12250,0.879883,-0.291992,-0.391602,0
12270,0.90918,-0.283203,-0.388184,0
12290,0.917969,-0.271484,-0.374023,0
12310,0.945801,-0.287598,-0.376953,0
12330,0.922363,-0.289062,-0.385254,0
12350,0.884277,-0.306152,-0.381836,0
12360,0.862793,-0.302734,-0.36084,0
12380,0.883789,-0.305664,-0.332031,0
12400,0.88623,-0.328613,-0.328613,0
12420,0.873535,-0.341309,-0.346191,0
12440,0.888184,-0.321777,-0.331543,0
12470,0.893066,-0.321289,-0.366699,0
12490,0.878418,-0.345703,-0.372559,0
12510,0.887207,-0.352539,-0.355469,0
12530,0.874512,-0.32959,-0.315918,0
12550,0.893066,-0.307617,-0.312988,0
12570,0.859375,-0.302246,-0.327637,0
12590,0.848633,-0.29834,-0.354004,0
12610,0.862305,-0.305664,-0.394531,0
12630,0.893066,-0.285156,-0.360352,0
12650,0.95166,-0.262207,-0.339844,0
12660,0.960449,-0.230469,-0.340332,0
12680,0.941895,-0.244629,-0.376465,0
12700,0.918945,-0.268066,-0.430664,0
12720,0.88623,-0.304199,-0.442383,0
12730,0.862305,-0.302246,-0.429199,0
12750,0.855469,-0.291504,-0.402344,0
12750,0.848145,-0.277832,-0.391113,0
12770,0.854004,-0.258301,-0.376465,0
12790,0.853027,-0.242188,-0.378418,0
12810,0.870117,-0.258301,-0.373047,0
12830,0.888184,-0.28125,-0.410645,0
12850,0.867188,-0.306641,-0.416016,0
12860,0.856445,-0.289062,-0.373535,0
12880,0.879883,-0.277344,-0.365234,0
12900,0.920898,-0.246582,-0.353516,0
12920,0.934082,-0.251953,-0.378418,0
12940,0.955566,-0.260254,-0.394043,0
12960,0.916992,-0.28125,-0.370117,0
12980,0.856934,-0.297852,-0.354492,0
13000,0.848145,-0.26709,-0.320312,0
13040,0.874512,-0.268555,-0.361816,0
13060,0.881348,-0.277832,-0.381836,0
13080,0.862305,-0.297363,-0.364746,0
13100,0.86084,-0.313477,-0.34668,0
13120,0.873047,-0.33252,-0.347168,0
13140,0.858887,-0.326172,-0.344238,0
13160,0.901367,-0.306152,-0.361328,0
13180,0.903809,-0.321289,-0.37207,0
13200,0.855957,-0.336426,-0.386719,0
13220,0.842285,-0.346191,-0.385254,0
13240,0.884766,-0.314453,-0.352051,0
13260,0.9375,-0.311523,-0.35498,0
13280,0.91748,-0.301758,-0.404297,0
13300,0.922852,-0.291016,-0.39209,0
13320,0.943359,-0.269043,-0.383789,0
13340,0.927734,-0.254883,-0.378418,0
13360,0.889648,-0.251465,-0.374512,0
13380,0.873535,-0.241211,-0.374512,0
13400,0.875488,-0.217773,-0.363281,0
13420,0.907227,-0.189453,-0.332031,0
13440,0.911133,-0.217285,-0.350586,0
13460,0.879395,-0.225586,-0.357422,0
13480,0.865234,-0.23877,-0.359375,0
13500,0.881836,-0.256836,-0.374512,0
13520,0.910156,-0.262207,-0.361816,0
13540,0.894043,-0.274414,-0.363281,0
13560,0.916992,-0.268066,-0.349121,0
13580,0.94043,-0.268066,-0.368652,0
13600,0.906738,-0.316406,-0.404297,0
13620,0.848633,-0.355957,-0.373535,0
13640,0.798828,-0.338867,-0.358398,0
13660,0.814941,-0.319824,-0.325195,0
13680,0.797363,-0.270508,-0.321289,0
13690,0.853027,-0.278809,-0.322266,0
13710,0.916504,-0.266113,-0.339844,0
13730,0.946289,-0.260742,-0.355957,0
13750,0.962402,-0.260742,-0.371582,0
13770,0.972656,-0.268555,-0.35498,0
13790,0.939941,-0.290039,-0.359863,0
13810,0.89209,-0.322266,-0.35498,0
13830,0.868652,-0.324707,-0.352051,0
13850,0.866211,-0.315918,-0.364746,0
13870,0.868164,-0.268066,-0.342773,0
13890,0.911133,-0.241699,-0.339355,0
13910,0.927734,-0.21875,-0.34668,0
13930,0.92041,-0.220703,-0.350098,0
13950,0.92334,-0.254395,-0.357422,0
13970,0.909668,-0.239746,-0.330078,0
13990,0.91748,-0.268555,-0.333008,0
14010,0.901367,-0.281738,-0.323242,0
14030,0.887695,-0.30957,-0.329102,0
14050,0.87207,-0.320312,-0.321777,0
14070,0.872559,-0.313965,-0.31543,0
14090,0.883301,-0.319336,-0.328125,0
14110,0.892578,-0.317383,-0.339355,0
14130,0.875488,-0.322266,-0.33252,0
14150,0.881836,-0.312988,-0.33252,0
14170,0.866699,-0.315918,-0.347168,0
14190,0.859863,-0.296387,-0.351074,0
14210,0.866211,-0.304199,-0.351074,0
14230,0.87207,-0.300293,-0.352539,0
14250,0.877441,-0.308105,-0.356445,0
14270,0.866699,-0.313965,-0.351562,0
14290,0.877441,-0.319824,-0.352539,0
14310,0.87207,-0.328613,-0.353027,0
14330,0.873535,-0.321777,-0.337891,0
14350,0.872559,-0.347656,-0.35498,0
14370,0.86084,-0.35498,-0.35791,0
14390,0.875488,-0.353516,-0.351562,0
14410,0.883789,-0.344727,-0.339355,0
14430,0.886719,-0.338379,-0.325195,0
14450,0.888184,-0.341309,-0.322266,0
14470,0.875,-0.342773,-0.341797,0
14490,0.867676,-0.340332,-0.328613,0
14510,0.873047,-0.336426,-0.306152,0
14540,0.905762,-0.316895,-0.318848,0
14560,0.888184,-0.32373,-0.332031,0
14580,0.893066,-0.316406,-0.315918,0
14620,0.911621,-0.300781,-0.316895,0
14640,0.91748,-0.302246,-0.31543,0
14660,0.888184,-0.30957,-0.320312,0
14680,0.887207,-0.313965,-0.307129,0
14700,0.883301,-0.314941,-0.307129,0
14720,0.896484,-0.30957,-0.30127,0
14740,0.898926,-0.314453,-0.300781,0
14770,0.882324,-0.351562,-0.290527,0
14790,0.881348,-0.353516,-0.307617,0
14820,0.90918,-0.346191,-0.322754,0
14840,0.900879,-0.341797,-0.318848,0
14860,0.88623,-0.340332,-0.314941,0
14880,0.866699,-0.33252,-0.299805,0
14900,0.864746,-0.32373,-0.282715,0
14920,0.880371,-0.325195,-0.294434,0
14940,0.887695,-0.313477,-0.301758,0
14960,0.899902,-0.318359,-0.322266,0
14980,0.88623,-0.311523,-0.312012,0
15000,0.887695,-0.303223,-0.290527,0
15020,0.904297,-0.307617,-0.279297,0
15040,0.900391,-0.315918,-0.294922,0
15060,0.890137,-0.310547,-0.295898,0
15080,0.885254,-0.314453,-0.284668,0
15100,0.891113,-0.334961,-0.269531,0
15120,0.894531,-0.323242,-0.274414,0
15130,0.898926,-0.338867,-0.282715,0
15150,0.91748,-0.345215,-0.291504,0
15170,0.925781,-0.34082,-0.287109,0
15190,0.925293,-0.352051,-0.287598,0
15210,0.916504,-0.353516,-0.302246,0
15230,0.898438,-0.350586,-0.29248,0
15250,0.920898,-0.339355,-0.281738,0
15270,0.887207,-0.341797,-0.275879,0
15290,0.881348,-0.329102,-0.28125,0
15310,0.891113,-0.331055,-0.274902,0
15340,0.913086,-0.308594,-0.294434,0
15360,0.90625,-0.322266,-0.293457,0
15380,0.898926,-0.336426,-0.293457,0
15400,0.880859,-0.334961,-0.292969,0
15420,0.86377,-0.353027,-0.288574,0
15440,0.868164,-0.354492,-0.283203,0
15460,0.890625,-0.346191,-0.286133,0
15480,0.883789,-0.333496,-0.291992,0
15500,0.882812,-0.34082,-0.304199,0
15520,0.882324,-0.335938,-0.289551,0
15540,0.871582,-0.336914,-0.271973,0
15560,0.860352,-0.343262,-0.276367,0
15580,0.856445,-0.358887,-0.275391,0
15600,0.872559,-0.375,-0.282227,0
15620,0.865723,-0.379883,-0.286621,0
15640,0.866211,-0.385742,-0.290527,0
15660,0.86377,-0.38916,-0.294922,0
15680,0.873047,-0.390625,-0.283691,0
15700,0.882812,-0.38916,-0.279785,0
15720,0.89209,-0.375488,-0.28418,0
15740,0.891113,-0.366211,-0.295898,0
15760,0.897949,-0.361816,-0.290527,0
15780,0.894043,-0.342773,-0.280762,0
15800,0.890625,-0.352051,-0.30127,0
15820,0.873047,-0.36377,-0.294922,0
15840,0.860352,-0.368652,-0.282715,0
15860,0.863281,-0.359375,-0.258301,0
15880,0.867676,-0.354492,-0.251465,0
15900,0.896484,-0.359863,-0.270508,0
15920,0.890625,-0.368652,-0.283691,0
15940,0.883301,-0.37793,-0.26416,0
15960,0.888184,-0.382812,-0.253418,0
15980,0.868652,-0.393555,-0.251465,0
16000,0.856934,-0.38623,-0.262695,0
16020,0.891113,-0.378906,-0.27002,0
16040,0.907715,-0.351074,-0.243164,0
16060,0.876465,-0.348145,-0.26709,0
16080,0.90625,-0.354492,-0.279297,0
16100,0.902832,-0.353027,-0.286621,0
16120,0.885742,-0.334473,-0.288086,0
16140,0.887207,-0.342773,-0.272461,0
16160,0.913574,-0.341309,-0.287598,0
16180,0.918945,-0.34668,-0.285156,0
16200,0.914551,-0.34375,-0.274414,0
16220,0.893066,-0.350586,-0.273926,0
16240,0.87207,-0.341797,-0.275879,0
16260,0.871582,-0.353027,-0.278809,0
16280,0.875977,-0.366699,-0.274414,0
16300,0.849609,-0.362793,-0.265625,0
16320,0.904297,-0.359863,-0.267578,0
16340,0.876465,-0.398438,-0.270996,0
16360,0.833984,-0.38916,-0.265625,0
16380,0.849121,-0.385254,-0.255859,0
16400,0.914551,-0.373535,-0.237305,0
16420,0.935547,-0.380859,-0.276855,0
16440,0.895508,-0.398438,-0.276367,0
16460,0.864746,-0.410156,-0.266602,0
16480,0.883301,-0.413574,-0.250977,0
16500,0.874023,-0.410645,-0.249512,0
16520,0.881348,-0.390625,-0.254883,0
16540,0.899414,-0.385742,-0.252441,0
16560,0.871582,-0.380371,-0.272949,0
16580,0.873047,-0.378418,-0.270996,0
16600,0.883301,-0.349609,-0.270508,0
16620,0.852539,-0.354004,-0.265137,0
16640,0.875977,-0.361328,-0.259766,0
16660,0.910156,-0.345703,-0.271973,0
16680,0.900879,-0.359863,-0.302246,0
16700,0.891602,-0.370117,-0.291504,0
16720,0.879395,-0.375977,-0.282227,0
16740,0.88916,-0.368652,-0.281738,0
16760,0.879883,-0.358887,-0.27832,0
16780,0.871582,-0.348145,-0.264648,0
16800,0.874023,-0.349121,-0.251465,0
16820,0.879395,-0.353516,-0.233887,0
16840,0.861816,-0.367188,-0.264648,0
16860,0.869629,-0.358887,-0.266113,0
16880,0.893555,-0.350098,-0.260254,0
16900,0.92041,-0.347656,-0.258301,0
16920,0.919922,-0.348633,-0.246582,0
16940,0.897949,-0.350586,-0.28418,0
16960,0.88623,-0.344238,-0.288086,0
16980,0.898438,-0.322266,-0.270996,0
17000,0.931641,-0.337402,-0.234863,0
17020,0.896973,-0.341309,-0.248535,0
17040,0.886719,-0.305176,-0.27002,0
17060,0.899414,-0.296875,-0.265137,0
17080,0.878418,-0.299805,-0.213379,0
17100,0.866699,-0.297363,-0.233887,0
17120,0.884766,-0.287109,-0.257812,0
17140,0.881348,-0.282715,-0.259277,0
17160,0.900391,-0.319824,-0.260254,0
17180,0.920898,-0.338867,-0.28418,0
17200,0.937988,-0.309082,-0.289062,0
17220,0.915527,-0.32373,-0.300781,0
17240,0.911133,-0.325195,-0.26416,0
17260,0.901855,-0.320312,-0.255859,0
17280,0.893066,-0.28125,-0.280273,0
17300,0.859863,-0.284668,-0.256348,0
17320,0.854004,-0.312012,-0.236816,0
17340,0.862305,-0.33252,-0.216309,0
17360,0.869141,-0.34668,-0.226074,0
17380,0.89502,-0.354004,-0.223145,0
17400,0.896484,-0.379883,-0.260254,0
17420,0.899902,-0.38916,-0.269531,0
17440,0.916992,-0.375977,-0.268555,0
17460,0.92041,-0.36084,-0.258789,0
17480,0.895996,-0.361328,-0.268066,0
17500,0.886719,-0.375,-0.27002,0
17520,0.894531,-0.36084,-0.23584,0
17540,0.870117,-0.35791,-0.234863,0
17560,0.858887,-0.330078,-0.246094,0
17580,0.888672,-0.312012,-0.227051,0
17600,0.879395,-0.307617,-0.212891,0
17620,0.919434,-0.299316,-0.193848,0
17640,0.88916,-0.310059,-0.233398,0
17660,0.886719,-0.329102,-0.276855,0
17680,0.913574,-0.307129,-0.251465,0
17690,0.92627,-0.327148,-0.245605,0
17710,0.93457,-0.309082,-0.227539,0
17730,0.935547,-0.317871,-0.22998,0
17750,0.89209,-0.335938,-0.276367,0
17770,0.922852,-0.331543,-0.255859,0
17790,0.924805,-0.325684,-0.216309,0
17810,0.900391,-0.327637,-0.227539,0
17830,0.904785,-0.30957,-0.22168,0
17850,0.937988,-0.309082,-0.210938,0
17870,0.923828,-0.318848,-0.210449,0
17890,0.902344,-0.311523,-0.203613,0
17910,0.910645,-0.318359,-0.208008,0
17930,0.884766,-0.329102,-0.227051,0
17950,0.887207,-0.330566,-0.223145,0
17970,0.92627,-0.345215,-0.211914,0
17990,0.925293,-0.333984,-0.217285,0
18010,0.914062,-0.322266,-0.214355,0
18030,0.935059,-0.322266,-0.214844,0
18050,0.924805,-0.314941,-0.206055,0
18070,0.90332,-0.310059,-0.200195,0
18090,0.894531,-0.30957,-0.220703,0
18110,0.89502,-0.306641,-0.21582,0
18130,0.895508,-0.308594,-0.21582,0
18150,0.897949,-0.299316,-0.208496,0
18170,0.913574,-0.302734,-0.208496,0
18190,0.928223,-0.310547,-0.226074,0
18210,0.923828,-0.328125,-0.23584,0
18230,0.936035,-0.314453,-0.20752,0
18250,0.9375,-0.307617,-0.185547,0
18270,0.916992,-0.325684,-0.195312,0
18290,0.878906,-0.321777,-0.224609,0
18310,0.86084,-0.331543,-0.250488,0
18330,0.870605,-0.32959,-0.23291,0
18350,0.901367,-0.309082,-0.197754,0
18370,0.902832,-0.299316,-0.21582,0
18390,0.880371,-0.289551,-0.212891,0
18410,0.919922,-0.290039,-0.230469,0
18430,0.95752,-0.289551,-0.244141,0
18450,0.97168,-0.277344,-0.235352,0
18470,0.946777,-0.274414,-0.236328,0
18490,0.928223,-0.277344,-0.230469,0
18510,0.931152,-0.291504,-0.223633,0
18530,0.908203,-0.28418,-0.22998,0
18550,0.90918,-0.300293,-0.240723,0
18570,0.914551,-0.286133,-0.239258,0
18590,0.899414,-0.278809,-0.234863,0
18610,0.913574,-0.272461,-0.228027,0
18630,0.910156,-0.268066,-0.219238,0
18650,0.899902,-0.269531,-0.226562,0
18670,0.881348,-0.281738,-0.243164,0
18690,0.878418,-0.270996,-0.25293,0
18710,0.92334,-0.28125,-0.241699,0
18730,0.946289,-0.278809,-0.233887,0
18750,0.939941,-0.279785,-0.212891,0
18770,0.951172,-0.287598,-0.218262,0
18790,0.950195,-0.291016,-0.218262,0
18810,0.953613,-0.310547,-0.224121,0
18830,0.912109,-0.32666,-0.220703,0
18850,0.893555,-0.346191,-0.217773,0
18870,0.892578,-0.320801,-0.201172,0
18890,0.896484,-0.316895,-0.185547,0
18910,0.895996,-0.31543,-0.190918,0
18930,0.883789,-0.311035,-0.20459,0
18950,0.904297,-0.312012,-0.219727,0
18970,0.925781,-0.3125,-0.222656,0
18990,0.932617,-0.299316,-0.239258,0
19010,0.928711,-0.298828,-0.237793,0
19030,0.95166,-0.290039,-0.247559,0
19050,0.929199,-0.266113,-0.239258,0
19070,0.884277,-0.260254,-0.213379,0
19090,0.905762,-0.262207,-0.23291,0
19110,0.922852,-0.278809,-0.26416,0
19130,0.893555,-0.271973,-0.286621,0
19150,0.927246,-0.260254,-0.259277,0
19170,0.955566,-0.275879,-0.252441,0
19190,0.898438,-0.28418,-0.251465,0
19210,0.872559,-0.307617,-0.23877,0
19230,0.860352,-0.279297,-0.172363,0
19250,0.91748,-0.303711,-0.149902,0
19270,0.942383,-0.313477,-0.187012,0
19290,0.918945,-0.333496,-0.212891,0
19310,0.905762,-0.342773,-0.215332,0
19330,0.901367,-0.336426,-0.177734,0
19350,0.896973,-0.328613,-0.1875,0
19370,0.90625,-0.327637,-0.205078,0
19390,0.917969,-0.327637,-0.202148,0
19410,0.927246,-0.308105,-0.214844,0
19430,0.909668,-0.296875,-0.225098,0
19450,0.897949,-0.281738,-0.214844,0
19470,0.906738,-0.282227,-0.227051,0
19490,0.904297,-0.276367,-0.225098,0
19510,0.927246,-0.280273,-0.231934,0
19530,0.932617,-0.29541,-0.245605,0
19550,0.919434,-0.283691,-0.240234,0
19570,0.900391,-0.265625,-0.232422,0
19590,0.924316,-0.257812,-0.238281,0
19610,0.946777,-0.259277,-0.234375,0
19630,0.943848,-0.257812,-0.221191,0
19650,0.942871,-0.282227,-0.205566,0
19670,0.913574,-0.274414,-0.193848,0
19690,0.914551,-0.276367,-0.201172,0
19710,0.925781,-0.288086,-0.213867,0
19730,0.880371,-0.288086,-0.212891,0
19750,0.876953,-0.305176,-0.209961,0
19770,0.897461,-0.282227,-0.192871,0
19790,0.922363,-0.271484,-0.197266,0
19810,0.947754,-0.291016,-0.206543,0
19830,0.952637,-0.316895,-0.186035,0
19850,0.895508,-0.312012,-0.17334,0
19870,0.888672,-0.329102,-0.185547,0
19890,0.881348,-0.316895,-0.188965,0
19910,0.900391,-0.322266,-0.184082,0
19930,0.924316,-0.327637,-0.186523,0
19950,0.922852,-0.32373,-0.184082,0
19970,0.927246,-0.326172,-0.203613,0
19990,0.929199,-0.315918,-0.204102,0
20010,0.938477,-0.301758,-0.204102,0
20030,0.947266,-0.298828,-0.237305,0
20050,0.954102,-0.276367,-0.225098,0
20070,0.947266,-0.266113,-0.210449,0
20090,0.928711,-0.27002,-0.226074,0
20110,0.92334,-0.270508,-0.233887,0
20130,0.927246,-0.275391,-0.222168,0
20150,0.918457,-0.276855,-0.212402,0
20170,0.896484,-0.267578,-0.213379,0
20190,0.887207,-0.271973,-0.217285,0
20210,0.904785,-0.274414,-0.212402,0
20230,0.926758,-0.272949,-0.225586,0
20250,0.966797,-0.257812,-0.24707,0
20260,0.967773,-0.255859,-0.257812,0
20280,0.947754,-0.252441,-0.269043,0
20300,0.938965,-0.26123,-0.233887,0
20320,0.893066,-0.267578,-0.194336,0
20340,0.900391,-0.291504,-0.202148,0
20360,0.854492,-0.286133,-0.191406,0
20380,0.874023,-0.275879,-0.192871,0
20400,0.902344,-0.248047,-0.169434,0
20420,0.9375,-0.27832,-0.197266,0
20430,0.941406,-0.291016,-0.193848,0
20450,0.931641,-0.297852,-0.218262,0
20470,0.930176,-0.295898,-0.214355,0
20490,0.929199,-0.27832,-0.191406,0
20510,0.918945,-0.28418,-0.206543,0
20530,0.92041,-0.290039,-0.214844,0
20550,0.92627,-0.277344,-0.206055,0
20570,0.932617,-0.272949,-0.201172,0
20590,0.939941,-0.279785,-0.206055,0
20610,0.901855,-0.290527,-0.216309,0
20630,0.88623,-0.282715,-0.22168,0
20650,0.91748,-0.269531,-0.210449,0
20670,0.980957,-0.29248,-0.217773,0
20690,0.93457,-0.289551,-0.209961,0
20710,0.867188,-0.263184,-0.214355,0
20730,0.88623,-0.260254,-0.23877,0
20750,0.922852,-0.26123,-0.225586,0
20770,0.92334,-0.258789,-0.226074,0
20790,0.930176,-0.24707,-0.23584,0
20810,0.929199,-0.263184,-0.249023,0
20830,0.913086,-0.269043,-0.246094,0
20850,0.926758,-0.276367,-0.245605,0
20870,0.941895,-0.296387,-0.22998,0
20890,0.907715,-0.28125,-0.249023,0
20910,0.92041,-0.292969,-0.226562,0
20930,0.903809,-0.299805,-0.20459,0
20950,0.911621,-0.311523,-0.225586,0
20970,0.928223,-0.312988,-0.19873,0
20990,0.912598,-0.3125,-0.21582,0
21010,0.893555,-0.303711,-0.23291,0
21030,0.935547,-0.310059,-0.250488,0
21050,0.918457,-0.303223,-0.243164,0
21070,0.922363,-0.288574,-0.270996,0
21090,0.985352,-0.281738,-0.225098,0
21110,0.930664,-0.297363,-0.254883,0
21130,0.945312,-0.289551,-0.293945,0
21150,0.937012,-0.262207,-0.231934,0
21170,0.921387,-0.270508,-0.255371,0
21190,0.895508,-0.266113,-0.235352,0
21210,0.880371,-0.285645,-0.220215,0
21230,0.881836,-0.293945,-0.212891,0
21250,0.881836,-0.290527,-0.209961,0
21270,0.891113,-0.28418,-0.217773,0
21290,0.904297,-0.279785,-0.226074,0
21310,0.911133,-0.270508,-0.242188,0
21330,0.919434,-0.270508,-0.227539,0
21350,0.916504,-0.275391,-0.234863,0
21370,0.921387,-0.279785,-0.239746,0
21390,0.927246,-0.261719,-0.225098,0
21410,0.940918,-0.26123,-0.225098,0
21430,0.943848,-0.276367,-0.214355,0
21450,0.930176,-0.297363,-0.223145,0
21470,0.924316,-0.302734,-0.216797,0
21490,0.924316,-0.292969,-0.214844,0
21510,0.94043,-0.285645,-0.222168,0
21530,0.925293,-0.290527,-0.205566,0
21550,0.928223,-0.304688,-0.216797,0
21570,0.891113,-0.307617,-0.22168,0
21590,0.892578,-0.288086,-0.201172,0
21610,0.916992,-0.294434,-0.186035,0
21630,0.912598,-0.291992,-0.180664,0
21650,0.924316,-0.284668,-0.203613,0
21670,0.932617,-0.283691,-0.210938,0
21690,0.941406,-0.27832,-0.194824,0
21710,0.944824,-0.295898,-0.189941,0
21730,0.919434,-0.314453,-0.189941,0
21750,0.877441,-0.300293,-0.193359,0
21770,0.864258,-0.286133,-0.183594,0
21790,0.875977,-0.303711,-0.176758,0
21810,0.890137,-0.305176,-0.1875,0
21830,0.908691,-0.292969,-0.195312,0
21850,0.930664,-0.280273,-0.18457,0
21870,0.946289,-0.300293,-0.189941,0
21890,0.947266,-0.289551,-0.199219,0
21910,0.925293,-0.289062,-0.240234,0
21930,0.989258,-0.304199,-0.231445,0
21950,0.966309,-0.302246,-0.187988,0
21970,0.905273,-0.312012,-0.188965,0
21990,0.867188,-0.27832,-0.178711,0
22010,0.898926,-0.29541,-0.202148,0
22030,0.918945,-0.302246,-0.216309,0
22050,0.910645,-0.31543,-0.187012,0
22070,0.893066,-0.333008,-0.194336,0
22090,0.882812,-0.331055,-0.198242,0
22110,0.875488,-0.342285,-0.208008,0
22130,0.885254,-0.333984,-0.221191,0
22150,0.903809,-0.317383,-0.225098,0
22170,0.949707,-0.3125,-0.208984,0
22190,0.91748,-0.321777,-0.179688,0
22210,0.935547,-0.303223,-0.210449,0
22230,0.891113,-0.312012,-0.222168,0
22250,0.876953,-0.29541,-0.211426,0
22270,0.894531,-0.301758,-0.205078,0
22290,0.893066,-0.304688,-0.189453,0
22310,0.902344,-0.298828,-0.197266,0
22330,0.883301,-0.298828,-0.203613,0
22350,0.89209,-0.289062,-0.194824,0
22370,0.893555,-0.273438,-0.186035,0
22390,0.916992,-0.290527,-0.194824,0
22410,0.899414,-0.271973,-0.178223,0
22430,0.916992,-0.275879,-0.201172,0
22450,0.929688,-0.272461,-0.219727,0
22470,0.952637,-0.258789,-0.218262,0
22490,0.990723,-0.267578,-0.217773,0
22510,0.998535,-0.26416,-0.213379,0
22530,0.948242,-0.275879,-0.23877,0
22550,0.919922,-0.271484,-0.233398,0
22570,0.91748,-0.284668,-0.23877,0
22590,0.898438,-0.305176,-0.242676,0
22610,0.902832,-0.291016,-0.241211,0
22630,0.893555,-0.308105,-0.191406,0
22650,0.894043,-0.302734,-0.160645,0
22670,0.875488,-0.286621,-0.214355,0
22690,0.912598,-0.284668,-0.217285,0
22710,0.960938,-0.299805,-0.189453,0
22730,0.968262,-0.332031,-0.193359,0
22750,0.895996,-0.351074,-0.237305,0
22770,0.888672,-0.345703,-0.283203,0
22790,0.944336,-0.370605,-0.276367,0
22810,1.04248,-0.419434,-0.270508,0
22820,1.06396,-0.433105,-0.242188,0
22840,0.897949,-0.383789,-0.219727,0
22860,0.819336,-0.367188,-0.227539,0
22880,0.844238,-0.359375,-0.229004,0
22900,0.873047,-0.365723,-0.186523,0
22920,0.820801,-0.347168,-0.142578,0
22940,0.793457,-0.317383,-0.134766,0
22960,0.77832,-0.297363,-0.131836,0
22980,0.821777,-0.311035,-0.14502,0
23000,0.86377,-0.317871,-0.172852,0
23020,0.878418,-0.3125,-0.172852,0
23040,0.898438,-0.319824,-0.179688,0
23060,0.922852,-0.324707,-0.189453,0
23080,0.904297,-0.312988,-0.202637,0
23100,0.914551,-0.313965,-0.22168,0
23120,0.911621,-0.325684,-0.242188,0
23140,0.907227,-0.317383,-0.226562,0
23160,0.932129,-0.308105,-0.232422,0
23180,0.955566,-0.309082,-0.233887,0
23200,0.995117,-0.310059,-0.239746,0
23220,0.924316,-0.308105,-0.241699,0
23240,0.905762,-0.322266,-0.219727,0
23260,0.923828,-0.313477,-0.208984,0
23280,0.938965,-0.296387,-0.208008,0
23300,0.942871,-0.29834,-0.197754,0
23320,0.944824,-0.29541,-0.194824,0
23340,0.942871,-0.311035,-0.225098,0
23360,0.905762,-0.297363,-0.210938,0
23380,0.878906,-0.299805,-0.20459,0
23400,0.925781,-0.32373,-0.203613,0
23420,0.942871,-0.330078,-0.201172,0
23440,0.919922,-0.330078,-0.200195,0
23460,0.888672,-0.294922,-0.187012,0
23470,0.885742,-0.28125,-0.174805,0
23490,0.900391,-0.30957,-0.166992,0
23510,0.895508,-0.32959,-0.183105,0
23530,0.949219,-0.356934,-0.193359,0
23550,0.930664,-0.387695,-0.187012,0
23570,0.824219,-0.34082,-0.150879,0
23590,0.848145,-0.374023,-0.187988,0
23610,0.896973,-0.38916,-0.191895,0
23630,0.9375,-0.369629,-0.184082,0
23650,0.894043,-0.371582,-0.178223,0
23670,0.872559,-0.358887,-0.174316,0
23690,0.907227,-0.331055,-0.155762,0
23710,0.928223,-0.326172,-0.151855,0
23730,0.936035,-0.305664,-0.154785,0
23750,0.916992,-0.30127,-0.16748,0
23770,0.913086,-0.303711,-0.183105,0
23790,0.910645,-0.316895,-0.173828,0
23810,0.887695,-0.321777,-0.156738,0
23830,0.889648,-0.330078,-0.165527,0
23850,0.87207,-0.321777,-0.149902,0
23870,0.87793,-0.339355,-0.150391,0
23890,0.899414,-0.328125,-0.148438,0
23910,0.930664,-0.319824,-0.144531,0
23930,0.939941,-0.318359,-0.155273,0
23950,0.939453,-0.313477,-0.164062,0
23970,0.937012,-0.307129,-0.168945,0
23990,0.94043,-0.30957,-0.177734,0
24010,0.952637,-0.299316,-0.182617,0
24030,0.942383,-0.289062,-0.180176,0
24050,0.953613,-0.279297,-0.171387,0
24070,0.938477,-0.284668,-0.177734,0
24090,0.90918,-0.298828,-0.186035,0
24110,0.884277,-0.319824,-0.180664,0
24130,0.881348,-0.323242,-0.185547,0
24150,0.894043,-0.318848,-0.18457,0
24170,0.908203,-0.320312,-0.179688,0
24190,0.90918,-0.322266,-0.164551,0
24210,0.917969,-0.330566,-0.178223,0
24230,0.908203,-0.32666,-0.189941,0
24250,0.90918,-0.326172,-0.187988,0
24270,0.93457,-0.311523,-0.166992,0
24290,0.922852,-0.310059,-0.165527,0
24310,0.908203,-0.304688,-0.147949,0
24330,0.911621,-0.304688,-0.180176,0
24350,0.92041,-0.321777,-0.218262,0
24370,0.922363,-0.306641,-0.202148,0
24390,0.943848,-0.308594,-0.196289,0
24410,0.963379,-0.319824,-0.227051,0
24430,0.939941,-0.321289,-0.218262,0
24450,0.898438,-0.30957,-0.166016,0
24470,0.884766,-0.302246,-0.154297,0
24490,0.881348,-0.313965,-0.181152,0
24510,0.856934,-0.318848,-0.198242,0
24530,0.852539,-0.314453,-0.175781,0
24550,0.889648,-0.329102,-0.162598,0
24570,0.87793,-0.345703,-0.15918,0
24590,0.904297,-0.338379,-0.198242,0
24610,0.935547,-0.33252,-0.217773,0
24630,0.955566,-0.362793,-0.203613,0
24650,0.918457,-0.390625,-0.154785,0
24670,0.87207,-0.378906,-0.183594,0
24690,0.861816,-0.369629,-0.194824,0
24710,0.901367,-0.401855,-0.167969,0
24730,0.949219,-0.40918,-0.159668,0
24750,0.872559,-0.367676,-0.147461,0
24770,0.855469,-0.350586,-0.157715,0
24790,0.848145,-0.351562,-0.137695,0
24810,0.861328,-0.369629,-0.140137,0
24830,0.862793,-0.365234,-0.158203,0
24850,0.927734,-0.344727,-0.15625,0
24870,0.923828,-0.352051,-0.189453,0
24890,0.938477,-0.361328,-0.208496,0
24910,0.946289,-0.390137,-0.200684,0
24930,0.926758,-0.380859,-0.194824,0
24950,0.90332,-0.376465,-0.194824,0
24970,0.88623,-0.368164,-0.190918,0
24990,0.871094,-0.368652,-0.210938,0
25010,0.874512,-0.362793,-0.186523,0
25030,0.885254,-0.356934,-0.169434,0
25050,0.898438,-0.334961,-0.189453,0
25070,0.951172,-0.348145,-0.174805,0
25090,0.927734,-0.356445,-0.15332,0
25110,0.87207,-0.366699,-0.190918,0
25130,0.889648,-0.373535,-0.191406,0
25150,0.963867,-0.418945,-0.185547,0
25170,0.87793,-0.39502,-0.170898,0
25190,0.812012,-0.397949,-0.180664,0
25210,0.841309,-0.414551,-0.185547,0
25230,0.866699,-0.398926,-0.162598,0
25250,0.890625,-0.398926,-0.165527,0
25270,0.868164,-0.372559,-0.151855,0
25290,0.82959,-0.364746,-0.158203,0
25310,0.840332,-0.366699,-0.19043,0
25330,0.883301,-0.36377,-0.194824,0
25350,0.917969,-0.346191,-0.195312,0
25370,0.92041,-0.336914,-0.191406,0
25380,0.911133,-0.323242,-0.195312,0
25400,0.92627,-0.322754,-0.207031,0
25420,0.925293,-0.328613,-0.208984,0
25440,0.934082,-0.321289,-0.203125,0
25460,0.916504,-0.324707,-0.192871,0
25480,0.893066,-0.325684,-0.18457,0
25500,0.895996,-0.34375,-0.202148,0
25520,0.897949,-0.334961,-0.182617,0
25540,0.920898,-0.345703,-0.189453,0
25560,0.918945,-0.349121,-0.191895,0
25580,0.929199,-0.355469,-0.208008,0
25600,0.950684,-0.358398,-0.210938,0
25620,0.93457,-0.356445,-0.229004,0
25640,0.886719,-0.334961,-0.203613,0
25660,0.870117,-0.34082,-0.189941,0
25680,0.876465,-0.32959,-0.181152,0
25700,0.885742,-0.334473,-0.183594,0
25720,0.89502,-0.323242,-0.174805,0
25740,0.916504,-0.322754,-0.175781,0
25760,0.932129,-0.325195,-0.188477,0
25780,0.936035,-0.321289,-0.183105,0
25800,0.944336,-0.3125,-0.173828,0
25820,0.934082,-0.316406,-0.210938,0
25840,0.905762,-0.312988,-0.203613,0
25860,0.881836,-0.328125,-0.178711,0
25880,0.868652,-0.349609,-0.174805,0
25900,0.872559,-0.31543,-0.199219,0
25920,0.876465,-0.310547,-0.231445,0
25940,0.869141,-0.340332,-0.21582,0
25960,0.873535,-0.337402,-0.194336,0
25980,0.894043,-0.330566,-0.199707,0
26000,0.937012,-0.303223,-0.213867,0
26020,0.96582,-0.297852,-0.202637,0
26040,0.922363,-0.313965,-0.213867,0
26060,0.879395,-0.322266,-0.229004,0
26080,0.900391,-0.322266,-0.245117,0
26100,0.932617,-0.323242,-0.233398,0
26120,0.948242,-0.338867,-0.213867,0
26140,0.939941,-0.317871,-0.243164,0
26160,0.911133,-0.309082,-0.246094,0
26180,0.991699,-0.333008,-0.26416,0
26200,0.996582,-0.351562,-0.222168,0
26220,0.981445,-0.375,-0.243164,0
26240,0.93457,-0.330078,-0.230957,0
26260,0.983887,-0.342773,-0.251953,0
26280,0.921875,-0.356445,-0.213867,0
26300,0.797363,-0.350098,-0.18457,0
26320,0.688477,-0.327148,-0.148438,0
26340,0.770996,-0.312988,-0.146484,0
26360,0.828125,-0.32373,-0.154785,0
26380,0.838379,-0.306641,-0.165039,0
26400,0.841309,-0.318359,-0.177246,0
26420,0.869629,-0.319824,-0.198242,0
26440,0.90332,-0.322754,-0.225098,0
26460,0.939453,-0.317871,-0.243652,0
26480,0.956055,-0.313477,-0.249512,0
26500,0.96582,-0.30127,-0.247559,0
26520,0.995117,-0.293457,-0.244141,0
26540,1.0127,-0.298828,-0.250977,0
26560,0.936523,-0.310059,-0.234375,0
26580,0.859375,-0.310547,-0.202148,0
26600,0.844238,-0.317383,-0.203613,0
26620,0.874512,-0.320801,-0.19043,0
26640,0.888184,-0.328613,-0.171875,0
26660,0.900391,-0.339844,-0.177734,0
26680,0.913086,-0.344238,-0.187012,0
26700,0.904785,-0.351562,-0.198242,0
26720,0.913086,-0.349609,-0.206543,0
26740,0.901367,-0.350098,-0.192383,0
26760,0.907715,-0.344727,-0.17627,0
26780,0.907715,-0.319336,-0.184082,0
26800,0.901367,-0.321289,-0.197266,0
26820,0.926758,-0.313965,-0.19873,0
26840,0.937012,-0.321289,-0.181152,0
26860,0.916504,-0.316406,-0.176758,0
26880,0.91748,-0.308594,-0.183594,0
26900,0.913086,-0.316406,-0.187012,0
26920,0.917969,-0.326172,-0.1875,0
26940,0.920898,-0.333496,-0.180664,0
26960,0.910645,-0.335938,-0.171387,0
26980,0.897949,-0.338379,-0.193848,0
27000,0.899902,-0.333008,-0.193359,0
27020,0.905762,-0.335938,-0.1875,0
27040,0.910645,-0.335449,-0.192383,0
27060,0.918457,-0.330078,-0.19043,0
27080,0.92627,-0.32959,-0.187012,0
27100,0.931152,-0.333496,-0.196289,0
27120,0.910156,-0.325195,-0.19873,0
27140,0.900391,-0.32666,-0.193359,0
27160,0.896484,-0.324219,-0.194824,0
27180,0.895508,-0.320312,-0.195312,0
27200,0.901367,-0.324219,-0.177734,0
27220,0.902344,-0.322266,-0.189453,0
27240,0.891602,-0.32666,-0.188965,0
27260,0.899902,-0.34082,-0.203613,0
27280,0.910645,-0.329102,-0.189941,0
27300,0.901367,-0.32666,-0.189453,0
27320,0.900391,-0.327637,-0.181641,0
27340,0.896973,-0.335938,-0.188965,0
27360,0.881348,-0.328125,-0.186035,0
27380,0.887695,-0.328125,-0.182129,0
27400,0.901367,-0.320312,-0.180176,0
27420,0.892578,-0.313965,-0.183594,0
27440,0.897461,-0.322754,-0.173828,0
27460,0.869141,-0.315918,-0.164062,0
27480,0.827637,-0.310547,-0.15625,0
27500,0.753906,-0.3125,-0.124023,0
27520,0.664551,-0.299316,-0.0791016,0
27540,0.583496,-0.291016,-0.0258789,0
27560,0.508301,-0.298828,0.00341797,0
27580,0.464844,-0.318359,0.0146484,0
27600,0.474609,-0.303711,0.0595703,0
27620,0.505859,-0.308594,0.0932617,0
27640,0.564453,-0.336914,0.164551,0
27660,0.728027,-0.375488,0.32666,0
27680,0.847168,-0.479004,0.390625,0
27700,0.85791,-0.585938,0.341309,0
27720,0.748535,-0.646484,0.262207,0
27740,0.746094,-0.686035,0.409668,0
27760,0.697754,-0.699707,0.709961,0
27780,0.730957,-0.813477,0.746094,0
27800,0.628418,-0.803223,0.671875,0
27800,0.472168,-0.741699,0.67041,0
27820,0.316895,-0.739258,0.868164,0
27840,0.117676,-0.672852,0.92334,0
27860,-0.0566406,-0.712891,0.842285,0
27900,-0.0454102,-0.806152,0.979004,0
27920,0.0136719,-0.683594,0.761719,0
27940,-0.208496,-0.592285,0.601074,0
27950,-0.516113,-0.744141,0.789551,0
27970,-0.852539,-0.71582,1.2583,0
27990,-0.614746,-0.905762,0.864746,0
28010,-0.168945,-1.15039,0.224121,0
28030,-0.0854492,-1.03027,0.349121,0
28050,-0.230957,-0.836426,0.442871,0
28070,-0.365723,-0.594238,0.419922,0
28090,-0.438965,-0.591797,0.526855,0
28110,-0.38916,-0.620117,0.706055,0
28130,-0.27832,-0.561523,0.777832,0
28150,-0.200195,-0.580078,0.750977,0
28170,-0.204102,-0.635254,0.664551,0
28190,-0.229492,-0.668457,0.620117,0
28210,-0.25293,-0.679199,0.607422,0
28230,-0.269531,-0.662109,0.621094,0
28250,-0.276855,-0.643555,0.626465,0
28270,-0.280273,-0.653809,0.62793,0
28290,-0.270996,-0.674316,0.625,0
28310,-0.267578,-0.680664,0.623535,0
28330,-0.270996,-0.658691,0.627441,0
28350,-0.299805,-0.625,0.64209,0
28370,-0.313965,-0.623047,0.65332,0
28390,-0.299805,-0.629883,0.65332,0
28400,-0.28125,-0.64209,0.644043,0
28420,-0.282715,-0.633789,0.635254,0
28440,-0.304199,-0.633301,0.664062,0
28460,-0.353516,-0.595215,0.597168,0
28480,-0.444824,-0.600098,0.624512,0
28500,-0.125977,-0.522949,0.47168,0
28520,-0.625,-0.746582,0.718262,0
28550,-0.0864258,-0.688965,0.953613,0
28570,0.271484,-0.570801,0.75293,0
28590,0.33252,-0.524414,0.58252,0
28610,0.38623,-0.52002,0.570312,0
28630,0.475098,-0.545898,0.756348,0
28650,0.234863,-0.679688,1.04736,0
28670,-0.772461,-0.830078,0.93457,0
28690,-0.893066,-0.636719,0.249023,0
28710,0.648438,-0.512207,0.631348,0
28730,-0.959961,-0.827148,0.723633,0
28750,0.468262,-0.468262,0.646484,0
28770,-1.12109,-0.708008,0.332031,0
28790,-0.255859,-0.792969,0.946777,0
28810,0.509766,-0.543945,0.95752,0
28830,0.200684,-0.438477,0.617188,0
28850,-0.297852,-0.48291,0.376465,0
28870,-0.54541,-0.524902,0.302734,0
28890,-0.533691,-0.529785,0.296387,0
28910,-0.274902,-0.475586,0.381348,0
28930,0.15332,-0.421387,0.672852,0
28950,0.421387,-0.497559,1.07275,0
28970,-0.0537109,-0.743652,1.0376,0
28990,-0.912109,-0.871582,0.327148,0
29010,-0.546875,-0.588379,0.169434,0
29030,0.414062,-0.481445,1.1626,0
29050,-0.641113,-0.89502,0.580078,0
29060,-0.387695,-0.577148,0.212402,0
29090,0.105469,-0.671387,1.25537,0
29110,-0.754395,-0.748047,-0.104004,0
29120,0.150879,-0.632324,1.34814,0
29140,-0.516602,-0.649902,-0.00244141,0
29160,-0.405762,-0.795898,0.93457,0
29180,0.233887,-0.40332,0.930664,0
29200,-0.88916,-0.837402,-0.1875,0
29220,-0.274902,-0.730957,1.13135,0
29240,0.361328,-0.398926,1.20752,0
29260,-0.519531,-0.6875,-0.131836,0
29280,-0.807129,-0.898438,0.295898,0
29300,0.117676,-0.571289,1.48486,0
29320,0.187012,-0.437988,0.790527,0
29340,-0.771973,-0.805664,-0.26709,0
29360,-0.651855,-0.855469,0.647461,0
29380,0.29248,-0.469727,1.49512,0
29410,-0.0986328,-0.519531,0.337402,0
29440,-0.0708008,-0.466797,0.389648,0
29460,-0.182617,-0.713867,0.685547,0
29480,-0.294434,-0.642578,0.641113,0
29500,-0.305176,-0.652344,0.632812,0
29520,-0.291992,-0.654785,0.634277,0
29540,-0.253418,-0.65625,0.639648,0
29560,-0.302246,-0.64209,0.624023,0
29580,0.279297,-0.660645,1.11621,0
29600,0.0458984,-0.643555,1.24756,0
29620,-0.03125,-0.498047,0.428223,0
29640,-0.853027,-0.858887,-0.245605,0
29660,-0.677734,-0.849609,0.624023,0
29680,0.0878906,-0.561523,1.51855,0
29700,0.306152,-0.420898,1.08447,0
29720,-0.32373,-0.618652,0.00732422,0
29740,-0.914062,-0.885254,-0.187012,0
29760,-0.429688,-0.796875,0.910645,0
29780,-0.533691,-0.649902,0.539062,0
29800,-0.253418,-0.683594,0.643066,0
29820,-0.275391,-0.65625,0.632324,0
29840,-0.27832,-0.651855,0.629395,0
29850,-0.277832,-0.658691,0.632324,0
29870,-0.277832,-0.656738,0.627441,0
29890,-0.279785,-0.651855,0.637207,0
29910,-0.280273,-0.650391,0.637695,0
29930,-0.273926,-0.65332,0.631348,0
29950,-0.268555,-0.654297,0.633789,0
29970,-0.276855,-0.654297,0.632812,0
29990,-0.273438,-0.649414,0.630859,0
30010,-0.276855,-0.652344,0.635742,0
30030,-0.280273,-0.65332,0.637695,0
30050,-0.276367,-0.654297,0.633789,0
30070,-0.27832,-0.651367,0.628906,0
30090,-0.281738,-0.658203,0.628418,0
30110,-0.277832,-0.650879,0.624023,0
30130,-0.28125,-0.651367,0.632324,0
30150,-0.283203,-0.650391,0.634766,0
30170,-0.28125,-0.653809,0.632324,0
30190,-0.279297,-0.651367,0.631348,0
30210,-0.276855,-0.657227,0.632812,0
30230,-0.278809,-0.647949,0.631836,0
30250,-0.280273,-0.651855,0.634277,0
30270,-0.280273,-0.65332,0.643066,0
30290,-0.277344,-0.646484,0.635254,0
30310,-0.272949,-0.651367,0.635254,0
30330,-0.269043,-0.652832,0.634277,0
30350,-0.272949,-0.648438,0.63623,0
30370,-0.276367,-0.65332,0.632812,0
30390,-0.28125,-0.648926,0.638672,0
30410,-0.284668,-0.650391,0.632324,0
30430,-0.285645,-0.650879,0.630371,0
30450,-0.283691,-0.652832,0.626465,0
30470,-0.28125,-0.646484,0.631836,0
30490,-0.275879,-0.648438,0.637695,0
30510,-0.276855,-0.648438,0.641602,0
30530,-0.273438,-0.651367,0.632324,0
30550,-0.274414,-0.655762,0.63916,0
30570,-0.273926,-0.648926,0.63916,0
30590,-0.278809,-0.651367,0.632324,0
30610,-0.274902,-0.649414,0.635742,0
30630,-0.277344,-0.64502,0.633789,0
30650,-0.273438,-0.646484,0.639648,0
30670,-0.274414,-0.649414,0.640625,0
30690,-0.272461,-0.649902,0.637207,0
30710,-0.272461,-0.651855,0.638672,0
30730,-0.273926,-0.648926,0.640137,0
30750,-0.272949,-0.654785,0.643555,0
30770,-0.271484,-0.652344,0.640625,0
30790,-0.271973,-0.648926,0.643555,0
30810,-0.276367,-0.641602,0.641602,0
30830,-0.273438,-0.646484,0.641602,0
30850,-0.273438,-0.645996,0.640137,0
30870,-0.272461,-0.63916,0.645996,0
30890,-0.268066,-0.645996,0.637695,0
30910,-0.26416,-0.64502,0.648926,0
30930,-0.26416,-0.643555,0.64502,0
30950,-0.26709,-0.645996,0.644043,0
30970,-0.269531,-0.644043,0.643066,0
30990,-0.261719,-0.636719,0.645996,0
31010,-0.266113,-0.639648,0.648438,0
31030,-0.266602,-0.635254,0.649414,0
31050,-0.272461,-0.637695,0.650879,0
31070,-0.27002,-0.646973,0.645996,0
31090,-0.269531,-0.640625,0.649902,0
31110,-0.264648,-0.637695,0.643555,0
31130,-0.263184,-0.641113,0.651855,0
31150,-0.271484,-0.639648,0.654297,0
31170,-0.265137,-0.641113,0.645996,0
31190,-0.266113,-0.640137,0.648438,0
31210,-0.262695,-0.634766,0.652832,0
31230,-0.263672,-0.631836,0.652344,0
31250,-0.262695,-0.637695,0.64502,0
31270,-0.264648,-0.634766,0.650879,0
31290,-0.265137,-0.635742,0.650391,0
31310,-0.263672,-0.640137,0.651367,0
31330,-0.260742,-0.634766,0.653809,0
31350,-0.261719,-0.637207,0.654785,0
31370,-0.260742,-0.640625,0.650879,0
31390,-0.266113,-0.640137,0.648438,0
31410,-0.265137,-0.638184,0.654297,0
31430,-0.261719,-0.642578,0.644043,0
31450,-0.26123,-0.635254,0.647461,0
31470,-0.263672,-0.640625,0.650879,0
31490,-0.262207,-0.633789,0.645508,0
31510,-0.258301,-0.638184,0.650391,0
31530,-0.262207,-0.639648,0.646973,0
31550,-0.260254,-0.63916,0.654785,0
31570,-0.261719,-0.638672,0.650391,0
31590,-0.262695,-0.638184,0.652832,0
31610,-0.261719,-0.635254,0.65625,0
31630,-0.265625,-0.631836,0.647949,0
31650,-0.265625,-0.640137,0.651367,0
31670,-0.261719,-0.636719,0.648926,0
31690,-0.265137,-0.638184,0.655273,0
31710,-0.263184,-0.640137,0.647949,0
31730,-0.264648,-0.637207,0.650391,0
31750,-0.26123,-0.637207,0.648926,0
31770,-0.26416,-0.637207,0.652344,0
31790,-0.26416,-0.642578,0.645996,0
31810,-0.260254,-0.635742,0.652344,0
31830,-0.257324,-0.638184,0.649414,0
31850,-0.26416,-0.641113,0.660156,0
31870,-0.26709,-0.638672,0.652832,0
31890,-0.263672,-0.644043,0.649902,0
31910,-0.259277,-0.64209,0.646484,0
31930,-0.259766,-0.645508,0.649414,0
31950,-0.265625,-0.64209,0.654297,0
31970,-0.269043,-0.63916,0.644043,0
31990,-0.268066,-0.639648,0.645508,0
32010,-0.262695,-0.640137,0.649414,0
32030,-0.259766,-0.641113,0.651367,0
32050,-0.260254,-0.644531,0.649902,0
32070,-0.259766,-0.644043,0.649902,0
32090,-0.263672,-0.642578,0.643555,0
32110,-0.266113,-0.643555,0.645996,0
32130,-0.26709,-0.63623,0.651367,0
32150,-0.269043,-0.637695,0.64502,0
32170,-0.266602,-0.641602,0.646484,0
32190,-0.260742,-0.644043,0.648438,0
32210,-0.26416,-0.639648,0.645508,0
32230,-0.266113,-0.640137,0.651855,0
32250,-0.260254,-0.639648,0.647949,0
32270,-0.266113,-0.645508,0.651855,0
32290,-0.267578,-0.64502,0.649902,0
32310,-0.266602,-0.641113,0.648438,0
32330,-0.26123,-0.643066,0.648926,0
32350,-0.263672,-0.64502,0.648926,0
32370,-0.263672,-0.635254,0.643066,0
32390,-0.26416,-0.641113,0.646973,0
32410,-0.266113,-0.642578,0.646484,0
32430,-0.26416,-0.642578,0.647461,0
32450,-0.257812,-0.646484,0.650879,0
32470,-0.262695,-0.63916,0.654785,0
32490,-0.265625,-0.637695,0.646484,0
32510,-0.262207,-0.645996,0.647949,0
32530,-0.261719,-0.639648,0.646484,0
32550,-0.262695,-0.641113,0.641602,0
32570,-0.261719,-0.642578,0.651367,0
32590,-0.263672,-0.637695,0.649414,0
32610,-0.266113,-0.643066,0.652344,0
32630,-0.263672,-0.644531,0.650391,0
32650,-0.255859,-0.640137,0.648438,0
32670,-0.263184,-0.638184,0.650879,0
32690,-0.263184,-0.64502,0.644043,0
32710,-0.26416,-0.641602,0.647949,0
32730,-0.261719,-0.639648,0.646484,0
32750,-0.262695,-0.644043,0.650391,0
32770,-0.262695,-0.645996,0.646973,0
32790,-0.260254,-0.645508,0.647461,0
32810,-0.260254,-0.64502,0.650391,0
32830,-0.26416,-0.641602,0.637695,0
32850,-0.26123,-0.644043,0.650391,0
32870,-0.262695,-0.640625,0.653809,0
32890,-0.262207,-0.638672,0.649902,0
32910,-0.26123,-0.641113,0.645996,0
32930,-0.259277,-0.64209,0.645996,0
32950,-0.26123,-0.642578,0.644043,0
32970,-0.263672,-0.643066,0.647949,0
32990,-0.262695,-0.644531,0.647949,0
33010,-0.263184,-0.641602,0.648926,0
33030,-0.262695,-0.642578,0.646973,0
33050,-0.265137,-0.644043,0.651855,0
33070,-0.26123,-0.643066,0.648438,0
33080,-0.263184,-0.643066,0.64502,0
33100,-0.262207,-0.643066,0.646973,0
33120,-0.256836,-0.641113,0.651367,0
33140,-0.265625,-0.646484,0.646973,0
33160,-0.262695,-0.63623,0.649902,0
33180,-0.262695,-0.63916,0.650879,0
33200,-0.268066,-0.641113,0.64502,0
33220,-0.265137,-0.642578,0.646973,0
33240,-0.262695,-0.639648,0.649902,0
33260,-0.261719,-0.64502,0.64209,0
33280,-0.259766,-0.640625,0.652344,0
33300,-0.265137,-0.643555,0.651855,0
33320,-0.26416,-0.642578,0.64502,0
33340,-0.263184,-0.64209,0.644531,0
33360,-0.262207,-0.638672,0.649414,0
33380,-0.27002,-0.64209,0.650391,0
33400,-0.265137,-0.638672,0.649414,0
33420,-0.263672,-0.638184,0.649902,0
33440,-0.263184,-0.638672,0.652832,0
33460,-0.259277,-0.638184,0.651367,0
33480,-0.261719,-0.642578,0.65918,0
33500,-0.260254,-0.641602,0.648926,0
33520,-0.260254,-0.642578,0.648438,0
33540,-0.266602,-0.642578,0.648926,0
33560,-0.264648,-0.63623,0.647461,0
33580,-0.265625,-0.640137,0.65332,0
33600,-0.264648,-0.638672,0.652344,0
33620,-0.262695,-0.635742,0.652832,0
33640,-0.26123,-0.63916,0.649414,0
33660,-0.265625,-0.639648,0.647949,0
33680,-0.263184,-0.640137,0.65332,0
33700,-0.26416,-0.63623,0.649414,0
33720,-0.262695,-0.640137,0.653809,0
33740,-0.259766,-0.636719,0.651855,0
33760,-0.263672,-0.638672,0.652832,0
33780,-0.26416,-0.635254,0.657715,0
33800,-0.262695,-0.640137,0.647949,0
33820,-0.262695,-0.634766,0.650879,0
33840,-0.268066,-0.64209,0.65625,0
33860,-0.26416,-0.636719,0.650391,0
33880,-0.263184,-0.638184,0.652344,0
33900,-0.265625,-0.640137,0.651367,0
33920,-0.265137,-0.634277,0.648438,0
33940,-0.265137,-0.635254,0.65332,0
33960,-0.26123,-0.632324,0.654297,0
33980,-0.262207,-0.634277,0.65625,0
34000,-0.26123,-0.643066,0.65332,0
34020,-0.26416,-0.64209,0.652344,0
34040,-0.257812,-0.636719,0.649414,0
34060,-0.26123,-0.636719,0.649902,0
34080,-0.265137,-0.640137,0.651367,0
34100,-0.265137,-0.633789,0.650879,0
34120,-0.266602,-0.633301,0.652344,0
34140,-0.26416,-0.634766,0.648926,0
34160,-0.261719,-0.633301,0.651855,0
34180,-0.263672,-0.634766,0.65332,0
34200,-0.261719,-0.63916,0.647949,0
34220,-0.258789,-0.635742,0.652832,0
34240,-0.266113,-0.63623,0.656738,0
34260,-0.263184,-0.641113,0.654785,0
34280,-0.26709,-0.638184,0.646973,0
34300,-0.269043,-0.636719,0.65332,0
34320,-0.26709,-0.631836,0.652832,0
34340,-0.262207,-0.636719,0.651367,0
34360,-0.26123,-0.630371,0.655762,0
34380,-0.260742,-0.634277,0.653809,0
34400,-0.26416,-0.638184,0.649414,0
34420,-0.26709,-0.63916,0.651367,0
34440,-0.260254,-0.631836,0.648926,0
34460,-0.268555,-0.638184,0.654785,0
34480,-0.262695,-0.638184,0.650391,0
34500,-0.266602,-0.640137,0.645508,0
34520,-0.262207,-0.637207,0.647461,0
34540,-0.27002,-0.638672,0.646484,0
34560,-0.264648,-0.635254,0.650879,0
34580,-0.266602,-0.636719,0.652344,0
34600,-0.268066,-0.637695,0.647461,0
34620,-0.266602,-0.634766,0.647461,0
34640,-0.268066,-0.635742,0.656738,0
34660,-0.268555,-0.643555,0.65332,0
34680,-0.269043,-0.633789,0.648926,0
34700,-0.263184,-0.637695,0.642578,0
34720,-0.267578,-0.635254,0.648926,0
34740,-0.26709,-0.63623,0.643555,0
34760,-0.26709,-0.63916,0.651855,0
34780,-0.266602,-0.63623,0.645996,0
34800,-0.263184,-0.643555,0.648926,0
34820,-0.263672,-0.638672,0.651855,0
34840,-0.263672,-0.637695,0.648438,0
34860,-0.264648,-0.640625,0.647461,0
34880,-0.265137,-0.639648,0.647461,0
34900,-0.267578,-0.638672,0.651367,0
34920,-0.268555,-0.640625,0.657715,0
34940,-0.265137,-0.640137,0.648438,0
34960,-0.265625,-0.63916,0.646484,0
34980,-0.26709,-0.640625,0.651855,0
34990,-0.26709,-0.640625,0.644531,0
35010,-0.265137,-0.642578,0.64502,0
35030,-0.263672,-0.641602,0.646973,0
35050,-0.266602,-0.64209,0.650879,0
35070,-0.263184,-0.635742,0.654785,0
35090,-0.262207,-0.63916,0.648926,0
35110,-0.265625,-0.637207,0.647949,0
35130,-0.261719,-0.63916,0.648438,0
35150,-0.265625,-0.644531,0.64502,0
35170,-0.26416,-0.638184,0.648438,0
35190,-0.26123,-0.640137,0.654785,0
35210,-0.26709,-0.641113,0.652344,0
35230,-0.265625,-0.63623,0.650879,0
35250,-0.268555,-0.638184,0.657715,0
35270,-0.263184,-0.64209,0.643555,0
35290,-0.261719,-0.63916,0.644531,0
35310,-0.259766,-0.644043,0.647461,0
35330,-0.264648,-0.642578,0.652832,0
35350,-0.263184,-0.638184,0.655273,0
35370,-0.26123,-0.638672,0.649902,0
35390,-0.26416,-0.64209,0.649902,0
35410,-0.265625,-0.630859,0.65332,0
35430,-0.26416,-0.638672,0.65625,0
35450,-0.268066,-0.639648,0.645508,0
35470,-0.26123,-0.637207,0.652344,0
35490,-0.262207,-0.63916,0.65332,0
35510,-0.265625,-0.638672,0.648438,0
35530,-0.260742,-0.640137,0.653809,0
35550,-0.261719,-0.64209,0.648926,0
35570,-0.260254,-0.643066,0.651367,0
35590,-0.258789,-0.637207,0.653809,0
35610,-0.26709,-0.637695,0.65332,0
35630,-0.266602,-0.640625,0.648926,0
35650,-0.260742,-0.639648,0.654785,0
35670,-0.264648,-0.63916,0.648438,0
35690,-0.262207,-0.642578,0.651855,0
35710,-0.264648,-0.638672,0.651855,0
35730,-0.265137,-0.643066,0.648438,0
35750,-0.262695,-0.636719,0.650879,0
35770,-0.263184,-0.635254,0.657227,0
35790,-0.261719,-0.639648,0.64502,0
35810,-0.259766,-0.63916,0.647461,0
35830,-0.254883,-0.637207,0.645996,0
35850,-0.26123,-0.64209,0.64502,0
35870,-0.26123,-0.640625,0.647949,0
35890,-0.258301,-0.637695,0.649414,0
35910,-0.260254,-0.644043,0.649902,0
35930,-0.260742,-0.636719,0.650879,0
35950,-0.261719,-0.639648,0.654785,0
35970,-0.26416,-0.640625,0.646484,0
35990,-0.26416,-0.634766,0.646484,0
36010,-0.258789,-0.64209,0.650391,0
36030,-0.257812,-0.640137,0.647949,0
36050,-0.262695,-0.641602,0.655762,0
36070,-0.257812,-0.64502,0.648926,0
36090,-0.259766,-0.638184,0.647461,0
36110,-0.261719,-0.634277,0.648438,0
36130,-0.260742,-0.63916,0.653809,0
36150,-0.260742,-0.643555,0.649902,0
36170,-0.260254,-0.64209,0.651367,0
36190,-0.258789,-0.641602,0.648438,0
36210,-0.256348,-0.641113,0.654297,0
36230,-0.258301,-0.637207,0.652832,0
36250,-0.26123,-0.639648,0.655762,0
36270,-0.255859,-0.641602,0.65625,0
36290,-0.256836,-0.643555,0.64502,0
36310,-0.263672,-0.640625,0.65332,0
36330,-0.263184,-0.635742,0.656738,0
36350,-0.258301,-0.641113,0.652832,0
36370,-0.255371,-0.639648,0.654297,0
36390,-0.260254,-0.63623,0.646973,0
36410,-0.263672,-0.635254,0.654785,0
36430,-0.261719,-0.64209,0.651367,0
36450,-0.256836,-0.639648,0.654785,0
36470,-0.259277,-0.637207,0.647949,0
36490,-0.264648,-0.634766,0.647949,0
36510,-0.26123,-0.634277,0.652344,0
36530,-0.258789,-0.638672,0.658691,0
36550,-0.261719,-0.640625,0.64209,0
36570,-0.258789,-0.64209,0.647949,0
36590,-0.260742,-0.641113,0.655762,0
36610,-0.259766,-0.638672,0.651855,0
36630,-0.261719,-0.634766,0.650879,0
36650,-0.260742,-0.637695,0.652344,0
36670,-0.264648,-0.64209,0.650879,0
36690,-0.260742,-0.639648,0.647949,0
36710,-0.259766,-0.636719,0.64502,0
36730,-0.258301,-0.637207,0.646484,0
36750,-0.260254,-0.634766,0.649902,0
36770,-0.26416,-0.64209,0.656738,0
36790,-0.259766,-0.638184,0.655273,0
36810,-0.255371,-0.639648,0.647461,0
36830,-0.259766,-0.636719,0.652832,0
36850,-0.259277,-0.63623,0.652832,0
36870,-0.262695,-0.634766,0.650391,0
36890,-0.260254,-0.643066,0.650391,0
36910,-0.258789,-0.634277,0.650879,0
36930,-0.257324,-0.640137,0.658691,0
36950,-0.258301,-0.641602,0.649902,0
36970,-0.26123,-0.646973,0.646973,0
36990,-0.259277,-0.637207,0.647949,0
37010,-0.255859,-0.644043,0.652344,0
37030,-0.263672,-0.636719,0.658203,0
37050,-0.26123,-0.637207,0.651855,0
37070,-0.259766,-0.640625,0.650879,0
37090,-0.260742,-0.637207,0.645996,0
37110,-0.256348,-0.640625,0.646973,0
37130,-0.259766,-0.633301,0.651855,0
37150,-0.259277,-0.638672,0.653809,0
37170,-0.261719,-0.641113,0.650391,0
37190,-0.259766,-0.640625,0.647461,0
37210,-0.260254,-0.640137,0.654297,0
37230,-0.26123,-0.635742,0.655273,0
37250,-0.258301,-0.637207,0.655273,0
37270,-0.254395,-0.640137,0.651855,0
37290,-0.260254,-0.637207,0.650391,0
37310,-0.262695,-0.638184,0.655273,0
37330,-0.260254,-0.635254,0.650391,0
37350,-0.260254,-0.636719,0.655762,0
37370,-0.258301,-0.641113,0.650879,0
37390,-0.258301,-0.638184,0.647949,0
37410,-0.261719,-0.638184,0.654297,0
37430,-0.258789,-0.640137,0.647949,0
37450,-0.260742,-0.632812,0.652832,0
37470,-0.255371,-0.643066,0.657715,0
37490,-0.258789,-0.637207,0.660645,0
37510,-0.258301,-0.637207,0.655762,0
37530,-0.257812,-0.639648,0.651367,0
37550,-0.254883,-0.634766,0.647461,0
37570,-0.260742,-0.633789,0.650879,0
37590,-0.258301,-0.634277,0.655762,0
37610,-0.263672,-0.634766,0.657715,0
37630,-0.255371,-0.636719,0.65625,0
37650,-0.259277,-0.637695,0.657227,0
37670,-0.256348,-0.63623,0.654297,0
37690,-0.259277,-0.634277,0.657227,0
37710,-0.256348,-0.633301,0.649414,0
37730,-0.257812,-0.633301,0.650391,0
37750,-0.263184,-0.632812,0.657227,0
37770,-0.267578,-0.634277,0.65332,0
37790,-0.260254,-0.635254,0.65918,0
37810,-0.256836,-0.629395,0.65625,0
37830,-0.258789,-0.629395,0.655762,0
37850,-0.256348,-0.637695,0.65625,0
37870,-0.261719,-0.633789,0.65625,0
37890,-0.260742,-0.630859,0.658203,0
37910,-0.259277,-0.633789,0.65332,0
37930,-0.258789,-0.632812,0.657715,0
37950,-0.260742,-0.631348,0.655273,0
37970,-0.259277,-0.630859,0.659668,0
37990,-0.257324,-0.634277,0.660156,0
38010,-0.254395,-0.632812,0.663086,0
38030,-0.255859,-0.630859,0.656738,0
38050,-0.260254,-0.636719,0.659668,0
38070,-0.256348,-0.633301,0.658203,0
38090,-0.257324,-0.630859,0.666016,0
38110,-0.259277,-0.633789,0.668457,0
38130,-0.259277,-0.633301,0.656738,0
38150,-0.256348,-0.629883,0.654785,0
38170,-0.258789,-0.62793,0.658691,0
38190,-0.261719,-0.626465,0.662109,0
38210,-0.257324,-0.634277,0.65918,0
38230,-0.255859,-0.633301,0.65625,0
38250,-0.25293,-0.629883,0.653809,0
38260,-0.257324,-0.630859,0.654785,0
38280,-0.258789,-0.630859,0.656738,0
38300,-0.257324,-0.626953,0.65625,0
38320,-0.257324,-0.629395,0.663086,0
38340,-0.256836,-0.636719,0.658203,0
38360,-0.253906,-0.633301,0.660156,0
38380,-0.256348,-0.631348,0.654785,0
38400,-0.257812,-0.633301,0.655273,0
38420,-0.258789,-0.629883,0.665039,0
38440,-0.25293,-0.631836,0.660156,0
38460,-0.258789,-0.633789,0.658691,0
38480,-0.254395,-0.633301,0.655762,0
38500,-0.259766,-0.631348,0.658691,0
38520,-0.254883,-0.633301,0.656738,0
38540,-0.257324,-0.629395,0.658691,0
38560,-0.255859,-0.635742,0.65332,0
38580,-0.251953,-0.63623,0.65918,0
38600,-0.254883,-0.632324,0.657715,0
38620,-0.255859,-0.637207,0.655273,0
38640,-0.255859,-0.634277,0.660156,0
38660,-0.257324,-0.633301,0.656738,0
38680,-0.255859,-0.630859,0.657715,0
38700,-0.254883,-0.631348,0.657715,0
38720,-0.256348,-0.634766,0.657227,0
38740,-0.257324,-0.636719,0.657715,0
38760,-0.256836,-0.628906,0.657715,0
38780,-0.260254,-0.631348,0.655762,0
38800,-0.255859,-0.628906,0.65625,0
38820,-0.253418,-0.630859,0.658691,0
38840,-0.25,-0.638184,0.655762,0
38860,-0.258789,-0.634277,0.656738,0
38880,-0.257812,-0.635742,0.657715,0
38900,-0.254883,-0.636719,0.65332,0
38920,-0.256348,-0.631836,0.654785,0
38940,-0.253906,-0.633789,0.665039,0
38960,-0.25293,-0.633789,0.65625,0
38980,-0.258301,-0.632324,0.652832,0
39000,-0.253906,-0.631836,0.65625,0
39020,-0.260254,-0.632324,0.655762,0
39040,-0.255859,-0.634277,0.652832,0
39060,-0.257324,-0.636719,0.653809,0
39080,-0.252441,-0.637207,0.65625,0
39100,-0.25293,-0.629395,0.65918,0
39120,-0.249023,-0.628906,0.654297,0
39140,-0.253418,-0.638672,0.658203,0
39160,-0.256348,-0.633301,0.657227,0
39180,-0.256348,-0.637207,0.655762,0
39200,-0.255859,-0.635742,0.655273,0
39220,-0.253906,-0.63623,0.654785,0
39240,-0.26123,-0.628418,0.649902,0
39260,-0.258789,-0.632324,0.657227,0
39280,-0.253418,-0.634766,0.660645,0
39300,-0.253906,-0.631836,0.668457,0
39320,-0.254883,-0.63623,0.659668,0
39340,-0.255371,-0.631836,0.662598,0
39360,-0.256836,-0.631836,0.660156,0
39380,-0.251953,-0.630859,0.65918,0
39400,-0.253418,-0.632812,0.661133,0
39420,-0.254883,-0.630859,0.658203,0
39440,-0.259766,-0.631348,0.657227,0
39460,-0.256348,-0.632324,0.661133,0
39480,-0.253418,-0.632812,0.658691,0
39500,-0.254883,-0.634766,0.661133,0
39520,-0.253906,-0.628418,0.657715,0
39540,-0.254883,-0.628906,0.65625,0
39560,-0.257324,-0.634277,0.660645,0
39580,-0.25293,-0.63623,0.664062,0
39600,-0.25293,-0.63623,0.659668,0
39620,-0.254395,-0.62793,0.65332,0
39640,-0.248535,-0.627441,0.659668,0
39660,-0.254883,-0.634277,0.665527,0
39680,-0.257812,-0.634766,0.663574,0
39700,-0.251953,-0.631348,0.660645,0
39720,-0.254883,-0.634766,0.657715,0
39740,-0.246094,-0.627441,0.65625,0
39760,-0.251953,-0.629395,0.666016,0
39780,-0.253906,-0.629883,0.65332,0
39800,-0.255859,-0.627441,0.658691,0
39820,-0.251953,-0.630371,0.658203,0
39840,-0.255371,-0.633789,0.662598,0
39860,-0.25293,-0.633301,0.663574,0
39880,-0.251465,-0.632812,0.657715,0
39900,-0.250977,-0.633789,0.655762,0
39920,-0.246582,-0.630371,0.661133,0
39940,-0.255371,-0.629883,0.654297,0
39960,-0.257324,-0.632324,0.658203,0
39980,-0.251953,-0.633301,0.662598,0
40000,-0.25,-0.634766,0.661621,0
40020,-0.250977,-0.633301,0.658203,0
40040,-0.252441,-0.632324,0.654297,0
40060,-0.255371,-0.629883,0.65918,0
40080,-0.254883,-0.629883,0.657227,0
40100,-0.250977,-0.631348,0.666504,0
40120,-0.250488,-0.629395,0.663574,0
40130,-0.252441,-0.629883,0.668945,0
40150,-0.249512,-0.630859,0.660156,0
40170,-0.254395,-0.637207,0.651367,0
40190,-0.255859,-0.634766,0.654297,0
40210,-0.250977,-0.635742,0.659668,0
40230,-0.250488,-0.638672,0.660156,0
40250,-0.25293,-0.638184,0.660156,0
40270,-0.251465,-0.633789,0.65918,0
40290,-0.25293,-0.637207,0.656738,0
40310,-0.253906,-0.630859,0.662109,0
40330,-0.251953,-0.630859,0.654785,0
40350,-0.256836,-0.633789,0.657227,0
40370,-0.254883,-0.635254,0.65625,0
40390,-0.25293,-0.632812,0.653809,0
40410,-0.254395,-0.632324,0.652832,0
40430,-0.253418,-0.631348,0.659668,0
40450,-0.256348,-0.630371,0.667969,0
40470,-0.254395,-0.635254,0.659668,0
40490,-0.25293,-0.637207,0.658691,0
40510,-0.250977,-0.630859,0.65625,0
40530,-0.254883,-0.635742,0.659668,0
40550,-0.256836,-0.630371,0.660645,0
40570,-0.258301,-0.631348,0.658691,0
40590,-0.257324,-0.626953,0.657715,0
40610,-0.250977,-0.628906,0.662598,0
40630,-0.251465,-0.632812,0.668457,0
40650,-0.254883,-0.635254,0.663086,0
40670,-0.250977,-0.631836,0.659668,0
40690,-0.253418,-0.635254,0.660645,0
40710,-0.256836,-0.633789,0.664551,0
40730,-0.254883,-0.629395,0.661621,0
40750,-0.255859,-0.632812,0.658691,0
40770,-0.256836,-0.628906,0.660156,0
40790,-0.251953,-0.630371,0.662598,0
40810,-0.253418,-0.630859,0.658691,0
40830,-0.255859,-0.633789,0.660156,0
40850,-0.256836,-0.629395,0.65332,0
40870,-0.252441,-0.631348,0.662109,0
40890,-0.257324,-0.630371,0.658691,0
40910,-0.251465,-0.631348,0.661133,0
40930,-0.257324,-0.630371,0.659668,0
40950,-0.255859,-0.628906,0.660645,0
40970,-0.254395,-0.628418,0.658691,0
40990,-0.254883,-0.629883,0.657715,0
41010,-0.255371,-0.631348,0.658691,0
41030,-0.255371,-0.630371,0.656738,0
41050,-0.255371,-0.632812,0.659668,0
41070,-0.255859,-0.62793,0.664551,0
41090,-0.256836,-0.628418,0.665527,0
41110,-0.256348,-0.632324,0.660156,0
41130,-0.253418,-0.632324,0.660156,0
41150,-0.254883,-0.628906,0.65625,0
41170,-0.253418,-0.628906,0.663086,0
41190,-0.254883,-0.62793,0.661621,0
41210,-0.256348,-0.630371,0.660156,0
41230,-0.261719,-0.635254,0.662109,0
41250,-0.250977,-0.632324,0.657715,0
41270,-0.250977,-0.623047,0.661133,0
41290,-0.253418,-0.626465,0.660645,0
41310,-0.254395,-0.627441,0.662598,0
41330,-0.254883,-0.633301,0.656738,0
41350,-0.254883,-0.632812,0.658203,0
41370,-0.250488,-0.629395,0.661133,0
41390,-0.255371,-0.630859,0.662109,0
41410,-0.253906,-0.635254,0.65625,0
41430,-0.253906,-0.62793,0.652832,0
41450,-0.254883,-0.632812,0.65625,0
41470,-0.251953,-0.631836,0.666016,0
41490,-0.252441,-0.62793,0.661621,0
41510,-0.25293,-0.626953,0.663086,0
41530,-0.25293,-0.629395,0.664062,0
41550,-0.249023,-0.628906,0.665039,0
41570,-0.25293,-0.629883,0.662109,0
41590,-0.254883,-0.634277,0.663574,0
41610,-0.25,-0.626953,0.663574,0
41630,-0.251953,-0.629883,0.663086,0
41650,-0.253418,-0.629395,0.660645,0
41670,-0.246094,-0.626465,0.661133,0
41690,-0.251953,-0.627441,0.660156,0
41710,-0.25,-0.631348,0.665039,0
41730,-0.252441,-0.623535,0.665527,0
41750,-0.253418,-0.631836,0.663574,0
41770,-0.254883,-0.629883,0.662598,0
41790,-0.253418,-0.628906,0.665039,0
41810,-0.25293,-0.634277,0.661133,0
41830,-0.251953,-0.627441,0.659668,0
41850,-0.24707,-0.62793,0.657715,0
41870,-0.251465,-0.632812,0.658691,0
41890,-0.251953,-0.630371,0.666016,0
41910,-0.24707,-0.629883,0.657715,0
41930,-0.249512,-0.635254,0.652832,0
41950,-0.249023,-0.618164,0.660156,0
41970,-0.247559,-0.625,0.667969,0
41990,-0.253418,-0.62793,0.669922,0
42010,-0.250977,-0.629883,0.662598,0
42030,-0.251465,-0.629883,0.660645,0
42050,-0.250977,-0.631348,0.664551,0
42070,-0.25293,-0.62793,0.668457,0
42090,-0.249023,-0.631836,0.666504,0
42110,-0.250488,-0.629395,0.665039,0
42130,-0.254883,-0.626953,0.664551,0
42150,-0.250977,-0.631836,0.664551,0
42170,-0.25,-0.629883,0.663574,0
42190,-0.246582,-0.628418,0.659668,0
42210,-0.251953,-0.62793,0.663086,0
42230,-0.25,-0.628418,0.670898,0
42250,-0.25,-0.624023,0.666016,0
42270,-0.25,-0.631836,0.663086,0
42290,-0.250488,-0.627441,0.661133,0
42310,-0.250977,-0.62793,0.666504,0
42330,-0.251953,-0.627441,0.662109,0
42350,-0.251465,-0.625488,0.666016,0
42370,-0.25,-0.623535,0.664062,0
42390,-0.249512,-0.626465,0.668945,0
42410,-0.249512,-0.625977,0.663086,0
42430,-0.249023,-0.627441,0.662598,0
42450,-0.253906,-0.624023,0.660156,0
42470,-0.250977,-0.629883,0.663574,0
42490,-0.246094,-0.629395,0.667969,0
42510,-0.251953,-0.632324,0.663574,0
42530,-0.246582,-0.626465,0.666504,0
42550,-0.250977,-0.626465,0.660156,0
42570,-0.251953,-0.625977,0.665527,0
42590,-0.250488,-0.625488,0.664551,0
42610,-0.250488,-0.630859,0.665039,0
42630,-0.251953,-0.630371,0.666992,0
42650,-0.251953,-0.630371,0.668945,0
42670,-0.249512,-0.629395,0.661133,0
42690,-0.250488,-0.626953,0.663086,0
42710,-0.247559,-0.621582,0.667969,0
42730,-0.245605,-0.623535,0.672363,0
42750,-0.25293,-0.62793,0.66748,0
42770,-0.246582,-0.62793,0.663086,0
42790,-0.249023,-0.632812,0.662109,0
42810,-0.246582,-0.630371,0.663574,0
42830,-0.252441,-0.626953,0.662109,0
42850,-0.250488,-0.632324,0.664551,0
42870,-0.251953,-0.62793,0.664062,0
42890,-0.244629,-0.628418,0.666992,0
42910,-0.25,-0.62793,0.666992,0
42930,-0.25,-0.630371,0.667969,0
42950,-0.249023,-0.626465,0.665039,0
42970,-0.251465,-0.628906,0.664062,0
42990,-0.249512,-0.624512,0.664062,0
43010,-0.248047,-0.621582,0.66748,0
43030,-0.253418,-0.625977,0.661621,0
43050,-0.251465,-0.626465,0.666016,0
43070,-0.249023,-0.622559,0.664551,0
43090,-0.24707,-0.627441,0.664551,0
43110,-0.248047,-0.628906,0.65918,0
43130,-0.24707,-0.630371,0.666016,0
43150,-0.248535,-0.630371,0.666504,0
43170,-0.248047,-0.625488,0.664551,0
43190,-0.246582,-0.625488,0.66748,0
43210,-0.253906,-0.628906,0.668457,0
43230,-0.249512,-0.626465,0.663574,0
43250,-0.250488,-0.629883,0.666992,0
43270,-0.248535,-0.62793,0.667969,0
43290,-0.248535,-0.625488,0.663574,0
43310,-0.253906,-0.628906,0.663086,0
43330,-0.247559,-0.629883,0.667969,0
43350,-0.251465,-0.62207,0.668945,0
43370,-0.24707,-0.625977,0.667969,0
43390,-0.25293,-0.628418,0.665039,0
43410,-0.248047,-0.62207,0.665527,0
43430,-0.248047,-0.62793,0.667969,0
43440,-0.251953,-0.631348,0.667969,0
43460,-0.250488,-0.626953,0.663574,0
43480,-0.248535,-0.623535,0.664062,0
43500,-0.251953,-0.629883,0.665527,0
43520,-0.252441,-0.621582,0.666016,0
43540,-0.247559,-0.628906,0.665039,0
43560,-0.246094,-0.625,0.666992,0
43580,-0.250488,-0.623047,0.665527,0
43600,-0.254395,-0.626465,0.66748,0
43620,-0.254395,-0.627441,0.664062,0
43640,-0.250488,-0.628418,0.664062,0
43660,-0.245605,-0.62793,0.658691,0
43680,-0.245117,-0.625,0.668945,0
43700,-0.249023,-0.62207,0.666504,0
43720,-0.253418,-0.628906,0.664062,0
43740,-0.253418,-0.62793,0.658203,0
43760,-0.248535,-0.624512,0.664062,0
43780,-0.253906,-0.630371,0.667969,0
43800,-0.250488,-0.62793,0.671875,0
43820,-0.251953,-0.623047,0.665039,0
43840,-0.253906,-0.625488,0.668457,0
43860,-0.249512,-0.623047,0.658203,0
43880,-0.25293,-0.622559,0.665039,0
43900,-0.249512,-0.630859,0.67041,0
43920,-0.249023,-0.625977,0.666016,0
43940,-0.25293,-0.626465,0.663086,0
43960,-0.253418,-0.622559,0.66748,0
43980,-0.249023,-0.623047,0.660156,0
44000,-0.25,-0.621582,0.667969,0
44020,-0.254395,-0.626953,0.665039,0
44040,-0.251953,-0.621094,0.661133,0
44060,-0.252441,-0.626465,0.669922,0
44080,-0.253906,-0.626953,0.666016,0
44100,-0.250488,-0.62207,0.663574,0
44120,-0.250977,-0.624023,0.658691,0
44140,-0.25293,-0.628418,0.661133,0
44160,-0.25,-0.622559,0.66748,0
44180,-0.251465,-0.628418,0.670898,0
44200,-0.250977,-0.628418,0.662598,0
44220,-0.253906,-0.62207,0.664062,0
44240,-0.251465,-0.624023,0.666504,0
44260,-0.250977,-0.62793,0.672363,0
44280,-0.251953,-0.626465,0.663086,0
44300,-0.250488,-0.628418,0.666504,0
44320,-0.25,-0.627441,0.663086,0
44340,-0.248535,-0.620605,0.662598,0
44360,-0.250488,-0.629395,0.668945,0
44380,-0.252441,-0.625488,0.665527,0
44400,-0.251953,-0.62793,0.666504,0
44420,-0.249023,-0.627441,0.666016,0
44440,-0.248535,-0.623535,0.662598,0
44460,-0.249023,-0.624023,0.664062,0
44480,-0.248535,-0.628418,0.661133,0
44500,-0.250977,-0.623535,0.67041,0
44520,-0.255859,-0.619629,0.665527,0
44540,-0.252441,-0.62793,0.666992,0
44560,-0.246094,-0.624023,0.66748,0
44580,-0.248535,-0.626953,0.666016,0
44600,-0.248535,-0.626465,0.661621,0
44620,-0.24707,-0.628906,0.665527,0
44640,-0.251953,-0.630859,0.663086,0
44660,-0.251465,-0.631348,0.663574,0
44680,-0.249023,-0.622559,0.664062,0
44700,-0.25,-0.628906,0.663086,0
44720,-0.249023,-0.626465,0.664551,0
44740,-0.24707,-0.624512,0.666504,0
44760,-0.25,-0.632324,0.662109,0
44780,-0.249512,-0.631348,0.662109,0
44800,-0.251465,-0.626953,0.65918,0
44820,-0.250488,-0.626465,0.666504,0
44840,-0.249023,-0.631348,0.658203,0
44860,-0.250977,-0.627441,0.658691,0
44880,-0.252441,-0.624512,0.660645,0
44900,-0.253418,-0.627441,0.664551,0
44920,-0.252441,-0.624512,0.658691,0
44940,-0.249023,-0.630859,0.666504,0
44960,-0.253418,-0.625488,0.662109,0
44980,-0.247559,-0.624512,0.663086,0
45000,-0.250977,-0.62793,0.674805,0
45020,-0.249023,-0.628418,0.67041,0
45040,-0.250488,-0.625977,0.666016,0
45060,-0.250977,-0.633301,0.665039,0
45080,-0.248047,-0.628418,0.663086,0
45100,-0.251465,-0.627441,0.666504,0
45120,-0.254883,-0.625977,0.662109,0
45140,-0.255371,-0.623535,0.658691,0
45160,-0.250977,-0.624023,0.666016,0
45180,-0.246094,-0.631836,0.665039,0
45200,-0.248535,-0.623535,0.666992,0
45220,-0.247559,-0.625488,0.669922,0
45240,-0.245605,-0.62793,0.663574,0
45260,-0.249023,-0.625488,0.65918,0
45280,-0.254883,-0.620117,0.670898,0
45300,-0.251953,-0.624023,0.663574,0
45320,-0.252441,-0.626465,0.666504,0
45330,-0.246094,-0.627441,0.663574,0
45350,-0.249512,-0.630859,0.666504,0
45370,-0.24707,-0.625,0.666992,0
45390,-0.252441,-0.628906,0.666992,0
45410,-0.250977,-0.625977,0.664551,0
45430,-0.248047,-0.623535,0.663574,0
45450,-0.254395,-0.626465,0.663574,0
45470,-0.24707,-0.62793,0.665527,0
45490,-0.250977,-0.625,0.664062,0
45510,-0.249023,-0.628418,0.66748,0
45530,-0.249023,-0.62793,0.667969,0
45550,-0.248047,-0.625488,0.672363,0
45570,-0.248535,-0.632324,0.665527,0
45590,-0.24707,-0.630859,0.671387,0
45610,-0.244141,-0.630371,0.675781,0
45630,-0.24707,-0.630859,0.672363,0
45650,-0.25293,-0.641113,0.667969,0
45670,-0.248535,-0.655762,0.651367,0
45690,-0.246582,-0.661621,0.663086,0
45710,-0.256348,-0.638672,0.660645,0
45730,-0.253906,-0.642578,0.65332,0
45750,-0.262695,-0.649902,0.647461,0
45770,-0.276855,-0.642578,0.657227,0
45790,-0.277832,-0.63916,0.655273,0
45810,-0.271484,-0.633301,0.647461,0
45830,-0.285156,-0.61084,0.640137,0
45850,-0.276367,-0.60498,0.637695,0
45870,-0.26416,-0.621094,0.645996,0
45890,-0.262695,-0.628418,0.648926,0
45910,-0.255371,-0.638672,0.655762,0
45930,-0.258789,-0.651855,0.654785,0
45950,-0.259766,-0.67334,0.634277,0
45970,-0.26123,-0.675293,0.620605,0
45990,-0.253906,-0.673828,0.631836,0
46010,-0.255859,-0.662109,0.632324,0
46030,-0.257324,-0.639648,0.639648,0
46050,-0.248535,-0.640625,0.648926,0
46070,-0.251953,-0.630371,0.650391,0
46090,-0.257324,-0.637207,0.651855,0
46110,-0.26123,-0.643066,0.646973,0
46130,-0.260742,-0.653809,0.64502,0
46150,-0.258789,-0.655273,0.642578,0
46170,-0.257812,-0.657227,0.644531,0
46190,-0.264648,-0.64502,0.64502,0
46210,-0.246582,-0.631348,0.642578,0
46230,-0.259277,-0.643555,0.645508,0
46250,-0.258789,-0.641113,0.64209,0
46270,-0.26416,-0.644531,0.645996,0
46290,-0.260254,-0.648438,0.645996,0
46310,-0.263184,-0.65332,0.646484,0
46330,-0.26709,-0.657227,0.64209,0
46350,-0.259277,-0.65918,0.646973,0
46370,-0.258789,-0.664551,0.647949,0
46390,-0.263672,-0.666016,0.643555,0
46410,-0.262207,-0.666992,0.650391,0
46430,-0.277832,-0.67627,0.637695,0
46450,-0.272461,-0.666016,0.625977,0
46470,-0.271973,-0.657715,0.633789,0
46490,-0.275391,-0.649902,0.63916,0
46510,-0.274414,-0.655273,0.627441,0
46530,-0.265625,-0.649414,0.629883,0
46550,-0.262695,-0.65332,0.62793,0
46570,-0.259766,-0.665527,0.63623,0
46590,-0.254395,-0.674316,0.653809,0
46610,-0.265137,-0.69043,0.650879,0
46630,-0.261719,-0.706543,0.637207,0
46650,-0.262695,-0.70459,0.638672,0
46670,-0.258301,-0.717285,0.638184,0
46690,-0.22998,-0.704102,0.646973,0
46710,-0.222656,-0.689453,0.64502,0
46730,-0.223633,-0.692871,0.634277,0
46750,-0.203613,-0.724121,0.632324,0
46770,-0.160156,-0.745117,0.645508,0
46790,-0.137207,-0.77832,0.662109,0
46810,-0.117676,-0.818848,0.683105,0
46830,-0.059082,-0.845703,0.685059,0
46850,0.0283203,-0.907227,0.737305,0
46870,0.121094,-0.914551,0.793457,0
46890,0.123535,-0.931641,0.746582,0
46910,0.161133,-0.992676,0.749023,0
46930,0.195801,-1.00537,0.79834,0
46950,0.212402,-0.963867,0.831543,0
46970,0.154297,-0.90625,0.750977,0
46990,0.144531,-0.880859,0.73584,0
47010,0.180176,-0.834961,0.750977,0
47030,0.104492,-0.739258,0.665527,0
47050,0.0473633,-0.652832,0.569336,0
47070,0.0126953,-0.603516,0.508301,0
47090,-0.0273438,-0.548828,0.490723,0
47110,-0.0610352,-0.503906,0.422363,0
47130,-0.105957,-0.489746,0.386719,0
47150,-0.148926,-0.479004,0.362305,0
47170,-0.13623,-0.521973,0.328613,0
47190,-0.0249023,-0.581055,0.336426,0
47210,0.00292969,-0.628906,0.317871,0
47230,-0.00878906,-0.666016,0.297852,0
47250,0.0429688,-0.723145,0.342285,0
47270,0.132812,-0.797363,0.378418,0
47290,0.236328,-0.821289,0.371582,0
47310,0.275391,-0.816895,0.361816,0
47330,0.279297,-0.833008,0.384766,0
47350,0.32373,-0.891602,0.390137,0
47370,0.351562,-0.911133,0.390625,0
47390,0.303223,-0.897461,0.386719,0
47410,0.239258,-0.856445,0.373047,0
47430,0.194336,-0.824707,0.379395,0
47450,0.187012,-0.82666,0.394531,0
47470,0.222168,-0.798828,0.40332,0
47490,0.239746,-0.779297,0.428711,0
47510,0.223145,-0.766602,0.433105,0
47530,0.234863,-0.777832,0.442871,0
47550,0.256836,-0.786621,0.444824,0
47570,0.257324,-0.773926,0.466309,0
47580,0.230957,-0.782227,0.480957,0
47600,0.212891,-0.782715,0.473633,0
47620,0.186035,-0.793945,0.450684,0
47640,0.177734,-0.792969,0.463867,0
47660,0.202637,-0.800781,0.475586,0
47680,0.227051,-0.80127,0.466309,0
47700,0.227539,-0.826172,0.488281,0
47720,0.289551,-0.842773,0.501465,0
47740,0.341309,-0.846191,0.478516,0
47760,0.331543,-0.833496,0.468262,0
47780,0.320312,-0.813477,0.452637,0
47800,0.308105,-0.800293,0.45459,0
47820,0.300781,-0.785645,0.444336,0
47840,0.287109,-0.78418,0.455566,0
47860,0.310059,-0.788574,0.461914,0
47880,0.324707,-0.778809,0.450684,0
47900,0.296387,-0.765137,0.443359,0
47920,0.252441,-0.756348,0.447754,0
47940,0.224121,-0.754395,0.478516,0
47960,0.23584,-0.769531,0.485352,0
47980,0.291016,-0.786621,0.464355,0
48000,0.325195,-0.787109,0.454102,0
48020,0.352539,-0.783691,0.476562,0
48040,0.371094,-0.774414,0.473633,0
48060,0.364746,-0.758301,0.462402,0
48080,0.360352,-0.758789,0.467285,0
48100,0.347168,-0.753906,0.469238,0
48120,0.335938,-0.755371,0.445801,0
48140,0.319824,-0.763672,0.453613,0
48160,0.305176,-0.758301,0.479492,0
48180,0.311035,-0.756836,0.472168,0
48200,0.32373,-0.759766,0.480957,0
48220,0.330566,-0.75,0.483887,0
48240,0.333984,-0.743652,0.480957,0
48260,0.319824,-0.751953,0.458984,0
48280,0.316895,-0.748535,0.444824,0
48300,0.279785,-0.747559,0.439453,0
48320,0.236816,-0.763672,0.439453,0
48340,0.226074,-0.777832,0.455078,0
48360,0.229004,-0.78125,0.473633,0
48380,0.236328,-0.774414,0.474121,0
48400,0.257812,-0.784668,0.471191,0
48420,0.277344,-0.793945,0.479004,0
48440,0.302734,-0.794434,0.494141,0
48460,0.323242,-0.784668,0.48877,0
48480,0.319336,-0.781738,0.462891,0
48500,0.300293,-0.777344,0.465332,0
48520,0.290039,-0.787109,0.455078,0
48540,0.288086,-0.779785,0.460938,0
48560,0.27832,-0.778809,0.462402,0
48580,0.260742,-0.760254,0.45459,0
48600,0.248047,-0.758789,0.463379,0
48610,0.263672,-0.761719,0.463867,0
48630,0.28125,-0.757812,0.464844,0
48650,0.29248,-0.753906,0.45166,0
48670,0.287598,-0.752441,0.458984,0
48690,0.293945,-0.772461,0.474609,0
48710,0.308105,-0.777832,0.45752,0
48730,0.293457,-0.773438,0.460938,0
48750,0.285156,-0.772949,0.469727,0
48770,0.282227,-0.770996,0.46875,0
48790,0.290527,-0.776367,0.466797,0
48810,0.291992,-0.776367,0.467285,0
48830,0.289062,-0.78125,0.459961,0
48850,0.297852,-0.766113,0.460449,0
48870,0.308594,-0.774902,0.474121,0
48890,0.29834,-0.771484,0.461426,0
48910,0.291016,-0.760742,0.453125,0
48930,0.288086,-0.743652,0.455566,0
48950,0.247559,-0.724121,0.458496,0
48970,0.20459,-0.71875,0.427734,0
48990,0.169434,-0.708008,0.383301,0
49010,0.128906,-0.682129,0.360352,0
49030,0.0576172,-0.644531,0.366699,0
49050,-0.0410156,-0.601562,0.395508,0
49070,-0.120605,-0.585938,0.393555,0
49090,-0.134277,-0.57959,0.413574,0
49110,-0.0922852,-0.614746,0.463379,0
49130,-0.0371094,-0.620117,0.588867,0
49150,-0.0551758,-0.589355,0.706055,0
49170,-0.00585938,-0.609375,0.714844,0
49190,-0.0102539,-0.653809,0.632324,0
49210,0.0131836,-0.688477,0.681152,0
49230,-0.027832,-0.641602,0.692871,0
49250,0.226074,-0.655762,0.936035,0
49270,0.236328,-0.655273,0.837891,0
49290,0.225098,-0.806152,0.801758,0
49310,0.141602,-1.05957,0.651855,0
49330,0.0283203,-0.907715,0.772461,0
49350,-0.0600586,-0.849121,0.777832,0
49370,-0.117676,-0.695801,0.881836,0
49390,-0.102051,-0.59375,1.27441,0
49410,0.126953,-0.185547,1.1709,0
49430,-0.0219727,-0.360352,0.89502,0
49450,-0.19043,-0.436035,0.891113,0
49470,-0.151855,-0.546875,0.732422,0
49490,-0.157227,-0.492676,0.610352,0
49510,-0.231934,-0.42334,0.618164,0
49530,-0.325684,-0.418457,0.69043,0
49550,-0.351074,-0.491211,0.758301,0
49570,-0.29541,-0.544434,0.834961,0
49590,-0.260742,-0.539062,0.874023,0
49610,-0.261719,-0.483887,0.849121,0
49630,-0.277344,-0.489258,0.776855,0
49650,-0.256348,-0.507324,0.730957,0
49670,-0.254395,-0.482422,0.70166,0
49690,-0.255371,-0.47998,0.706543,0
49710,-0.241699,-0.456543,0.748047,0
49730,-0.225098,-0.444824,0.794434,0
49750,-0.226562,-0.438477,0.84082,0
49770,-0.229492,-0.412598,0.862305,0
49790,-0.225586,-0.424805,0.849121,0
49810,-0.210938,-0.428223,0.814941,0
49830,-0.19873,-0.422363,0.811523,0
49850,-0.202637,-0.403809,0.801758,0
49870,-0.206055,-0.399414,0.817383,0
49890,-0.215332,-0.403809,0.819824,0
49910,-0.222656,-0.415039,0.820801,0
49930,-0.22168,-0.428223,0.821777,0
49950,-0.222168,-0.429688,0.808594,0
49970,-0.213867,-0.434082,0.788574,0
49990,-0.214844,-0.445312,0.783203,0
50010,-0.218262,-0.447266,0.792969,0
50030,-0.21875,-0.436523,0.799805,0
50050,-0.222168,-0.427246,0.802246,0
50070,-0.220215,-0.421387,0.806641,0
50090,-0.219727,-0.425781,0.800781,0
50110,-0.221191,-0.43457,0.796875,0
50130,-0.220703,-0.445801,0.779785,0
50150,-0.216309,-0.449707,0.779785,0
50170,-0.213867,-0.45166,0.787109,0
50190,-0.21582,-0.446777,0.793457,0
50210,-0.223633,-0.435547,0.796387,0
50230,-0.229492,-0.440918,0.801758,0
50250,-0.224609,-0.447754,0.80127,0
50270,-0.22168,-0.453125,0.800293,0
50290,-0.231934,-0.487793,0.807617,0
50310,-0.274414,-0.419434,0.803223,0
50330,-0.327637,-0.406738,0.806152,0
50350,-0.32666,-0.440918,0.824219,0
50370,-0.337402,-0.447266,0.842773,0
50390,-0.381348,-0.513184,0.871094,0
50410,-0.381348,-0.585449,0.88916,0
50430,-0.302246,-0.643066,0.946777,0
50450,-0.0493164,-0.802246,0.98877,0
50470,0.220215,-0.773438,0.880371,0
50490,0.356445,-0.658203,0.80957,0
50500,0.418457,-0.569336,0.855469,0
50520,0.424805,-0.524902,0.879395,0
50550,0.54248,-0.419922,0.657227,0
50580,0.568848,-0.371094,0.624512,0
50600,0.64209,-0.353516,0.619629,0
50630,0.70459,-0.36377,0.416504,0
50670,0.789062,-0.292969,0.233398,0
50690,0.85498,-0.304199,0.190918,0
50710,0.846191,-0.349121,0.171387,0
50730,0.8125,-0.351074,0.121094,0
50750,0.79541,-0.324707,0.0874023,0
50770,0.783691,-0.330078,0.0678711,0
50790,0.787598,-0.368164,0.0185547,0
50810,0.820801,-0.37207,-0.0078125,0
50830,0.763184,-0.367676,-0.00683594,0
50850,0.739258,-0.372559,-0.0253906,0
50870,0.743164,-0.371094,-0.0371094,0
50890,0.789062,-0.370605,-0.107422,0
50910,0.816895,-0.365234,-0.0908203,0
50930,0.847656,-0.379395,-0.121582,0
50940,0.801758,-0.369141,-0.11084,0
50960,0.75293,-0.360352,-0.101074,0
50990,0.835449,-0.348145,-0.161133,0
51010,0.884766,-0.34375,-0.166016,0
51030,0.916992,-0.348145,-0.165527,0
51050,0.916504,-0.34375,-0.160645,0
51070,0.90918,-0.365234,-0.154297,0
51090,0.899902,-0.373047,-0.195312,0
51110,0.870117,-0.394043,-0.149414,0
51130,0.910645,-0.362305,-0.158691,0
51160,0.930664,-0.368164,-0.160156,0
51200,0.905762,-0.373047,-0.156738,0
51210,0.901367,-0.37793,-0.146973,0
51230,0.88916,-0.374023,-0.133301,0
51250,0.880371,-0.373535,-0.133301,0
51260,0.864258,-0.357422,-0.151855,0
51280,0.893555,-0.36377,-0.150391,0
51290,0.927734,-0.364746,-0.152344,0
51310,0.902832,-0.376953,-0.159668,0
51330,0.873535,-0.380371,-0.155762,0
51350,0.881836,-0.379883,-0.150391,0
51380,0.902832,-0.366699,-0.166016,0
51400,0.947754,-0.387695,-0.216797,0
51420,0.916016,-0.370117,-0.206543,0
51440,0.895508,-0.361816,-0.195312,0
51460,0.901855,-0.348633,-0.205078,0
51510,0.892578,-0.343262,-0.164062,0
51530,0.898438,-0.365723,-0.187012,0
51550,0.895996,-0.36377,-0.163086,0
51570,0.892578,-0.341797,-0.163574,0
51590,0.899902,-0.351562,-0.15332,0
51600,0.878418,-0.355469,-0.145996,0
51620,0.860352,-0.354004,-0.143555,0
51640,0.856934,-0.328125,-0.162109,0
51660,0.889648,-0.326172,-0.169434,0
51680,0.911133,-0.348633,-0.178223,0
51700,0.901855,-0.378906,-0.185059,0
51720,0.867676,-0.381836,-0.183105,0
51740,0.881836,-0.360352,-0.192871,0
51760,0.922363,-0.345215,-0.203613,0
51780,0.951172,-0.354004,-0.190918,0
51800,1.00537,-0.397461,-0.217773,0
51820,0.958984,-0.396484,-0.220215,0
51840,0.953125,-0.368164,-0.25293,0
51860,0.966309,-0.380371,-0.263184,0
51880,0.865723,-0.34375,-0.178223,0
51900,0.81543,-0.327148,-0.161621,0
51920,0.837891,-0.316895,-0.158203,0
51940,0.846191,-0.315918,-0.164062,0
51960,0.838379,-0.321289,-0.169434,0
51980,0.861328,-0.322266,-0.160645,0
52000,0.878906,-0.327637,-0.18457,0
52020,0.880859,-0.33252,-0.208008,0
52040,0.899902,-0.329102,-0.220215,0
52060,0.920898,-0.331543,-0.217285,0
52080,0.916992,-0.32959,-0.237305,0
52100,0.913574,-0.326172,-0.246094,0
52120,0.907227,-0.333008,-0.244141,0
52140,0.900391,-0.328125,-0.219238,0
52160,0.88916,-0.323242,-0.207031,0
52180,0.887695,-0.321777,-0.199707,0
52200,0.897949,-0.325684,-0.20752,0
52220,0.907715,-0.338867,-0.189941,0
52240,0.895508,-0.338867,-0.176758,0
52260,0.947266,-0.358398,-0.20166,0
52280,0.918457,-0.364258,-0.182129,0
52300,0.893066,-0.355957,-0.157227,0
52320,0.884766,-0.355469,-0.171875,0
52340,0.897949,-0.362793,-0.19043,0
52360,0.90918,-0.363281,-0.186523,0
52380,0.946289,-0.370605,-0.209473,0
52400,0.899902,-0.356445,-0.178711,0
52420,0.892578,-0.350586,-0.193359,0
52440,0.887207,-0.350098,-0.208496,0
52460,0.89209,-0.334961,-0.20752,0
52480,0.895996,-0.32666,-0.181641,0
52500,0.907227,-0.317871,-0.185059,0
52520,0.914062,-0.30957,-0.193848,0
52540,0.914062,-0.300293,-0.206543,0
52560,0.932617,-0.305176,-0.204102,0
52580,0.941895,-0.313477,-0.192383,0
52600,0.88623,-0.32373,-0.192871,0
52620,0.874023,-0.327148,-0.186035,0
52640,0.863281,-0.343262,-0.19043,0
52660,0.873535,-0.348145,-0.206055,0
52680,0.88623,-0.348633,-0.203125,0
52700,0.914551,-0.358398,-0.212402,0
52720,0.873535,-0.350586,-0.206055,0
52740,0.871582,-0.34375,-0.219238,0
52760,0.896973,-0.344727,-0.216797,0
52780,0.911133,-0.334473,-0.213379,0
52800,0.909668,-0.327637,-0.221191,0
52820,0.910156,-0.319336,-0.21875,0
52840,0.930664,-0.300293,-0.214844,0
52860,0.936035,-0.307617,-0.236816,0
52880,0.931641,-0.312988,-0.239746,0
52900,0.915039,-0.314453,-0.227539,0
52920,0.895508,-0.318359,-0.21582,0
52940,0.89502,-0.324219,-0.236328,0
52960,0.884766,-0.339844,-0.235352,0
52980,0.875977,-0.345215,-0.225586,0
53000,0.88916,-0.355957,-0.223145,0
53020,0.898438,-0.361328,-0.231934,0
53040,0.935059,-0.366699,-0.236328,0
53060,0.892578,-0.364258,-0.224121,0
53080,0.859375,-0.352051,-0.233887,0
53100,0.868652,-0.348633,-0.237305,0
53120,0.890625,-0.337402,-0.213867,0
53140,0.898926,-0.316406,-0.213379,0
53160,0.897461,-0.307129,-0.209473,0
53180,0.888672,-0.304688,-0.213867,0
53200,0.896484,-0.301758,-0.220703,0
53220,0.871582,-0.306641,-0.203613,0
53240,0.869629,-0.30127,-0.169434,0
53260,0.892578,-0.296387,-0.167969,0
53280,0.902344,-0.300781,-0.197266,0
53300,0.896973,-0.310059,-0.203125,0
53320,0.89502,-0.309082,-0.195801,0
53340,0.891602,-0.326172,-0.19043,0
53360,0.915039,-0.357422,-0.200684,0
53380,0.912598,-0.36377,-0.200195,0
53400,0.910156,-0.368164,-0.187988,0
53410,0.903809,-0.358398,-0.169434,0
53430,0.872559,-0.348633,-0.158203,0
53450,0.869629,-0.351562,-0.155273,0
53470,0.878418,-0.344238,-0.154785,0
53490,0.863281,-0.336914,-0.135742,0
53510,0.83252,-0.323242,-0.115234,0
53520,0.862305,-0.326172,-0.0820312,0
53540,0.879883,-0.337891,-0.0947266,0
53560,0.850098,-0.354492,-0.09375,0
53570,0.831543,-0.360352,-0.0766602,0
53590,0.787109,-0.357422,-0.0708008,0
53620,0.782715,-0.394043,-0.0317383,0
53640,0.729004,-0.40625,-0.0219727,0
53660,0.658691,-0.407227,0.0249023,0
53680,0.63623,-0.391113,0.0776367,0
53700,0.668945,-0.400879,0.12793,0
53720,0.66748,-0.411133,0.14209,0
53740,0.619629,-0.392578,0.178711,0
53760,0.592285,-0.404785,0.257324,0
53780,0.672363,-0.422852,0.348633,0
53800,0.77832,-0.461914,0.378418,0
53820,0.803223,-0.500488,0.35791,0
53840,0.916016,-0.539551,0.307617,0
53860,0.854492,-0.587891,0.344238,0
53880,0.669922,-0.596191,0.444824,0
53900,0.651367,-0.585449,0.507812,0
53920,0.794922,-0.649902,0.507324,0
53940,0.647461,-0.711426,0.588867,0
53950,0.460449,-0.612305,0.70752,0
53970,0.359863,-0.52832,0.755371,0
53990,0.283203,-0.626953,0.773438,0
54010,0.0673828,-0.688477,0.849121,0
54030,-0.252441,-0.678223,0.911133,0
54050,-0.330078,-0.688965,0.899902,0
54070,-0.207031,-0.664062,0.775879,0
54090,-0.143555,-0.586426,0.691895,0
54110,-0.245117,-0.549316,0.711426,0
54130,-0.43457,-0.581543,0.741699,0
54150,-0.674805,-0.733398,0.820801,0
54170,-0.747559,-0.795898,0.821289,0
54190,-0.460938,-0.754883,0.667969,0
54210,-0.331055,-0.768555,0.515625,0
54230,-0.303223,-0.704102,0.564941,0
54250,-0.241211,-0.676758,0.533203,0
54270,-0.28125,-0.577637,0.54541,0
54290,-0.316895,-0.548828,0.628418,0
54310,-0.345703,-0.535645,0.72168,0
54330,-0.325195,-0.581543,0.776855,0
54350,-0.278809,-0.612305,0.778809,0
54370,-0.269043,-0.59668,0.705078,0
54390,-0.273438,-0.629395,0.649414,0
54410,-0.275391,-0.677246,0.605957,0
54430,-0.290039,-0.649414,0.611816,0
54450,-0.315918,-0.630859,0.635742,0
54470,-0.325195,-0.589355,0.684082,0
54490,-0.335449,-0.572266,0.704102,0
54510,-0.322754,-0.569824,0.703125,0
54530,-0.305176,-0.569824,0.694336,0
54550,-0.29541,-0.570312,0.680176,0
54570,-0.3125,-0.592285,0.664551,0
54590,-0.333984,-0.604492,0.67627,0
54610,-0.327637,-0.602051,0.684082,0
54630,-0.306641,-0.595703,0.687988,0
54650,-0.27832,-0.594238,0.680176,0
54670,-0.258301,-0.591309,0.683594,0
54690,-0.25293,-0.592285,0.67627,0
54710,-0.272949,-0.597168,0.672852,0
54730,-0.297852,-0.601562,0.677246,0
54750,-0.309082,-0.600098,0.679199,0
54770,-0.301758,-0.594727,0.6875,0
54790,-0.284668,-0.594238,0.682617,0
54810,-0.282227,-0.592285,0.679688,0
54830,-0.293945,-0.59668,0.668457,0
54850,-0.371094,-0.593262,0.649902,0
54870,-0.376953,-0.563965,0.654297,0
54890,-0.312012,-0.570312,0.68457,0
54910,-0.281738,-0.593262,0.683105,0
54930,-0.299805,-0.600098,0.657715,0
54950,-0.320312,-0.607422,0.677246,0
54970,-0.305176,-0.59082,0.714844,0
54990,-0.274414,-0.581055,0.70459,0
55010,-0.274414,-0.580566,0.685059,0
55030,-0.291504,-0.580566,0.678223,0
55050,-0.311035,-0.597656,0.681152,0
55070,-0.317383,-0.590332,0.680664,0
55090,-0.312012,-0.589844,0.671387,0
55110,-0.312988,-0.592285,0.673828,0
55130,-0.315918,-0.594727,0.668945,0
55150,-0.313477,-0.588867,0.675293,0
55170,-0.314453,-0.583008,0.679199,0
55190,-0.305664,-0.578125,0.685547,0
55210,-0.297363,-0.578125,0.6875,0
55230,-0.29834,-0.589355,0.684082,0
55250,-0.299316,-0.585449,0.687012,0
55260,-0.304199,-0.585938,0.677734,0
55280,-0.305664,-0.586426,0.681641,0
55300,-0.305176,-0.580078,0.679199,0
55320,-0.305176,-0.580078,0.681641,0
55340,-0.308105,-0.578613,0.678223,0
55360,-0.301758,-0.578613,0.684082,0
55380,-0.297852,-0.585449,0.690918,0
55400,-0.29834,-0.587891,0.687988,0
55420,-0.302734,-0.595703,0.678223,0
55440,-0.296387,-0.61377,0.666504,0
55450,-0.287109,-0.61084,0.669922,0
55470,-0.284668,-0.595215,0.693359,0
55490,-0.29834,-0.577148,0.685059,0
55510,-0.318359,-0.591797,0.670898,0
55530,-0.319824,-0.609375,0.657227,0
55550,-0.324707,-0.591797,0.649414,0
55570,-0.333008,-0.574219,0.666016,0
55590,-0.32959,-0.569824,0.674316,0
55610,-0.325684,-0.582031,0.677246,0
55630,-0.320801,-0.586426,0.666992,0
55650,-0.316406,-0.595703,0.65918,0
55670,-0.312988,-0.608887,0.654785,0
55690,-0.300781,-0.619141,0.656738,0
55710,-0.298828,-0.616699,0.663086,0
55730,-0.296875,-0.616699,0.667969,0
55750,-0.302734,-0.609375,0.666016,0
55770,-0.306641,-0.604492,0.667969,0
55790,-0.310547,-0.601074,0.66748,0
55810,-0.309082,-0.598145,0.67041,0
55830,-0.305664,-0.59668,0.674316,0
55850,-0.313477,-0.597656,0.67041,0
55870,-0.31543,-0.599121,0.666504,0
55890,-0.311523,-0.601074,0.665527,0
55910,-0.30957,-0.602051,0.67334,0
55930,-0.305176,-0.598145,0.671387,0
55950,-0.304688,-0.602539,0.66748,0
55970,-0.305664,-0.606445,0.679199,0
55990,-0.310059,-0.598633,0.681641,0
56010,-0.312012,-0.594727,0.671387,0
56030,-0.3125,-0.599121,0.667969,0
56050,-0.311523,-0.592285,0.675293,0
56070,-0.308594,-0.588867,0.678711,0
56090,-0.308105,-0.598633,0.669922,0
56110,-0.310059,-0.599609,0.673828,0
56130,-0.308594,-0.596191,0.672363,0
56150,-0.308594,-0.602539,0.672852,0
56170,-0.307129,-0.595703,0.672852,0
56190,-0.310059,-0.592285,0.671875,0
56210,-0.30957,-0.595703,0.673828,0
56230,-0.311523,-0.591797,0.676758,0
56250,-0.308105,-0.591309,0.667969,0
56270,-0.307617,-0.595215,0.663086,0
56290,-0.307617,-0.592773,0.67627,0
56310,-0.312012,-0.595703,0.680664,0
56330,-0.306152,-0.594727,0.683594,0
56350,-0.308594,-0.59082,0.670898,0
56370,-0.30957,-0.59668,0.672852,0
56390,-0.307617,-0.589355,0.67627,0
56410,-0.304199,-0.592285,0.681641,0
56430,-0.304688,-0.592773,0.678711,0
56450,-0.307617,-0.59375,0.679688,0
56470,-0.30957,-0.592773,0.678711,0
56490,-0.313477,-0.588867,0.681152,0
56510,-0.314453,-0.593262,0.669434,0
56530,-0.307129,-0.586914,0.67041,0
56550,-0.311523,-0.591309,0.680176,0
56570,-0.307617,-0.584961,0.677734,0
56590,-0.311523,-0.589355,0.675781,0
56610,-0.310059,-0.594727,0.680176,0
56630,-0.306152,-0.596191,0.672852,0
56650,-0.306641,-0.589355,0.67041,0
56670,-0.305176,-0.594238,0.674805,0
56690,-0.306152,-0.594238,0.677734,0
56710,-0.306641,-0.592285,0.678711,0
56730,-0.308594,-0.594727,0.677734,0
56750,-0.308594,-0.594238,0.674316,0
56770,-0.307617,-0.595215,0.672852,0
56790,-0.307129,-0.594238,0.671875,0
56810,-0.305176,-0.590332,0.679199,0
56830,-0.308594,-0.591797,0.674316,0
56850,-0.307129,-0.594238,0.679199,0
56870,-0.307617,-0.589355,0.672363,0
56890,-0.305176,-0.587891,0.672363,0
56910,-0.311523,-0.59082,0.673828,0
56930,-0.304688,-0.585938,0.666016,0
56950,-0.302246,-0.585449,0.666504,0
56970,-0.304688,-0.584961,0.670898,0
56990,-0.30127,-0.58252,0.669434,0
57010,-0.303711,-0.591797,0.678711,0
57030,-0.306152,-0.607422,0.677734,0
57050,-0.294434,-0.614746,0.691895,0
57070,-0.290527,-0.58252,0.705566,0
57090,-0.293945,-0.581543,0.707031,0
57110,-0.292969,-0.595703,0.70752,0
57130,-0.292969,-0.588379,0.725098,0
57150,-0.300781,-0.57373,0.771973,0
57170,-0.306152,-0.562988,0.741699,0
57190,-0.313477,-0.606934,0.695312,0
57210,-0.302246,-0.711914,0.779785,0
57230,-0.253906,-0.741211,0.877441,0
57250,-0.218262,-0.706543,0.882812,0
57270,-0.0629883,-0.741211,0.907715,0
57290,0.0849609,-0.820312,0.898926,0
57310,0.199707,-0.806641,0.754883,0
57330,0.271973,-0.795898,0.71582,0
57350,0.308594,-0.77832,0.655273,0
57370,0.234863,-0.689941,0.592773,0
57390,0.166504,-0.629883,0.580566,0
57410,0.115234,-0.631348,0.541992,0
57430,0.134277,-0.655273,0.559082,0
57450,0.0639648,-0.65332,0.55957,0
57470,0.0683594,-0.628418,0.555176,0
57490,0.0791016,-0.61084,0.547363,0
57510,0.171387,-0.625,0.564453,0
57530,0.20459,-0.633789,0.566406,0
57550,0.220703,-0.642578,0.507812,0
57570,0.272949,-0.642578,0.526367,0
57590,0.290039,-0.624023,0.552734,0
57610,0.279297,-0.623535,0.530762,0
57630,0.271484,-0.676758,0.518066,0
57650,0.307129,-0.700195,0.475098,0
57670,0.32959,-0.696777,0.45166,0
57690,0.299316,-0.680664,0.467773,0
57710,0.26709,-0.693848,0.456543,0
57730,0.279785,-0.725098,0.436035,0
57750,0.31543,-0.731934,0.449707,0
57770,0.320801,-0.714355,0.472168,0
57790,0.31543,-0.710938,0.481934,0
57810,0.336914,-0.699707,0.475098,0
57830,0.355469,-0.725098,0.454102,0
57850,0.366699,-0.755371,0.458496,0
57870,0.350586,-0.747559,0.483398,0
57890,0.324219,-0.739258,0.461426,0
57910,0.318359,-0.735352,0.449219,0
57930,0.328125,-0.734863,0.462891,0
57950,0.333496,-0.748047,0.46582,0
57970,0.333984,-0.759766,0.416016,0
57990,0.308105,-0.734375,0.427734,0
58010,0.273438,-0.75293,0.460938,0
58030,0.271484,-0.790527,0.464844,0
58050,0.291504,-0.821289,0.472656,0
58070,0.312012,-0.805664,0.458008,0
58090,0.290527,-0.791016,0.469238,0
58110,0.26709,-0.771484,0.477539,0
58130,0.275391,-0.777832,0.503418,0
58150,0.297852,-0.787109,0.489746,0
58170,0.305176,-0.767578,0.45459,0
58190,0.280762,-0.765137,0.45752,0
58210,0.282227,-0.809082,0.443848,0
58230,0.238281,-0.80127,0.461914,0
58250,0.168457,-0.768555,0.470703,0
58270,0.144531,-0.75293,0.452637,0
58290,0.175293,-0.76709,0.478027,0
58310,0.193848,-0.78125,0.481934,0
58330,0.213867,-0.780762,0.458496,0
58350,0.240234,-0.768066,0.451172,0
58370,0.256348,-0.780762,0.47168,0
58390,0.256836,-0.778809,0.466309,0
58410,0.232422,-0.776367,0.454102,0
58430,0.22168,-0.786621,0.44873,0
58450,0.247559,-0.800293,0.445312,0
58470,0.259277,-0.800293,0.464355,0
58490,0.225586,-0.790527,0.471191,0
58510,0.200195,-0.765137,0.477051,0
58530,0.231934,-0.776367,0.487305,0
58550,0.310547,-0.788574,0.481445,0
58560,0.347656,-0.777344,0.454102,0
58580,0.349609,-0.766113,0.45459,0
58600,0.361328,-0.776855,0.45459,0
58620,0.342285,-0.767578,0.452637,0
58640,0.327148,-0.753906,0.460449,0
58660,0.308594,-0.757324,0.462891,0
58680,0.300781,-0.760742,0.46582,0
58700,0.322754,-0.761719,0.462891,0
58720,0.327148,-0.752441,0.473633,0
58740,0.324707,-0.748047,0.473145,0
58760,0.333984,-0.754883,0.463867,0
58780,0.331055,-0.775879,0.450195,0
58800,0.304199,-0.772949,0.458008,0
58820,0.299316,-0.760254,0.458496,0
58840,0.289062,-0.76416,0.452637,0
58860,0.267578,-0.755859,0.458496,0
58880,0.25,-0.759277,0.456543,0
58900,0.261719,-0.786621,0.46582,0
58920,0.275879,-0.780762,0.470215,0
58940,0.278809,-0.774902,0.473145,0
58960,0.282715,-0.774414,0.470703,0
58980,0.30127,-0.79248,0.466309,0
59000,0.314941,-0.795898,0.457031,0
59020,0.296387,-0.772949,0.472168,0
59040,0.273438,-0.76416,0.463867,0
59060,0.290527,-0.778809,0.462402,0
59080,0.296875,-0.78125,0.460938,0
59100,0.28418,-0.773926,0.474609,0
59120,0.272949,-0.761719,0.473633,0
59140,0.290039,-0.773438,0.45459,0
59160,0.300781,-0.773438,0.450684,0
59180,0.29248,-0.768555,0.467773,0
59200,0.281738,-0.764648,0.462402,0
59220,0.287598,-0.782715,0.459473,0
59240,0.300781,-0.786621,0.44873,0
59260,0.289062,-0.778809,0.470215,0
59280,0.264648,-0.769531,0.461426,0
59300,0.269531,-0.774414,0.45459,0
59320,0.268066,-0.781738,0.458008,0
59340,0.269043,-0.782715,0.454102,0
59360,0.281738,-0.793945,0.458496,0
59380,0.274414,-0.78125,0.45459,0
59400,0.268066,-0.775879,0.447266,1000
59420,0.26709,-0.781738,0.449707,0
59440,0.259766,-0.794922,0.45166,0
59460,0.271973,-0.777344,0.47168,0
59480,0.259766,-0.779297,0.455566,0
59500,0.251465,-0.774902,0.459473,0
59520,0.262695,-0.779785,0.461426,0
59540,0.271484,-0.778809,0.464355,0
59560,0.245117,-0.766602,0.465332,0
59580,0.243652,-0.763184,0.459473,0
59600,0.255371,-0.780762,0.463867,0
59620,0.265625,-0.783203,0.461914,0
59640,0.257324,-0.768066,0.458008,0
59660,0.243652,-0.770508,0.458496,0
59680,0.228516,-0.759277,0.456055,0
59700,0.247559,-0.768555,0.478027,0
59720,0.275879,-0.776367,0.476074,0
59740,0.281738,-0.765625,0.46582,0
59760,0.257812,-0.753418,0.458008,0
59780,0.281738,-0.762695,0.459473,0
59800,0.320312,-0.747559,0.452637,0
59820,0.319336,-0.744629,0.440918,0
59840,0.291504,-0.749512,0.429199,0
59870,0.36084,-0.775391,0.480469,0
59890,0.380371,-0.76123,0.449707,0
59910,0.348633,-0.755859,0.462402,0
59930,0.332031,-0.742676,0.485352,0
59950,0.378418,-0.755859,0.493652,0
59970,0.429199,-0.75,0.48291,0
59990,0.402832,-0.732422,0.461426,0
60010,0.352539,-0.720215,0.450684,0
60030,0.344727,-0.733887,0.45752,0
60050,0.37207,-0.736328,0.458008,0
60070,0.38623,-0.72168,0.448242,0
60090,0.366211,-0.709961,0.444336,0
60110,0.37207,-0.713379,0.462891,0
60130,0.425781,-0.71875,0.467773,0
60150,0.478516,-0.721191,0.448242,0
60170,0.433594,-0.704102,0.450684,0
60190,0.376465,-0.678711,0.467285,0
60210,0.398926,-0.709961,0.449219,0
60230,0.441895,-0.70752,0.458984,0
60250,0.427246,-0.694336,0.46875,0
60270,0.415039,-0.682617,0.456055,0
60290,0.449219,-0.690918,0.446289,0
60310,0.479004,-0.687012,0.461914,0
60330,0.464355,-0.683105,0.450684,0
60340,0.444824,-0.689453,0.467285,0
60370,0.40332,-0.690918,0.470215,0
60390,0.415039,-0.694824,0.467773,0
60410,0.451172,-0.690918,0.466309,0
60420,0.439453,-0.687988,0.468262,0
60440,0.428711,-0.680176,0.493652,0
60460,0.455566,-0.673828,0.491211,0
60480,0.477051,-0.666016,0.46875,0
60500,0.472168,-0.673828,0.436035,0
60520,0.477051,-0.672363,0.446289,0
60540,0.483887,-0.676758,0.451172,0
60560,0.490234,-0.666016,0.45459,0
60580,0.48877,-0.660645,0.448242,0
60600,0.512207,-0.658203,0.443848,0
60620,0.501465,-0.646973,0.44873,0
60640,0.494141,-0.647461,0.444336,0
60660,0.526367,-0.628906,0.467773,0
60680,0.571777,-0.634277,0.45459,0
60680,0.565918,-0.624023,0.417969,0
60700,0.554199,-0.621582,0.415039,0
60720,0.561035,-0.620605,0.416016,0
60740,0.569336,-0.609375,0.429688,0
60760,0.604004,-0.602051,0.416504,0
60780,0.59375,-0.604492,0.403809,0
60800,0.592773,-0.615723,0.395508,0
60820,0.591797,-0.589355,0.415039,0
60840,0.62207,-0.558105,0.409668,0
60860,0.632324,-0.561035,0.394043,0
60880,0.642578,-0.572754,0.377441,0
60910,0.613281,-0.541504,0.392578,0
60930,0.62207,-0.540527,0.382812,0
60950,0.641602,-0.533691,0.396973,0
60970,0.65918,-0.529297,0.394531,0
60990,0.647949,-0.511719,0.396973,0
61000,0.654297,-0.502441,0.405762,0
61020,0.65332,-0.499023,0.387207,0
61030,0.695312,-0.505371,0.376465,0
61050,0.689453,-0.513672,0.38916,0
61070,0.671387,-0.490234,0.395508,0
61100,0.723633,-0.480957,0.407227,0
61150,0.703125,-0.451172,0.428711,0
61180,0.676758,-0.441895,0.447754,0
61210,0.691895,-0.431152,0.467285,0
61240,0.710449,-0.417969,0.475098,0
61270,0.737793,-0.410156,0.458008,0
61290,0.709473,-0.423828,0.469727,0
61310,0.692383,-0.421387,0.470703,0
61330,0.706543,-0.405762,0.46875,0
61350,0.760742,-0.423828,0.459473,0
61370,0.708008,-0.415527,0.501465,0
61390,0.660156,-0.408203,0.524902,0
61410,0.644043,-0.40332,0.520508,0
61430,0.687988,-0.410645,0.511719,0
61450,0.704102,-0.410156,0.520996,0
61470,0.708984,-0.419434,0.529785,0
61490,0.643555,-0.406738,0.538574,0
61510,0.59082,-0.400391,0.564941,0
61530,0.622559,-0.40918,0.575195,0
61550,0.644531,-0.401367,0.568359,0
61570,0.653809,-0.416016,0.555176,0
61590,0.645996,-0.420898,0.591309,0
61610,0.569824,-0.392578,0.63623,0
61630,0.567871,-0.407715,0.609863,0
61650,0.59375,-0.393555,0.609863,0
61670,0.592285,-0.40332,0.625488,0
61690,0.561523,-0.433105,0.634766,0
61710,0.502441,-0.421875,0.620117,0
61740,0.468262,-0.416992,0.671387,0
61770,0.515137,-0.410645,0.641113,0
61790,0.49707,-0.406738,0.660156,0
61800,0.413086,-0.464844,0.676758,0
61840,0.438477,-0.465332,0.674805,0
61860,0.424805,-0.464844,0.654785,0
61880,0.390137,-0.475098,0.65332,0
61900,0.367676,-0.458008,0.67627,0
61920,0.375,-0.478516,0.678711,0
61940,0.398438,-0.483887,0.671387,0
61960,0.414062,-0.508301,0.663574,0
61980,0.400879,-0.500977,0.678223,0
62000,0.373535,-0.509277,0.669434,0
62020,0.40332,-0.520996,0.635254,0
62040,0.447754,-0.506836,0.681152,0
62060,0.413086,-0.519043,0.689941,0
62080,0.390137,-0.529785,0.637207,0
62100,0.403809,-0.536133,0.65332,0
62120,0.383301,-0.518555,0.67627,0
62140,0.333496,-0.509766,0.660156,0
62160,0.310547,-0.537109,0.65332,0
62180,0.333496,-0.546875,0.666504,0
62200,0.333496,-0.528809,0.678711,0
62220,0.288574,-0.517578,0.664551,0
62240,0.261719,-0.527344,0.651367,0
62260,0.305176,-0.55127,0.680176,0
62280,0.341797,-0.561523,0.671875,0
62300,0.325684,-0.572754,0.655762,0
62320,0.289551,-0.563477,0.64502,0
62340,0.249512,-0.563965,0.65332,0
62360,0.294434,-0.574707,0.655762,0
62380,0.348633,-0.572754,0.660156,0
62400,0.334961,-0.588867,0.65332,0
62420,0.29248,-0.594727,0.632812,0
62440,0.316895,-0.610352,0.638672,0
62460,0.304199,-0.57373,0.656738,0
62480,0.242188,-0.556152,0.651367,0
62500,0.239746,-0.585938,0.641113,0
62520,0.293945,-0.597656,0.643066,0
62540,0.26709,-0.584473,0.64502,0
62560,0.195801,-0.575684,0.630859,0
62580,0.195312,-0.57666,0.63916,0
62600,0.245117,-0.575195,0.672852,0
62620,0.247559,-0.587891,0.661133,0
62640,0.245605,-0.585938,0.634766,0
62660,0.272461,-0.608887,0.612305,0
62680,0.27002,-0.608887,0.651855,0
62700,0.229492,-0.590332,0.648926,0
62720,0.216309,-0.59082,0.620605,0
62740,0.291016,-0.63916,0.628906,0
62760,0.328613,-0.651855,0.633301,0
62780,0.269043,-0.644043,0.643066,0
62800,0.241699,-0.648438,0.645508,0
62820,0.276855,-0.645508,0.629883,0
62840,0.253418,-0.628418,0.637695,0
62860,0.24707,-0.647461,0.651855,0
62880,0.27832,-0.657715,0.660156,0
62900,0.248535,-0.631348,0.64209,0
62920,0.224609,-0.622559,0.611816,0
62940,0.237305,-0.62793,0.637695,0
62960,0.214355,-0.631348,0.633789,0
62980,0.193848,-0.636719,0.600098,0
63000,0.194336,-0.627441,0.585449,0
63020,0.209473,-0.62793,0.588867,0
63040,0.188477,-0.629395,0.570312,0
63060,0.164062,-0.637207,0.556152,0
63080,0.171875,-0.641113,0.55957,0
63100,0.208984,-0.655273,0.579102,0
63120,0.240234,-0.666992,0.583008,0
63140,0.232422,-0.674805,0.539062,0
63160,0.216309,-0.698242,0.522461,0
63180,0.243652,-0.691895,0.53418,0
63200,0.265137,-0.691406,0.555664,0
63220,0.26123,-0.675781,0.536133,0
63240,0.236816,-0.693359,0.504883,0
63260,0.249023,-0.72168,0.5,0
63280,0.305176,-0.719238,0.548828,0
63300,0.308594,-0.692383,0.544434,0
63310,0.280762,-0.69873,0.489746,0
63330,0.335938,-0.719727,0.497559,0
63350,0.402832,-0.707031,0.541992,0
63370,0.437012,-0.672852,0.52832,0
63390,0.35498,-0.694824,0.477539,0
63410,0.348145,-0.708496,0.473633,0
63430,0.422852,-0.724121,0.531738,0
63450,0.508301,-0.716309,0.499512,0
63470,0.490723,-0.677246,0.448242,0
63490,0.383301,-0.665527,0.458008,0
63510,0.420898,-0.677246,0.47168,0
63530,0.542969,-0.672852,0.484863,0
63550,0.587402,-0.65625,0.458496,0
63570,0.523438,-0.647461,0.435059,0
63590,0.425293,-0.647461,0.42334,0
63610,0.424316,-0.672363,0.446777,0
63630,0.524902,-0.662598,0.487305,0
63650,0.586914,-0.640137,0.45752,0
63670,0.535645,-0.625488,0.423828,0
63690,0.452148,-0.631348,0.430176,0
63710,0.504883,-0.621094,0.437988,0
63730,0.603027,-0.621582,0.42627,0
63750,0.611328,-0.60791,0.39502,0
63770,0.568848,-0.616699,0.389648,0
63790,0.574707,-0.617188,0.445801,0
63810,0.652832,-0.60498,0.442383,0
63830,0.703613,-0.566406,0.390625,0
63850,0.645996,-0.553223,0.383301,0
63870,0.611816,-0.582031,0.382324,0
63890,0.672852,-0.597656,0.35791,0
63910,0.689941,-0.564453,0.382812,0
63930,0.647949,-0.538086,0.37793,0
63950,0.688477,-0.539062,0.351074,0
63970,0.773926,-0.536621,0.365234,0
63990,0.783203,-0.512207,0.369629,0
64010,0.76123,-0.484863,0.32666,0
64030,0.711426,-0.475586,0.3125,0
64050,0.724121,-0.491699,0.316406,0
64070,0.782227,-0.48584,0.325195,0
64090,0.757812,-0.462891,0.335449,0
64110,0.730469,-0.441406,0.320801,0
64130,0.75293,-0.458008,0.305664,0
64150,0.789062,-0.458984,0.314941,0
64170,0.792969,-0.435547,0.336914,0
64190,0.741699,-0.413086,0.328613,0
64210,0.759766,-0.427246,0.321289,0
64230,0.784668,-0.413086,0.324707,0
64250,0.811035,-0.39502,0.322754,0
64270,0.801758,-0.382812,0.322754,0
64290,0.783691,-0.377441,0.31543,0
64310,0.792969,-0.384277,0.331055,0
64330,0.794434,-0.373535,0.33252,0
64350,0.806641,-0.356934,0.329102,0
64370,0.828125,-0.36084,0.323242,0
64390,0.837891,-0.35791,0.331543,0
64410,0.825684,-0.338867,0.349609,0
64430,0.821289,-0.32959,0.329102,0
64450,0.839355,-0.328125,0.333496,0
64470,0.843262,-0.321289,0.335938,0
64490,0.847168,-0.316406,0.352539,0
64510,0.833008,-0.314941,0.375977,0
64530,0.811035,-0.300293,0.381836,0
64550,0.806641,-0.296387,0.366211,0
64570,0.810547,-0.286133,0.388672,0
64590,0.811523,-0.27832,0.390625,0
64610,0.821777,-0.295898,0.37793,0
64630,0.829102,-0.293457,0.397461,0
64650,0.820312,-0.289062,0.42041,0
64670,0.813477,-0.282715,0.434082,0
64690,0.850098,-0.283203,0.438477,0
64710,0.801758,-0.300293,0.493652,0
64730,0.750488,-0.312988,0.506348,0
64750,0.76123,-0.298828,0.50293,0
64770,0.785156,-0.292969,0.496582,0
64790,0.759277,-0.294922,0.51416,0
64810,0.70752,-0.320312,0.553223,0
64830,0.703125,-0.311523,0.5625,0
64850,0.70752,-0.304688,0.561035,0
64870,0.70166,-0.299316,0.569824,0
64890,0.683105,-0.312988,0.580078,0
64910,0.617188,-0.307617,0.618164,0
64930,0.607422,-0.34375,0.62793,0
64950,0.602051,-0.336426,0.638184,0
64970,0.562012,-0.317383,0.664551,0
64990,0.497559,-0.329102,0.673828,0
65010,0.508789,-0.358887,0.652344,0
65030,0.557129,-0.382812,0.667969,0
65050,0.532227,-0.386719,0.662109,0
65070,0.453613,-0.37207,0.637695,0
65090,0.40625,-0.404785,0.65918,0
65110,0.42041,-0.43457,0.677246,0
65130,0.419434,-0.442871,0.65332,0
65150,0.42334,-0.442871,0.626465,0
65170,0.429688,-0.465332,0.632324,0
65190,0.427246,-0.454102,0.666016,0
65210,0.401367,-0.450195,0.666504,0
65220,0.422852,-0.463867,0.637695,0
65240,0.444336,-0.483398,0.65332,0
65260,0.419922,-0.503906,0.672363,0
65280,0.400391,-0.513672,0.65332,0
65300,0.396484,-0.51709,0.633301,0
65320,0.367676,-0.52002,0.621094,0
65340,0.343262,-0.522461,0.618164,0
65360,0.314453,-0.526855,0.619141,0
65380,0.333008,-0.527832,0.628906,0
65400,0.389648,-0.540527,0.631836,0
65420,0.416992,-0.556641,0.612305,0
65440,0.382812,-0.549805,0.62207,0
65460,0.334961,-0.559082,0.604004,0
65480,0.347656,-0.57666,0.609863,0
65500,0.356934,-0.578125,0.612305,0
65520,0.364258,-0.583008,0.590332,0
65540,0.386719,-0.582031,0.592285,0
65560,0.384277,-0.569336,0.603027,0
65580,0.383301,-0.566406,0.60498,0
65600,0.37793,-0.594238,0.614258,0
65620,0.410645,-0.619629,0.606445,0
65640,0.410156,-0.626465,0.58252,0
65660,0.37207,-0.600586,0.567383,0
65680,0.337891,-0.575195,0.578125,0
65700,0.342773,-0.569336,0.604492,0
65720,0.352539,-0.592773,0.585938,0
65740,0.355957,-0.603027,0.556641,0
65760,0.353027,-0.60498,0.559082,0
65780,0.387207,-0.604004,0.600098,0
65800,0.395996,-0.609375,0.585449,0
65820,0.384766,-0.609863,0.546875,0
65840,0.375977,-0.617188,0.562988,0
65860,0.40332,-0.616699,0.594238,0
65880,0.397949,-0.618652,0.597168,0
65900,0.384277,-0.631348,0.564941,0
65920,0.398926,-0.638672,0.583984,0
65940,0.400391,-0.643066,0.598633,0
65960,0.367676,-0.634277,0.576172,0
65980,0.34082,-0.647949,0.538086,0
66000,0.356934,-0.653809,0.578125,0
66020,0.362305,-0.649414,0.603516,0
66040,0.36377,-0.64209,0.573242,0
66060,0.352539,-0.654785,0.567871,0
66080,0.370605,-0.659668,0.575684,0
