Timestamp, Acceleration x, Acceleration y, Acceleration z, Marker
30,-0.385742,-0.610352,0.640137,0
50,-0.391602,-0.595703,0.637695,0
70,-0.394531,-0.60791,0.633789,0
90,-0.401855,-0.604492,0.630371,0
110,-0.400391,-0.612793,0.62793,0
130,-0.408691,-0.613281,0.621094,0
140,-0.410645,-0.61084,0.630859,0
140,-0.418457,-0.617676,0.620605,0
190,-0.426758,-0.619629,0.619629,0
210,-0.420898,-0.621094,0.615234,0
230,-0.424805,-0.61377,0.623535,0
250,-0.424805,-0.602539,0.629395,0
270,-0.418945,-0.59375,0.638672,0
290,-0.418457,-0.598145,0.636719,0
300,-0.417969,-0.608398,0.640137,0
330,-0.416504,-0.603516,0.633301,0
350,-0.411133,-0.608398,0.63916,0
370,-0.402344,-0.61084,0.624023,0
390,-0.404785,-0.616699,0.620117,0
410,-0.40625,-0.616211,0.632324,0
420,-0.409668,-0.613281,0.633789,0
440,-0.410645,-0.612793,0.633789,0
460,-0.405762,-0.611816,0.628418,0
480,-0.401367,-0.610352,0.625977,0
500,-0.410156,-0.607422,0.620605,0
520,-0.412598,-0.606445,0.618652,0
540,-0.397949,-0.613281,0.618164,0
560,-0.395996,-0.606445,0.628418,0
580,-0.413574,-0.602051,0.627441,0
600,-0.414551,-0.609863,0.621582,0
620,-0.418457,-0.626953,0.628906,0
640,-0.415039,-0.626465,0.617188,0
660,-0.427246,-0.633301,0.624023,0
680,-0.430664,-0.633789,0.637207,0
700,-0.433105,-0.632812,0.62793,0
720,-0.430664,-0.631836,0.615723,0
740,-0.425293,-0.616211,0.614746,0
760,-0.436035,-0.60791,0.60498,0
780,-0.429688,-0.60791,0.598145,0
800,-0.432617,-0.616211,0.591797,0
820,-0.431641,-0.614258,0.586426,0
840,-0.419434,-0.624023,0.593262,0
860,-0.417969,-0.621094,0.599121,0
880,-0.413574,-0.625977,0.602539,0
900,-0.421387,-0.636719,0.606445,0
920,-0.425293,-0.629395,0.602539,0
940,-0.419922,-0.63623,0.599609,0
960,-0.42334,-0.631836,0.609863,0
980,-0.432617,-0.632812,0.604004,0
1000,-0.430664,-0.624023,0.593262,0
1020,-0.424316,-0.624512,0.596191,0
1040,-0.434082,-0.625977,0.597168,0
1060,-0.446289,-0.633301,0.599609,0
1080,-0.44043,-0.629883,0.596191,0
1100,-0.443359,-0.623047,0.592285,0
1120,-0.435059,-0.623047,0.589844,0
1140,-0.435547,-0.625977,0.587891,0
1160,-0.436035,-0.62793,0.597168,0
1180,-0.442383,-0.62793,0.582031,0
1200,-0.44043,-0.640625,0.584473,0
1220,-0.446777,-0.633301,0.595703,0
1240,-0.43457,-0.608887,0.590332,0
1260,-0.429688,-0.619141,0.583984,0
1280,-0.430176,-0.630371,0.584473,0
1300,-0.428711,-0.642578,0.580078,0
1320,-0.425293,-0.638672,0.583496,0
1340,-0.429199,-0.636719,0.589355,0
1360,-0.431641,-0.635742,0.587402,0
1380,-0.435547,-0.637207,0.589844,0
1400,-0.436523,-0.634277,0.587891,0
1420,-0.438477,-0.62207,0.580566,0
1440,-0.43457,-0.627441,0.577148,0
1460,-0.444336,-0.617676,0.591309,0
1480,-0.438477,-0.616699,0.587402,0
1500,-0.435547,-0.622559,0.588867,0
1520,-0.444336,-0.619629,0.591309,0
1540,-0.440918,-0.621094,0.59082,0
1560,-0.441406,-0.630371,0.584961,0
1580,-0.441895,-0.638184,0.591797,0
1600,-0.435547,-0.637695,0.59668,0
1620,-0.439941,-0.643555,0.590332,0
1640,-0.431641,-0.64502,0.601074,0
1660,-0.427734,-0.645996,0.597656,0
1680,-0.42627,-0.639648,0.60498,0
1700,-0.428223,-0.63623,0.606934,0
1720,-0.426758,-0.634277,0.609375,0
1740,-0.423828,-0.628418,0.609375,0
1760,-0.426758,-0.62793,0.606445,0
1780,-0.420898,-0.618652,0.608398,0
1800,-0.418945,-0.616211,0.602539,0
1820,-0.419922,-0.61377,0.612793,0
1840,-0.421387,-0.609863,0.62207,0
1860,-0.422852,-0.612305,0.625488,0
1880,-0.407715,-0.615234,0.623535,0
1900,-0.398438,-0.609863,0.618164,0
1920,-0.399414,-0.604004,0.622559,0
1940,-0.404297,-0.611816,0.613281,0
1960,-0.410645,-0.623535,0.618164,0
1980,-0.416992,-0.629395,0.615234,0
2000,-0.423828,-0.631836,0.608887,0
2020,-0.425293,-0.62793,0.603516,0
2040,-0.428711,-0.635742,0.604004,0
2060,-0.432129,-0.634277,0.60498,0
2080,-0.435059,-0.633789,0.615234,0
2100,-0.425293,-0.621582,0.609375,0
2120,-0.419434,-0.621582,0.612793,0
2140,-0.418457,-0.619141,0.617676,0
2160,-0.413086,-0.615723,0.616211,0
2180,-0.40918,-0.625977,0.625,0
2200,-0.408203,-0.615723,0.62207,0
2220,-0.411133,-0.612793,0.62207,0
2240,-0.40625,-0.608887,0.621094,0
2260,-0.416016,-0.613281,0.623047,0
2280,-0.414062,-0.611816,0.624512,0
2300,-0.416504,-0.615234,0.632812,0
2320,-0.410156,-0.616211,0.634277,0
2340,-0.411621,-0.615723,0.628418,0
2360,-0.411621,-0.615234,0.625,0
2380,-0.405273,-0.612793,0.625,0
2400,-0.402344,-0.617676,0.625977,0
2420,-0.400879,-0.615723,0.625488,0
2440,-0.399902,-0.61377,0.626953,0
2460,-0.397949,-0.609375,0.62793,0
2480,-0.38916,-0.598633,0.630859,0
2500,-0.377441,-0.592773,0.634766,0
2520,-0.379883,-0.597168,0.629395,0
2540,-0.404785,-0.617676,0.616211,0
2560,-0.416504,-0.630859,0.615723,0
2580,-0.423828,-0.634277,0.607422,0
2600,-0.429688,-0.629395,0.602051,0
2620,-0.431641,-0.624512,0.60791,0
2640,-0.4375,-0.62793,0.612793,0
2660,-0.437012,-0.628418,0.608398,0
2680,-0.426758,-0.627441,0.615234,0
2700,-0.421387,-0.618652,0.614746,0
2720,-0.416016,-0.612793,0.626465,0
2740,-0.416504,-0.609375,0.617676,0
2760,-0.413086,-0.614746,0.625,0
2780,-0.410645,-0.611328,0.627441,0
2800,-0.411133,-0.608887,0.625977,0
2820,-0.408691,-0.618652,0.626465,0
2840,-0.409668,-0.618164,0.625977,0
2860,-0.40332,-0.621582,0.621582,0
2880,-0.40332,-0.618164,0.620117,0
2900,-0.399414,-0.61377,0.617188,0
2920,-0.403809,-0.613281,0.618164,0
2940,-0.406738,-0.616211,0.619141,0
2960,-0.411133,-0.61084,0.621582,0
2980,-0.411621,-0.60791,0.615723,0
3000,-0.411621,-0.615723,0.619141,0
3020,-0.410645,-0.606934,0.616699,0
3040,-0.415527,-0.608398,0.625488,0
3060,-0.417969,-0.606445,0.622559,0
3080,-0.416016,-0.609863,0.620605,0
3100,-0.414062,-0.614258,0.616699,0
3110,-0.414062,-0.612793,0.616699,0
3130,-0.415527,-0.619141,0.622559,0
3150,-0.403809,-0.616211,0.626953,0
3170,-0.405762,-0.624023,0.62207,0
3190,-0.401367,-0.618164,0.632812,0
3210,-0.400879,-0.617676,0.625488,0
3230,-0.404785,-0.612793,0.634766,0
3250,-0.407715,-0.611328,0.627441,0
3270,-0.412109,-0.618652,0.625977,0
3290,-0.41748,-0.604492,0.628906,0
3310,-0.417969,-0.610352,0.623535,0
3330,-0.414062,-0.616211,0.619629,0
3350,-0.411133,-0.608398,0.620117,0
3370,-0.407715,-0.603027,0.614258,0
3390,-0.42041,-0.600098,0.617188,0
3410,-0.415527,-0.608398,0.625488,0
3430,-0.415527,-0.614746,0.625,0
3450,-0.402832,-0.61084,0.620605,0
3470,-0.396484,-0.606934,0.620117,0
3490,-0.40625,-0.615723,0.626465,0
3510,-0.401367,-0.618652,0.627441,0
3530,-0.407715,-0.606934,0.630859,0
3550,-0.409668,-0.608398,0.630859,0
3570,-0.407227,-0.61084,0.627441,0
3590,-0.411621,-0.613281,0.618164,0
3610,-0.410645,-0.609375,0.616699,0
3630,-0.416504,-0.605469,0.626953,0
3650,-0.411133,-0.614746,0.629395,0
3670,-0.424316,-0.608887,0.62793,0
3690,-0.425781,-0.605469,0.625,0
3710,-0.412598,-0.611816,0.62793,0
3730,-0.408203,-0.615234,0.625488,0
3750,-0.399902,-0.604004,0.628418,0
3770,-0.402832,-0.60791,0.62793,0
3790,-0.392578,-0.606445,0.631348,0
3810,-0.401855,-0.616699,0.631348,0
3830,-0.404297,-0.616211,0.63623,0
3850,-0.399414,-0.615723,0.629395,0
3870,-0.414062,-0.620605,0.630371,0
3890,-0.414551,-0.609863,0.621094,0
3910,-0.40625,-0.621582,0.623535,0
3930,-0.407227,-0.61084,0.618652,0
3950,-0.411621,-0.614746,0.622559,0
3970,-0.410156,-0.617188,0.623047,0
3990,-0.411621,-0.620117,0.625,0
4010,-0.416504,-0.621094,0.620117,0
4030,-0.416016,-0.618652,0.624512,0
4050,-0.410156,-0.616699,0.616699,0
4070,-0.412109,-0.611816,0.621582,0
4090,-0.415039,-0.619141,0.619629,0
4110,-0.416504,-0.616211,0.611328,0
4130,-0.416504,-0.611816,0.609863,0
4150,-0.413086,-0.614746,0.616699,0
4170,-0.421875,-0.621582,0.625488,0
4190,-0.424316,-0.624023,0.613281,0
4210,-0.418457,-0.621094,0.620605,0
4230,-0.418457,-0.618164,0.611328,0
4250,-0.40918,-0.613281,0.600098,0
4270,-0.404297,-0.611816,0.597656,0
4290,-0.410645,-0.612793,0.614258,0
4310,-0.408691,-0.614258,0.625488,0
4330,-0.411133,-0.62207,0.624023,0
4350,-0.407227,-0.621094,0.61377,0
4370,-0.408203,-0.616699,0.616699,0
4390,-0.404785,-0.615234,0.620605,0
4410,-0.40918,-0.611328,0.609375,0
4430,-0.402832,-0.61377,0.613281,0
4450,-0.414551,-0.614258,0.625977,0
4470,-0.413574,-0.608887,0.624512,0
4490,-0.413574,-0.614258,0.630371,0
4510,-0.418945,-0.616699,0.619629,0
4530,-0.416016,-0.612793,0.617676,0
4550,-0.413086,-0.615723,0.621094,0
4570,-0.41748,-0.613281,0.62207,0
4590,-0.418457,-0.614258,0.623047,0
4610,-0.418945,-0.618652,0.628418,0
4630,-0.414062,-0.619629,0.619141,0
4650,-0.413086,-0.620605,0.628418,0
4670,-0.405273,-0.613281,0.618164,0
4690,-0.407715,-0.615723,0.618164,0
4710,-0.40625,-0.61084,0.625,0
4730,-0.403809,-0.61084,0.628906,0
4750,-0.403809,-0.606445,0.62793,0
4770,-0.399902,-0.611328,0.629883,0
4790,-0.410156,-0.612793,0.626953,0
4810,-0.403809,-0.607422,0.632812,0
4830,-0.40332,-0.607422,0.625977,0
4850,-0.398438,-0.604004,0.618652,0
4870,-0.400879,-0.599121,0.61084,0
4890,-0.404785,-0.597656,0.608887,0
4910,-0.410156,-0.595703,0.604492,0
4930,-0.404297,-0.61377,0.618652,0
4950,-0.407715,-0.613281,0.626465,0
4970,-0.398438,-0.616211,0.651855,0
4990,-0.400879,-0.617188,0.663574,0
5010,-0.407227,-0.625488,0.649902,0
5030,-0.401367,-0.618652,0.647461,0
5050,-0.408691,-0.615723,0.64502,0
5070,-0.41748,-0.608398,0.638184,0
5080,-0.423828,-0.606445,0.649414,0
5100,-0.431152,-0.60498,0.633789,0
5120,-0.428223,-0.597168,0.635742,0
5140,-0.430176,-0.600586,0.628906,0
5160,-0.416504,-0.597656,0.616699,0
5180,-0.402832,-0.612305,0.623535,0
5200,-0.391602,-0.610352,0.626465,0
5220,-0.376953,-0.614258,0.635742,0
5240,-0.367188,-0.612793,0.634277,0
5260,-0.368652,-0.60498,0.650879,0
5280,-0.373047,-0.596191,0.648438,0
5300,-0.379883,-0.589844,0.637695,0
5320,-0.388672,-0.592285,0.638184,0
5340,-0.399414,-0.601074,0.633789,0
5360,-0.40332,-0.606445,0.631348,0
5380,-0.407715,-0.614746,0.631836,0
5400,-0.412109,-0.609863,0.627441,0
5420,-0.420898,-0.617676,0.626465,0
5440,-0.415527,-0.617676,0.62793,0
5460,-0.422363,-0.617188,0.625488,0
5480,-0.418945,-0.620605,0.62207,0
5500,-0.416504,-0.614746,0.618652,0
5520,-0.415527,-0.61084,0.624023,0
5540,-0.410645,-0.609375,0.619141,0
5560,-0.406738,-0.616699,0.616211,0
5580,-0.402344,-0.615234,0.621094,0
5600,-0.40625,-0.620605,0.621582,0
5620,-0.404297,-0.618164,0.621094,0
5640,-0.406738,-0.625488,0.616211,0
5660,-0.406738,-0.618164,0.625,0
5680,-0.406738,-0.619629,0.61377,0
5700,-0.40625,-0.611328,0.617188,0
5720,-0.411133,-0.619141,0.612305,0
5740,-0.411133,-0.619629,0.612793,0
5760,-0.40332,-0.611328,0.609375,0
5780,-0.413086,-0.613281,0.624023,0
5800,-0.416504,-0.613281,0.632812,0
5820,-0.416016,-0.619629,0.623535,0
5840,-0.410156,-0.618652,0.620117,0
5860,-0.411133,-0.614258,0.624023,0
5880,-0.403809,-0.619629,0.625,0
5900,-0.406738,-0.617188,0.624023,0
5920,-0.413086,-0.614746,0.624023,0
5940,-0.411133,-0.61084,0.62793,0
5960,-0.413574,-0.616211,0.625488,0
5980,-0.411133,-0.620605,0.624023,0
6000,-0.409668,-0.619141,0.616699,0
6020,-0.414062,-0.621094,0.614746,0
6040,-0.411621,-0.60791,0.612793,0
6060,-0.410156,-0.613281,0.611328,0
6080,-0.419922,-0.607422,0.62207,0
6100,-0.415527,-0.612793,0.619141,0
6120,-0.412598,-0.617188,0.617188,0
6140,-0.414062,-0.621094,0.614258,0
6160,-0.410156,-0.618652,0.611328,0
6180,-0.413086,-0.619629,0.611816,0
6200,-0.40918,-0.621094,0.608398,0
6220,-0.414062,-0.618164,0.618164,0
6240,-0.414551,-0.623047,0.617676,0
6260,-0.412109,-0.616699,0.620605,0
6280,-0.412598,-0.621582,0.616699,0
6300,-0.411133,-0.620117,0.619629,0
6320,-0.40625,-0.614746,0.619141,0
6340,-0.404785,-0.621582,0.624023,0
6360,-0.407227,-0.617188,0.623535,0
6380,-0.406738,-0.615723,0.629395,0
6400,-0.408203,-0.614258,0.622559,0
6420,-0.40625,-0.611328,0.627441,0
6440,-0.405762,-0.611816,0.625,0
6460,-0.405762,-0.611328,0.619141,0
6480,-0.40625,-0.617188,0.62207,0
6500,-0.404785,-0.608398,0.621094,0
6520,-0.405273,-0.613281,0.623535,0
6540,-0.402832,-0.608398,0.62207,0
6560,-0.401367,-0.614258,0.627441,0
6580,-0.415527,-0.61377,0.62793,0
6600,-0.408203,-0.615723,0.624512,0
6620,-0.401855,-0.621094,0.624023,0
6640,-0.403809,-0.616699,0.622559,0
6660,-0.400879,-0.621094,0.628418,0
6680,-0.402344,-0.615234,0.624023,0
6700,-0.40625,-0.614746,0.632324,0
6720,-0.402344,-0.613281,0.623535,0
6740,-0.407227,-0.616211,0.623535,0
6760,-0.401855,-0.613281,0.630859,0
6780,-0.402832,-0.611328,0.630859,0
6800,-0.40332,-0.611328,0.629883,0
6820,-0.397461,-0.606445,0.62793,0
6840,-0.402344,-0.608887,0.634277,0
6860,-0.40332,-0.603516,0.637695,0
6880,-0.401367,-0.607422,0.636719,0
6900,-0.398926,-0.60791,0.634766,0
6920,-0.400879,-0.605469,0.629395,0
6940,-0.395996,-0.609375,0.622559,0
6960,-0.397949,-0.607422,0.62793,0
6980,-0.402344,-0.612305,0.637695,0
7000,-0.403809,-0.611328,0.632324,0
7020,-0.404785,-0.615234,0.632812,0
7040,-0.40625,-0.610352,0.629883,0
7060,-0.401855,-0.61377,0.628906,0
7080,-0.401367,-0.615723,0.630859,0
7100,-0.398926,-0.609375,0.631348,0
7120,-0.402832,-0.610352,0.626465,0
7140,-0.398926,-0.609375,0.629395,0
7160,-0.405273,-0.609863,0.628418,0
7180,-0.404785,-0.610352,0.634277,0
7200,-0.403809,-0.607422,0.628906,0
7220,-0.403809,-0.609863,0.629395,0
7240,-0.404297,-0.610352,0.628906,0
7260,-0.404297,-0.607422,0.630859,0
7280,-0.398926,-0.609863,0.627441,0
7300,-0.401367,-0.61084,0.623535,0
7320,-0.398926,-0.604004,0.631836,0
7340,-0.40332,-0.605469,0.628906,0
7360,-0.400879,-0.611816,0.636719,0
7380,-0.40332,-0.612305,0.637695,0
7400,-0.403809,-0.617188,0.62793,0
7420,-0.397949,-0.61377,0.621094,0
7440,-0.396484,-0.615723,0.62207,0
7460,-0.399414,-0.61377,0.626953,0
7480,-0.40332,-0.612793,0.628418,0
7500,-0.406738,-0.608887,0.629883,0
7520,-0.403809,-0.612793,0.626465,0
7540,-0.405273,-0.619629,0.628418,0
7560,-0.404297,-0.616699,0.62793,0
7580,-0.408203,-0.617676,0.62207,0
7600,-0.40625,-0.613281,0.619629,0
7620,-0.394043,-0.615234,0.618164,0
7640,-0.402832,-0.612793,0.626465,0
7660,-0.401367,-0.622559,0.632324,0
7680,-0.410645,-0.629883,0.639648,0
7700,-0.407227,-0.632324,0.634277,0
7720,-0.406738,-0.625488,0.630371,0
7740,-0.40918,-0.60498,0.625488,0
7760,-0.413574,-0.595215,0.624023,0
7780,-0.414062,-0.599609,0.615234,0
7800,-0.412598,-0.595215,0.612305,0
7820,-0.411621,-0.602539,0.62207,0
7840,-0.406738,-0.605957,0.62207,0
7860,-0.401367,-0.61084,0.623047,0
7880,-0.391602,-0.619629,0.621582,0
7900,-0.395508,-0.630371,0.627441,0
7920,-0.392578,-0.62207,0.633301,0
7940,-0.395508,-0.627441,0.639648,0
7960,-0.398926,-0.62207,0.632812,0
7980,-0.403809,-0.614258,0.620117,0
8000,-0.410156,-0.609863,0.623047,0
8020,-0.413086,-0.60498,0.609863,0
8040,-0.416016,-0.604492,0.620117,0
8060,-0.416016,-0.602539,0.613281,0
8080,-0.41748,-0.618652,0.610352,0
8100,-0.412598,-0.626465,0.611816,0
8120,-0.40625,-0.625,0.609863,0
8140,-0.408691,-0.620117,0.612793,0
8160,-0.418457,-0.625,0.619629,0
8180,-0.425781,-0.629883,0.617676,0
8200,-0.421875,-0.627441,0.612793,0
8220,-0.412109,-0.631348,0.61084,0
8240,-0.40918,-0.623535,0.605957,0
8260,-0.405273,-0.628906,0.617676,0
8280,-0.400879,-0.625488,0.617676,0
8300,-0.40625,-0.624512,0.614746,0
8320,-0.402344,-0.62207,0.616211,0
8340,-0.403809,-0.617188,0.61084,0
8360,-0.411133,-0.618652,0.611816,0
8380,-0.408691,-0.619141,0.61084,0
8400,-0.416504,-0.625977,0.615723,0
8420,-0.414062,-0.624023,0.60498,0
8440,-0.407715,-0.625,0.609863,0
8460,-0.412598,-0.626465,0.622559,0
8480,-0.411621,-0.623047,0.625,0
8500,-0.412109,-0.630859,0.627441,0
8510,-0.405762,-0.62793,0.624023,0
8530,-0.410645,-0.632324,0.612305,0
8550,-0.405762,-0.624512,0.611328,0
8570,-0.410645,-0.622559,0.60498,0
8590,-0.416016,-0.621582,0.604492,0
8610,-0.41748,-0.619141,0.609863,0
8630,-0.420898,-0.626953,0.603516,0
8650,-0.414551,-0.625977,0.599121,0
8670,-0.410645,-0.630371,0.596191,0
8690,-0.408203,-0.625,0.597168,0
8710,-0.410645,-0.629883,0.605957,0
8730,-0.409668,-0.631836,0.606445,0
8750,-0.40918,-0.630371,0.609375,0
8770,-0.405762,-0.627441,0.611816,0
8790,-0.407715,-0.62793,0.609863,0
8810,-0.413574,-0.629883,0.61084,0
8830,-0.407715,-0.619629,0.616699,0
8850,-0.408203,-0.62207,0.615234,0
8870,-0.40918,-0.614258,0.619629,0
8890,-0.407715,-0.614258,0.619629,0
8910,-0.404785,-0.614746,0.618164,0
8930,-0.400879,-0.613281,0.616699,0
8950,-0.398438,-0.621094,0.623535,0
8970,-0.394043,-0.613281,0.621582,0
8990,-0.40332,-0.625488,0.632812,0
9010,-0.398438,-0.621582,0.631348,0
9030,-0.399414,-0.620117,0.630859,0
9050,-0.400879,-0.618164,0.62793,0
9070,-0.404297,-0.619629,0.62793,0
9090,-0.410156,-0.620605,0.623535,0
9110,-0.413086,-0.616699,0.623047,0
9130,-0.415039,-0.619141,0.622559,0
9150,-0.415039,-0.616699,0.624512,0
9170,-0.411133,-0.621582,0.625977,0
9190,-0.405762,-0.617188,0.62207,0
9210,-0.401855,-0.619629,0.630859,0
9230,-0.399902,-0.616211,0.620117,0
9250,-0.394531,-0.614746,0.620605,0
9270,-0.397949,-0.619141,0.631836,0
9290,-0.399414,-0.611328,0.629883,0
9310,-0.407227,-0.614746,0.634277,0
9330,-0.405762,-0.61084,0.625,0
9350,-0.405273,-0.608887,0.626465,0
9370,-0.399414,-0.615234,0.629395,0
9390,-0.402344,-0.61377,0.630371,0
9410,-0.406738,-0.615234,0.625488,0
9430,-0.399414,-0.609863,0.62793,0
9450,-0.404297,-0.62207,0.629395,0
9470,-0.40332,-0.61377,0.62793,0
9490,-0.405273,-0.625488,0.629883,0
9510,-0.405273,-0.62207,0.625,0
9530,-0.396973,-0.620117,0.624023,0
9550,-0.401367,-0.62207,0.622559,0
9570,-0.400879,-0.616699,0.624023,0
9590,-0.402344,-0.623535,0.621582,0
9610,-0.406738,-0.613281,0.620117,0
9630,-0.40625,-0.619629,0.618164,0
9650,-0.40918,-0.617676,0.613281,0
9670,-0.406738,-0.617188,0.616699,0
9690,-0.413086,-0.619629,0.616211,0
9710,-0.411621,-0.612305,0.613281,0
9730,-0.40918,-0.611816,0.606934,0
9750,-0.412109,-0.61084,0.61377,0
9770,-0.418457,-0.619629,0.618652,0
9790,-0.417969,-0.624023,0.615723,0
9810,-0.422852,-0.627441,0.60791,0
9830,-0.412109,-0.635742,0.604492,0
9850,-0.404785,-0.62793,0.610352,0
9870,-0.408691,-0.634766,0.621582,0
9890,-0.407715,-0.622559,0.617188,0
9910,-0.411621,-0.623535,0.611816,0
9930,-0.408203,-0.621582,0.619629,0
9950,-0.411621,-0.625977,0.608887,0
9970,-0.416992,-0.628418,0.613281,0
9990,-0.41748,-0.622559,0.608887,0
10010,-0.415039,-0.620605,0.605957,0
10030,-0.416504,-0.619141,0.611816,0
10050,-0.419434,-0.625977,0.602539,0
10070,-0.414062,-0.620605,0.594727,0
10090,-0.407227,-0.630371,0.592285,0
10110,-0.406738,-0.625488,0.59082,0
10130,-0.407715,-0.627441,0.605957,0
10150,-0.420898,-0.627441,0.599609,0
10170,-0.419922,-0.623047,0.604004,0
10190,-0.42334,-0.629395,0.604492,0
10210,-0.42041,-0.632324,0.603516,0
10230,-0.422852,-0.64502,0.608398,0
10250,-0.418457,-0.63623,0.609375,0
10270,-0.412109,-0.635742,0.614746,0
10290,-0.408691,-0.629395,0.608398,0
10310,-0.408203,-0.624512,0.614258,0
10330,-0.414062,-0.622559,0.615234,0
10350,-0.416504,-0.620117,0.614746,0
10370,-0.422363,-0.618652,0.616699,0
10390,-0.416992,-0.612305,0.618652,0
10410,-0.413086,-0.614746,0.618164,0
10430,-0.414062,-0.618164,0.617676,0
10450,-0.409668,-0.617676,0.614746,0
10470,-0.407715,-0.613281,0.615234,0
10490,-0.400391,-0.617676,0.618652,0
10500,-0.409668,-0.629883,0.627441,0
10520,-0.407227,-0.627441,0.617188,0
10540,-0.403809,-0.633301,0.619629,0
10560,-0.395996,-0.625488,0.614746,0
10580,-0.396973,-0.624512,0.618652,0
10600,-0.400391,-0.624023,0.625977,0
10620,-0.404297,-0.620117,0.623047,0
10640,-0.410156,-0.617676,0.62207,0
10660,-0.405762,-0.619141,0.615234,0
10680,-0.413086,-0.622559,0.616211,0
10700,-0.410645,-0.621582,0.611816,0
10720,-0.414062,-0.622559,0.617188,0
10740,-0.40625,-0.624512,0.614746,0
10760,-0.405273,-0.622559,0.621094,0
10780,-0.40918,-0.619141,0.616211,0
10800,-0.404785,-0.619629,0.621582,0
10820,-0.40625,-0.624512,0.628418,0
10840,-0.40332,-0.621094,0.622559,0
10860,-0.402832,-0.625977,0.621582,0
10880,-0.401855,-0.618652,0.620605,0
10900,-0.404785,-0.618652,0.620605,0
10920,-0.401367,-0.614746,0.620117,0
10940,-0.407227,-0.61377,0.626465,0
10960,-0.40918,-0.615723,0.621094,0
10980,-0.411133,-0.607422,0.617676,0
11000,-0.404297,-0.622559,0.615723,0
11020,-0.401367,-0.616211,0.615234,0
11040,-0.404785,-0.624023,0.61377,0
11060,-0.40332,-0.619141,0.623047,0
11080,-0.401367,-0.629395,0.624023,0
11100,-0.407227,-0.628906,0.623535,0
11120,-0.402344,-0.624512,0.620117,0
11140,-0.402832,-0.626465,0.619629,0
11160,-0.404297,-0.618164,0.62207,0
11180,-0.403809,-0.617188,0.623047,0
11200,-0.40625,-0.613281,0.622559,0
11220,-0.402344,-0.614258,0.625,0
11240,-0.405273,-0.612305,0.621094,0
11260,-0.410645,-0.613281,0.630859,0
11280,-0.40625,-0.620117,0.624512,0
11300,-0.399902,-0.62207,0.620605,0
11320,-0.401367,-0.623535,0.619141,0
11340,-0.397949,-0.619629,0.623535,0
11360,-0.404297,-0.618164,0.628906,0
11380,-0.402344,-0.612793,0.628418,0
11400,-0.403809,-0.621094,0.623535,0
11420,-0.402832,-0.623535,0.620117,0
11440,-0.408203,-0.624023,0.62207,0
11460,-0.407227,-0.630371,0.619629,0
11480,-0.407227,-0.624023,0.617676,0
11500,-0.402832,-0.616211,0.619141,0
11520,-0.40332,-0.613281,0.62207,0
11540,-0.408691,-0.612793,0.623047,0
11560,-0.408691,-0.614258,0.626465,0
11580,-0.402344,-0.616699,0.623535,0
11600,-0.404297,-0.62207,0.624023,0
11620,-0.397461,-0.619629,0.623047,0
11640,-0.401855,-0.621582,0.625488,0
11660,-0.400391,-0.618164,0.624023,0
11680,-0.400879,-0.619141,0.629395,0
11700,-0.405273,-0.624512,0.626465,0
11720,-0.404785,-0.618164,0.621094,0
11740,-0.402832,-0.623535,0.62207,0
11760,-0.401855,-0.619629,0.622559,0
11780,-0.400879,-0.622559,0.620117,0
11800,-0.401855,-0.614746,0.620117,0
11820,-0.404297,-0.62207,0.626953,0
11840,-0.405762,-0.622559,0.618652,0
11860,-0.407715,-0.62207,0.616211,0
11880,-0.408203,-0.624023,0.623047,0
11900,-0.407227,-0.620605,0.62207,0
11920,-0.405762,-0.620117,0.621094,0
11940,-0.405273,-0.62207,0.617676,0
11960,-0.405273,-0.616699,0.61084,0
11980,-0.404297,-0.614746,0.622559,0
12000,-0.399414,-0.612305,0.619141,0
12020,-0.40918,-0.617188,0.628418,0
12040,-0.412598,-0.617676,0.62793,0
12060,-0.40625,-0.625488,0.61377,0
12080,-0.396973,-0.618652,0.616211,0
12100,-0.401367,-0.625977,0.616699,0
12120,-0.399414,-0.621094,0.620605,0
12140,-0.407227,-0.618164,0.623047,0
12160,-0.408203,-0.616699,0.625977,0
12180,-0.40918,-0.621094,0.619141,0
12200,-0.40625,-0.628906,0.618164,0
12220,-0.407227,-0.624023,0.615234,0
12240,-0.412109,-0.629883,0.617676,0
12260,-0.410156,-0.618652,0.618652,0
12280,-0.405273,-0.620117,0.618164,0
12300,-0.410645,-0.615723,0.624512,0
12320,-0.416504,-0.617676,0.617676,0
12340,-0.414551,-0.620605,0.619629,0
12360,-0.409668,-0.619629,0.609375,0
12380,-0.408203,-0.626465,0.61084,0
12400,-0.404297,-0.622559,0.614258,0
12420,-0.40918,-0.630371,0.61377,0
12440,-0.412598,-0.622559,0.618652,0
12460,-0.409668,-0.625,0.618652,0
12480,-0.414551,-0.627441,0.619141,0
12500,-0.40918,-0.623535,0.620117,0
12520,-0.40918,-0.626465,0.610352,0
12540,-0.404785,-0.620605,0.612793,0
12560,-0.40625,-0.62207,0.616699,0
12580,-0.409668,-0.617676,0.615234,0
12600,-0.40918,-0.620605,0.614258,0
12620,-0.415527,-0.617676,0.61377,0
12640,-0.413574,-0.621094,0.616699,0
12660,-0.414062,-0.623535,0.605957,0
12680,-0.42041,-0.618164,0.610352,0
12700,-0.415527,-0.626465,0.604004,0
12720,-0.408691,-0.619141,0.609863,0
12740,-0.410156,-0.622559,0.611816,0
12760,-0.413086,-0.621094,0.611816,0
12780,-0.42041,-0.626953,0.619141,0
12800,-0.418457,-0.627441,0.61084,0
12820,-0.409668,-0.622559,0.605469,0
12840,-0.410645,-0.631348,0.609863,0
12860,-0.409668,-0.623047,0.609863,0
12880,-0.410645,-0.627441,0.619629,0
12900,-0.410645,-0.616211,0.616699,0
12920,-0.40918,-0.621094,0.619141,0
12940,-0.411133,-0.621094,0.618164,0
12960,-0.407715,-0.628418,0.611816,0
12980,-0.409668,-0.630859,0.615723,0
13000,-0.40918,-0.617188,0.617676,0
13020,-0.40918,-0.623047,0.612305,0
13040,-0.412109,-0.618652,0.621094,0
13060,-0.406738,-0.622559,0.618164,0
13080,-0.411621,-0.625,0.618652,0
13100,-0.408203,-0.622559,0.610352,0
13120,-0.409668,-0.629395,0.616699,0
13140,-0.402832,-0.622559,0.618164,0
13160,-0.406738,-0.628906,0.620117,0
13180,-0.412109,-0.624023,0.614746,0
13200,-0.409668,-0.630859,0.614258,0
13220,-0.414551,-0.631348,0.617676,0
13240,-0.413086,-0.633789,0.618164,0
13260,-0.411621,-0.627441,0.613281,0
13280,-0.404297,-0.625,0.608887,0
13300,-0.405273,-0.625977,0.61084,0
13320,-0.400879,-0.618164,0.606934,0
13340,-0.408203,-0.620605,0.60498,0
13360,-0.408691,-0.614258,0.610352,0
13380,-0.413086,-0.61377,0.61377,0
13400,-0.414551,-0.621582,0.608887,0
13420,-0.413574,-0.626953,0.61377,0
13440,-0.420898,-0.62793,0.612793,0
13460,-0.413574,-0.625977,0.610352,0
13480,-0.415039,-0.628418,0.614746,0
13500,-0.411133,-0.619629,0.605957,0
13520,-0.40918,-0.622559,0.614746,0
13540,-0.40332,-0.615234,0.616699,0
13560,-0.406738,-0.620117,0.62793,0
13580,-0.410645,-0.625,0.621582,0
13600,-0.402832,-0.623535,0.624023,0
13620,-0.402344,-0.622559,0.618652,0
13640,-0.398926,-0.621094,0.61377,0
13660,-0.40625,-0.624023,0.624512,0
13680,-0.40625,-0.620605,0.619629,0
13700,-0.40625,-0.612305,0.615234,0
13720,-0.404785,-0.617676,0.613281,0
13740,-0.407715,-0.62207,0.620117,0
13760,-0.407715,-0.625488,0.615234,0
13780,-0.40918,-0.618652,0.619141,0
13800,-0.411133,-0.624512,0.617188,0
13820,-0.40625,-0.620117,0.616211,0
13840,-0.406738,-0.619629,0.615723,0
13860,-0.410645,-0.615234,0.620117,0
13880,-0.408203,-0.617676,0.623047,0
13890,-0.406738,-0.624512,0.625488,0
13910,-0.405273,-0.619141,0.617188,0
13930,-0.402344,-0.621582,0.622559,0
13950,-0.404297,-0.614746,0.624512,0
13970,-0.405273,-0.619629,0.625977,0
13990,-0.404785,-0.616211,0.626953,0
14010,-0.401367,-0.61377,0.624023,0
14030,-0.398926,-0.619141,0.628906,0
14050,-0.400879,-0.615234,0.628906,0
14070,-0.398926,-0.619141,0.630371,0
14090,-0.399414,-0.612793,0.623535,0
14110,-0.400391,-0.618652,0.624512,0
14130,-0.405273,-0.616211,0.62207,0
14150,-0.40332,-0.617676,0.625,0
14170,-0.404297,-0.61377,0.624023,0
14190,-0.407715,-0.618652,0.624512,0
14210,-0.40918,-0.623047,0.625,0
14230,-0.409668,-0.619141,0.624023,0
14250,-0.40625,-0.621094,0.617676,0
14270,-0.403809,-0.614746,0.617188,0
14290,-0.40625,-0.620605,0.620117,0
14310,-0.403809,-0.615723,0.625,0
14330,-0.398926,-0.616699,0.617676,0
14350,-0.402832,-0.615723,0.626465,0
14370,-0.408691,-0.618164,0.631348,0
14390,-0.40625,-0.619141,0.625977,0
14410,-0.403809,-0.620117,0.619629,0
14430,-0.400879,-0.619629,0.623047,0
14450,-0.402832,-0.619141,0.625488,0
14470,-0.403809,-0.619629,0.620605,0
14490,-0.40918,-0.619141,0.620117,0
14510,-0.403809,-0.62207,0.615234,0
14530,-0.402344,-0.623047,0.618164,0
14550,-0.401855,-0.614746,0.616211,0
14570,-0.395508,-0.630371,0.615234,0
14590,-0.404785,-0.625488,0.628418,0
14610,-0.404297,-0.625977,0.617676,0
14630,-0.404297,-0.626465,0.62207,0
14650,-0.410156,-0.621094,0.619629,0
14670,-0.415039,-0.624512,0.617188,0
14690,-0.414551,-0.621582,0.623047,0
14710,-0.414062,-0.620605,0.619629,0
14730,-0.409668,-0.61377,0.616211,0
14750,-0.411133,-0.620605,0.612305,0
14770,-0.412598,-0.623535,0.60791,0
14790,-0.412109,-0.624023,0.609863,0
14810,-0.415039,-0.624512,0.609863,0
14830,-0.408203,-0.624512,0.612793,0
14850,-0.408691,-0.634766,0.611816,0
14870,-0.402832,-0.630371,0.609863,0
14890,-0.407227,-0.632324,0.616211,0
14910,-0.405762,-0.628418,0.606934,0
14930,-0.411621,-0.628906,0.609863,0
14950,-0.407227,-0.628906,0.612305,0
14970,-0.408203,-0.621094,0.617676,0
14990,-0.410156,-0.624512,0.612305,0
15010,-0.413086,-0.623535,0.617188,0
15030,-0.415039,-0.624512,0.60791,0
15050,-0.415527,-0.620605,0.613281,0
15070,-0.412598,-0.624512,0.611816,0
15090,-0.413086,-0.62207,0.603516,0
15110,-0.410156,-0.622559,0.606934,0
15130,-0.413086,-0.621094,0.607422,0
15150,-0.416504,-0.621582,0.614746,0
15170,-0.42041,-0.633789,0.614746,0
15190,-0.42334,-0.624512,0.614258,0
15210,-0.417969,-0.631348,0.605957,0
15230,-0.408691,-0.629883,0.608398,0
15250,-0.408203,-0.628418,0.598145,0
15270,-0.410156,-0.629883,0.60791,0
15290,-0.416016,-0.619141,0.61084,0
15310,-0.414551,-0.626465,0.616699,0
15330,-0.412109,-0.626465,0.611328,0
15350,-0.414062,-0.629395,0.608398,0
15370,-0.414062,-0.626465,0.607422,0
15390,-0.415527,-0.624023,0.614258,0
15410,-0.411133,-0.622559,0.600098,0
15430,-0.413574,-0.619629,0.614258,0
15450,-0.418457,-0.618164,0.618652,0
15470,-0.420898,-0.620605,0.611328,0
15490,-0.419922,-0.622559,0.619141,0
15510,-0.410645,-0.620117,0.606445,0
15530,-0.411621,-0.625,0.612305,0
15550,-0.414062,-0.620117,0.610352,0
15570,-0.416992,-0.620117,0.607422,0
15590,-0.413086,-0.624512,0.614746,0
15610,-0.413086,-0.62207,0.613281,0
15630,-0.416504,-0.623535,0.615723,0
15650,-0.411133,-0.623047,0.61084,0
15670,-0.410156,-0.626953,0.610352,0
15690,-0.406738,-0.623047,0.612793,0
15710,-0.409668,-0.626465,0.611328,0
15730,-0.411133,-0.625488,0.613281,0
15750,-0.414551,-0.625488,0.614258,0
15770,-0.414062,-0.621582,0.61377,0
15790,-0.413086,-0.618164,0.61084,0
15810,-0.411133,-0.622559,0.606934,0
15830,-0.412598,-0.616211,0.604492,0
15850,-0.415039,-0.625488,0.605957,0
15870,-0.411133,-0.619141,0.610352,0
15880,-0.409668,-0.618164,0.60791,0
15900,-0.421387,-0.621094,0.611816,0
15920,-0.422363,-0.625488,0.610352,0
15940,-0.416992,-0.625488,0.602051,0
15960,-0.404785,-0.624512,0.607422,0
15980,-0.397461,-0.626465,0.611328,0
16000,-0.391602,-0.629395,0.623047,0
16020,-0.397949,-0.631348,0.630371,0
16040,-0.397949,-0.623535,0.626953,0
16060,-0.400391,-0.620117,0.627441,0
16080,-0.405762,-0.623535,0.624023,0
16100,-0.408203,-0.620117,0.62207,0
16120,-0.412109,-0.623047,0.625977,0
16140,-0.412109,-0.613281,0.623047,0
16160,-0.410645,-0.616211,0.624023,0
16180,-0.418945,-0.612793,0.628906,0
16200,-0.419922,-0.614258,0.617188,0
16220,-0.418457,-0.617676,0.612305,0
16240,-0.410645,-0.616211,0.614258,0
16260,-0.40625,-0.623047,0.613281,0
16280,-0.400879,-0.617188,0.620605,0
16300,-0.398438,-0.619629,0.620117,0
16320,-0.401367,-0.621582,0.617676,0
16340,-0.393555,-0.623047,0.624512,0
16360,-0.398926,-0.625,0.631836,0
16380,-0.397949,-0.620605,0.626953,0
16400,-0.396484,-0.615234,0.622559,0
16420,-0.400879,-0.61084,0.625,0
16440,-0.405762,-0.610352,0.624023,0
16460,-0.40625,-0.604492,0.62207,0
16480,-0.411621,-0.606445,0.626465,0
16500,-0.408691,-0.612305,0.625488,0
16520,-0.41748,-0.608887,0.625977,0
16540,-0.413086,-0.621094,0.627441,0
16560,-0.413086,-0.624512,0.627441,0
16580,-0.40918,-0.629395,0.616211,0
16600,-0.411621,-0.625,0.628418,0
16620,-0.407227,-0.611816,0.620117,0
16640,-0.399902,-0.618164,0.624023,0
16660,-0.398926,-0.604492,0.619141,0
16680,-0.402344,-0.609863,0.623535,0
16700,-0.406738,-0.602051,0.626465,0
16720,-0.401855,-0.612305,0.621094,0
16740,-0.396484,-0.611328,0.621582,0
16760,-0.395508,-0.617188,0.627441,0
16780,-0.395508,-0.617676,0.636719,0
16800,-0.400391,-0.615723,0.635254,0
16820,-0.409668,-0.617676,0.628418,0
16840,-0.409668,-0.618164,0.630859,0
16860,-0.415039,-0.628906,0.632324,0
16880,-0.416504,-0.627441,0.637695,0
16900,-0.416016,-0.621094,0.640625,0
16920,-0.416016,-0.62207,0.64502,0
16940,-0.413574,-0.621582,0.629395,0
16960,-0.428223,-0.625977,0.63623,0
16980,-0.430176,-0.630859,0.644043,0
17000,-0.425781,-0.612305,0.626465,0
17020,-0.438477,-0.606934,0.655762,0
17040,-0.441406,-0.616211,0.641113,0
17060,-0.449707,-0.60498,0.619629,0
17080,-0.459473,-0.611328,0.609375,0
17100,-0.514648,-0.583984,0.561523,0
17120,-0.522461,-0.591797,0.577637,0
17140,-0.480469,-0.562012,0.571289,0
17160,-0.481934,-0.570312,0.571289,0
17180,-0.462402,-0.61084,0.596191,0
17200,-0.450195,-0.597656,0.612793,0
17220,-0.428223,-0.62207,0.608887,0
17240,-0.419434,-0.625977,0.600586,0
17260,-0.409668,-0.626953,0.596191,0
17280,-0.387207,-0.618652,0.607422,0
17300,-0.375488,-0.62207,0.626953,0
17320,-0.386719,-0.647949,0.637695,0
17340,-0.372559,-0.645996,0.601562,0
17360,-0.373535,-0.645508,0.595215,0
17380,-0.379395,-0.636719,0.607422,0
17400,-0.410645,-0.657227,0.643066,0
17420,-0.404297,-0.66748,0.631836,0
17440,-0.391113,-0.662109,0.602539,0
17460,-0.409668,-0.637695,0.592285,0
17480,-0.445312,-0.631348,0.602051,0
17500,-0.447754,-0.648926,0.570801,0
17520,-0.433594,-0.649902,0.572266,0
17540,-0.432129,-0.638672,0.57373,0
17560,-0.421875,-0.654297,0.584473,0
17580,-0.399414,-0.65332,0.582031,0
17600,-0.387695,-0.674316,0.60498,0
17620,-0.369141,-0.682129,0.618652,0
17640,-0.340332,-0.679688,0.619629,0
17660,-0.318848,-0.67627,0.625,0
17680,-0.310059,-0.687988,0.647949,0
17700,-0.285645,-0.697266,0.666016,0
17720,-0.258301,-0.706055,0.65918,0
17740,-0.234863,-0.702637,0.658691,0
17760,-0.216797,-0.68457,0.651367,0
17780,-0.194336,-0.677734,0.64502,0
17800,-0.159668,-0.665527,0.631348,0
17820,-0.143555,-0.656738,0.631348,0
17840,-0.162109,-0.659668,0.644043,0
17860,-0.179688,-0.657715,0.643066,0
17880,-0.183105,-0.672363,0.647461,0
17900,-0.199219,-0.662598,0.652832,0
17920,-0.212402,-0.670898,0.65625,0
17940,-0.186035,-0.676758,0.65332,0
17960,-0.159668,-0.691406,0.623535,0
17980,-0.150391,-0.697754,0.630371,0
18000,-0.11084,-0.740723,0.609375,0
18020,-0.0439453,-0.746094,0.596191,0
18040,-0.0449219,-0.730957,0.609863,0
18060,-0.0966797,-0.70166,0.632324,0
18080,-0.125,-0.666504,0.620117,0
18100,-0.139648,-0.652832,0.585449,0
18120,-0.166992,-0.63916,0.605957,0
18140,-0.183105,-0.662109,0.631836,0
18160,-0.179688,-0.675293,0.634766,0
18180,-0.187012,-0.689941,0.635742,0
18200,-0.17627,-0.719727,0.634766,0
18220,-0.174805,-0.713867,0.628418,0
18240,-0.177734,-0.715332,0.627441,0
18260,-0.17627,-0.695801,0.597168,0
18280,-0.174805,-0.705078,0.56543,0
18300,-0.151367,-0.712402,0.544434,0
18320,-0.149902,-0.721191,0.554199,0
18340,-0.161621,-0.721191,0.571289,0
18360,-0.160645,-0.718262,0.589355,0
18380,-0.168457,-0.724121,0.624023,0
18400,-0.182617,-0.739258,0.652832,0
18420,-0.163574,-0.737793,0.655762,0
18440,-0.135742,-0.72998,0.632812,0
18460,-0.0952148,-0.714355,0.617188,0
18480,-0.027832,-0.723633,0.629395,0
18500,-0.00634766,-0.717773,0.655762,0
18520,-0.00390625,-0.714355,0.696289,0
18540,0.0117188,-0.705078,0.693848,0
18560,0.0336914,-0.706543,0.699219,0
18580,0.0654297,-0.682129,0.681152,0
18600,0.0732422,-0.668945,0.675781,0
18620,0.117676,-0.668945,0.657227,0
18640,0.121094,-0.677246,0.65625,0
18660,0.129395,-0.657715,0.649414,0
18680,0.17334,-0.636719,0.648438,0
18700,0.192383,-0.649414,0.657715,0
18720,0.178223,-0.661133,0.633301,0
18740,0.193848,-0.651367,0.627441,0
18760,0.230469,-0.656738,0.626465,0
18780,0.214355,-0.656738,0.631836,0
18800,0.243164,-0.678223,0.63916,0
18820,0.248535,-0.683105,0.629395,0
18840,0.268555,-0.67627,0.615723,0
18860,0.280273,-0.664551,0.605469,0
18880,0.284668,-0.678223,0.608398,0
18900,0.290527,-0.669434,0.61377,0
18920,0.293457,-0.660156,0.615723,0
18940,0.303223,-0.662109,0.612305,0
18960,0.302246,-0.650391,0.605469,0
18980,0.30957,-0.662598,0.594727,0
19000,0.300293,-0.659668,0.606445,0
19020,0.305664,-0.666992,0.601074,0
19040,0.315918,-0.667969,0.591797,0
19060,0.327148,-0.658691,0.589355,0
19080,0.333008,-0.652344,0.569824,0
19100,0.342773,-0.64502,0.574707,0
19120,0.352051,-0.64502,0.58252,0
19140,0.344238,-0.628906,0.583984,0
19160,0.333984,-0.633301,0.576172,0
19180,0.332031,-0.625488,0.59375,0
19200,0.355957,-0.625977,0.610352,0
19220,0.375488,-0.62207,0.595703,0
19240,0.383789,-0.625977,0.570801,0
19260,0.390625,-0.632324,0.574707,0
19270,0.402832,-0.646484,0.569824,0
19290,0.399902,-0.643555,0.558105,0
19310,0.380859,-0.656738,0.536621,0
19330,0.365723,-0.666016,0.539062,0
19350,0.353516,-0.662598,0.532227,0
19370,0.338379,-0.670898,0.530762,0
19390,0.35498,-0.675293,0.522949,0
19410,0.362793,-0.693848,0.518555,0
19430,0.352539,-0.69873,0.512695,0
19450,0.356445,-0.708496,0.511719,0
19470,0.356445,-0.727051,0.515137,0
19490,0.342285,-0.711426,0.507324,0
19510,0.348145,-0.713867,0.508789,0
19530,0.350586,-0.711426,0.510254,0
19550,0.345215,-0.711914,0.505371,0
19570,0.335938,-0.711914,0.518066,0
19590,0.338867,-0.711426,0.503418,0
19610,0.349121,-0.710938,0.510254,0
19630,0.36377,-0.702148,0.513184,0
19650,0.37793,-0.699707,0.521973,0
19670,0.386719,-0.702148,0.518555,0
19690,0.379395,-0.708008,0.51123,0
19710,0.378418,-0.70752,0.496094,0
19730,0.370117,-0.692383,0.501465,0
19750,0.367676,-0.708008,0.515625,0
19770,0.363281,-0.712891,0.51416,0
19790,0.356445,-0.722168,0.505371,0
19810,0.348633,-0.724609,0.49707,0
19830,0.345215,-0.722168,0.490234,0
19850,0.331543,-0.728027,0.482422,0
19870,0.324219,-0.716309,0.496582,0
19890,0.319824,-0.729004,0.492188,0
19910,0.319824,-0.729492,0.495117,0
19930,0.311035,-0.721191,0.503906,0
19950,0.314941,-0.708496,0.51123,0
19970,0.31543,-0.703613,0.508789,0
19990,0.330566,-0.699707,0.513184,0
20010,0.342773,-0.712402,0.51709,0
20030,0.351562,-0.722168,0.505371,0
20050,0.362305,-0.712891,0.493164,0
20070,0.362793,-0.719727,0.489746,0
20090,0.374512,-0.707031,0.500977,0
20110,0.38623,-0.717285,0.488281,0
20130,0.381348,-0.713379,0.493652,0
20150,0.378906,-0.704102,0.498535,0
20170,0.381836,-0.702148,0.493652,0
20190,0.376953,-0.694824,0.500977,0
20210,0.367188,-0.693359,0.508301,0
20230,0.363281,-0.696289,0.53125,0
20250,0.35791,-0.705566,0.534668,0
20270,0.353027,-0.701172,0.544434,0
20290,0.373047,-0.712402,0.540039,0
20310,0.384766,-0.711914,0.524902,0
20330,0.392578,-0.720703,0.497559,0
20350,0.414551,-0.740234,0.495605,0
20370,0.419922,-0.736328,0.498535,0
20390,0.425293,-0.741211,0.491211,0
20410,0.449219,-0.756836,0.486816,0
20430,0.432129,-0.746094,0.495117,0
20450,0.350098,-0.712891,0.514648,0
20470,0.297852,-0.725098,0.518066,0
20490,0.273926,-0.72998,0.536621,0
20510,0.232422,-0.738281,0.537598,0
20530,0.188965,-0.752441,0.526855,0
20550,0.189941,-0.760254,0.532227,0
20570,0.194336,-0.780273,0.526855,0
20590,0.185059,-0.762695,0.504395,0
20610,0.186523,-0.776367,0.501465,0
20630,0.207031,-0.788086,0.509277,0
20650,0.214844,-0.774414,0.496094,0
20690,0.248047,-0.777832,0.463379,0
20710,0.268555,-0.801758,0.45459,0
20730,0.270508,-0.789062,0.461426,0
20750,0.289062,-0.788574,0.436035,0
20770,0.329102,-0.778809,0.470215,0
20790,0.345215,-0.791016,0.466309,0
20810,0.377441,-0.810059,0.456543,0
20830,0.352539,-0.811523,0.449219,0
20850,0.318359,-0.789062,0.472656,0
20870,0.320801,-0.787598,0.486328,0
20890,0.253906,-0.798828,0.483887,0
20910,0.232422,-0.806152,0.493164,0
20930,0.224121,-0.811523,0.5,0
20950,0.206543,-0.791016,0.5,0
20970,0.185547,-0.779297,0.49707,0
20990,0.17041,-0.805176,0.483398,0
21010,0.164551,-0.82666,0.495117,0
21030,0.162109,-0.818359,0.489746,0
21050,0.151855,-0.800781,0.491211,0
21070,0.161133,-0.803223,0.495117,0
21090,0.209961,-0.811035,0.476562,0
21110,0.208008,-0.816406,0.472168,0
21130,0.198242,-0.818359,0.471191,0
21150,0.212402,-0.80127,0.457031,0
21170,0.234863,-0.834961,0.444336,0
21190,0.209473,-0.829102,0.462402,0
21210,0.204102,-0.799805,0.455566,0
21230,0.207031,-0.795898,0.453125,0
21250,0.208496,-0.79834,0.459473,0
21260,0.202637,-0.789062,0.455566,0
21280,0.180664,-0.773926,0.457031,0
21300,0.178711,-0.781738,0.465332,0
21320,0.180176,-0.79248,0.460938,0
21340,0.185059,-0.798828,0.469238,0
21360,0.175781,-0.793945,0.470215,0
21380,0.191895,-0.79834,0.439453,0
21400,0.188965,-0.792969,0.455566,0
21420,0.202637,-0.801758,0.458984,0
21440,0.227051,-0.793457,0.453125,0
21460,0.263184,-0.813477,0.449219,0
21480,0.26416,-0.807129,0.466309,0
21500,0.241699,-0.791992,0.473145,0
21520,0.226074,-0.807129,0.470703,0
21540,0.255859,-0.811035,0.468262,0
21560,0.245605,-0.811035,0.477051,0
21580,0.208008,-0.782227,0.456543,0
21600,0.205078,-0.784668,0.464355,0
21620,0.20752,-0.797852,0.472168,0
21640,0.216797,-0.789551,0.470703,0
21660,0.211426,-0.798828,0.481445,0
21680,0.191406,-0.804199,0.487305,0
21700,0.179688,-0.794922,0.464355,0
21720,0.168945,-0.800293,0.468262,0
21740,0.178223,-0.79248,0.460938,0
21760,0.18457,-0.794434,0.451172,0
21780,0.211914,-0.793457,0.449707,0
21800,0.196777,-0.811523,0.461426,0
21820,0.158203,-0.808105,0.454102,0
21840,0.149902,-0.81543,0.450684,0
21860,0.166992,-0.82666,0.452637,0
21880,0.179688,-0.815918,0.455078,0
21900,0.177246,-0.806641,0.452148,0
21920,0.201172,-0.817871,0.466309,0
21940,0.206543,-0.822754,0.46582,2000
21960,0.212402,-0.825684,0.472656,0
21980,0.221191,-0.823242,0.460938,0
22000,0.208496,-0.828125,0.470215,0
22020,0.1875,-0.821289,0.45752,0
22040,0.182129,-0.825195,0.463867,0
22060,0.186523,-0.828125,0.452637,0
22080,0.192871,-0.826172,0.458984,0
22100,0.198242,-0.807129,0.45459,0
22120,0.181641,-0.790039,0.455566,0
22140,0.182617,-0.805176,0.451172,0
22160,0.177734,-0.806641,0.446777,0
22180,0.168457,-0.807617,0.450684,0
22200,0.163086,-0.806152,0.458496,0
22220,0.17627,-0.813965,0.45752,0
22240,0.188477,-0.798828,0.45752,0
22260,0.177246,-0.800293,0.460449,0
22280,0.186035,-0.803711,0.464355,0
22300,0.189941,-0.813965,0.463867,0
22320,0.197754,-0.815918,0.442383,0
22340,0.20459,-0.82959,0.447266,0
22360,0.211426,-0.824219,0.460449,0
22380,0.222168,-0.819824,0.477539,0
22400,0.228516,-0.825684,0.462402,0
22420,0.216797,-0.822754,0.463867,0
22440,0.20166,-0.831055,0.463867,0
22460,0.234863,-0.83252,0.464355,0
22480,0.24707,-0.830566,0.455078,0
22500,0.23291,-0.831055,0.456055,0
22520,0.207031,-0.805664,0.451172,0
22540,0.210449,-0.813477,0.463867,0
22560,0.237305,-0.806152,0.477051,0
22580,0.249512,-0.820801,0.467773,0
22600,0.255371,-0.818848,0.453125,0
22620,0.236328,-0.82666,0.463379,0
22640,0.225586,-0.818848,0.447754,0
22660,0.208008,-0.811035,0.448242,0
22680,0.213379,-0.82373,0.474609,0
22700,0.203613,-0.816406,0.465332,0
22720,0.17041,-0.816895,0.453125,0
22740,0.151855,-0.812012,0.444824,0
22760,0.164062,-0.80957,0.444824,0
22780,0.168457,-0.808594,0.444824,0
22800,0.192871,-0.804688,0.432617,0
22820,0.187012,-0.811035,0.452148,0
22840,0.193359,-0.797852,0.446289,0
22860,0.211426,-0.804199,0.441406,0
22880,0.224609,-0.808105,0.42627,0
22900,0.212402,-0.810547,0.447754,0
22920,0.204102,-0.810059,0.448242,0
22940,0.217285,-0.801758,0.443848,0
22960,0.229004,-0.794922,0.452148,0
22980,0.240234,-0.790527,0.463379,0
23000,0.25293,-0.810547,0.455078,0
23020,0.276855,-0.817383,0.450195,0
23040,0.264648,-0.816895,0.448242,0
23060,0.261719,-0.807617,0.45166,0
23080,0.266602,-0.808105,0.458008,0
23100,0.288574,-0.799805,0.459473,0
23120,0.300781,-0.811523,0.455078,0
23140,0.290039,-0.817871,0.45166,0
23160,0.290527,-0.793457,0.45459,0
23180,0.279297,-0.796387,0.444824,0
23200,0.271973,-0.790527,0.445312,0
23220,0.254883,-0.781738,0.460449,0
23240,0.27002,-0.779297,0.448242,0
23260,0.29834,-0.785645,0.453613,0
23280,0.285645,-0.783203,0.46875,0
23300,0.26416,-0.765137,0.473145,0
23320,0.288574,-0.778809,0.460449,0
23340,0.306641,-0.780762,0.45166,0
23360,0.302734,-0.780273,0.45752,0
23380,0.311035,-0.777832,0.460449,0
23400,0.294922,-0.780762,0.458008,0
23420,0.299805,-0.773926,0.455078,0
23440,0.30127,-0.78418,0.444336,0
23460,0.331543,-0.783203,0.447266,0
23480,0.345703,-0.785156,0.456055,0
23500,0.327148,-0.773926,0.44873,0
23520,0.315918,-0.772461,0.451172,0
23540,0.294922,-0.759766,0.466797,0
23560,0.293457,-0.757812,0.463867,0
23580,0.31543,-0.767578,0.445801,0
23600,0.312988,-0.772461,0.450195,0
23620,0.312012,-0.764648,0.465332,0
23640,0.305664,-0.772461,0.471191,0
23660,0.316895,-0.773926,0.474609,0
23680,0.319336,-0.766113,0.470703,0
23700,0.329102,-0.763184,0.474609,0
23720,0.339844,-0.76416,0.480957,0
23740,0.343262,-0.755371,0.473633,0
23760,0.358398,-0.758789,0.460938,0
23780,0.374512,-0.75293,0.461914,0
23800,0.375,-0.751953,0.46582,0
23820,0.390137,-0.757812,0.472656,0
23840,0.385742,-0.740723,0.477539,0
23860,0.384277,-0.740234,0.48291,0
23880,0.383789,-0.73291,0.47168,0
23900,0.384277,-0.725098,0.479004,0
23920,0.375488,-0.721191,0.474121,0
23940,0.376465,-0.723633,0.467773,0
23960,0.374023,-0.733887,0.468262,0
23980,0.373535,-0.729004,0.47998,0
24000,0.377441,-0.727539,0.480469,0
24020,0.371582,-0.726074,0.46875,0
24040,0.381348,-0.733398,0.460449,0
24060,0.361816,-0.715332,0.479492,0
24080,0.372559,-0.711914,0.473145,0
24100,0.375977,-0.713379,0.472168,0
24120,0.380371,-0.722168,0.476074,0
24140,0.378906,-0.723145,0.481445,0
24160,0.383301,-0.711426,0.47168,0
24180,0.393066,-0.712891,0.474609,0
24200,0.394043,-0.720703,0.478027,0
24220,0.388184,-0.712891,0.481445,0
24240,0.38916,-0.714355,0.481445,0
24260,0.393555,-0.712891,0.481934,0
24280,0.398438,-0.710938,0.480957,0
24300,0.405762,-0.715332,0.494629,0
24320,0.402832,-0.711426,0.492188,0
24340,0.407715,-0.711426,0.48584,0
24360,0.411621,-0.709473,0.480469,0
24380,0.412109,-0.70459,0.486328,0
24400,0.413574,-0.702148,0.491699,0
24420,0.41748,-0.705078,0.493164,0
24440,0.41748,-0.696777,0.48877,0
24460,0.420898,-0.696777,0.48877,0
24480,0.419434,-0.69043,0.500488,0
24500,0.42041,-0.683105,0.495605,0
24520,0.423828,-0.682129,0.497559,0
24540,0.416504,-0.675781,0.494629,0
24560,0.411621,-0.685059,0.504395,0
24580,0.40918,-0.680176,0.500977,0
24600,0.413574,-0.681152,0.508789,0
24620,0.412598,-0.683105,0.504883,0
24640,0.414062,-0.686035,0.506348,0
24660,0.414551,-0.67334,0.512695,0
24670,0.413574,-0.674805,0.512695,0
24690,0.425781,-0.682129,0.515625,0
24710,0.418457,-0.681152,0.514648,0
24730,0.417969,-0.678711,0.513184,0
24750,0.416992,-0.673828,0.500488,0
24770,0.419922,-0.676758,0.50293,0
24790,0.411133,-0.666504,0.521973,0
24810,0.426758,-0.676758,0.533691,0
24830,0.428223,-0.675781,0.529785,0
24850,0.432129,-0.669434,0.516113,0
24870,0.424805,-0.659668,0.510742,0
24890,0.431641,-0.65918,0.52002,0
24910,0.430176,-0.663086,0.526855,0
24930,0.420898,-0.660156,0.526855,0
24950,0.423828,-0.663086,0.526855,0
24970,0.42627,-0.657227,0.527344,0
24990,0.428223,-0.650391,0.525391,0
25010,0.425781,-0.658203,0.525879,0
25030,0.436523,-0.652832,0.520508,0
25050,0.432129,-0.651367,0.53418,0
25070,0.438477,-0.646973,0.547852,0
25090,0.429688,-0.645996,0.533203,0
25110,0.430664,-0.655273,0.538574,0
25130,0.425293,-0.650879,0.533691,0
25150,0.437988,-0.650879,0.523926,0
25170,0.434082,-0.645996,0.52832,0
25190,0.430664,-0.654785,0.520508,0
25210,0.425293,-0.648438,0.53125,0
25230,0.410156,-0.651367,0.53418,0
25250,0.421875,-0.641113,0.538086,0
25270,0.42627,-0.647461,0.53125,0
25290,0.433105,-0.651855,0.536133,0
25310,0.44873,-0.639648,0.544434,0
25330,0.415039,-0.644531,0.537109,0
25350,0.40625,-0.642578,0.547852,0
25370,0.42041,-0.642578,0.548828,0
25390,0.430176,-0.646484,0.54248,0
25410,0.444824,-0.641602,0.536621,0
25430,0.435547,-0.63623,0.535156,0
25450,0.422852,-0.63916,0.532227,0
25470,0.416504,-0.645508,0.536133,0
25490,0.398438,-0.640625,0.541016,0
25510,0.394531,-0.645996,0.546875,0
25530,0.397949,-0.651855,0.533691,0
25550,0.404785,-0.655273,0.530762,0
25570,0.407227,-0.651367,0.529785,0
25590,0.410645,-0.655273,0.539551,0
25610,0.397461,-0.639648,0.541504,0
25630,0.424316,-0.649902,0.546387,0
25650,0.40918,-0.632812,0.54541,0
25670,0.410156,-0.638184,0.539551,0
25690,0.430176,-0.647949,0.539551,0
25710,0.437988,-0.654297,0.539551,0
25730,0.419922,-0.638184,0.537109,0
25750,0.436035,-0.641113,0.52832,0
25770,0.455078,-0.645996,0.55127,0
25790,0.435547,-0.633789,0.554199,0
25810,0.433594,-0.621094,0.538574,0
25830,0.43457,-0.62793,0.54834,0
25850,0.439941,-0.631348,0.544434,0
25870,0.436523,-0.617188,0.556641,0
25890,0.431641,-0.617188,0.546875,0
25910,0.449219,-0.623535,0.54541,0
25930,0.437988,-0.621582,0.552246,0
25950,0.424316,-0.609863,0.551758,0
25970,0.439453,-0.61084,0.557129,0
25990,0.405762,-0.603516,0.566895,0
26010,0.399414,-0.628418,0.570312,0
26030,0.421387,-0.629883,0.575684,0
26050,0.420898,-0.620605,0.588379,0
26070,0.431152,-0.62793,0.578613,0
26090,0.434082,-0.622559,0.581055,0
26110,0.420898,-0.626953,0.564453,0
26130,0.425781,-0.635742,0.566895,0
26150,0.439941,-0.637695,0.568848,0
26170,0.418945,-0.640137,0.556641,0
26190,0.42041,-0.634277,0.55957,0
26210,0.408691,-0.63623,0.562012,0
26230,0.406738,-0.630371,0.555664,0
26250,0.392578,-0.629883,0.552246,0
26270,0.397461,-0.624023,0.544434,0
26290,0.388672,-0.62793,0.551758,0
26310,0.399414,-0.633301,0.550293,0
26330,0.375488,-0.646973,0.5625,0
26350,0.365723,-0.651855,0.556152,0
26370,0.374023,-0.657227,0.561523,0
26390,0.385742,-0.650391,0.562012,0
26410,0.380859,-0.638184,0.562988,0
26430,0.365234,-0.645508,0.550293,0
26450,0.384766,-0.653809,0.540039,0
26470,0.389648,-0.650879,0.554688,0
26490,0.397461,-0.637695,0.560547,0
26510,0.384277,-0.641113,0.564941,0
26530,0.377441,-0.649414,0.551758,0
26550,0.402344,-0.644531,0.552734,0
26570,0.391113,-0.633301,0.563965,0
26590,0.380859,-0.618164,0.579102,0
26610,0.379395,-0.625977,0.586426,0
26620,0.374512,-0.620117,0.591309,0
26640,0.368164,-0.634277,0.585938,0
26660,0.389648,-0.645996,0.561523,0
26680,0.408691,-0.649414,0.570801,0
26700,0.398438,-0.630371,0.567871,0
26720,0.392578,-0.625977,0.57373,0
26740,0.397461,-0.622559,0.572754,0
26760,0.396973,-0.647461,0.575684,0
26780,0.35498,-0.652344,0.581055,0
26800,0.350098,-0.646484,0.570801,0
26820,0.369629,-0.646484,0.578125,0
26840,0.359863,-0.652344,0.57959,0
26860,0.350586,-0.633301,0.583008,0
26880,0.361328,-0.619141,0.581543,0
26900,0.374023,-0.620117,0.584961,0
26920,0.358887,-0.635742,0.574219,0
26940,0.351562,-0.652832,0.577148,0
26960,0.354004,-0.648438,0.572754,0
26980,0.360352,-0.644531,0.575684,0
27000,0.378418,-0.632324,0.583496,0
27020,0.354004,-0.633301,0.567871,0
27040,0.353027,-0.635254,0.571289,0
27060,0.343262,-0.630371,0.568359,0
27080,0.339844,-0.645996,0.564941,0
27100,0.364258,-0.65332,0.57373,0
27120,0.374023,-0.647461,0.586426,0
27140,0.368652,-0.64209,0.583008,0
27160,0.368164,-0.648438,0.579102,0
27180,0.349121,-0.648438,0.581543,0
27200,0.353516,-0.648926,0.55957,0
27220,0.355469,-0.649414,0.571289,0
27240,0.346191,-0.640137,0.574219,0
27260,0.341309,-0.647461,0.565918,0
27280,0.348633,-0.653809,0.564453,0
27300,0.320801,-0.655762,0.572266,0
27320,0.3125,-0.632812,0.55957,0
27340,0.318848,-0.652832,0.5625,0
27360,0.333984,-0.669434,0.547363,0
27380,0.338379,-0.692383,0.557617,0
27400,0.365723,-0.662598,0.56543,0
27420,0.361816,-0.663086,0.564941,0
27440,0.355957,-0.678711,0.560059,0
27460,0.37207,-0.675781,0.564453,0
27480,0.369141,-0.666504,0.567871,0
27500,0.374512,-0.672852,0.557129,0
27520,0.371094,-0.686035,0.55127,0
27540,0.382324,-0.691895,0.531738,0
27560,0.380371,-0.679688,0.536133,0
27580,0.370605,-0.669922,0.53125,0
27600,0.365234,-0.683105,0.537109,0
27620,0.364258,-0.693359,0.538574,0
27640,0.363281,-0.67334,0.537598,0
27660,0.354004,-0.674805,0.521973,0
27680,0.364746,-0.686035,0.520508,0
27700,0.386719,-0.697754,0.527832,0
27720,0.404297,-0.687988,0.540527,0
27740,0.386719,-0.672363,0.539062,0
27760,0.359375,-0.687012,0.524414,0
27780,0.342773,-0.699219,0.52002,0
27800,0.338379,-0.687012,0.512207,0
27820,0.355469,-0.66748,0.510742,0
27840,0.356445,-0.675781,0.517578,0
27860,0.34375,-0.674316,0.521973,0
27880,0.362793,-0.689453,0.51416,0
27900,0.359863,-0.705566,0.519043,0
27920,0.338867,-0.691406,0.499512,0
27940,0.352051,-0.694824,0.494629,0
27960,0.351562,-0.70166,0.498047,0
27980,0.330566,-0.689941,0.489258,0
28000,0.335449,-0.695801,0.492676,0
28020,0.362305,-0.687988,0.487305,0
28040,0.351074,-0.709473,0.492676,0
28060,0.325195,-0.705566,0.488281,0
28080,0.367676,-0.724609,0.501465,0
28100,0.399902,-0.711426,0.505371,0
28120,0.388672,-0.710449,0.505371,0
28140,0.375977,-0.706543,0.495117,0
28160,0.389648,-0.722656,0.502441,0
28180,0.395508,-0.717285,0.513672,0
28200,0.389648,-0.713867,0.508301,0
28220,0.395508,-0.717285,0.508789,0
28240,0.393555,-0.717285,0.510742,0
28260,0.376953,-0.712891,0.516602,0
28280,0.375977,-0.719238,0.508789,0
28300,0.383789,-0.712891,0.500977,0
28320,0.391113,-0.709473,0.483398,0
28340,0.389648,-0.69873,0.484863,0
28360,0.370605,-0.697754,0.477051,0
28380,0.366699,-0.692383,0.477539,0
28400,0.375488,-0.706543,0.474609,0
28420,0.359375,-0.701172,0.473633,0
28440,0.354004,-0.708984,0.469238,0
28460,0.336914,-0.715332,0.466797,0
28480,0.339355,-0.72168,0.469727,0
28500,0.351562,-0.728027,0.461914,0
28520,0.365723,-0.709473,0.467773,0
28540,0.370605,-0.727051,0.465332,0
28560,0.381348,-0.728516,0.451172,0
28580,0.399902,-0.743652,0.456543,0
28600,0.408203,-0.734863,0.456543,0
28620,0.401367,-0.742676,0.44873,0
28640,0.399414,-0.741211,0.443848,0
28660,0.412109,-0.740234,0.458984,0
28680,0.406738,-0.734863,0.467285,0
28700,0.415039,-0.711426,0.450195,0
28720,0.442871,-0.725098,0.447266,0
28740,0.47168,-0.717285,0.442871,0
28760,0.455566,-0.718262,0.456543,0
28780,0.435059,-0.717285,0.445801,0
28800,0.428223,-0.70459,0.460938,0
28820,0.414062,-0.704102,0.446777,0
28840,0.428711,-0.699219,0.433594,0
28860,0.455078,-0.710938,0.428711,0
28880,0.47168,-0.688965,0.437012,0
28900,0.483398,-0.687012,0.444336,0
28920,0.500977,-0.696289,0.418945,0
28940,0.511719,-0.709961,0.427246,0
28960,0.483887,-0.691895,0.424316,0
28980,0.459961,-0.676758,0.412109,0
29000,0.47998,-0.684082,0.415527,0
29020,0.506836,-0.686523,0.422852,0
29040,0.523926,-0.685547,0.417969,0
29060,0.543945,-0.673828,0.415039,0
29080,0.527832,-0.68457,0.400391,0
29100,0.507812,-0.682129,0.412598,0
29120,0.505859,-0.671387,0.414062,0
29140,0.519043,-0.667969,0.416992,0
29160,0.522461,-0.674805,0.40625,0
29180,0.486328,-0.674316,0.419922,0
29200,0.488281,-0.684082,0.410156,0
29220,0.501465,-0.692383,0.415527,0
29240,0.505859,-0.691406,0.40332,0
29260,0.530762,-0.69043,0.415527,0
29280,0.53125,-0.703125,0.417969,0
29300,0.52832,-0.683594,0.410645,0
29320,0.538086,-0.684082,0.415527,0
29340,0.534668,-0.670898,0.413086,0
29360,0.521973,-0.67334,0.394531,0
29380,0.529785,-0.668457,0.413574,0
29400,0.571289,-0.679199,0.404297,0
29420,0.558105,-0.664062,0.422852,0
29440,0.567871,-0.65332,0.408203,0
29460,0.553711,-0.647461,0.411133,0
29480,0.561523,-0.655762,0.413574,0
29500,0.564453,-0.65332,0.402344,0
29520,0.579102,-0.644043,0.39209,0
29540,0.595703,-0.651855,0.39502,0
29560,0.575195,-0.656738,0.385742,0
29580,0.567383,-0.642578,0.391113,0
29600,0.57959,-0.642578,0.393066,0
29620,0.574219,-0.637207,0.380371,0
29640,0.598145,-0.651367,0.376465,0
29660,0.568848,-0.632324,0.378418,0
29680,0.58252,-0.629883,0.378906,0
29700,0.589355,-0.620605,0.394043,0
29720,0.599121,-0.604492,0.388672,0
29740,0.604004,-0.613281,0.384766,0
29760,0.587402,-0.615723,0.403809,0
29780,0.592285,-0.614746,0.40332,0
29800,0.599121,-0.620117,0.398926,0
29820,0.599609,-0.616211,0.385742,0
29840,0.596191,-0.619141,0.380859,0
29860,0.578125,-0.62207,0.391602,0
29880,0.583984,-0.621094,0.391113,0
29900,0.589844,-0.626465,0.369629,0
29920,0.593262,-0.625,0.368652,0
29940,0.608398,-0.620605,0.376953,0
29960,0.601074,-0.605469,0.377441,0
29980,0.609375,-0.603027,0.38916,0
30000,0.610352,-0.598633,0.393066,0
30020,0.619629,-0.601074,0.39209,0
30040,0.62793,-0.597656,0.37793,0
30050,0.626465,-0.598145,0.390137,0
30070,0.631836,-0.595703,0.395508,0
30090,0.642578,-0.583984,0.393066,0
30110,0.646484,-0.581543,0.376953,0
30130,0.647949,-0.580566,0.381348,0
30150,0.632812,-0.574707,0.378906,0
30170,0.639648,-0.564453,0.396973,0
30190,0.647461,-0.55957,0.402832,0
30210,0.643555,-0.553711,0.392578,0
30230,0.64502,-0.572754,0.39502,0
30250,0.632324,-0.569336,0.402832,0
30270,0.644043,-0.572754,0.399902,0
30290,0.645996,-0.5625,0.395996,0
30310,0.652344,-0.571777,0.414551,0
30330,0.656738,-0.566406,0.41748,0
30350,0.663574,-0.564453,0.418945,0
30370,0.645508,-0.5625,0.415527,0
30390,0.639648,-0.55957,0.422852,0
30410,0.629883,-0.561523,0.425293,0
30430,0.630859,-0.540527,0.426758,0
30450,0.630371,-0.54541,0.436035,0
30470,0.63623,-0.550293,0.435059,0
30490,0.625977,-0.554688,0.444824,0
30510,0.628906,-0.547852,0.4375,0
30530,0.627441,-0.553223,0.432617,0
30550,0.626953,-0.557617,0.425781,0
30570,0.633301,-0.547363,0.439453,0
30590,0.631836,-0.54541,0.44873,0
30610,0.635254,-0.54541,0.443359,0
30630,0.648926,-0.542969,0.443359,0
30650,0.64209,-0.547363,0.451172,0
30670,0.629883,-0.541504,0.446777,0
30690,0.633789,-0.52832,0.447266,0
30710,0.611816,-0.530762,0.450195,0
30730,0.628418,-0.529297,0.456055,0
30750,0.625977,-0.527344,0.459961,0
30770,0.621094,-0.528809,0.467773,0
30790,0.617676,-0.523926,0.457031,0
30810,0.615723,-0.521973,0.462402,0
30830,0.624023,-0.517578,0.469238,0
30850,0.605957,-0.51123,0.471191,0
30870,0.602051,-0.51416,0.45752,0
30890,0.595215,-0.521973,0.469238,0
30910,0.58252,-0.525391,0.46582,0
30930,0.587402,-0.513672,0.469727,0
30950,0.596191,-0.505371,0.47168,0
30970,0.583496,-0.519043,0.478516,0
30990,0.566895,-0.500488,0.48291,0
31010,0.578125,-0.518555,0.48584,0
31030,0.596191,-0.51709,0.478516,0
31050,0.609375,-0.523926,0.485352,0
31070,0.606445,-0.521973,0.490234,0
31090,0.607422,-0.519043,0.489258,0
31110,0.625488,-0.525391,0.487793,0
31130,0.631348,-0.508301,0.498047,0
31150,0.646484,-0.506836,0.503418,0
31170,0.650879,-0.512695,0.492188,0
31190,0.633789,-0.502441,0.486816,0
31210,0.637207,-0.505371,0.489258,0
31230,0.638672,-0.500488,0.498535,0
31250,0.64209,-0.493652,0.507324,0
31270,0.635742,-0.490234,0.504395,0
31290,0.59668,-0.489258,0.504883,0
31310,0.60498,-0.490723,0.513672,0
31330,0.641113,-0.494629,0.504883,0
31350,0.654297,-0.48584,0.511719,0
31370,0.65918,-0.481934,0.519531,0
31390,0.646484,-0.48291,0.513672,0
31410,0.633789,-0.471191,0.520996,0
31430,0.623047,-0.48291,0.522949,0
31450,0.624512,-0.476562,0.512695,0
31470,0.63623,-0.478516,0.524414,0
31490,0.617188,-0.478516,0.52002,0
31510,0.609375,-0.489746,0.523926,0
31530,0.587402,-0.483398,0.535156,0
31550,0.584473,-0.471191,0.51709,0
31570,0.599609,-0.481445,0.523926,0
31590,0.617188,-0.487305,0.519531,0
31610,0.624512,-0.498047,0.518066,0
31630,0.604004,-0.492188,0.523438,0
31650,0.59082,-0.48877,0.520508,0
31670,0.595703,-0.502441,0.518555,0
31690,0.606934,-0.49707,0.511719,0
31710,0.611816,-0.5,0.519043,0
31730,0.602051,-0.506836,0.49707,0
31750,0.599609,-0.494629,0.50293,0
31770,0.57959,-0.481445,0.504883,0
31790,0.598633,-0.498535,0.512207,0
31810,0.602051,-0.499512,0.509277,0
31830,0.594238,-0.506836,0.52002,0
31850,0.594727,-0.50293,0.509766,0
31870,0.602051,-0.495117,0.513672,0
31890,0.607422,-0.503906,0.507812,0
31910,0.607422,-0.501465,0.517578,0
31930,0.601074,-0.498047,0.524414,0
31950,0.598633,-0.498047,0.511719,0
31970,0.592773,-0.495117,0.515625,0
31990,0.57666,-0.502441,0.509277,0
32010,0.562988,-0.493164,0.505371,0
32030,0.559082,-0.505859,0.507812,0
32040,0.579102,-0.498535,0.498047,0
32060,0.584961,-0.508301,0.510742,0
32080,0.574219,-0.503418,0.511719,0
32100,0.567871,-0.514648,0.496094,0
32120,0.561523,-0.51123,0.499023,0
32140,0.560547,-0.525879,0.51123,0
32160,0.564941,-0.528809,0.510254,0
32180,0.55957,-0.522949,0.512207,0
32200,0.557617,-0.519531,0.507812,0
32220,0.552734,-0.531738,0.500977,0
32240,0.547852,-0.537598,0.51416,0
32260,0.548828,-0.537598,0.515625,0
32280,0.552246,-0.543457,0.513672,0
32300,0.5625,-0.544922,0.520508,0
32320,0.563477,-0.535645,0.510742,0
32340,0.558105,-0.549316,0.524902,0
32360,0.55957,-0.561035,0.517578,0
32380,0.556641,-0.573242,0.516602,0
32400,0.55127,-0.558105,0.520996,0
32420,0.552734,-0.559082,0.514648,0
32440,0.552734,-0.556641,0.508301,0
32460,0.539062,-0.554199,0.512207,0
32480,0.535156,-0.560059,0.507812,0
32500,0.550293,-0.554199,0.51709,0
32520,0.544922,-0.567871,0.508789,0
32540,0.549316,-0.567383,0.511719,0
32560,0.556152,-0.583984,0.51123,0
32580,0.543945,-0.575684,0.501953,0
32600,0.550781,-0.57373,0.502441,0
32620,0.557129,-0.586426,0.5,0
32640,0.555664,-0.583008,0.496582,0
32660,0.555664,-0.592773,0.501465,0
32680,0.557129,-0.585449,0.499023,0
32700,0.55127,-0.591309,0.494629,0
32720,0.551758,-0.603027,0.49707,0
32740,0.529297,-0.611816,0.489746,0
32760,0.522949,-0.619141,0.495117,0
32780,0.541992,-0.605469,0.484375,0
32800,0.534668,-0.605469,0.48877,0
32820,0.537109,-0.59375,0.480957,0
32840,0.537598,-0.609863,0.491699,0
32860,0.535156,-0.599121,0.502441,0
32880,0.552734,-0.603516,0.513184,0
32900,0.55127,-0.608398,0.495117,0
32920,0.544922,-0.587891,0.496582,0
32940,0.546387,-0.594238,0.498047,0
32960,0.525391,-0.59082,0.494629,0
32980,0.508789,-0.59668,0.490234,0
33000,0.52002,-0.601562,0.492188,0
33020,0.519531,-0.594727,0.48291,0
33040,0.519531,-0.603516,0.474609,0
33060,0.512695,-0.605957,0.477051,0
33080,0.508301,-0.600586,0.475098,0
33100,0.515137,-0.597168,0.46582,0
33120,0.510742,-0.606445,0.459961,0
33140,0.498535,-0.613281,0.472656,0
33160,0.489258,-0.621094,0.45166,0
33180,0.490723,-0.634766,0.441406,0
33200,0.493164,-0.615234,0.439941,0
33220,0.498047,-0.637695,0.438477,0
33240,0.499512,-0.642578,0.441406,0
33260,0.501465,-0.65332,0.445801,0
33280,0.510742,-0.651855,0.437988,0
33300,0.515625,-0.659668,0.429199,0
33320,0.524902,-0.651367,0.428711,0
33340,0.525879,-0.65625,0.420898,0
33360,0.53125,-0.669434,0.424805,0
33380,0.526855,-0.665039,0.430664,0
33400,0.503418,-0.655762,0.414551,0
33420,0.497559,-0.650879,0.407227,0
33440,0.492676,-0.665039,0.407715,0
33460,0.511719,-0.672363,0.406738,0
33480,0.5,-0.669922,0.399414,0
33500,0.486328,-0.668457,0.390625,0
33520,0.491699,-0.669922,0.384277,0
33540,0.51123,-0.691406,0.388672,0
33560,0.505371,-0.683105,0.385742,0
33580,0.493652,-0.679688,0.38623,0
33600,0.510742,-0.685059,0.385254,0
33620,0.5,-0.688477,0.381836,0
33640,0.510742,-0.689453,0.381836,0
33660,0.512695,-0.697266,0.372559,0
33680,0.52832,-0.70166,0.368652,0
33700,0.55127,-0.708496,0.375,0
33720,0.551758,-0.719238,0.373047,0
33740,0.53125,-0.716797,0.364258,0
33760,0.532715,-0.714355,0.352051,0
33780,0.548828,-0.709961,0.348633,0
33800,0.556641,-0.711426,0.348633,0
33820,0.564941,-0.710938,0.344727,0
33840,0.583496,-0.706055,0.353516,0
33860,0.5625,-0.708984,0.350098,0
33880,0.568359,-0.707031,0.333008,0
33900,0.577637,-0.717285,0.335938,0
33920,0.575195,-0.714355,0.33252,0
33940,0.559082,-0.722656,0.320801,0
33960,0.541016,-0.725586,0.320801,0
33980,0.53125,-0.714355,0.321289,0
34000,0.520508,-0.714844,0.306152,0
34020,0.516113,-0.71582,0.312012,0
34040,0.541992,-0.731934,0.295898,0
34060,0.563965,-0.736816,0.29248,0
34080,0.54834,-0.72998,0.291504,0
34100,0.52832,-0.728027,0.289062,0
34120,0.532715,-0.728516,0.284668,0
34140,0.549805,-0.723145,0.267578,0
34160,0.572266,-0.704102,0.259277,0
34180,0.5625,-0.703125,0.273926,0
34200,0.559082,-0.691406,0.263672,0
34220,0.577637,-0.697754,0.262695,0
34240,0.57373,-0.687012,0.257324,0
34260,0.57666,-0.67627,0.242676,0
34280,0.592773,-0.678711,0.250488,0
34300,0.605469,-0.668457,0.251953,0
34320,0.576172,-0.669922,0.243652,0
34340,0.605469,-0.667969,0.22168,0
34360,0.635742,-0.677246,0.236816,0
34380,0.636719,-0.658203,0.254395,0
34400,0.635742,-0.648926,0.254883,0
34420,0.659668,-0.647461,0.214844,0
34440,0.672852,-0.650879,0.25,0
34460,0.645508,-0.632812,0.250977,0
34480,0.671387,-0.614258,0.225586,0
34500,0.718262,-0.626953,0.232422,0
34520,0.740234,-0.615234,0.242676,0
34540,0.746094,-0.622559,0.243164,0
34560,0.741211,-0.603027,0.240723,0
34580,0.741699,-0.589844,0.241211,0
34600,0.759766,-0.576172,0.231445,0
34620,0.749023,-0.563965,0.259277,0
34640,0.731445,-0.562988,0.243164,0
34660,0.728516,-0.538574,0.212891,0
34680,0.735352,-0.554199,0.236816,0
34700,0.727051,-0.536133,0.233398,0
34720,0.740234,-0.523926,0.214844,0
34740,0.74707,-0.532227,0.218262,0
34760,0.751953,-0.523438,0.231934,0
34780,0.762695,-0.53125,0.238281,0
34800,0.754395,-0.510742,0.231445,0
34820,0.766113,-0.524414,0.223633,0
34840,0.78418,-0.519531,0.210449,0
34860,0.790527,-0.507324,0.22998,0
34880,0.78125,-0.500977,0.220215,0
34900,0.778809,-0.484863,0.213379,0
34920,0.80127,-0.494629,0.223633,0
34940,0.79248,-0.481934,0.242188,0
34960,0.809082,-0.481934,0.239258,0
34980,0.804688,-0.476562,0.226562,0
35000,0.816406,-0.489258,0.238281,0
35020,0.818848,-0.462402,0.253418,0
35040,0.822266,-0.445801,0.244629,0
35060,0.823242,-0.44873,0.251953,0
35080,0.821777,-0.450195,0.245117,0
35100,0.810547,-0.427246,0.266113,0
35120,0.822754,-0.430664,0.258789,0
35140,0.825195,-0.42627,0.260742,0
35160,0.803223,-0.407715,0.273438,0
35180,0.810547,-0.41748,0.262695,0
35200,0.808594,-0.412598,0.26709,0
35220,0.805664,-0.410156,0.269531,0
35240,0.812012,-0.401367,0.269043,0
35260,0.813965,-0.387207,0.275391,0
35280,0.821289,-0.401367,0.275879,0
35300,0.823242,-0.393066,0.276855,0
35320,0.818359,-0.384766,0.275391,0
35340,0.81543,-0.382324,0.276855,0
35360,0.821289,-0.375,0.282227,0
35380,0.833984,-0.370605,0.290039,0
35400,0.852051,-0.364746,0.287109,0
35420,0.848145,-0.359863,0.294922,0
35440,0.845215,-0.35498,0.298828,0
35450,0.846191,-0.359375,0.298828,0
35470,0.850098,-0.351074,0.289062,0
35490,0.847656,-0.344238,0.303711,0
35510,0.868164,-0.339844,0.308594,0
35530,0.844727,-0.337891,0.320312,0
35550,0.842773,-0.338379,0.3125,0
35570,0.849121,-0.330078,0.330566,0
35590,0.847656,-0.337402,0.331543,0
35610,0.874023,-0.326172,0.327637,0
35630,0.860352,-0.324219,0.331055,0
35650,0.842773,-0.327148,0.352051,0
35670,0.852051,-0.331055,0.362793,0
35690,0.834473,-0.34668,0.341309,0
35710,0.821289,-0.343262,0.356934,0
35730,0.816895,-0.358887,0.36084,0
35750,0.777832,-0.324219,0.36084,0
35770,0.776367,-0.321777,0.367188,0
35790,0.781738,-0.356934,0.38623,0
35810,0.764648,-0.344238,0.388184,0
35830,0.755371,-0.369629,0.402832,0
35850,0.762695,-0.365234,0.40918,0
35870,0.762695,-0.355957,0.391113,0
35890,0.771484,-0.350098,0.396973,0
35910,0.725098,-0.357422,0.42041,0
35930,0.733398,-0.370605,0.419922,0
35950,0.728516,-0.389648,0.404297,0
35970,0.718262,-0.398438,0.400879,0
35990,0.695312,-0.394043,0.428711,0
36010,0.689453,-0.372559,0.428711,0
36030,0.693848,-0.386719,0.420898,0
36050,0.70459,-0.400391,0.42334,0
36070,0.711914,-0.418457,0.42627,0
36090,0.684082,-0.416992,0.439453,0
36110,0.677246,-0.400879,0.445801,0
36130,0.6875,-0.42627,0.437012,0
36150,0.68457,-0.445801,0.445312,0
36170,0.67334,-0.447266,0.440918,0
36190,0.660156,-0.449219,0.435547,0
36210,0.652832,-0.452637,0.439453,0
36230,0.65332,-0.465332,0.435547,0
36250,0.66748,-0.459473,0.435547,0
36270,0.664062,-0.475586,0.440918,0
36290,0.666504,-0.473145,0.436035,0
36310,0.678223,-0.492676,0.437988,0
36330,0.686523,-0.485352,0.4375,0
36350,0.674805,-0.496582,0.444824,0
36370,0.675293,-0.48584,0.441406,0
36390,0.676758,-0.493164,0.446777,0
36410,0.656738,-0.492676,0.459961,0
36430,0.640625,-0.503418,0.461914,0
36450,0.65332,-0.508301,0.461914,0
36470,0.645996,-0.516113,0.445801,0
36490,0.661133,-0.511719,0.445312,0
36510,0.653809,-0.52832,0.445801,0
36530,0.667969,-0.526367,0.436035,0
36550,0.662109,-0.521973,0.455078,0
36570,0.647461,-0.513184,0.453613,0
36590,0.655273,-0.528809,0.458008,0
36610,0.662598,-0.529297,0.452148,0
36630,0.675781,-0.517578,0.418457,0
36650,0.710938,-0.513672,0.425781,0
36670,0.701172,-0.522461,0.429688,0
36690,0.682129,-0.53418,0.435059,0
36710,0.660156,-0.544434,0.430176,0
36730,0.664062,-0.534668,0.422363,0
36750,0.640137,-0.529297,0.401855,0
36770,0.644531,-0.523438,0.395508,0
36790,0.649902,-0.532715,0.400879,0
36810,0.665039,-0.526367,0.382812,0
36830,0.664062,-0.540039,0.375488,0
36850,0.65625,-0.541016,0.367676,0
36870,0.672852,-0.536621,0.375977,0
36890,0.711914,-0.552734,0.378418,0
36910,0.714844,-0.55957,0.387207,0
36930,0.673828,-0.591797,0.390137,0
36950,0.646484,-0.570312,0.391113,0
36970,0.662109,-0.565918,0.384277,0
36990,0.661621,-0.575195,0.392578,0
37010,0.665527,-0.577148,0.385254,0
37030,0.621094,-0.592285,0.381348,0
37050,0.583496,-0.600586,0.371582,0
37070,0.544922,-0.59082,0.383789,0
37090,0.537109,-0.567871,0.379395,0
37110,0.59082,-0.568848,0.366699,0
37130,0.57373,-0.592773,0.370117,0
37150,0.532227,-0.592285,0.364746,0
37170,0.508301,-0.594727,0.370117,0
37190,0.515625,-0.597656,0.38916,0
37210,0.540527,-0.577148,0.374512,0
37230,0.564453,-0.589844,0.365723,0
37250,0.570312,-0.59668,0.351074,0
37270,0.545898,-0.602051,0.349121,0
37290,0.548828,-0.59375,0.338867,0
37310,0.562988,-0.584961,0.331055,0
37330,0.61084,-0.597168,0.32666,0
37350,0.618652,-0.615723,0.329102,0
37370,0.628418,-0.608398,0.314941,0
37390,0.671387,-0.608398,0.305664,0
37410,0.663086,-0.639648,0.285156,0
37430,0.635254,-0.615723,0.281738,0
37440,0.654297,-0.608398,0.272461,0
37460,0.696289,-0.615234,0.280273,0
37480,0.706543,-0.61377,0.27832,0
37500,0.70459,-0.620605,0.261719,0
37520,0.695312,-0.63916,0.246582,0
37540,0.693848,-0.631348,0.255371,0
37560,0.72168,-0.611328,0.251953,0
37580,0.740723,-0.607422,0.227051,0
37600,0.729004,-0.609375,0.245117,0
37620,0.731445,-0.650391,0.230957,0
37640,0.720703,-0.638672,0.217285,0
37660,0.728516,-0.624512,0.222656,0
37680,0.737305,-0.594727,0.231445,0
37700,0.737305,-0.600098,0.206055,0
37720,0.714844,-0.593262,0.202637,0
37740,0.706055,-0.57666,0.208008,0
37760,0.760742,-0.567871,0.184082,0
37780,0.789551,-0.556152,0.171387,0
37800,0.766113,-0.542969,0.179688,0
37820,0.766113,-0.53125,0.17627,0
37840,0.790039,-0.51416,0.151367,0
37860,0.827637,-0.506348,0.15625,0
37880,0.789062,-0.485352,0.173828,0
37900,0.814453,-0.460449,0.131348,0
37920,0.830566,-0.463867,0.114258,0
37940,0.82666,-0.45166,0.135254,0
37960,0.851562,-0.441406,0.123535,0
37980,0.86084,-0.420898,0.10791,2001
38000,0.871094,-0.415039,0.105957,0
38020,0.898438,-0.401367,0.118652,0
38040,0.884766,-0.379883,0.114746,0
38060,0.883789,-0.378418,0.129395,0
38080,0.901367,-0.379395,0.116211,0
38100,0.905762,-0.364258,0.118164,0
38120,0.921387,-0.381836,0.111328,0
38140,0.92627,-0.367676,0.0952148,0
38160,0.935547,-0.370605,0.0708008,0
38180,0.944824,-0.375,0.0810547,0
38200,0.852539,-0.355957,0.101562,0
38220,0.824707,-0.380371,0.0913086,0
38240,0.826172,-0.400879,0.0766602,0
38260,0.79541,-0.416016,0.0957031,0
38280,0.759766,-0.419434,0.125,0
38300,0.766113,-0.437988,0.12793,0
38320,0.772461,-0.450195,0.105957,0
38340,0.776367,-0.446289,0.100098,0
38360,0.812012,-0.450684,0.109375,0
38380,0.805176,-0.443359,0.115234,0
38400,0.830078,-0.458496,0.0820312,0
38420,0.84668,-0.462891,0.097168,0
38440,0.86084,-0.446289,0.110352,0
38460,0.873535,-0.436035,0.0913086,0
38480,0.900391,-0.435059,0.0981445,0
38500,0.896484,-0.43457,0.116699,0
38520,0.882324,-0.418457,0.108887,0
38540,0.871582,-0.420898,0.120605,0
38560,0.864258,-0.420898,0.128906,0
38580,0.860352,-0.413574,0.124023,0
38600,0.83252,-0.418945,0.132324,0
38620,0.815918,-0.425781,0.120117,0
38640,0.867188,-0.429199,0.10498,0
38660,0.87793,-0.444824,0.15625,0
38680,0.867676,-0.426758,0.160156,0
38700,0.839844,-0.424805,0.162598,0
38720,0.821289,-0.452148,0.159668,0
38740,0.782715,-0.452148,0.178711,0
38760,0.80127,-0.437012,0.154785,0
38780,0.798828,-0.419922,0.157227,0
38800,0.786621,-0.438477,0.180664,0
38820,0.780762,-0.458008,0.188477,0
38840,0.799805,-0.461426,0.187988,0
38860,0.844727,-0.445801,0.200195,0
38880,0.869629,-0.4375,0.199707,0
38900,0.878418,-0.436523,0.193359,0
38920,0.859863,-0.445801,0.20166,0
38940,0.82959,-0.437012,0.21582,0
38960,0.783203,-0.444336,0.227051,0
38980,0.736816,-0.442383,0.205078,0
39000,0.692383,-0.435547,0.205078,0
39020,0.654785,-0.441895,0.186523,0
39040,0.569824,-0.412109,0.155273,0
39060,0.530762,-0.412109,0.159668,0
39080,0.53125,-0.431152,0.143555,0
39100,0.577148,-0.460938,0.115723,0
39120,0.59375,-0.461426,0.175293,0
39140,0.609375,-0.459961,0.199219,0
39160,0.688477,-0.413574,0.207031,0
39180,0.759766,-0.467773,0.247559,0
39200,0.813477,-0.503418,0.255859,0
39220,0.869629,-0.529297,0.303711,0
39240,0.905273,-0.572754,0.345215,0
39260,0.945801,-0.585938,0.356934,0
39280,0.906738,-0.637207,0.375,0
39300,0.87207,-0.649414,0.378418,0
39320,0.827148,-0.681641,0.415039,0
39340,0.777344,-0.704102,0.431641,0
39360,0.728516,-0.725586,0.427246,0
39380,0.668945,-0.731445,0.419434,0
39400,0.572266,-0.737305,0.42627,0
39420,0.505859,-0.759277,0.413574,0
39440,0.490234,-0.757812,0.401367,0
39460,0.45752,-0.776367,0.410156,0
39480,0.42041,-0.770996,0.385742,0
39500,0.386719,-0.787598,0.404785,0
39520,0.351562,-0.797852,0.436035,0
39540,0.34082,-0.79248,0.448242,0
39560,0.314941,-0.789551,0.441895,0
39580,0.322754,-0.804688,0.444824,0
39600,0.275391,-0.811035,0.455566,0
39620,0.25,-0.80957,0.463379,0
39640,0.276855,-0.824707,0.454102,0
39660,0.293945,-0.827148,0.454102,0
39680,0.280762,-0.817871,0.438477,0
39700,0.280273,-0.820312,0.435547,0
39720,0.277832,-0.817383,0.441895,0
39740,0.281738,-0.816895,0.45459,0
39760,0.288574,-0.804688,0.438965,0
39780,0.29248,-0.794434,0.442383,0
39800,0.296875,-0.799805,0.442383,0
39820,0.280762,-0.794922,0.45752,0
39840,0.282227,-0.805176,0.447754,0
39860,0.310547,-0.801758,0.448242,0
39880,0.313965,-0.800293,0.456543,0
39900,0.31543,-0.796387,0.473633,0
39920,0.298828,-0.791504,0.462402,0
39940,0.31543,-0.800781,0.462891,0
39960,0.325684,-0.794434,0.456543,2000
39980,0.307617,-0.789062,0.470703,0
40000,0.3125,-0.796875,0.453125,0
40020,0.301758,-0.803711,0.463379,0
40040,0.288086,-0.811523,0.454102,0
40060,0.270508,-0.818848,0.447266,0
40080,0.253906,-0.811035,0.445312,0
40100,0.25293,-0.813477,0.458008,0
40120,0.255859,-0.789062,0.446289,0
40140,0.27002,-0.785156,0.445312,0
40160,0.274414,-0.798828,0.444824,0
40180,0.267578,-0.787109,0.454102,0
40200,0.274414,-0.782227,0.442383,0
40220,0.304688,-0.772949,0.443359,0
40240,0.303223,-0.782227,0.443848,0
40260,0.311523,-0.782227,0.424316,0
40280,0.355957,-0.768066,0.431641,0
40300,0.389648,-0.791504,0.42627,0
40320,0.35791,-0.791504,0.429688,0
40340,0.333984,-0.783691,0.433594,0
40360,0.338867,-0.783691,0.42334,0
40380,0.355469,-0.78125,0.391602,0
40400,0.364746,-0.74707,0.395996,0
40420,0.356445,-0.749512,0.404785,0
40440,0.33252,-0.76709,0.388672,0
40460,0.335938,-0.785156,0.379883,0
40480,0.342773,-0.773438,0.408691,0
40500,0.375488,-0.757812,0.417969,0
40520,0.382324,-0.769531,0.402832,0
40540,0.375977,-0.769043,0.375977,0
40560,0.375977,-0.760742,0.397461,0
40580,0.381348,-0.774902,0.399414,0
40600,0.393066,-0.769531,0.405273,0
40620,0.455566,-0.776855,0.401367,0
40640,0.459473,-0.78125,0.391113,0
40660,0.446289,-0.774414,0.348145,0
40680,0.434082,-0.761719,0.373535,0
40700,0.40332,-0.775879,0.380859,0
40720,0.382812,-0.78125,0.383789,0
40740,0.362793,-0.773926,0.373047,0
40760,0.335449,-0.780273,0.398438,0
40780,0.337402,-0.77832,0.427734,0
40800,0.334473,-0.786621,0.413086,0
40820,0.351562,-0.790039,0.396973,0
40840,0.376953,-0.790039,0.389648,0
40850,0.365234,-0.783691,0.391602,0
40870,0.395508,-0.791504,0.389648,0
40890,0.408691,-0.791992,0.383301,0
40910,0.405273,-0.777832,0.36084,0
40930,0.413086,-0.771484,0.362793,0
40950,0.435547,-0.767578,0.356445,0
40970,0.458496,-0.751953,0.358398,0
40990,0.463867,-0.75,0.356934,0
41010,0.453125,-0.747559,0.379883,0
41030,0.471191,-0.741211,0.37793,0
41050,0.459473,-0.738281,0.370117,0
41070,0.469727,-0.755859,0.364746,0
41090,0.477539,-0.737305,0.362305,0
41110,0.483887,-0.745117,0.357422,0
41130,0.501953,-0.71875,0.355469,0
41150,0.521484,-0.72168,0.355469,0
41170,0.527344,-0.726074,0.353516,0
41190,0.525879,-0.727051,0.355957,0
41210,0.52002,-0.714355,0.363281,0
41230,0.538574,-0.710449,0.359863,0
41250,0.534668,-0.706055,0.359863,0
41270,0.508301,-0.695312,0.380859,0
41290,0.507324,-0.708008,0.376465,0
41310,0.515137,-0.694824,0.375977,0
41330,0.516602,-0.683105,0.38623,0
41350,0.523926,-0.693359,0.375977,0
41370,0.530762,-0.700195,0.373047,0
41390,0.519043,-0.705566,0.382324,0
41410,0.524902,-0.702148,0.378906,0
41430,0.540527,-0.702637,0.373535,0
41450,0.543945,-0.68457,0.370605,0
41470,0.542969,-0.693848,0.368164,0
41490,0.538574,-0.687988,0.366699,0
41510,0.554688,-0.686035,0.378906,0
41530,0.564941,-0.686523,0.381348,0
41550,0.574707,-0.671387,0.369141,0
41570,0.584961,-0.668457,0.366211,0
41590,0.574219,-0.66748,0.368164,0
41610,0.566895,-0.658203,0.381348,0
41630,0.566895,-0.650879,0.397949,0
41650,0.578613,-0.637207,0.397461,0
41670,0.585449,-0.634766,0.40332,0
41690,0.587891,-0.634277,0.399902,0
41710,0.585449,-0.64209,0.399414,0
41730,0.59082,-0.634277,0.393555,0
41750,0.593262,-0.638184,0.39502,0
41770,0.595703,-0.64502,0.382324,0
41790,0.576172,-0.634277,0.37793,0
41810,0.574219,-0.634766,0.380859,0
41830,0.580566,-0.631348,0.380859,0
41850,0.587891,-0.619141,0.385742,0
41870,0.586914,-0.625488,0.397949,0
41890,0.577148,-0.624023,0.40332,0
41910,0.577637,-0.60498,0.402832,0
41930,0.586914,-0.598145,0.405762,0
41950,0.586426,-0.611816,0.413574,0
41970,0.569824,-0.609375,0.421387,0
41990,0.566895,-0.610352,0.428711,0
42010,0.578613,-0.601562,0.430664,0
42030,0.595703,-0.602051,0.417969,0
42050,0.589844,-0.601074,0.422363,0
42070,0.583984,-0.607422,0.433105,0
42090,0.585938,-0.595703,0.442383,0
42110,0.611816,-0.592285,0.448242,0
42130,0.609863,-0.594727,0.445801,0
42150,0.616699,-0.591797,0.451172,0
42170,0.630859,-0.603027,0.451172,0
42190,0.632324,-0.58252,0.443848,0
42210,0.626465,-0.578125,0.450684,0
42230,0.611328,-0.570801,0.458008,0
42250,0.597656,-0.572754,0.457031,0
42270,0.580078,-0.564941,0.472656,0
42290,0.583008,-0.561523,0.465332,0
42310,0.576172,-0.55957,0.46875,0
42330,0.583008,-0.553223,0.461914,0
42350,0.577148,-0.572266,0.46582,0
42370,0.587402,-0.570801,0.480469,0
42390,0.602051,-0.566406,0.477539,0
42410,0.604492,-0.553223,0.479492,0
42430,0.60498,-0.54834,0.48291,0
42450,0.586426,-0.560547,0.487305,0
42470,0.572266,-0.550293,0.500977,0
42490,0.55957,-0.547852,0.501465,0
42510,0.575684,-0.538086,0.501465,0
42530,0.587402,-0.556152,0.490723,0
42550,0.587402,-0.547852,0.507812,0
42570,0.584473,-0.540039,0.521484,0
42590,0.597656,-0.540527,0.523438,0
42610,0.579102,-0.537109,0.527344,0
42630,0.600098,-0.557129,0.538574,0
42650,0.570312,-0.570801,0.538574,0
42670,0.558105,-0.564941,0.535156,0
42690,0.575684,-0.566895,0.525391,0
42710,0.53418,-0.5625,0.529297,0
42730,0.526367,-0.566406,0.524414,0
42750,0.530273,-0.569336,0.535645,0
42770,0.535156,-0.57666,0.521973,0
42790,0.531738,-0.57666,0.521973,0
42810,0.539551,-0.594727,0.521973,0
42820,0.506836,-0.570801,0.509766,0
42840,0.506836,-0.581055,0.512207,0
42860,0.51123,-0.586426,0.521973,0
42880,0.498535,-0.585449,0.522461,0
42900,0.499023,-0.569336,0.521484,0
42920,0.507324,-0.55957,0.521484,0
42940,0.512695,-0.561035,0.519531,0
42960,0.483887,-0.560059,0.542969,0
42980,0.472656,-0.57373,0.52832,0
43000,0.479492,-0.564941,0.553223,0
43020,0.491211,-0.557617,0.527344,0
43040,0.48877,-0.561523,0.536133,0
43060,0.493164,-0.583984,0.543457,0
43080,0.481445,-0.592773,0.529785,0
43100,0.488281,-0.602539,0.518066,0
43120,0.50293,-0.609375,0.537109,0
43140,0.492188,-0.596191,0.538574,0
43160,0.488281,-0.625977,0.525879,0
43180,0.491699,-0.646973,0.522461,0
43200,0.489746,-0.633301,0.526855,0
43220,0.48584,-0.632812,0.516602,0
43240,0.502441,-0.621094,0.51416,0
43260,0.501465,-0.649414,0.522949,0
43280,0.467285,-0.64209,0.538574,0
43300,0.467285,-0.640625,0.546387,0
43320,0.458008,-0.630371,0.535156,0
43340,0.450684,-0.631348,0.538086,0
43360,0.437012,-0.625488,0.538574,0
43380,0.435059,-0.623535,0.513184,0
43400,0.430664,-0.625488,0.521973,0
43420,0.414551,-0.643066,0.516602,0
43440,0.426758,-0.648926,0.508789,0
43460,0.437988,-0.652344,0.516113,0
43480,0.431641,-0.639648,0.526855,0
43500,0.418945,-0.637695,0.516602,0
43520,0.424316,-0.664551,0.501953,0
43540,0.401367,-0.677734,0.498047,0
43560,0.404785,-0.660156,0.496094,0
43580,0.430664,-0.642578,0.479004,0
43600,0.419434,-0.644531,0.482422,0
43620,0.422852,-0.644043,0.485352,0
43640,0.40918,-0.654297,0.493652,0
43660,0.407715,-0.642578,0.488281,0
43680,0.424316,-0.652832,0.487305,0
43700,0.441895,-0.656738,0.488281,0
43720,0.425781,-0.655762,0.488281,0
43740,0.41748,-0.65625,0.486816,0
43760,0.437988,-0.655273,0.491699,0
43770,0.430664,-0.666016,0.49707,0
43790,0.430176,-0.665527,0.487793,0
43810,0.432617,-0.67334,0.492188,0
43830,0.435059,-0.682617,0.493164,0
43850,0.42627,-0.702637,0.478516,0
43870,0.443848,-0.704102,0.468262,0
43890,0.436523,-0.698242,0.461914,0
43910,0.424316,-0.699707,0.475098,0
43930,0.412109,-0.698242,0.478027,0
43950,0.411621,-0.724609,0.481445,0
43970,0.422852,-0.725586,0.478516,0
43990,0.411621,-0.718262,0.480957,0
44010,0.390625,-0.708984,0.469238,0
44030,0.365234,-0.71875,0.47168,0
44050,0.351562,-0.711914,0.464355,0
44070,0.334473,-0.706055,0.455566,0
44090,0.345215,-0.705078,0.458496,0
44110,0.356445,-0.710449,0.458984,0
44130,0.379395,-0.714844,0.457031,0
44150,0.395508,-0.719238,0.45459,0
44170,0.405762,-0.713379,0.442383,0
44190,0.412598,-0.729492,0.420898,0
44210,0.443359,-0.73291,0.422363,0
44230,0.456055,-0.729492,0.418945,0
44250,0.446777,-0.720215,0.413574,0
44270,0.434082,-0.742676,0.402344,0
44290,0.446777,-0.736328,0.397461,0
44310,0.443848,-0.740234,0.400391,0
44330,0.430664,-0.732422,0.384766,0
44350,0.432617,-0.727051,0.374023,0
44370,0.429688,-0.746582,0.378418,0
44390,0.421387,-0.743164,0.393066,0
44410,0.426758,-0.74707,0.39502,0
44430,0.45166,-0.748535,0.394043,0
44450,0.453125,-0.739746,0.375,0
44470,0.446289,-0.735352,0.378418,0
44490,0.450195,-0.738281,0.378906,0
44510,0.486816,-0.731445,0.381836,0
44530,0.492188,-0.730469,0.353516,0
44550,0.477539,-0.691895,0.347168,0
44570,0.462891,-0.713379,0.373047,0
44590,0.474609,-0.723633,0.383789,0
44610,0.520508,-0.718262,0.369141,0
44630,0.538574,-0.714844,0.355957,0
44650,0.52002,-0.714844,0.356445,0
44670,0.489746,-0.714844,0.367188,0
44690,0.491699,-0.74707,0.358887,0
44710,0.564941,-0.73584,0.328125,0
44730,0.633789,-0.714355,0.344238,0
44750,0.591797,-0.681152,0.332031,0
44770,0.548828,-0.697266,0.331055,0
44790,0.554688,-0.727539,0.311523,0
44810,0.578125,-0.720215,0.294434,0
44830,0.590332,-0.683105,0.316406,0
44850,0.594727,-0.654785,0.313477,0
44870,0.605957,-0.678223,0.310059,0
44890,0.595703,-0.708008,0.325195,0
44910,0.611328,-0.708496,0.308594,0
44930,0.589844,-0.691406,0.304199,0
44950,0.589355,-0.678223,0.281738,0
44970,0.576172,-0.666016,0.291016,0
44990,0.603516,-0.655762,0.30127,0
45010,0.602539,-0.647949,0.300293,0
45030,0.617188,-0.632324,0.305664,0
45050,0.618652,-0.638672,0.286621,0
45070,0.63916,-0.646484,0.279297,0
45090,0.646484,-0.649414,0.291016,0
45110,0.658691,-0.624023,0.283203,0
45130,0.671387,-0.611816,0.288574,0
45150,0.666016,-0.625,0.274414,0
45170,0.680176,-0.625488,0.282227,0
45190,0.695312,-0.617188,0.286621,0
45210,0.689453,-0.591797,0.280273,0
45230,0.709961,-0.583496,0.279785,0
45250,0.705566,-0.583008,0.286133,0
45270,0.693848,-0.571777,0.291016,0
45290,0.71582,-0.57373,0.295898,0
45310,0.710938,-0.562988,0.29541,0
45330,0.69873,-0.546875,0.311035,0
45350,0.694824,-0.542969,0.333496,0
45370,0.705566,-0.536621,0.32373,0
45390,0.718262,-0.518555,0.32666,0
45410,0.722168,-0.513672,0.322266,0
45430,0.733398,-0.51416,0.329102,0
45450,0.73291,-0.507324,0.326172,0
45470,0.749512,-0.495117,0.331543,0
45490,0.745605,-0.492188,0.335449,0
45510,0.749512,-0.487305,0.334961,0
45530,0.754395,-0.476074,0.32959,0
45550,0.756836,-0.474121,0.338867,0
45570,0.748047,-0.475098,0.355957,0
45590,0.756836,-0.472656,0.36084,0
45610,0.744629,-0.476074,0.351562,0
45630,0.739746,-0.47168,0.353516,0
45650,0.735352,-0.479492,0.368652,0
45670,0.732422,-0.471191,0.375488,0
45690,0.730469,-0.47168,0.374512,0
45710,0.714355,-0.477051,0.367676,0
45730,0.709961,-0.478516,0.380859,0
45750,0.709961,-0.464844,0.398926,0
45770,0.724609,-0.462402,0.390625,0
45790,0.736328,-0.458496,0.387207,0
45810,0.73877,-0.446777,0.392578,0
45830,0.741211,-0.445312,0.408691,0
45850,0.716309,-0.440918,0.416992,0
45870,0.741211,-0.431641,0.413086,0
45890,0.757812,-0.42627,0.407227,0
45910,0.777832,-0.412109,0.414551,0
45930,0.782227,-0.430664,0.412109,0
45950,0.767578,-0.422852,0.430664,0
45970,0.757324,-0.406738,0.439941,0
45990,0.768555,-0.394043,0.429199,0
46010,0.774414,-0.39502,0.436523,0
46030,0.774902,-0.398926,0.432617,0
46050,0.773926,-0.401855,0.446777,0
46070,0.772949,-0.394531,0.455078,0
46090,0.760742,-0.384766,0.443359,0
46110,0.737793,-0.383789,0.441406,0
46130,0.74707,-0.378906,0.454102,0
46150,0.713867,-0.388672,0.470703,0
46170,0.733398,-0.391113,0.459473,0
46190,0.725586,-0.39502,0.464355,0
46210,0.703613,-0.408691,0.469238,0
46230,0.666504,-0.390625,0.496094,0
46240,0.686035,-0.401367,0.487793,0
46260,0.697754,-0.393555,0.489258,0
46280,0.687988,-0.424805,0.479492,0
46300,0.685059,-0.431152,0.487793,0
46320,0.675293,-0.424316,0.500488,0
46340,0.680664,-0.407715,0.51123,0
46360,0.683105,-0.388184,0.472168,0
46380,0.647461,-0.406738,0.494141,0
46400,0.644531,-0.420898,0.500488,0
46420,0.644531,-0.399902,0.508789,0
46440,0.669922,-0.404297,0.491211,0
46460,0.643555,-0.41748,0.484863,0
46480,0.616211,-0.439941,0.496582,0
46500,0.612305,-0.427734,0.513672,0
46520,0.617188,-0.431152,0.488281,0
46540,0.603027,-0.426758,0.481445,0
46560,0.600586,-0.458496,0.48291,0
46580,0.611328,-0.468262,0.487793,0
46600,0.589844,-0.483887,0.498047,0
46620,0.597656,-0.476074,0.500488,0
46640,0.61084,-0.487305,0.500977,0
46660,0.606934,-0.504395,0.490723,0
46680,0.622559,-0.516602,0.496582,0
46700,0.60498,-0.520996,0.510254,0
46720,0.618164,-0.516602,0.495117,0
46740,0.626953,-0.516602,0.486816,0
46760,0.61377,-0.524902,0.494629,0
46780,0.594727,-0.536133,0.498535,0
46800,0.589844,-0.553223,0.495605,0
46820,0.612793,-0.541016,0.513184,0
46840,0.608887,-0.554688,0.505371,0
46860,0.587891,-0.547363,0.5,0
46880,0.57373,-0.553711,0.494141,0
46900,0.564941,-0.544434,0.490723,0
46920,0.583496,-0.54248,0.501953,0
46940,0.580566,-0.55957,0.499512,0
46960,0.5625,-0.569824,0.498535,0
46980,0.570801,-0.580566,0.490723,0
47000,0.567871,-0.575195,0.492188,0
47020,0.536621,-0.579102,0.494629,0
47040,0.527344,-0.566895,0.486816,0
47060,0.524902,-0.566406,0.483887,0
47080,0.503906,-0.560547,0.484375,0
47100,0.509766,-0.558594,0.478516,0
47120,0.526367,-0.565918,0.488281,0
47140,0.532715,-0.569824,0.483887,0
47160,0.531738,-0.578613,0.481445,0
47180,0.532227,-0.586426,0.463867,0
47200,0.540039,-0.580078,0.47168,0
47220,0.548828,-0.586426,0.479004,0
47240,0.546387,-0.58252,0.467285,0
47260,0.550781,-0.598145,0.458984,0
47280,0.543457,-0.604004,0.450684,0
47300,0.540039,-0.605957,0.456543,0
47320,0.535645,-0.59668,0.450684,0
47340,0.535645,-0.612793,0.441406,0
47360,0.53418,-0.619629,0.442383,0
47380,0.530762,-0.614746,0.446777,0
47400,0.505859,-0.620605,0.453125,0
47420,0.495605,-0.643066,0.464844,0
47440,0.512695,-0.629395,0.451172,0
47460,0.520508,-0.626465,0.439453,0
47480,0.521973,-0.622559,0.450684,0
47500,0.502441,-0.618164,0.428223,0
47520,0.526367,-0.616699,0.402832,0
47540,0.518066,-0.642578,0.396973,0
47560,0.534668,-0.638184,0.376465,0
47580,0.580566,-0.651367,0.378418,0
47600,0.573242,-0.650879,0.381836,0
47620,0.570801,-0.654785,0.388672,0
47640,0.589844,-0.65918,0.378418,0
47660,0.606445,-0.649902,0.370605,0
47680,0.60791,-0.651367,0.378418,0
47700,0.625488,-0.645996,0.366211,0
47720,0.60498,-0.636719,0.359863,0
47740,0.573242,-0.624512,0.351562,0
47760,0.571289,-0.634766,0.336914,0
47780,0.589355,-0.626953,0.327148,0
47800,0.591797,-0.618652,0.342773,0
47820,0.616211,-0.633789,0.333496,0
47840,0.633301,-0.641113,0.330566,0
47860,0.60791,-0.639648,0.309082,0
47880,0.570312,-0.608887,0.321289,0
47900,0.561523,-0.595215,0.319336,0
47920,0.604004,-0.583984,0.282227,0
47940,0.67334,-0.603027,0.279785,0
47960,0.67041,-0.625,0.299316,0
47980,0.67041,-0.615723,0.292969,0
48000,0.65918,-0.628418,0.287109,0
48020,0.686523,-0.63916,0.265137,0
48040,0.703613,-0.605469,0.277832,0
48060,0.724609,-0.59668,0.275391,0
48080,0.723633,-0.591797,0.268066,0
48100,0.734863,-0.602051,0.260742,0
48120,0.754395,-0.605469,0.263184,0
48140,0.773438,-0.615723,0.276367,0
48160,0.793457,-0.586426,0.269531,0
48180,0.763672,-0.57959,0.249512,0
48200,0.765137,-0.570801,0.253418,0
48210,0.766113,-0.57666,0.234863,0
48230,0.755859,-0.57373,0.23584,0
48250,0.75293,-0.567383,0.22998,0
48270,0.763672,-0.547852,0.232422,0
48290,0.76416,-0.553711,0.21875,0
48310,0.748047,-0.553711,0.203613,0
48330,0.745605,-0.550293,0.194824,0
48350,0.779297,-0.551758,0.187012,0
48370,0.787109,-0.538574,0.170898,0
48390,0.761719,-0.536621,0.166016,0
48410,0.753418,-0.541504,0.170898,0
48430,0.77002,-0.537598,0.158691,0
48450,0.786133,-0.524902,0.146484,0
48470,0.796875,-0.506348,0.138184,0
48490,0.791504,-0.499512,0.143066,0
48510,0.786133,-0.494141,0.141602,0
48530,0.802734,-0.491211,0.121094,0
48550,0.832031,-0.474121,0.127441,0
48570,0.805176,-0.458496,0.123047,0
48590,0.797363,-0.461914,0.133301,0
48610,0.807129,-0.463379,0.134277,0
48630,0.802246,-0.435547,0.118652,0
48650,0.821289,-0.428711,0.104004,0
48670,0.820312,-0.428711,0.114258,0
48690,0.817871,-0.409668,0.131836,0
48710,0.843262,-0.398438,0.121094,0
48730,0.875488,-0.388184,0.119141,0
48750,0.877441,-0.400391,0.124512,0
48770,0.861816,-0.380371,0.134766,0
48790,0.89502,-0.360352,0.138672,0
48810,0.90625,-0.371582,0.134277,0
48830,0.90332,-0.372559,0.133301,0
48850,0.886719,-0.347656,0.13623,0
48870,0.862793,-0.331543,0.130859,0
48890,0.863281,-0.317383,0.131348,0
48910,0.867676,-0.310547,0.147461,0
48930,0.868652,-0.309082,0.155273,0
48950,0.864746,-0.304688,0.169922,0
48970,0.860352,-0.301758,0.171875,0
48990,0.88916,-0.300293,0.154785,0
49010,0.894043,-0.288574,0.160645,0
49030,0.891602,-0.267578,0.189453,0
49050,0.907227,-0.259277,0.196289,0
49070,0.933594,-0.259277,0.202148,0
49090,0.92334,-0.235352,0.203613,0
49110,0.922852,-0.224121,0.228516,0
49130,0.944336,-0.21875,0.239746,0
49150,0.920898,-0.214355,0.227539,0
49170,0.916016,-0.210449,0.223633,0
49190,0.925293,-0.227539,0.240234,0
49210,0.894043,-0.209961,0.259766,0
49230,0.910156,-0.222168,0.254883,0
49250,0.922363,-0.228027,0.257324,0
49270,0.901855,-0.23291,0.273926,0
49290,0.905762,-0.231934,0.272949,0
49310,0.927246,-0.211426,0.285645,0
49330,0.909668,-0.194336,0.282227,0
49350,0.867676,-0.222656,0.269043,0
49370,0.819824,-0.242188,0.306641,0
49390,0.847656,-0.204102,0.337891,0
49410,0.861816,-0.19873,0.331055,0
49430,0.855957,-0.195312,0.341309,0
49450,0.838379,-0.231445,0.347168,0
49470,0.841309,-0.261719,0.368164,0
49490,0.836426,-0.262207,0.37207,0
49510,0.833008,-0.258789,0.393066,0
49530,0.828613,-0.270508,0.412109,0
49550,0.80957,-0.252441,0.371582,0
49570,0.77002,-0.271973,0.384277,0
49590,0.786621,-0.283203,0.393555,0
49610,0.779785,-0.28418,0.402344,0
49630,0.79248,-0.29248,0.394043,0
49650,0.800781,-0.306641,0.389648,0
49670,0.77832,-0.301758,0.399414,0
49690,0.754395,-0.314941,0.408203,0
49710,0.755859,-0.305664,0.421387,0
49730,0.772461,-0.302246,0.420898,0
49750,0.776367,-0.3125,0.413086,0
49770,0.758789,-0.320801,0.428711,0
49790,0.754395,-0.322266,0.443359,0
49810,0.769043,-0.321289,0.458008,0
49830,0.758301,-0.331055,0.4375,0
49850,0.758789,-0.335938,0.447754,0
49870,0.748535,-0.351074,0.450195,0
49890,0.760254,-0.364746,0.460938,0
49910,0.749023,-0.367188,0.493652,0
49930,0.73291,-0.353027,0.48584,0
49950,0.731445,-0.348145,0.467773,0
49970,0.720703,-0.373535,0.45459,0
49990,0.714355,-0.374512,0.454102,0
50010,0.709961,-0.367676,0.45166,0
50030,0.737305,-0.375,0.478516,0
50050,0.732422,-0.402344,0.476562,0
50070,0.678223,-0.428223,0.480469,0
50090,0.67334,-0.441895,0.46875,0
50110,0.668457,-0.429688,0.462891,0
50130,0.67627,-0.425293,0.458496,0
50150,0.680664,-0.438965,0.477051,0
50170,0.660645,-0.422852,0.486328,0
50190,0.65625,-0.446289,0.496094,0
50210,0.654785,-0.45166,0.498047,0
50230,0.609863,-0.450195,0.480469,0
50250,0.590332,-0.463867,0.475586,0
50270,0.591309,-0.458984,0.466797,0
50290,0.574707,-0.455078,0.462402,0
50310,0.561035,-0.452148,0.456543,0
50330,0.572266,-0.480469,0.447266,0
50350,0.599609,-0.499512,0.447266,0
50370,0.615234,-0.491699,0.455566,0
50390,0.620605,-0.480957,0.449219,0
50410,0.639648,-0.48291,0.431641,0
50430,0.673828,-0.501465,0.412109,0
50450,0.666016,-0.533203,0.388672,0
50470,0.666016,-0.540039,0.382324,0
50490,0.678711,-0.520508,0.388672,0
50510,0.687012,-0.532227,0.39502,0
50530,0.678711,-0.533691,0.378418,0
50550,0.657715,-0.529297,0.362793,0
50570,0.687012,-0.560059,0.348633,0
50590,0.696289,-0.577148,0.353516,0
50610,0.674316,-0.580078,0.340332,0
50630,0.650879,-0.57373,0.307129,0
50650,0.644043,-0.594238,0.287598,0
50670,0.709473,-0.613281,0.285645,0
50690,0.71875,-0.596191,0.295898,0
50710,0.655762,-0.590332,0.287598,0
50730,0.648438,-0.613281,0.282227,0
50750,0.641113,-0.631348,0.28125,0
50770,0.632324,-0.625,0.267578,0
50790,0.625977,-0.623535,0.261719,0
50810,0.628418,-0.624023,0.255859,0
50830,0.65918,-0.605957,0.251465,0
50850,0.652344,-0.612305,0.253418,0
50870,0.657227,-0.616211,0.259277,0
50890,0.67627,-0.602051,0.232422,0
50910,0.69873,-0.599121,0.223633,0
50930,0.717773,-0.599609,0.190918,0
50950,0.720215,-0.602539,0.200195,0
50970,0.746094,-0.574219,0.203613,0
50990,0.759766,-0.587402,0.185059,0
51010,0.766602,-0.569336,0.172363,0
51030,0.758789,-0.560059,0.179199,0
51050,0.77002,-0.545898,0.178711,0
51070,0.744629,-0.526367,0.157227,0
51090,0.728027,-0.522949,0.158691,0
51110,0.779785,-0.569824,0.117188,0
51130,0.816406,-0.562012,0.148438,0
51150,0.789551,-0.538574,0.150391,0
51170,0.78125,-0.522949,0.142578,0
51190,0.844727,-0.51709,0.14502,0
51210,0.868652,-0.502441,0.138184,0
51230,0.851562,-0.504883,0.114746,0
51250,0.845215,-0.507812,0.109375,0
51270,0.837402,-0.490234,0.118164,0
51290,0.849121,-0.460938,0.108887,0
51310,0.867188,-0.445801,0.103516,0
51330,0.87793,-0.440918,0.09375,0
51350,0.881348,-0.456055,0.0830078,0
51370,0.884766,-0.449707,0.100098,0
51390,0.88916,-0.433105,0.0678711,0
51410,0.884766,-0.416992,0.0551758,0
51430,0.919922,-0.41748,0.0483398,0
51450,0.898926,-0.413574,0.0263672,0
51470,0.866211,-0.370605,0.0605469,0
51490,0.895996,-0.369141,0.0400391,0
51510,0.901367,-0.370605,0.0273438,2001
51530,0.87793,-0.377441,0.00732422,0
51550,0.877441,-0.371094,0.0141602,0
51570,0.884766,-0.357422,-0.00439453,0
51590,0.887207,-0.346191,-0.0268555,0
51610,0.898926,-0.358398,-0.03125,0
51620,0.885254,-0.352051,-0.0292969,0
51640,0.891602,-0.333496,-0.0161133,0
51660,0.869141,-0.321289,-0.00585938,0
51680,0.874512,-0.316406,-0.000488281,0
51700,0.876465,-0.338867,-0.00976562,0
51720,0.852051,-0.34082,-0.0253906,0
51740,0.833496,-0.347168,-0.0126953,0
51760,0.830078,-0.351562,-0.0126953,0
51780,0.823242,-0.352539,-0.0219727,0
51800,0.82666,-0.373047,-0.0273438,0
51820,0.839844,-0.380371,-0.0317383,0
51840,0.818359,-0.394043,-0.0131836,0
51860,0.823242,-0.382812,-0.0078125,0
51880,0.824219,-0.414062,-0.00292969,0
51900,0.787109,-0.39209,0.0205078,0
51920,0.755371,-0.391602,0.0351562,0
51940,0.699707,-0.391602,0.0546875,0
51960,0.635254,-0.391113,0.0556641,0
51980,0.625488,-0.408203,0.065918,0
52000,0.64209,-0.447266,0.0390625,0
52020,0.655273,-0.463379,0.0976562,0
52040,0.627441,-0.459961,0.138184,0
52060,0.638672,-0.473145,0.160156,0
52080,0.65625,-0.488281,0.203125,0
52100,0.687012,-0.474121,0.241699,0
52120,0.722656,-0.48291,0.28418,0
52140,0.789551,-0.476074,0.30957,0
52160,0.78418,-0.479492,0.350586,0
52180,0.782227,-0.491699,0.385254,0
52200,0.827148,-0.490234,0.356445,0
52220,0.89502,-0.488281,0.35498,0
52240,0.901367,-0.483398,0.385742,0
52260,0.84375,-0.500977,0.379395,0
52280,0.82959,-0.520508,0.382324,0
52300,0.76416,-0.573242,0.435547,0
52320,0.78418,-0.572754,0.415039,0
52340,0.837891,-0.560059,0.426758,0
52360,0.845215,-0.557617,0.422363,0
52380,0.827148,-0.574707,0.414551,0
52400,0.822266,-0.616699,0.414551,0
52420,0.784668,-0.634766,0.418945,0
52430,0.753906,-0.664062,0.459961,0
52450,0.706543,-0.654297,0.467773,0
52470,0.651855,-0.669434,0.453125,0
52490,0.60498,-0.683594,0.469727,0
52530,0.506348,-0.699219,0.497559,0
52550,0.486328,-0.688477,0.491699,0
52570,0.455078,-0.721191,0.458008,0
52590,0.430664,-0.71875,0.491699,0
52610,0.397949,-0.726562,0.500488,0
52630,0.381348,-0.735352,0.499023,0
52650,0.364258,-0.737793,0.48584,0
52670,0.381836,-0.77832,0.48291,0
52690,0.361328,-0.756836,0.490234,0
52710,0.329102,-0.777344,0.492188,0
52730,0.325684,-0.768066,0.480469,0
52750,0.319824,-0.769531,0.480957,0
52770,0.311523,-0.779785,0.48584,0
52790,0.308105,-0.780762,0.463379,0
52810,0.297363,-0.789551,0.47168,0
52830,0.294434,-0.797363,0.458496,0
52850,0.294434,-0.792969,0.484863,0
52870,0.289062,-0.787109,0.482422,0
52890,0.290527,-0.791504,0.474121,0
52910,0.31543,-0.792969,0.46582,0
52930,0.326172,-0.789551,0.46582,0
52950,0.325684,-0.781738,0.458984,0
52970,0.305664,-0.783691,0.449707,0
52990,0.27002,-0.773926,0.460938,0
53010,0.287109,-0.756836,0.456055,2000
53030,0.285645,-0.752441,0.453125,0
53050,0.237305,-0.756348,0.469238,0
53070,0.219238,-0.756348,0.467285,0
53090,0.223145,-0.765137,0.475098,0
53110,0.22168,-0.76123,0.480957,0
53130,0.241699,-0.753906,0.476074,0
53150,0.256836,-0.737305,0.45752,0
53170,0.293457,-0.76709,0.462891,0
53190,0.338867,-0.792969,0.482422,0
53210,0.353027,-0.793945,0.480469,0
53230,0.349121,-0.779785,0.482422,0
53250,0.374023,-0.768066,0.467285,0
53270,0.390137,-0.779297,0.455078,0
53290,0.348145,-0.788574,0.458496,0
53310,0.333984,-0.784668,0.460449,0
53330,0.34668,-0.775879,0.447266,0
53350,0.32959,-0.766602,0.431641,0
53370,0.311035,-0.765625,0.437012,0
53390,0.333008,-0.778809,0.444336,0
53410,0.351074,-0.76123,0.429199,0
53430,0.342773,-0.740723,0.423828,0
53450,0.350586,-0.771973,0.444336,0
53470,0.373535,-0.758789,0.442871,0
53490,0.389648,-0.75,0.436035,0
53500,0.398926,-0.746094,0.407227,0
53530,0.401367,-0.759766,0.408203,0
53550,0.377441,-0.775391,0.404785,0
53570,0.376953,-0.776855,0.410645,0
53590,0.371094,-0.777344,0.411621,0
53600,0.366699,-0.774414,0.401367,0
53620,0.352539,-0.770508,0.404297,0
53640,0.374512,-0.780273,0.40918,0
53660,0.370605,-0.800781,0.408691,0
53680,0.353516,-0.784668,0.40332,0
53700,0.364746,-0.779297,0.406738,0
53720,0.359863,-0.77832,0.407227,0
53740,0.372559,-0.781738,0.402832,0
53760,0.387207,-0.765625,0.397461,0
53780,0.403809,-0.759277,0.408203,0
53800,0.414062,-0.75,0.394531,0
53820,0.421875,-0.76416,0.379883,0
53840,0.416504,-0.75293,0.381836,0
53860,0.430664,-0.753906,0.389648,0
53880,0.420898,-0.751953,0.391113,0
53900,0.430176,-0.754883,0.379395,0
53920,0.425781,-0.755859,0.393066,0
53940,0.421387,-0.750977,0.394531,0
53960,0.424316,-0.750488,0.379883,0
53980,0.422852,-0.751465,0.380859,0
54000,0.426758,-0.760254,0.395508,0
54020,0.431152,-0.760254,0.397949,0
54040,0.440918,-0.750488,0.399902,0
54060,0.43457,-0.739746,0.402832,0
54080,0.432129,-0.751953,0.399414,0
54100,0.424316,-0.726074,0.432129,0
54120,0.430664,-0.725098,0.431641,0
54140,0.447266,-0.717773,0.415039,0
54160,0.439941,-0.71875,0.416992,0
54180,0.441406,-0.722168,0.416992,0
54200,0.438965,-0.708984,0.420898,0
54220,0.443359,-0.714355,0.422363,0
54240,0.451172,-0.717773,0.407227,0
54260,0.446289,-0.71582,0.413574,0
54280,0.45166,-0.712402,0.430664,0
54300,0.453125,-0.72168,0.433594,0
54320,0.455566,-0.713379,0.415527,0
54340,0.465332,-0.708496,0.42041,0
54360,0.476562,-0.707031,0.42334,0
54380,0.481445,-0.697754,0.418945,0
54400,0.477539,-0.697266,0.429688,0
54420,0.487305,-0.704102,0.426758,0
54440,0.490234,-0.685547,0.432617,0
54460,0.512207,-0.675293,0.438477,0
54480,0.533691,-0.668457,0.438965,0
54500,0.531738,-0.658203,0.45166,0
54520,0.544922,-0.659668,0.438477,0
54540,0.53418,-0.668945,0.432129,0
54560,0.53418,-0.665527,0.420898,0
54580,0.535645,-0.661133,0.415527,0
54600,0.541504,-0.661133,0.434082,0
54620,0.544434,-0.645508,0.460938,0
54640,0.54834,-0.637207,0.46875,0
54660,0.558594,-0.628906,0.471191,0
54680,0.55127,-0.622559,0.464355,0
54700,0.542969,-0.617188,0.479492,0
54720,0.562012,-0.619629,0.483887,0
54740,0.557617,-0.619629,0.469238,0
54760,0.545898,-0.61084,0.463379,0
54780,0.558105,-0.608398,0.478516,0
54800,0.547363,-0.608398,0.465332,0
54820,0.559082,-0.60791,0.48291,0
54840,0.551758,-0.603516,0.483398,0
54860,0.555664,-0.588867,0.48877,0
54880,0.545898,-0.573242,0.479004,0
54900,0.545898,-0.570801,0.478516,0
54920,0.549316,-0.568359,0.483398,0
54940,0.552734,-0.571289,0.488281,0
54960,0.551758,-0.572754,0.505371,0
54980,0.574707,-0.554688,0.499023,0
55000,0.588867,-0.555664,0.505859,0
55020,0.569824,-0.553711,0.510742,0
55040,0.564453,-0.549316,0.506836,0
55060,0.571777,-0.549316,0.512695,0
55080,0.564941,-0.54541,0.522461,0
55100,0.55957,-0.554688,0.530273,0
55120,0.558594,-0.54248,0.515137,0
55140,0.55127,-0.560059,0.516113,0
55160,0.549805,-0.547363,0.519043,0
55180,0.581055,-0.545898,0.525879,0
55200,0.583008,-0.537598,0.52002,0
55220,0.601074,-0.545898,0.497559,0
55240,0.588867,-0.548828,0.496094,0
55260,0.585449,-0.54248,0.5,0
55280,0.579102,-0.540527,0.491699,0
55300,0.585449,-0.524902,0.499512,0
55320,0.605469,-0.538086,0.488281,0
55340,0.575195,-0.528809,0.501953,0
55360,0.569336,-0.523438,0.496094,0
55380,0.567871,-0.528809,0.498047,0
55400,0.604492,-0.518555,0.491211,0
55420,0.592285,-0.516602,0.489746,0
55440,0.59082,-0.52832,0.493652,0
55460,0.577148,-0.544434,0.492188,0
55480,0.582031,-0.537109,0.494141,0
55500,0.597656,-0.519043,0.509766,0
55520,0.600098,-0.530762,0.505859,0
55540,0.562012,-0.544434,0.498535,0
55560,0.577148,-0.556641,0.513184,0
55580,0.58252,-0.549805,0.512695,0
55600,0.568359,-0.544434,0.507324,0
55620,0.562988,-0.557617,0.498535,0
55640,0.565918,-0.556152,0.489258,0
55660,0.571289,-0.567383,0.505371,0
55680,0.580566,-0.583496,0.491699,0
55700,0.540527,-0.591309,0.496094,0
55720,0.538086,-0.591309,0.5,0
55740,0.539551,-0.587402,0.490234,0
55760,0.568848,-0.577637,0.47998,0
55780,0.575684,-0.58252,0.478027,0
55800,0.561035,-0.59375,0.470703,0
55820,0.538574,-0.614258,0.463379,0
55840,0.547363,-0.609375,0.478027,0
55860,0.554199,-0.59375,0.476074,0
55880,0.532227,-0.597656,0.47168,0
55900,0.53418,-0.611816,0.472656,0
55920,0.533691,-0.635254,0.500488,0
55940,0.503418,-0.612305,0.473633,0
55960,0.522461,-0.611816,0.480957,0
55980,0.524902,-0.605957,0.508301,0
56000,0.496582,-0.598145,0.502441,0
56020,0.505859,-0.630371,0.493652,0
56040,0.496582,-0.64502,0.487793,0
56060,0.462891,-0.657715,0.491211,0
56080,0.45166,-0.655273,0.498535,0
56100,0.483398,-0.662598,0.479004,0
56120,0.496094,-0.638672,0.484375,0
56140,0.475586,-0.638672,0.477051,0
56160,0.466797,-0.648438,0.470703,0
56180,0.490234,-0.668457,0.467285,0
56200,0.47998,-0.658203,0.493652,0
56220,0.479004,-0.638672,0.489746,0
56240,0.469727,-0.635254,0.46875,0
56260,0.459961,-0.648438,0.469727,0
56280,0.461426,-0.658691,0.49707,0
56300,0.476562,-0.661133,0.498047,0
56320,0.473145,-0.656738,0.48584,0
56340,0.468262,-0.644043,0.48877,0
56360,0.452148,-0.635742,0.491699,0
56380,0.448242,-0.656738,0.48584,0
56400,0.453613,-0.665039,0.482422,0
56420,0.476074,-0.671875,0.478516,0
56440,0.475586,-0.674805,0.478027,0
56460,0.480957,-0.664062,0.458008,0
56480,0.479492,-0.661621,0.458984,0
56500,0.476562,-0.664062,0.468262,0
56520,0.483887,-0.675293,0.464355,0
56540,0.502441,-0.677734,0.450684,0
56560,0.500488,-0.678223,0.455566,0
56580,0.484863,-0.667969,0.441895,0
56600,0.460449,-0.673828,0.448242,0
56620,0.470703,-0.680176,0.440918,0
56640,0.491211,-0.680176,0.443848,0
56660,0.484375,-0.685547,0.444824,0
56680,0.464844,-0.673828,0.443359,0
56700,0.472656,-0.672363,0.438477,0
56720,0.484863,-0.689453,0.433594,0
56740,0.474121,-0.685547,0.433594,0
56760,0.461426,-0.691895,0.437012,0
56780,0.471191,-0.689941,0.439941,0
56800,0.46875,-0.712402,0.420898,0
56820,0.439941,-0.697266,0.429199,0
56840,0.429199,-0.695312,0.429688,0
56860,0.45166,-0.705078,0.433594,0
56880,0.445312,-0.710449,0.435547,0
56900,0.43457,-0.720703,0.433594,0
56920,0.444824,-0.734863,0.422363,0
56940,0.438477,-0.726562,0.422852,0
56960,0.441406,-0.732422,0.408691,0
56980,0.446777,-0.748047,0.412598,0
57000,0.439453,-0.737793,0.410156,0
57010,0.442871,-0.742188,0.403809,0
57030,0.435547,-0.744629,0.403809,0
57050,0.433594,-0.744141,0.402344,0
57070,0.40918,-0.759277,0.393066,0
57090,0.40332,-0.755371,0.388672,0
57110,0.421875,-0.754883,0.402832,0
57130,0.42627,-0.734375,0.392578,0
57150,0.405762,-0.744629,0.384277,0
57170,0.383789,-0.753906,0.373535,0
57190,0.379395,-0.78125,0.355957,0
57210,0.410645,-0.776855,0.352539,0
57230,0.416992,-0.762207,0.353027,0
57250,0.389648,-0.759277,0.333008,0
57270,0.376465,-0.774902,0.318848,0
57290,0.397949,-0.790039,0.319824,0
57310,0.417969,-0.790039,0.317871,0
57330,0.443848,-0.786621,0.33252,0
57350,0.432617,-0.790527,0.330078,0
57370,0.439453,-0.791992,0.315918,0
57390,0.439453,-0.810059,0.325684,0
57410,0.456055,-0.803711,0.317871,0
57430,0.455078,-0.812012,0.30957,0
57450,0.446777,-0.806152,0.306641,0
57470,0.42041,-0.811035,0.302734,0
57490,0.40625,-0.812988,0.293457,0
57510,0.429688,-0.814941,0.294922,0
57530,0.471191,-0.821777,0.286133,0
57550,0.46875,-0.80957,0.272949,0
57570,0.433105,-0.801758,0.276855,0
57590,0.451172,-0.800781,0.26709,0
57610,0.480957,-0.801758,0.249023,0
57630,0.48291,-0.804688,0.261719,0
57650,0.475098,-0.795898,0.253418,0
57670,0.494141,-0.787109,0.253418,0
57690,0.51416,-0.774414,0.25293,0
57710,0.490723,-0.777832,0.243652,0
57730,0.515625,-0.788574,0.240723,0
57750,0.496094,-0.765625,0.240723,0
57770,0.537109,-0.76416,0.231934,0
57790,0.563965,-0.773438,0.223633,0
57810,0.558594,-0.76416,0.198242,0
57830,0.57666,-0.743652,0.22168,0
57850,0.563965,-0.739258,0.219238,0
57870,0.599609,-0.723145,0.208984,0
57890,0.591309,-0.733887,0.192383,0
57910,0.591309,-0.728027,0.192871,0
57930,0.60498,-0.730957,0.199219,0
57950,0.587891,-0.704102,0.169434,0
57970,0.588379,-0.697266,0.185059,0
57990,0.605957,-0.683594,0.179688,0
58010,0.627441,-0.692383,0.16748,0
58030,0.586914,-0.676758,0.166992,0
58050,0.609375,-0.687988,0.168457,0
58070,0.625,-0.670898,0.171875,0
58090,0.635742,-0.6875,0.150391,0
58110,0.652832,-0.683594,0.145996,0
58130,0.649414,-0.695312,0.155762,0
58150,0.666992,-0.703125,0.155273,0
58170,0.681641,-0.682129,0.160156,0
58190,0.679688,-0.657227,0.158691,0
58210,0.702637,-0.658691,0.160156,0
58230,0.703125,-0.649902,0.179199,0
58250,0.710938,-0.642578,0.170898,0
58270,0.722656,-0.625488,0.16748,0
58290,0.755859,-0.618164,0.174805,0
58310,0.751953,-0.595215,0.178223,0
58330,0.761719,-0.585938,0.181641,0
58350,0.756836,-0.570801,0.1875,0
58370,0.788574,-0.561035,0.174805,0
58390,0.784668,-0.541504,0.164062,0
58410,0.783691,-0.541992,0.17334,0
58430,0.788574,-0.526367,0.189453,0
58450,0.802246,-0.528809,0.177246,0
58470,0.77832,-0.512207,0.164551,0
58490,0.795898,-0.514648,0.170898,0
58510,0.788086,-0.504395,0.176758,0
58530,0.796387,-0.506836,0.173828,0
58550,0.790527,-0.498047,0.186523,0
58570,0.789551,-0.506836,0.199219,0
58590,0.787598,-0.503906,0.218262,0
58610,0.785645,-0.499512,0.213379,0
58630,0.77832,-0.501465,0.213867,0
58650,0.771973,-0.500977,0.209473,0
58670,0.784668,-0.505371,0.222656,0
58690,0.808105,-0.499023,0.239258,0
58710,0.82959,-0.48877,0.220215,0
58730,0.818359,-0.494141,0.232422,0
58750,0.813965,-0.485352,0.24707,0
58770,0.805664,-0.48877,0.250977,0
58790,0.82666,-0.476074,0.25,0
58810,0.796387,-0.474609,0.252441,0
58830,0.80957,-0.487793,0.256348,0
58850,0.803223,-0.483887,0.26709,0
58870,0.79834,-0.473633,0.281738,0
58890,0.787598,-0.463379,0.282227,0
58910,0.803223,-0.47168,0.275879,0
58930,0.81543,-0.473145,0.29541,0
58950,0.814453,-0.459473,0.285645,0
58970,0.803711,-0.456055,0.282227,0
58990,0.804199,-0.452637,0.271973,0
59000,0.796875,-0.466797,0.280762,0
59020,0.791504,-0.452637,0.306152,0
59040,0.798828,-0.435547,0.291016,0
59060,0.787109,-0.432129,0.29248,0
59080,0.775879,-0.448242,0.286133,0
59100,0.78418,-0.456055,0.294434,0
59120,0.764648,-0.438965,0.3125,0
59140,0.777832,-0.443359,0.32373,0
59160,0.771484,-0.461426,0.322266,0
59180,0.750488,-0.442383,0.33252,0
59200,0.770996,-0.458496,0.33252,0
59220,0.760742,-0.475586,0.335938,0
59240,0.743164,-0.476074,0.333496,0
59260,0.745605,-0.464844,0.346191,0
59280,0.762207,-0.473145,0.330566,0
59300,0.768066,-0.474121,0.328125,0
59320,0.765137,-0.515137,0.327637,0
59340,0.716797,-0.475586,0.344238,0
59360,0.688477,-0.473633,0.312988,0
59380,0.716309,-0.484863,0.314941,0
59400,0.70459,-0.485352,0.330566,0
59420,0.700684,-0.506348,0.333984,0
59440,0.710449,-0.520508,0.34082,0
59460,0.692383,-0.522949,0.320801,0
59480,0.702148,-0.527832,0.33252,0
59500,0.718262,-0.527344,0.32959,0
59520,0.705566,-0.529297,0.337891,0
59540,0.714844,-0.553223,0.323242,0
59560,0.70459,-0.539062,0.338379,0
59580,0.692871,-0.536621,0.331055,0
59600,0.692383,-0.544434,0.329102,0
59620,0.689941,-0.558594,0.333008,0
59640,0.657227,-0.555664,0.326172,0
59660,0.670898,-0.540527,0.324707,0
59680,0.669922,-0.549316,0.339844,0
59700,0.662109,-0.574707,0.328613,0
59720,0.646484,-0.59082,0.331543,0
59740,0.641602,-0.585938,0.34082,0
59760,0.637695,-0.57959,0.352051,0
59780,0.635742,-0.587891,0.326172,0
59800,0.632324,-0.598633,0.344238,0
59820,0.632812,-0.60498,0.342773,0
59840,0.637695,-0.60498,0.333984,0
59860,0.646484,-0.618164,0.335938,0
59880,0.654297,-0.61377,0.32959,0
59900,0.651367,-0.618164,0.330566,0
59920,0.642578,-0.612305,0.33252,0
59940,0.640137,-0.609863,0.325195,0
59960,0.630371,-0.611816,0.325195,0
59980,0.643555,-0.602539,0.32959,0
60000,0.624512,-0.602539,0.334961,0
60020,0.643555,-0.598633,0.3125,0
60040,0.653809,-0.625488,0.331055,0
60060,0.64502,-0.63623,0.322266,0
60080,0.641602,-0.636719,0.325684,0
60100,0.643066,-0.640625,0.325684,0
60120,0.641602,-0.655273,0.312988,0
60140,0.630371,-0.666504,0.319824,0
60160,0.613281,-0.655762,0.331055,0
60180,0.617676,-0.669434,0.32373,0
60200,0.619141,-0.67041,0.333008,0
60220,0.61377,-0.67041,0.340332,0
60240,0.616699,-0.668945,0.350586,0
60260,0.625488,-0.661133,0.333984,0
60280,0.635742,-0.672363,0.330078,0
60300,0.645508,-0.686035,0.305664,0
60320,0.626465,-0.6875,0.321777,0
60340,0.608887,-0.678711,0.317871,0
60360,0.600098,-0.668945,0.304199,0
60380,0.625488,-0.669434,0.300293,0
60400,0.625488,-0.676758,0.308105,0
60420,0.581055,-0.67627,0.315918,0
60440,0.557129,-0.688477,0.294922,0
60460,0.581543,-0.685547,0.299316,0
60480,0.581543,-0.681152,0.30127,0
60500,0.5625,-0.675293,0.30127,0
60520,0.534668,-0.682129,0.297852,0
60540,0.538086,-0.693359,0.285645,0
60560,0.533691,-0.693848,0.29834,0
60580,0.513184,-0.692383,0.29248,0
60600,0.521973,-0.699219,0.28418,0
60620,0.555664,-0.703125,0.268555,0
60640,0.568359,-0.719727,0.271973,0
60660,0.58252,-0.729004,0.259766,0
60680,0.586426,-0.734863,0.260254,0
60700,0.563477,-0.730469,0.271973,0
60730,0.507324,-0.697266,0.280273,0
60750,0.498535,-0.700684,0.253906,0
60770,0.519043,-0.712891,0.23584,0
60790,0.529785,-0.713867,0.243652,0
60810,0.529297,-0.695801,0.239258,0
60830,0.547363,-0.711914,0.240234,0
60850,0.554199,-0.712891,0.223145,0
60870,0.616699,-0.719238,0.200195,0
60890,0.640625,-0.748535,0.205566,0
60910,0.621094,-0.721191,0.199219,0
60930,0.605957,-0.724121,0.203613,0
60950,0.623535,-0.722656,0.193359,0
60970,0.624023,-0.73584,0.197266,0
60990,0.619141,-0.73291,0.205566,0
61010,0.60791,-0.729492,0.225586,0
61030,0.621094,-0.688965,0.228516,0
61050,0.621094,-0.669922,0.220703,0
61070,0.637207,-0.655273,0.20166,0
61090,0.643066,-0.658203,0.174805,0
61110,0.644531,-0.667969,0.156738,0
61130,0.666016,-0.660645,0.162109,0
61150,0.692871,-0.650391,0.161621,0
61170,0.713867,-0.661621,0.157715,0
61190,0.723633,-0.662109,0.146973,0
61210,0.742188,-0.67627,0.146484,0
61230,0.73584,-0.664062,0.128906,0
61250,0.746582,-0.675781,0.117676,0
61270,0.762207,-0.67041,0.103516,0
61290,0.750488,-0.644531,0.09375,0
61310,0.748535,-0.654297,0.09375,0
61330,0.736816,-0.655273,0.100586,0
61350,0.725098,-0.64502,0.0917969,0
61370,0.705566,-0.629883,0.0917969,0
61390,0.731934,-0.632324,0.0722656,0
61410,0.734863,-0.621094,0.0668945,0
61430,0.742188,-0.620605,0.0668945,0
61450,0.751465,-0.604004,0.0634766,0
61470,0.76123,-0.61084,0.0454102,0
61490,0.772949,-0.599609,0.0458984,0
61510,0.775879,-0.589355,0.0454102,0
61530,0.780762,-0.581543,0.0410156,0
61550,0.798828,-0.579102,0.0317383,0
61570,0.778809,-0.564453,0.0429688,0
61590,0.774902,-0.543457,0.0327148,0
61610,0.770996,-0.539551,0.0380859,0
61630,0.775391,-0.520508,0.0292969,0
61650,0.786621,-0.524414,0.0395508,0
61670,0.770508,-0.504395,0.0620117,0
61690,0.760254,-0.48584,0.0869141,0
61710,0.768066,-0.48584,0.0415039,0
61730,0.789062,-0.48291,0.00146484,0
61750,0.813965,-0.477539,0.0244141,0
61770,0.82959,-0.443359,0.0371094,0
61790,0.834961,-0.436523,0.0419922,0
61810,0.85498,-0.443848,0.0371094,0
61830,0.87793,-0.450195,0.0356445,0
61850,0.874512,-0.441895,0.0371094,0
61870,0.885742,-0.429199,0.0200195,0
61890,0.904297,-0.422852,0.0161133,0
61910,0.911621,-0.422852,0.0195312,0
61930,0.886719,-0.427734,0.0258789,0
61950,0.887207,-0.413574,0.0322266,0
61970,0.890137,-0.400879,0.0375977,0
61990,0.900391,-0.398438,0.0385742,0
62010,0.90332,-0.385254,0.046875,0
62030,0.898438,-0.383301,0.0429688,0
62050,0.901367,-0.373535,0.0483398,0
62070,0.888672,-0.367188,0.0488281,0
62090,0.90332,-0.35498,0.0629883,0
62110,0.912109,-0.341309,0.0605469,0
62130,0.908203,-0.335938,0.0551758,0
62150,0.922363,-0.328613,0.0712891,0
62170,0.914062,-0.330078,0.0664062,0
62190,0.913574,-0.308105,0.0722656,0
62210,0.916992,-0.291992,0.0693359,0
62230,0.915527,-0.288086,0.0805664,0
62250,0.916016,-0.290039,0.0673828,0
62270,0.927734,-0.279297,0.0673828,0
62290,0.916504,-0.273926,0.0786133,0
62310,0.89502,-0.263672,0.0751953,0
62330,0.895508,-0.260254,0.0839844,0
62350,0.904297,-0.261719,0.10498,0
62370,0.915039,-0.251953,0.112305,0
62390,0.914062,-0.254883,0.126953,0
62410,0.912109,-0.265625,0.124512,0
62420,0.914062,-0.254395,0.141602,0
62440,0.928223,-0.263672,0.148926,0
62460,0.921387,-0.255859,0.156738,0
62480,0.922363,-0.249512,0.174805,0
62500,0.931641,-0.259277,0.169922,0
62520,0.936035,-0.271484,0.202637,0
62540,0.919434,-0.276367,0.216309,0
62560,0.907715,-0.253906,0.219238,0
62580,0.902344,-0.262695,0.234863,0
62600,0.907227,-0.260254,0.237793,0
62620,0.890625,-0.276367,0.240723,0
62640,0.89502,-0.274414,0.244629,0
62660,0.895996,-0.304199,0.258301,0
62680,0.865234,-0.305664,0.23584,0
62700,0.864258,-0.3125,0.243164,0
62720,0.881348,-0.328613,0.256836,0
62740,0.845703,-0.327637,0.260254,0
62760,0.826172,-0.334473,0.260254,0
62780,0.833008,-0.327637,0.270996,0
62800,0.831055,-0.315918,0.265137,0
62820,0.82666,-0.314453,0.282715,0
62840,0.825195,-0.32373,0.268066,0
62860,0.820801,-0.344727,0.284668,0
62880,0.840332,-0.344727,0.295898,0
62900,0.858398,-0.340332,0.281738,0
62920,0.84668,-0.350586,0.291504,0
62940,0.804199,-0.349121,0.318359,0
62960,0.814453,-0.353516,0.31543,0
62980,0.829102,-0.362793,0.313965,0
63000,0.808594,-0.355957,0.321289,0
63020,0.797852,-0.356934,0.334473,0
63040,0.789551,-0.349609,0.348145,0
63060,0.79834,-0.351074,0.33252,0
63080,0.802246,-0.372559,0.350586,0
63100,0.794922,-0.366211,0.366211,0
63120,0.814453,-0.349609,0.385742,0
63140,0.812012,-0.355469,0.39209,0
63160,0.783203,-0.362305,0.37793,0
63180,0.766113,-0.372559,0.378906,0
63200,0.771973,-0.358398,0.382812,0
63220,0.764648,-0.365234,0.39502,0
63240,0.740723,-0.373535,0.399414,0
63260,0.705566,-0.372559,0.399414,0
63280,0.694336,-0.371094,0.393066,0
63300,0.708496,-0.382812,0.405762,0
63320,0.697754,-0.387695,0.400391,0
63340,0.711426,-0.384277,0.392578,0
63360,0.736328,-0.408691,0.388672,0
63380,0.724609,-0.418945,0.404785,0
63400,0.713379,-0.420898,0.396484,0
63420,0.730957,-0.444336,0.395996,0
63440,0.749512,-0.443848,0.387207,0
63460,0.738281,-0.443848,0.39502,0
63480,0.727539,-0.452637,0.398926,0
63500,0.732422,-0.478516,0.381836,0
63520,0.732422,-0.484863,0.37207,0
63540,0.705078,-0.490234,0.381348,0
63560,0.685547,-0.48584,0.380859,0
63580,0.681152,-0.485352,0.385254,0
63600,0.655273,-0.49707,0.383789,0
63620,0.666504,-0.494629,0.387207,0
63640,0.651855,-0.521484,0.39502,0
63660,0.646973,-0.500977,0.381348,0
63680,0.683594,-0.520508,0.375977,0
63700,0.686035,-0.512207,0.387695,0
63720,0.687012,-0.503906,0.37793,0
63740,0.691895,-0.517578,0.366211,0
63760,0.717285,-0.531738,0.358398,0
63780,0.709473,-0.534668,0.364258,0
63800,0.709473,-0.51123,0.362305,0
63820,0.69873,-0.516113,0.353027,0
63840,0.70166,-0.521973,0.345703,0
63860,0.6875,-0.526855,0.357422,0
63880,0.707031,-0.525391,0.339355,0
63900,0.711914,-0.526855,0.356934,0
63920,0.679199,-0.525391,0.339355,0
63940,0.687988,-0.525879,0.339844,0
63960,0.695312,-0.549316,0.340332,0
63980,0.671875,-0.535645,0.328613,0
64000,0.678223,-0.556641,0.322266,0
64020,0.671875,-0.556152,0.330566,0
64040,0.691406,-0.567383,0.316406,0
64060,0.693359,-0.566895,0.324219,0
64080,0.691406,-0.561035,0.317871,0
64100,0.682129,-0.575195,0.317383,0
64120,0.656738,-0.560059,0.320312,0
64140,0.662598,-0.576172,0.310547,0
64160,0.69873,-0.574219,0.316406,0
64180,0.687012,-0.57373,0.316406,0
64200,0.67627,-0.572754,0.297852,0
64220,0.671875,-0.583984,0.308105,0
64240,0.664551,-0.595215,0.311523,0
64260,0.647949,-0.583008,0.297363,0
64280,0.633789,-0.599609,0.276367,0
64300,0.666016,-0.59668,0.260254,0
64320,0.666992,-0.606934,0.255859,0
64340,0.657715,-0.604004,0.253418,0
64360,0.672852,-0.62207,0.265137,0
64380,0.677734,-0.631348,0.264648,0
64390,0.680664,-0.625488,0.249512,0
64410,0.660156,-0.625,0.24707,0
64430,0.668945,-0.629395,0.225586,0
64450,0.684082,-0.633789,0.228027,0
64470,0.684082,-0.633789,0.205566,0
64490,0.675781,-0.632324,0.175293,0
64510,0.685547,-0.645996,0.154297,0
64530,0.680176,-0.658203,0.154785,0
64550,0.683105,-0.650879,0.161621,0
64570,0.706055,-0.647461,0.15332,0
64590,0.726074,-0.662109,0.125488,0
64610,0.725586,-0.67627,0.135254,0
64630,0.719238,-0.676758,0.13623,0
64650,0.737793,-0.658203,0.128906,0
64670,0.77002,-0.645996,0.112793,0
64690,0.77832,-0.645996,0.0922852,0
64710,0.765137,-0.655273,0.0952148,0
64730,0.729492,-0.652344,0.0947266,0
64750,0.735352,-0.643555,0.0893555,0
64770,0.763184,-0.629883,0.0634766,0
64790,0.766602,-0.620605,0.0693359,0
64810,0.757812,-0.600098,0.0600586,0
64830,0.753906,-0.599609,0.0571289,0
64850,0.751465,-0.588867,0.0317383,0
64870,0.765137,-0.608398,0.0200195,0
64890,0.770508,-0.600586,0.0117188,0
64910,0.780762,-0.595703,0.0107422,0
64930,0.779297,-0.588867,-0.00341797,0
64950,0.780762,-0.581055,-0.0307617,0
64970,0.773926,-0.585938,-0.0185547,0
64990,0.761719,-0.581055,-0.0273438,0
65010,0.750488,-0.57373,-0.0292969,0
65030,0.774902,-0.567871,-0.0493164,0
65050,0.808105,-0.564941,-0.0424805,0
65070,0.828125,-0.552734,-0.0493164,0
65090,0.812012,-0.522461,-0.0693359,0
65110,0.814941,-0.525391,-0.090332,0
65130,0.854004,-0.491699,-0.116211,0
65150,0.870117,-0.481934,-0.0927734,0
65170,0.876953,-0.451172,-0.116211,0
65190,0.879395,-0.447754,-0.126465,0
65210,0.862305,-0.424316,-0.119141,2001
65230,0.888184,-0.415527,-0.116211,0
65250,0.905762,-0.400879,-0.121094,0
65270,0.918945,-0.380371,-0.122559,0
65290,0.91748,-0.347168,-0.113281,0
65310,0.928711,-0.338379,-0.13916,0
65330,0.912598,-0.322266,-0.128418,0
65350,0.92041,-0.32666,-0.120605,0
65370,0.920898,-0.315918,-0.128418,0
65390,0.917969,-0.313477,-0.125977,0
65410,0.902832,-0.32959,-0.105469,0
65430,0.863281,-0.30957,-0.103516,0
65450,0.849121,-0.354004,-0.117676,0
65470,0.817383,-0.380371,-0.106445,0
65490,0.828613,-0.382812,-0.0976562,0
65510,0.813477,-0.400879,-0.106934,0
65530,0.79541,-0.410156,-0.111816,0
65550,0.796875,-0.431641,-0.114258,0
65570,0.793945,-0.45459,-0.108887,0
65590,0.790527,-0.460938,-0.0927734,0
65610,0.770508,-0.460938,-0.090332,0
65630,0.773926,-0.46875,-0.0961914,0
65650,0.729492,-0.476562,-0.0976562,0
65670,0.708496,-0.469727,-0.102539,0
65690,0.678223,-0.478027,-0.081543,0
65710,0.66748,-0.470215,-0.0756836,0
65730,0.696289,-0.48291,-0.0708008,0
65750,0.70459,-0.464844,-0.0605469,0
65770,0.745605,-0.449707,-0.0400391,0
65790,0.754395,-0.476074,0.00195312,0
65810,0.776855,-0.460449,0.00341797,0
65830,0.788086,-0.440918,0.0375977,0
65850,0.791504,-0.427246,0.0742188,0
65870,0.803223,-0.430176,0.0864258,0
65890,0.813477,-0.450684,0.119629,0
65910,0.820801,-0.42334,0.111328,0
65930,0.875488,-0.390625,0.118652,0
65950,0.852051,-0.446289,0.15918,0
65970,0.818848,-0.491699,0.195312,0
65990,0.809082,-0.518066,0.193359,0
66010,0.83252,-0.511719,0.251953,0
66030,0.831543,-0.532227,0.275391,0
66050,0.841309,-0.541992,0.287598,0
66070,0.826172,-0.600586,0.289062,0
66090,0.799316,-0.638672,0.313965,0
66110,0.820801,-0.664062,0.297852,0
66130,0.811035,-0.696777,0.32959,0
66150,0.755371,-0.730469,0.342285,0
66170,0.695312,-0.740234,0.348633,0
66190,0.646973,-0.762207,0.35791,0
66210,0.621582,-0.780762,0.370605,0
66230,0.595703,-0.797363,0.377441,0
66250,0.57959,-0.800293,0.358398,0
66270,0.542969,-0.813965,0.364746,0
66290,0.507324,-0.79248,0.361328,0
66310,0.479004,-0.799316,0.370605,0
66330,0.443359,-0.81543,0.390137,0
66350,0.391113,-0.805664,0.397461,0
66370,0.387207,-0.823242,0.40332,0
66390,0.339844,-0.83252,0.431641,0
66410,0.32666,-0.836426,0.422852,0
66430,0.328613,-0.833008,0.416992,0
66450,0.320801,-0.77832,0.411133,0
66470,0.266602,-0.79248,0.426758,0
66490,0.277832,-0.806152,0.429688,0
66510,0.294922,-0.82373,0.42041,0
66540,0.305176,-0.818359,0.413574,0
66560,0.303711,-0.812012,0.436523,0
66580,0.29541,-0.804199,0.433594,0
66600,0.294922,-0.810547,0.44043,0
66620,0.296875,-0.816895,0.436035,0
66640,0.297363,-0.819336,0.424316,0
66660,0.304199,-0.817871,0.414551,0
66680,0.311035,-0.818848,0.42334,0
66700,0.321777,-0.82959,0.417969,0
66720,0.317383,-0.825195,0.428711,0
66740,0.304688,-0.820801,0.429199,0
66760,0.293457,-0.818359,0.424316,0
66780,0.269531,-0.81543,0.421387,0
