Timestamp, Acceleration x, Acceleration y, Acceleration z, Marker
40,-0.516602,-0.762695,0.306152,0
50,-0.521484,-0.775391,0.29834,0
70,-0.519043,-0.796387,0.297363,0
90,-0.523438,-0.806641,0.300293,0
110,-0.525391,-0.792969,0.292969,0
130,-0.512695,-0.78125,0.303711,0
150,-0.499512,-0.788086,0.304688,0
170,-0.502441,-0.801758,0.321777,0
170,-0.503906,-0.814453,0.342773,0
200,-0.499023,-0.824707,0.353516,0
220,-0.48877,-0.82666,0.35791,0
240,-0.486328,-0.817383,0.352539,0
260,-0.48877,-0.805176,0.350098,0
280,-0.50293,-0.779785,0.344238,0
300,-0.510742,-0.775391,0.352539,0
320,-0.510254,-0.787109,0.34375,0
340,-0.51123,-0.791016,0.329102,0
360,-0.510254,-0.791016,0.322754,0
380,-0.520508,-0.790527,0.320801,0
400,-0.522949,-0.791504,0.322754,0
420,-0.525879,-0.801758,0.325684,0
440,-0.519531,-0.80957,0.322266,0
460,-0.515137,-0.804199,0.319824,0
480,-0.507324,-0.799316,0.326172,0
500,-0.504395,-0.779785,0.325195,0
520,-0.503906,-0.780273,0.325195,0
540,-0.502441,-0.791504,0.332031,0
560,-0.501953,-0.791504,0.326172,0
580,-0.495117,-0.791992,0.332031,0
600,-0.488281,-0.797363,0.337402,0
620,-0.48877,-0.804199,0.338379,0
640,-0.501465,-0.811523,0.341309,0
660,-0.506836,-0.808594,0.336426,0
680,-0.514648,-0.807617,0.330078,0
700,-0.513672,-0.800781,0.316895,0
720,-0.513672,-0.787598,0.300293,0
740,-0.509766,-0.78125,0.302246,0
760,-0.510254,-0.788574,0.303223,0
780,-0.508789,-0.797852,0.30957,0
800,-0.504883,-0.804688,0.317383,0
820,-0.503418,-0.803711,0.327148,0
840,-0.504395,-0.801758,0.333496,0
860,-0.513184,-0.79541,0.333984,0
880,-0.512207,-0.785156,0.329102,0
900,-0.516113,-0.783203,0.326172,0
920,-0.515137,-0.791992,0.322754,0
940,-0.506348,-0.794922,0.317383,0
960,-0.50293,-0.795898,0.320312,0
980,-0.503906,-0.797852,0.3125,0
1000,-0.507812,-0.803223,0.309082,0
1020,-0.507812,-0.804688,0.315918,0
1040,-0.502441,-0.807129,0.327148,0
1060,-0.508789,-0.813965,0.318359,0
1080,-0.516602,-0.812988,0.327148,0
1100,-0.515137,-0.798828,0.331055,0
1120,-0.521484,-0.788574,0.324707,0
1140,-0.511719,-0.788086,0.325684,0
1160,-0.517578,-0.788086,0.322266,0
1180,-0.51709,-0.791016,0.325195,0
1200,-0.513672,-0.799805,0.324219,0
1220,-0.510742,-0.805664,0.32666,0
1240,-0.501953,-0.806641,0.320312,0
1260,-0.495605,-0.793457,0.309082,0
1280,-0.494629,-0.783691,0.310547,0
1300,-0.504395,-0.789551,0.310547,0
1320,-0.509766,-0.799316,0.324219,0
1340,-0.51123,-0.809082,0.325684,0
1360,-0.512207,-0.809082,0.324219,0
1380,-0.513672,-0.80127,0.317871,0
1400,-0.509277,-0.79248,0.315918,0
1420,-0.509766,-0.791504,0.309082,0
1440,-0.51709,-0.804688,0.307129,0
1460,-0.52002,-0.811035,0.302246,0
1480,-0.51709,-0.798828,0.315918,0
1500,-0.496094,-0.802246,0.32373,0
1520,-0.506836,-0.798828,0.332031,0
1540,-0.515137,-0.795898,0.339844,0
1560,-0.510742,-0.799316,0.327637,0
1580,-0.507324,-0.793945,0.323242,0
1590,-0.508789,-0.791992,0.311523,0
1610,-0.511719,-0.797852,0.312988,0
1630,-0.500977,-0.809082,0.304688,0
1650,-0.51123,-0.79834,0.295898,0
1670,-0.508789,-0.794922,0.297852,0
1690,-0.500488,-0.794922,0.305176,0
1710,-0.5,-0.796387,0.314453,0
1730,-0.503418,-0.808105,0.3125,0
1750,-0.509766,-0.814941,0.314941,0
1770,-0.511719,-0.804199,0.313477,0
1790,-0.513184,-0.794434,0.308105,0
1810,-0.520508,-0.802734,0.29834,0
1830,-0.529297,-0.824219,0.284668,0
1850,-0.557129,-0.849121,0.269531,0
1870,-0.592285,-0.92334,0.247559,0
1890,-0.561035,-0.933594,0.18457,0
1910,-0.555176,-0.90332,0.152344,0
1930,-0.61084,-0.853027,0.197754,0
1950,-0.620117,-0.79541,0.179688,0
1970,-0.700684,-0.808594,0.285156,0
1990,-0.741699,-0.811035,0.413574,0
2010,-0.677246,-0.839844,0.473633,0
2030,-0.563477,-0.951172,0.540527,0
2050,-0.414551,-1.0542,0.543945,0
2070,-0.335938,-1.06445,0.584961,0
2090,-0.23877,-1.04492,0.604492,0
2110,-0.136719,-1.00928,0.585449,0
2130,-0.0332031,-0.96582,0.521973,0
2150,0.0913086,-0.964844,0.479004,0
2170,0.183594,-0.912598,0.447266,0
2190,0.320801,-0.86084,0.384766,0
2210,0.42041,-0.782227,0.295898,0
2230,0.513672,-0.715332,0.240234,0
2250,0.44043,-0.736328,0.240723,0
2270,0.496094,-0.75293,0.255371,0
2290,0.411133,-0.692383,0.187012,0
2310,0.437988,-0.647949,0.158691,0
2330,0.494141,-0.605469,0.120117,0
2350,0.528809,-0.593262,0.0634766,0
2370,0.450195,-0.54834,0.0546875,0
2390,0.609863,-0.548828,-0.0258789,0
2410,0.606934,-0.547363,-0.0351562,0
2430,0.621582,-0.579102,-0.0800781,0
2450,0.587891,-0.562012,-0.0654297,0
2470,0.597656,-0.5625,-0.09375,0
2490,0.642578,-0.576172,-0.144043,0
2510,0.67627,-0.598633,-0.205078,0
2530,0.669922,-0.612305,-0.220215,0
2550,0.680664,-0.647949,-0.240723,0
2570,0.648438,-0.666992,-0.19873,0
2590,0.675781,-0.690918,-0.189941,0
2610,0.728027,-0.707031,-0.191406,0
2630,0.694824,-0.697754,-0.186523,0
2650,0.705078,-0.702148,-0.187988,0
2670,0.682617,-0.702637,-0.166016,0
2690,0.671387,-0.727051,-0.142578,0
2710,0.623535,-0.713867,-0.125977,0
2730,0.609863,-0.705566,-0.159668,0
2750,0.630859,-0.705566,-0.169434,0
2770,0.675293,-0.712891,-0.178223,0
2790,0.646484,-0.732422,-0.193848,0
2810,0.641113,-0.709473,-0.20752,0
2830,0.62793,-0.705566,-0.196777,0
2850,0.635254,-0.729004,-0.203125,0
2870,0.623535,-0.736816,-0.17627,0
2890,0.630371,-0.755859,-0.1875,0
2910,0.65625,-0.73877,-0.179688,0
2930,0.638672,-0.748047,-0.161621,0
2950,0.632812,-0.755371,-0.166504,0
2970,0.65918,-0.748047,-0.172363,0
2990,0.65332,-0.743164,-0.187012,0
3010,0.631836,-0.767578,-0.180176,0
3030,0.651367,-0.776367,-0.187012,0
3050,0.630859,-0.76709,-0.181641,0
3070,0.651367,-0.776367,-0.168457,0
3090,0.699219,-0.766602,-0.163086,0
3110,0.682617,-0.789062,-0.147461,0
3130,0.671387,-0.783691,-0.126953,0
3150,0.639648,-0.78125,-0.0751953,0
3170,0.670898,-0.787109,-0.0942383,0
3190,0.6875,-0.789551,-0.116211,0
3210,0.655273,-0.773926,-0.145996,0
3230,0.653809,-0.791992,-0.162109,0
3250,0.621582,-0.767578,-0.13623,0
3270,0.621094,-0.73291,-0.132324,0
3290,0.607422,-0.740234,-0.171387,0
3310,0.597656,-0.736816,-0.20459,0
3330,0.576172,-0.742676,-0.200684,0
3350,0.591797,-0.742188,-0.203613,0
3370,0.57666,-0.724609,-0.17334,0
3390,0.602051,-0.727539,-0.200195,0
3410,0.604492,-0.727051,-0.194824,0
3430,0.652344,-0.724121,-0.195312,0
3450,0.655273,-0.729004,-0.181152,0
3470,0.664551,-0.728027,-0.189941,0
3490,0.645508,-0.742676,-0.185059,0
3510,0.669434,-0.754395,-0.203613,0
3530,0.643066,-0.745117,-0.197266,0
3550,0.661621,-0.758789,-0.224121,0
3570,0.632324,-0.755371,-0.233887,0
3590,0.63623,-0.756836,-0.244141,0
3610,0.642578,-0.756348,-0.239746,0
3630,0.63916,-0.75,-0.214844,0
3650,0.644531,-0.746582,-0.203613,0
3670,0.631348,-0.736328,-0.212402,0
3690,0.666504,-0.730469,-0.20752,0
3710,0.66748,-0.723633,-0.216309,0
3730,0.672363,-0.711914,-0.228516,0
3750,0.645508,-0.701172,-0.231934,0
3770,0.668457,-0.708984,-0.237305,0
3790,0.643066,-0.703125,-0.244629,0
3810,0.649414,-0.728516,-0.246094,0
3830,0.593262,-0.703613,-0.230469,0
3850,0.612793,-0.725586,-0.226562,0
3870,0.638672,-0.711914,-0.211426,0
3890,0.671387,-0.710938,-0.214355,0
3910,0.674316,-0.716309,-0.21875,0
3930,0.675293,-0.719238,-0.227051,0
3950,0.694824,-0.732422,-0.230469,0
3970,0.652832,-0.736328,-0.212891,0
3990,0.654785,-0.73584,-0.194824,0
4010,0.648438,-0.738281,-0.20166,0
4030,0.63916,-0.728027,-0.207031,0
4050,0.637695,-0.725098,-0.21875,0
4070,0.623047,-0.718262,-0.214355,0
4090,0.61377,-0.706055,-0.21582,0
4110,0.617188,-0.698242,-0.217773,0
4130,0.614258,-0.694336,-0.208496,0
4150,0.61084,-0.678223,-0.219238,0
4170,0.614258,-0.685547,-0.222168,0
4190,0.609863,-0.687988,-0.228027,0
4210,0.583984,-0.686035,-0.208008,0
4230,0.547852,-0.676758,-0.199707,0
4250,0.524902,-0.674805,-0.183594,0
4270,0.560547,-0.685547,-0.161133,0
4290,0.589355,-0.717773,-0.141113,0
4310,0.521484,-0.744141,-0.120605,0
4330,0.474609,-0.697266,-0.115234,0
4350,0.455566,-0.700684,-0.109863,0
4370,0.473633,-0.705078,-0.11084,0
4390,0.476074,-0.741699,-0.120117,0
4410,0.499023,-0.86084,-0.0463867,0
4430,0.419922,-0.921875,0.0209961,0
4450,0.373535,-0.891602,0.0493164,0
4470,0.363281,-0.888672,0.081543,0
4490,0.3125,-0.917969,0.131836,0
4510,0.186523,-0.884766,0.17627,0
4530,0.0551758,-0.943359,0.152832,0
4550,0.0117188,-1.0166,0.181641,0
4570,-0.0791016,-1.0332,0.193848,0
4590,-0.150879,-1.02637,0.154297,0
4610,-0.225586,-0.967773,0.131348,0
4630,-0.293945,-0.873535,0.114258,0
4650,-0.337402,-0.86377,0.143555,0
4670,-0.367676,-0.864746,0.126953,0
4690,-0.465332,-0.868652,0.101562,0
4710,-0.542969,-0.893555,0.133789,0
4730,-0.557129,-0.928711,0.109863,0
4750,-0.81543,-0.621094,0.0673828,0
4770,-0.691406,-1.16357,-0.135742,0
4790,-1.08496,-1.91699,0.117676,0
4810,-0.742676,-1.7627,-0.394043,0
4830,-0.504395,-1.17236,-0.532227,0
4850,-0.488281,-0.893066,-0.0112305,0
4870,-0.573242,-0.553711,0.0390625,0
4890,-0.525879,-0.464844,-0.0131836,0
4910,-0.453613,-0.682617,0.0112305,0
4930,-0.499023,-0.96582,0.0717773,0
4950,-0.541016,-1.05957,0.00390625,0
4970,-0.484375,-0.98877,-0.0131836,0
4990,-0.476562,-0.889648,0.00439453,0
5010,-0.510254,-0.720703,0.0253906,0
5030,-0.558105,-0.771484,-0.114258,0
5040,-0.554199,-0.918945,-0.0830078,0
5060,-0.552734,-0.931152,-0.0883789,0
5080,-0.555664,-0.869629,-0.0644531,0
5100,-0.558594,-0.851562,-0.0507812,0
5120,-0.554688,-0.835938,-0.0209961,0
5140,-0.561523,-0.881836,-0.0878906,0
5160,-0.523438,-0.918457,-0.0292969,0
5180,-0.551758,-0.935059,-0.0146484,0
5200,-0.524902,-0.87793,-0.0146484,0
5220,-0.507812,-0.893066,-0.0341797,0
5240,-0.528809,-0.90625,-0.0625,0
5260,-0.498047,-0.922363,-0.0527344,0
5280,-0.48877,-0.933594,-0.0683594,0
5300,-0.520996,-0.922363,-0.0751953,0
5320,-0.560059,-0.85791,-0.0512695,0
5340,-0.561035,-0.817871,-0.0249023,0
5360,-0.539551,-0.82959,-0.0634766,0
5380,-0.55127,-0.835449,-0.0649414,0
5400,-0.594727,-0.861816,-0.0761719,0
5420,-0.59668,-0.889648,-0.0942383,0
5440,-0.592285,-0.838379,-0.0419922,0
5460,-0.612793,-0.799316,-0.128418,0
5480,-0.602539,-0.859863,-0.151855,0
5500,-0.555664,-0.952637,-0.15918,0
5520,-0.525879,-0.929688,-0.118164,0
5540,-0.566406,-0.804199,-0.131348,0
5560,-0.64209,-0.731445,-0.0678711,0
5580,-0.617676,-0.737793,-0.0712891,0
5600,-0.574707,-0.782715,-0.0888672,0
5620,-0.59082,-0.778809,-0.0776367,0
5640,-0.582031,-0.797852,-0.0483398,0
5660,-0.609375,-0.829102,-0.0869141,0
5680,-0.628906,-0.841797,-0.097168,0
5700,-0.651367,-0.876953,-0.138184,0
5720,-0.657227,-0.851074,-0.135742,0
5740,-0.645508,-0.790039,-0.140137,0
5760,-0.628418,-0.761719,-0.081543,0
5780,-0.554688,-0.821289,0.0195312,0
5800,-0.555664,-0.88623,0.0336914,0
5820,-0.50293,-0.940918,0.050293,0
5840,-0.438477,-0.97168,0.0795898,0
5860,-0.405273,-0.956543,0.0859375,0
5880,-0.424805,-0.945312,0.0849609,0
5900,-0.402344,-0.983398,0.0756836,0
5920,-0.430664,-0.967773,0.0581055,0
5940,-0.456543,-0.993652,0.0834961,0
5960,-0.461426,-1.02002,0.0454102,0
5980,-0.500977,-0.933105,0.0429688,0
6000,-0.519043,-0.847656,0.0595703,0
6020,-0.532715,-0.791504,0.0820312,0
6040,-0.533203,-0.87207,0.0600586,0
6060,-0.533691,-0.913086,0.0625,0
6080,-0.568359,-0.923828,0.0737305,0
6100,-0.584961,-0.88916,0.0688477,0
6120,-0.529297,-0.771973,0.0683594,0
6140,-0.493164,-0.776367,-0.019043,0
6160,-0.491211,-0.783203,-0.00830078,0
6180,-0.547852,-0.845703,0.0576172,0
6200,-0.556152,-0.931152,0.0112305,0
6220,-0.52002,-0.878418,-0.0146484,0
6240,-0.532715,-0.893555,-0.015625,0
6260,-0.521484,-0.89502,-0.00390625,0
6280,-0.51416,-0.868164,0.027832,0
6300,-0.523438,-0.845703,0.0532227,0
6320,-0.606445,-0.783203,0.0581055,0
6340,-0.768066,-0.631348,0.0854492,0
6360,-0.760254,-0.628906,0.109375,0
6380,-0.572266,-0.799316,0.0219727,0
6400,-0.504395,-0.945801,-0.0239258,0
6420,-0.504395,-1.00586,-0.0380859,0
6440,-0.459473,-0.970215,-0.00292969,0
6460,-0.432617,-0.921387,0.0566406,0
6480,-0.414062,-0.931641,0.106934,0
6500,-0.419922,-0.905273,0.116699,0
6520,-0.464844,-0.888184,0.148438,0
6540,-0.581543,-0.889648,0.129395,0
6560,-0.59668,-0.901855,0.0888672,0
6580,-0.486328,-0.895508,0.0625,0
6600,-0.425293,-0.904297,0.0458984,0
6620,-0.397461,-0.904297,0.0634766,0
6640,-0.44873,-0.910156,0.0771484,0
6660,-0.48877,-0.906738,0.129883,0
6680,-0.437012,-0.916504,0.131836,0
6700,-0.4375,-0.925293,0.138184,0
6720,-0.486328,-0.931641,0.121582,0
6740,-0.47998,-0.946289,0.109863,0
6760,-0.43457,-0.948242,0.0854492,0
6780,-0.437988,-0.914551,0.0800781,0
6800,-0.444824,-0.908691,0.0952148,0
6820,-0.48291,-0.870117,0.0952148,0
6840,-0.532715,-0.842285,0.0839844,0
6860,-0.52832,-0.855469,0.0717773,0
6880,-0.500977,-0.875977,0.0737305,0
6900,-0.508301,-0.877441,0.0673828,0
6920,-0.541016,-0.854492,0.0844727,0
6940,-0.563965,-0.832031,0.0961914,0
6960,-0.53418,-0.852051,0.0825195,0
6980,-0.472168,-0.882812,0.0556641,0
7000,-0.42334,-0.927734,0.043457,0
7020,-0.384766,-0.9375,0.0517578,0
7030,-0.393066,-0.929688,0.0874023,0
7050,-0.469727,-0.939941,0.142578,0
7070,-0.489746,-0.897949,0.150391,0
7090,-0.555664,-0.857422,0.12207,0
7110,-0.541504,-0.868652,0.102539,0
7130,-0.4375,-0.907715,0.0751953,0
7150,-0.377441,-0.9375,0.0786133,0
7170,-0.397461,-0.94043,0.10791,0
7190,-0.45459,-0.888184,0.123535,0
7210,-0.460449,-0.856445,0.142578,0
7230,-0.437012,-0.875488,0.131348,0
7250,-0.437988,-0.876465,0.11377,0
7270,-0.561035,-0.889648,0.0864258,0
7290,-0.574707,-0.921387,0.078125,0
7310,-0.47168,-0.95752,0.0615234,0
7330,-0.366699,-0.948242,0.0595703,0
7350,-0.358398,-0.913574,0.097168,0
7370,-0.449219,-0.875488,0.131348,0
7390,-0.455566,-0.858887,0.175293,0
7410,-0.403809,-0.894043,0.136719,0
7430,-0.408691,-0.911621,0.0981445,0
7450,-0.489258,-0.905762,0.10791,0
7470,-0.628418,-0.870605,0.0976562,0
7490,-0.584473,-0.85498,0.0922852,0
7510,-0.460938,-0.894043,0.0732422,0
7530,-0.374512,-0.921875,0.0849609,0
7550,-0.350586,-0.955078,0.133789,0
7570,-0.409668,-0.943848,0.150391,0
7590,-0.450195,-0.897949,0.169434,0
7610,-0.422363,-0.904297,0.147949,0
7630,-0.548828,-0.86377,0.090332,0
7650,-0.630859,-0.795898,0.0869141,0
7670,-0.555664,-0.833496,0.0854492,0
7690,-0.459473,-0.895996,0.065918,0
7710,-0.378418,-0.935547,0.0834961,0
7730,-0.326172,-0.960938,0.120605,0
7750,-0.354492,-0.951172,0.148438,0
7780,-0.373047,-0.932129,0.176758,0
7800,-0.368164,-0.956543,0.138672,0
7820,-0.47998,-0.908691,0.13623,0
7840,-0.644043,-0.837402,0.133789,0
7860,-0.605469,-0.816406,0.113281,0
7880,-0.469238,-0.872559,0.0698242,0
7900,-0.378418,-0.915039,0.0585938,0
7920,-0.342773,-0.93457,0.0996094,0
7940,-0.341309,-0.944824,0.147461,0
7960,-0.359375,-0.958496,0.171875,0
7980,-0.372559,-0.981934,0.177734,0
8000,-0.470215,-0.93457,0.161133,0
8020,-0.586426,-0.848145,0.125488,0
8040,-0.593262,-0.804688,0.112793,0
8060,-0.49707,-0.838379,0.0664062,0
8080,-0.439453,-0.865234,0.0600586,0
8100,-0.435547,-0.889648,0.103516,0
8120,-0.444824,-0.918945,0.14209,0
8140,-0.427246,-0.930176,0.160156,0
8160,-0.391602,-0.959961,0.15332,0
8180,-0.365234,-0.971191,0.141113,0
8200,-0.361816,-0.958496,0.140625,0
8220,-0.398926,-0.925293,0.151367,0
8240,-0.486816,-0.86377,0.140137,0
8260,-0.568359,-0.810547,0.117188,0
8270,-0.55127,-0.824707,0.107422,0
8290,-0.46875,-0.879883,0.0883789,0
8310,-0.396973,-0.936035,0.0908203,0
8330,-0.349609,-0.972656,0.125488,0
8350,-0.336426,-0.97998,0.155273,0
8370,-0.34082,-0.96875,0.152832,0
8390,-0.365723,-0.946289,0.15918,0
8410,-0.416016,-0.910645,0.173828,0
8430,-0.553223,-0.862793,0.135254,0
8450,-0.644531,-0.79834,0.116211,0
8470,-0.576172,-0.822266,0.0908203,0
8490,-0.452148,-0.880371,0.0395508,0
8510,-0.381836,-0.918457,0.0649414,0
8530,-0.346191,-0.951172,0.120605,0
8550,-0.358398,-0.963867,0.161133,0
8570,-0.364746,-0.975586,0.181641,0
8590,-0.413574,-0.94873,0.182129,0
8610,-0.543945,-0.874023,0.154785,0
8630,-0.615234,-0.806641,0.128906,0
8650,-0.555664,-0.815918,0.0986328,0
8670,-0.470215,-0.870117,0.050293,0
8690,-0.413086,-0.90332,0.0644531,0
8710,-0.436035,-0.90625,0.100586,0
8730,-0.490234,-0.883789,0.148926,0
8750,-0.479004,-0.893066,0.15918,0
8770,-0.414062,-0.941406,0.142578,0
8790,-0.378906,-0.976562,0.121094,0
8810,-0.375,-0.963379,0.131836,0
8830,-0.375977,-0.933105,0.143066,0
8850,-0.387207,-0.916992,0.136719,0
8870,-0.455566,-0.883301,0.116211,0
8890,-0.558594,-0.825684,0.0976562,0
8910,-0.600098,-0.795898,0.0991211,0
8930,-0.535645,-0.844238,0.0854492,0
8950,-0.444336,-0.895996,0.0683594,0
8970,-0.375488,-0.943359,0.0952148,0
8990,-0.353516,-0.955566,0.138184,0
9010,-0.381348,-0.937988,0.17041,0
9030,-0.390625,-0.92627,0.158203,0
9050,-0.470703,-0.881836,0.142578,0
9070,-0.604492,-0.813477,0.127441,0
9090,-0.646973,-0.79834,0.117188,0
9110,-0.560547,-0.836426,0.0620117,0
9130,-0.443848,-0.895996,0.0292969,0
9150,-0.378418,-0.946289,0.0629883,0
9170,-0.369141,-0.961914,0.12207,0
9190,-0.383301,-0.963867,0.162109,0
9210,-0.418457,-0.933594,0.174316,0
9230,-0.505371,-0.878906,0.169434,0
9250,-0.556152,-0.825195,0.152344,0
9270,-0.510742,-0.849609,0.114746,0
9290,-0.461914,-0.885742,0.0766602,0
9310,-0.416504,-0.912598,0.0600586,0
9330,-0.376953,-0.913574,0.0805664,0
9350,-0.377441,-0.903809,0.123047,0
9370,-0.381348,-0.914551,0.143066,0
9390,-0.378906,-0.95459,0.160156,0
9410,-0.456055,-0.940918,0.166992,0
9430,-0.575684,-0.871582,0.175293,0
9450,-0.604492,-0.854492,0.151367,0
9470,-0.500488,-0.906738,0.104492,0
9490,-0.414551,-0.940918,0.0683594,0
9510,-0.388672,-0.928223,0.0805664,0
9530,-0.400391,-0.883789,0.102051,0
9550,-0.454102,-0.827637,0.145996,0
9570,-0.505371,-0.810547,0.180176,0
9590,-0.505859,-0.862793,0.171387,0
9610,-0.452148,-0.93457,0.139648,0
9630,-0.404297,-0.974121,0.131836,0
9650,-0.371582,-0.976074,0.13623,0
9670,-0.380859,-0.946777,0.144531,0
9690,-0.428711,-0.895996,0.127441,0
9710,-0.498535,-0.846191,0.134766,0
9730,-0.520996,-0.836914,0.133789,0
9750,-0.470215,-0.878418,0.119141,0
9770,-0.415527,-0.925293,0.114746,0
9790,-0.384277,-0.938965,0.141113,0
9810,-0.383301,-0.938965,0.15918,0
9830,-0.38623,-0.940918,0.16748,0
9850,-0.407227,-0.942871,0.158691,0
9870,-0.505371,-0.896484,0.157227,0
9890,-0.589355,-0.848145,0.141602,0
9910,-0.563965,-0.859863,0.117676,0
9930,-0.466309,-0.900391,0.0698242,0
9950,-0.40332,-0.913574,0.0581055,0
9970,-0.338867,-0.924316,0.0859375,0
9990,-0.333008,-0.924805,0.142578,0
10010,-0.354492,-0.92627,0.185059,0
10030,-0.375977,-0.941406,0.202637,0
10050,-0.44043,-0.925293,0.183105,0
10070,-0.550293,-0.85791,0.162109,0
10090,-0.586426,-0.821777,0.14209,0
10110,-0.513672,-0.859863,0.103027,0
10130,-0.446289,-0.902832,0.0654297,0
10150,-0.417969,-0.905762,0.0727539,0
10170,-0.416504,-0.884277,0.0952148,0
10190,-0.430664,-0.856445,0.128906,0
10210,-0.420898,-0.865723,0.155762,0
10230,-0.428223,-0.911621,0.158203,0
10250,-0.433105,-0.928223,0.168457,0
10270,-0.452637,-0.934082,0.17041,0
10290,-0.469238,-0.92627,0.162598,0
10310,-0.492188,-0.900879,0.133789,0
10330,-0.489258,-0.882324,0.108887,0
10350,-0.459961,-0.875977,0.0961914,0
10370,-0.443359,-0.876953,0.100098,0
10390,-0.445312,-0.875,0.130859,0
10410,-0.447266,-0.878906,0.15625,0
10430,-0.44873,-0.894531,0.154297,0
10450,-0.456055,-0.901367,0.142578,0
10460,-0.465332,-0.907715,0.123047,0
10480,-0.503418,-0.910156,0.130371,0
10500,-0.459473,-0.915039,0.124023,0
10520,-0.459961,-0.913574,0.114746,0
10540,-0.472168,-0.882812,0.127441,0
10560,-0.463379,-0.881348,0.133789,0
10580,-0.476074,-0.870117,0.141602,0
10600,-0.487305,-0.856934,0.131836,0
10620,-0.473145,-0.875,0.135254,0
10640,-0.461426,-0.900391,0.119141,0
10660,-0.46582,-0.919922,0.126465,0
10680,-0.469238,-0.917969,0.123535,0
10700,-0.453613,-0.896484,0.125,0
10720,-0.460449,-0.880371,0.127441,0
10740,-0.467285,-0.874023,0.133789,0
10760,-0.470215,-0.876465,0.14209,0
10780,-0.463379,-0.878906,0.138672,0
10800,-0.454102,-0.889648,0.119629,0
10820,-0.455566,-0.907715,0.125977,0
10840,-0.459961,-0.916992,0.133301,0
10860,-0.460449,-0.916992,0.134277,0
10880,-0.462402,-0.916504,0.135742,0
10900,-0.459961,-0.914062,0.135254,0
10920,-0.458496,-0.891602,0.121094,0
10940,-0.46582,-0.873047,0.121094,0
10960,-0.472168,-0.871582,0.128418,0
10970,-0.472168,-0.876953,0.115723,0
10990,-0.465332,-0.884766,0.12207,0
11010,-0.464844,-0.888184,0.121094,0
11030,-0.467285,-0.89502,0.133301,0
11050,-0.466309,-0.895508,0.125977,0
11070,-0.461426,-0.894531,0.124023,0
11090,-0.459473,-0.895996,0.117676,0
11110,-0.468262,-0.896973,0.125,0
11130,-0.465332,-0.889648,0.125488,0
11150,-0.459961,-0.886719,0.125488,0
11170,-0.45459,-0.89209,0.125977,0
11190,-0.460449,-0.893066,0.12793,0
11210,-0.463867,-0.888672,0.131836,0
11230,-0.466797,-0.885742,0.128906,0
11250,-0.464844,-0.896484,0.128906,0
11270,-0.467285,-0.902832,0.125488,0
11290,-0.469238,-0.901367,0.131348,0
11310,-0.46582,-0.904297,0.127441,0
11330,-0.467773,-0.910156,0.134277,0
11350,-0.462891,-0.904785,0.132812,0
11370,-0.46582,-0.891602,0.12793,0
11390,-0.462402,-0.866699,0.108887,0
11410,-0.45459,-0.869629,0.11377,0
11430,-0.456055,-0.879395,0.124023,0
11450,-0.476562,-0.911621,0.13623,0
11470,-0.475098,-0.933105,0.138184,0
11490,-0.463379,-0.921875,0.133789,0
11510,-0.45752,-0.897461,0.119629,0
11530,-0.459961,-0.880371,0.129883,0
11550,-0.464844,-0.888672,0.126465,0
11570,-0.480469,-0.889648,0.125,0
11590,-0.472656,-0.879883,0.123047,0
11610,-0.467285,-0.877441,0.121094,0
11630,-0.473145,-0.888184,0.117188,0
11650,-0.476562,-0.895508,0.120117,0
11670,-0.473145,-0.885254,0.10791,0
11690,-0.452148,-0.87793,0.0991211,0
11710,-0.460449,-0.880371,0.111328,0
11730,-0.477539,-0.887695,0.121094,0
11750,-0.478516,-0.898926,0.117188,0
11770,-0.47168,-0.904297,0.115234,0
11790,-0.466309,-0.895508,0.117188,0
11810,-0.477539,-0.891113,0.125488,0
11830,-0.475586,-0.900391,0.127441,0
11850,-0.472656,-0.917969,0.125488,0
11870,-0.474609,-0.912598,0.119141,0
11890,-0.476562,-0.890137,0.118652,0
11910,-0.477539,-0.871582,0.121094,0
11930,-0.474121,-0.864258,0.11377,0
11950,-0.472656,-0.862305,0.101562,0
11970,-0.467285,-0.854004,0.106445,0
11990,-0.478027,-0.87793,0.112793,0
12010,-0.48877,-0.898926,0.123535,0
12030,-0.483887,-0.912598,0.116211,0
12050,-0.477051,-0.90625,0.108398,0
12070,-0.478516,-0.895996,0.101562,0
12090,-0.478516,-0.889648,0.105957,0
12110,-0.475098,-0.886719,0.105469,0
12130,-0.472656,-0.890137,0.101074,0
12150,-0.476562,-0.890137,0.105957,0
12170,-0.47998,-0.886719,0.111816,0
12190,-0.470215,-0.882324,0.111816,0
12210,-0.469727,-0.882812,0.112305,0
12230,-0.475098,-0.895508,0.125488,0
12250,-0.478027,-0.912109,0.118164,0
12270,-0.47168,-0.899902,0.11377,0
12290,-0.46875,-0.888184,0.111816,0
12310,-0.476562,-0.880859,0.108398,0
12330,-0.476074,-0.881348,0.110352,0
12350,-0.481445,-0.881836,0.103027,0
12370,-0.481934,-0.883789,0.108398,0
12390,-0.479492,-0.88916,0.11084,0
12410,-0.478516,-0.895508,0.116699,0
12430,-0.478027,-0.898438,0.114258,0
12450,-0.479004,-0.909668,0.117188,0
12460,-0.478027,-0.910645,0.121582,0
12480,-0.480957,-0.891602,0.118652,0
12500,-0.478027,-0.877441,0.115723,0
12520,-0.475098,-0.872559,0.104004,0
12540,-0.471191,-0.873535,0.105469,0
12560,-0.461914,-0.882812,0.111328,0
12580,-0.458984,-0.899902,0.110352,0
12600,-0.469727,-0.90625,0.116699,0
12620,-0.472168,-0.905762,0.116699,0
12640,-0.476074,-0.905273,0.129883,0
12660,-0.477051,-0.908203,0.119141,0
12680,-0.470703,-0.894531,0.10791,0
12700,-0.472656,-0.873535,0.11084,0
12720,-0.491211,-0.871094,0.12207,0
12740,-0.487305,-0.879395,0.116211,0
12760,-0.478027,-0.906738,0.116211,0
12780,-0.472168,-0.91748,0.108887,0
12800,-0.469238,-0.907227,0.109375,0
12820,-0.466797,-0.89502,0.105957,0
12840,-0.462402,-0.883789,0.106934,0
12860,-0.473633,-0.873535,0.108398,0
12880,-0.472168,-0.873047,0.119629,0
12900,-0.482422,-0.902832,0.125488,0
12920,-0.482422,-0.917969,0.114258,0
12940,-0.467285,-0.916016,0.105957,0
12960,-0.458008,-0.902344,0.0966797,0
12980,-0.472168,-0.881348,0.0981445,0
13000,-0.474609,-0.855957,0.100586,0
13020,-0.482422,-0.858887,0.112305,0
13040,-0.489746,-0.885742,0.125977,0
13060,-0.490234,-0.92627,0.132812,0
13080,-0.467285,-0.946289,0.120605,0
13100,-0.459473,-0.922852,0.105957,0
13120,-0.472656,-0.901855,0.100098,0
13140,-0.475098,-0.876465,0.0991211,0
13160,-0.462891,-0.869141,0.104004,0
13180,-0.470703,-0.86377,0.103027,0
13200,-0.476562,-0.870605,0.115723,0
13220,-0.467285,-0.891602,0.11377,0
13240,-0.465332,-0.907715,0.116211,0
13260,-0.475098,-0.924805,0.115723,0
13280,-0.476562,-0.93457,0.111328,0
13300,-0.479492,-0.896973,0.10791,0
13320,-0.472656,-0.86084,0.0947266,0
13340,-0.473633,-0.851562,0.09375,0
13360,-0.475098,-0.864746,0.103516,0
13380,-0.478516,-0.885254,0.105957,0
13400,-0.472656,-0.892578,0.103516,0
13420,-0.475586,-0.896973,0.108887,0
13440,-0.478516,-0.912109,0.125488,0
13460,-0.468262,-0.918457,0.122559,0
13480,-0.463379,-0.912109,0.120605,0
13500,-0.470215,-0.906738,0.120117,0
13520,-0.480957,-0.897949,0.126953,0
13540,-0.483887,-0.898926,0.121094,0
13560,-0.46875,-0.90332,0.110352,0
13580,-0.458496,-0.898926,0.100586,0
13600,-0.462891,-0.883301,0.105469,0
13620,-0.467285,-0.874512,0.105957,0
13640,-0.473145,-0.884766,0.112305,0
13660,-0.465332,-0.896484,0.109375,0
13680,-0.464844,-0.896484,0.124023,0
13700,-0.475098,-0.898926,0.119141,0
13720,-0.477539,-0.901855,0.112793,0
13740,-0.479492,-0.900391,0.108887,0
13760,-0.476562,-0.886719,0.108887,0
13780,-0.48291,-0.87793,0.109375,0
13800,-0.480469,-0.880371,0.105957,0
13820,-0.478516,-0.891113,0.108398,0
13840,-0.47168,-0.899414,0.109863,0
13860,-0.467285,-0.904297,0.104492,0
13880,-0.47168,-0.908691,0.11377,0
13900,-0.478516,-0.901855,0.120117,0
13920,-0.477539,-0.891602,0.109863,0
13940,-0.476562,-0.887695,0.115234,0
13960,-0.482422,-0.886719,0.109375,0
13980,-0.487305,-0.887695,0.11084,0
14000,-0.48291,-0.890625,0.101562,0
14020,-0.481445,-0.897461,0.100098,0
14040,-0.488281,-0.900391,0.101074,0
14060,-0.487305,-0.893555,0.104004,0
14080,-0.487305,-0.883789,0.103516,0
14100,-0.483398,-0.877441,0.101074,0
14120,-0.48291,-0.878906,0.10498,0
14140,-0.480469,-0.893555,0.100098,0
14160,-0.480957,-0.89502,0.106445,0
14180,-0.48291,-0.89209,0.103027,0
14200,-0.481934,-0.890137,0.101074,0
14220,-0.48291,-0.885254,0.103027,0
14240,-0.480469,-0.887207,0.0957031,0
14260,-0.484375,-0.888184,0.0917969,0
14280,-0.492188,-0.880859,0.0991211,0
14300,-0.490234,-0.875977,0.0917969,0
14320,-0.489258,-0.872559,0.0942383,0
14340,-0.490723,-0.873535,0.0883789,0
14360,-0.494141,-0.876953,0.0986328,0
14380,-0.501953,-0.888184,0.106445,0
14400,-0.509277,-0.895996,0.109375,0
14420,-0.497559,-0.896484,0.0908203,0
14440,-0.481934,-0.881348,0.0805664,0
14460,-0.479004,-0.867188,0.0805664,0
14480,-0.492188,-0.881836,0.0825195,0
14500,-0.492676,-0.898926,0.10498,0
14520,-0.493652,-0.905273,0.110352,0
14540,-0.494629,-0.900879,0.112793,0
14560,-0.501953,-0.893066,0.106934,0
14580,-0.508301,-0.875,0.106445,0
14600,-0.508301,-0.86377,0.0986328,0
14620,-0.49707,-0.866211,0.0878906,0
14640,-0.499023,-0.87793,0.0874023,0
14660,-0.502441,-0.892578,0.0844727,0
14680,-0.499023,-0.897461,0.0756836,0
14700,-0.492188,-0.898438,0.0761719,0
14720,-0.498535,-0.891113,0.0800781,0
14740,-0.492676,-0.883301,0.0830078,0
14760,-0.479492,-0.876465,0.0761719,0
14780,-0.488281,-0.872559,0.0776367,0
14800,-0.499023,-0.85791,0.0820312,0
14820,-0.49707,-0.864258,0.0732422,0
14840,-0.494629,-0.879883,0.0771484,0
14860,-0.503418,-0.902832,0.0869141,0
14880,-0.506836,-0.916504,0.103516,0
14900,-0.500488,-0.917969,0.102051,0
14920,-0.502441,-0.921875,0.0986328,0
14940,-0.499023,-0.904297,0.0966797,0
14960,-0.496582,-0.879395,0.0913086,0
14980,-0.507324,-0.855469,0.0878906,0
15000,-0.51123,-0.86084,0.0947266,0
15020,-0.524414,-0.882324,0.103027,0
15040,-0.523438,-0.88623,0.10498,0
15060,-0.503906,-0.866699,0.0820312,0
15080,-0.494629,-0.851074,0.0708008,0
15100,-0.510742,-0.846191,0.0830078,0
15120,-0.525879,-0.846191,0.0874023,0
15140,-0.521484,-0.862793,0.0859375,0
15160,-0.504883,-0.876465,0.078125,0
15180,-0.503906,-0.890137,0.078125,0
15200,-0.508301,-0.890137,0.0805664,0
15220,-0.49707,-0.890137,0.0830078,0
15240,-0.490723,-0.895508,0.0864258,0
15260,-0.490723,-0.893066,0.0820312,0
15280,-0.496582,-0.889648,0.0800781,0
15300,-0.499023,-0.876953,0.0805664,0
15320,-0.499023,-0.881348,0.0893555,0
15340,-0.503418,-0.896484,0.0976562,0
15360,-0.505371,-0.901367,0.102051,0
15380,-0.5,-0.898926,0.116211,0
15400,-0.498535,-0.882324,0.110352,0
15420,-0.489258,-0.860352,0.111816,0
15440,-0.487793,-0.862305,0.112305,0
15460,-0.499023,-0.874023,0.10791,0
15480,-0.50293,-0.881836,0.09375,0
15500,-0.501465,-0.873535,0.106934,0
15520,-0.507324,-0.874023,0.115723,0
15540,-0.509277,-0.881348,0.114746,0
15560,-0.492676,-0.879395,0.104004,0
15580,-0.481445,-0.882324,0.108398,0
15600,-0.493164,-0.894531,0.121094,0
15620,-0.50293,-0.916016,0.127441,0
15640,-0.505371,-0.916992,0.110352,0
15660,-0.489746,-0.89502,0.0966797,0
15680,-0.488281,-0.873047,0.0952148,0
15700,-0.483398,-0.86377,0.0981445,0
15720,-0.482422,-0.859375,0.0976562,0
15740,-0.478027,-0.858887,0.103516,0
15760,-0.486328,-0.879395,0.11084,0
15780,-0.501953,-0.899902,0.118652,0
15800,-0.491699,-0.915039,0.124023,0
15820,-0.481934,-0.922363,0.126465,0
15840,-0.49707,-0.908203,0.123047,0
15860,-0.503418,-0.884277,0.122559,0
15880,-0.491211,-0.858398,0.114746,0
15900,-0.493164,-0.86084,0.111328,0
15910,-0.485352,-0.874512,0.111328,0
15930,-0.475586,-0.880859,0.108398,0
15950,-0.490234,-0.895508,0.124023,0
15970,-0.507324,-0.897949,0.140625,0
15990,-0.498535,-0.905762,0.126953,0
16010,-0.473633,-0.899414,0.114746,0
16030,-0.472168,-0.89209,0.106445,0
16050,-0.479004,-0.875488,0.117676,0
16070,-0.472656,-0.870605,0.107422,0
16090,-0.479004,-0.863281,0.105957,0
16110,-0.489746,-0.864746,0.11377,0
16130,-0.49707,-0.875977,0.121094,0
16150,-0.492676,-0.894531,0.125977,0
16170,-0.487793,-0.896484,0.122559,0
16190,-0.483398,-0.891602,0.117188,0
16210,-0.485352,-0.882324,0.114258,0
16230,-0.488281,-0.878418,0.126465,0
16250,-0.493652,-0.876953,0.125488,0
16270,-0.490723,-0.875488,0.123535,0
16290,-0.478516,-0.872559,0.116211,0
16310,-0.470215,-0.87793,0.121582,0
16330,-0.457031,-0.880371,0.130859,0
16350,-0.464844,-0.88916,0.126953,0
16370,-0.47998,-0.893555,0.138672,0
16390,-0.483398,-0.900391,0.148438,0
16410,-0.478027,-0.904297,0.146973,0
16430,-0.481445,-0.907715,0.141602,0
16450,-0.47998,-0.890137,0.132324,0
16470,-0.481934,-0.868164,0.12793,0
16490,-0.47998,-0.855957,0.124023,0
16510,-0.475586,-0.850586,0.12207,0
16530,-0.472656,-0.863281,0.125977,0
16550,-0.474609,-0.883301,0.136719,0
16570,-0.482422,-0.910156,0.144531,0
16590,-0.476562,-0.942383,0.140625,0
16610,-0.469727,-0.934082,0.135742,0
16630,-0.477051,-0.915527,0.145508,0
16650,-0.484375,-0.895996,0.15332,0
16670,-0.469727,-0.893066,0.148926,0
16690,-0.465332,-0.875,0.130859,0
16710,-0.458008,-0.842773,0.120605,0
16730,-0.446289,-0.82666,0.115234,0
16750,-0.455078,-0.846191,0.118652,0
16770,-0.481445,-0.893066,0.137207,0
16790,-0.490723,-0.954102,0.154785,0
16810,-0.479492,-0.986328,0.156738,0
16830,-0.473145,-0.932129,0.118652,0
16850,-0.469727,-0.853027,0.115234,0
16870,-0.474121,-0.812988,0.115723,0
16890,-0.476562,-0.816406,0.105957,0
16910,-0.469727,-0.849609,0.11377,0
16930,-0.464355,-0.885254,0.125,0
16950,-0.470215,-0.902344,0.142578,0
16970,-0.466797,-0.921875,0.148926,0
16990,-0.464844,-0.934082,0.151367,0
17010,-0.443359,-0.945801,0.146484,0
17030,-0.437012,-0.936523,0.151855,0
17050,-0.477051,-0.908691,0.164062,0
17070,-0.483887,-0.882324,0.169434,0
17090,-0.472656,-0.868164,0.143066,0
17110,-0.469727,-0.84375,0.122559,0
17130,-0.46582,-0.827148,0.116699,0
17150,-0.451172,-0.835938,0.131348,0
17170,-0.460938,-0.875,0.13623,0
17190,-0.469727,-0.922363,0.152344,0
17210,-0.458496,-0.958496,0.160156,0
17230,-0.460938,-0.958984,0.154785,0
17250,-0.466797,-0.921387,0.151367,0
17270,-0.470215,-0.880859,0.135742,0
17290,-0.463867,-0.848145,0.130859,0
17310,-0.458008,-0.851074,0.131348,0
17330,-0.473633,-0.864258,0.133301,0
17350,-0.472168,-0.902344,0.140625,0
17370,-0.469727,-0.916992,0.131348,0
17390,-0.466309,-0.916504,0.141602,0
17410,-0.467285,-0.899902,0.144043,0
17430,-0.477539,-0.87793,0.146484,0
17450,-0.479004,-0.86377,0.14502,0
17470,-0.472656,-0.86377,0.134766,0
17490,-0.459961,-0.884766,0.132812,0
17510,-0.459473,-0.899902,0.131348,0
17530,-0.464844,-0.90625,0.140137,0
17550,-0.473145,-0.899902,0.147461,0
17570,-0.478027,-0.902344,0.155762,0
17590,-0.488281,-0.895996,0.162598,0
17610,-0.470703,-0.888672,0.161621,0
17630,-0.452637,-0.876953,0.140137,0
17650,-0.447754,-0.863281,0.128418,0
17670,-0.46875,-0.84375,0.124023,0
17690,-0.477051,-0.851562,0.123047,0
17710,-0.474121,-0.88916,0.123535,0
17730,-0.477051,-0.919922,0.126465,0
17750,-0.476074,-0.922852,0.131836,0
17770,-0.470703,-0.90625,0.132324,0
17790,-0.476562,-0.883301,0.131348,0
17810,-0.487305,-0.856445,0.126953,0
17830,-0.483398,-0.86377,0.130371,0
17850,-0.48291,-0.895996,0.136719,0
17870,-0.483887,-0.925781,0.135742,0
17890,-0.487793,-0.924805,0.122559,0
17900,-0.480469,-0.885254,0.117188,0
17920,-0.471191,-0.842285,0.119141,0
17940,-0.480469,-0.831543,0.121094,0
17960,-0.494141,-0.854492,0.124512,0
17980,-0.476074,-0.892578,0.12793,0
18000,-0.46582,-0.925781,0.133789,0
18020,-0.469727,-0.93457,0.130371,0
18040,-0.477539,-0.911621,0.128906,0
18060,-0.485352,-0.868164,0.129395,0
18080,-0.473145,-0.847656,0.124023,0
18100,-0.472168,-0.860352,0.124512,0
18120,-0.478027,-0.866699,0.130859,0
18140,-0.474609,-0.900391,0.137207,0
18160,-0.472168,-0.919922,0.120117,0
18180,-0.484863,-0.900391,0.124512,0
18200,-0.493164,-0.865234,0.126465,0
18220,-0.484863,-0.858398,0.121582,0
18240,-0.477539,-0.876465,0.120117,0
18260,-0.477051,-0.883789,0.121094,0
18280,-0.471191,-0.891602,0.126953,0
18300,-0.469238,-0.90332,0.133789,0
18320,-0.478516,-0.893066,0.134277,0
18340,-0.483398,-0.872559,0.130371,0
18360,-0.46875,-0.868652,0.126953,0
18380,-0.461426,-0.888672,0.124512,0
18400,-0.467773,-0.898438,0.125488,0
18420,-0.475098,-0.907227,0.132812,0
18440,-0.474609,-0.901855,0.130371,0
18460,-0.476074,-0.890137,0.129395,0
18480,-0.480957,-0.873047,0.132324,0
18500,-0.473633,-0.870605,0.13916,0
18520,-0.468262,-0.875977,0.137207,0
18540,-0.463867,-0.887207,0.143066,0
18560,-0.460938,-0.898926,0.137207,0
18580,-0.458984,-0.902344,0.14502,0
18600,-0.472168,-0.905273,0.152344,0
18620,-0.47998,-0.902832,0.146973,0
18640,-0.469727,-0.879883,0.141113,0
18660,-0.464355,-0.867188,0.126953,0
18680,-0.455566,-0.879395,0.133301,0
18700,-0.455566,-0.89209,0.132812,0
18720,-0.45459,-0.903809,0.140625,0
18740,-0.455078,-0.905273,0.148438,0
18760,-0.462891,-0.906738,0.155762,0
18780,-0.458496,-0.896484,0.151367,0
18800,-0.462402,-0.88623,0.152344,0
18820,-0.460449,-0.875,0.146973,0
18840,-0.462891,-0.893555,0.149902,0
18860,-0.46582,-0.906738,0.15332,0
18880,-0.459961,-0.908203,0.143066,0
18900,-0.45459,-0.900879,0.138672,0
18920,-0.454102,-0.880371,0.135742,0
18940,-0.455078,-0.869629,0.135742,0
18960,-0.442383,-0.878906,0.138184,0
18980,-0.429199,-0.90332,0.140137,0
19000,-0.447266,-0.905273,0.163574,0
19020,-0.464844,-0.916992,0.160645,0
19040,-0.458496,-0.892578,0.157715,0
19060,-0.449707,-0.867188,0.143066,0
19080,-0.452148,-0.868652,0.148926,0
19100,-0.45459,-0.894043,0.149414,0
19120,-0.459961,-0.910645,0.149902,0
19140,-0.45166,-0.905762,0.148926,0
19160,-0.453125,-0.891113,0.150879,0
19180,-0.461426,-0.87793,0.162598,0
19200,-0.458008,-0.887695,0.15625,0
19220,-0.44043,-0.903809,0.153809,0
19240,-0.438965,-0.911621,0.144043,0
19260,-0.442871,-0.904785,0.147461,0
19280,-0.450195,-0.90332,0.146973,0
19300,-0.45166,-0.896973,0.153809,0
19320,-0.462891,-0.894531,0.156738,0
19340,-0.458008,-0.893066,0.153809,0
19360,-0.451172,-0.890625,0.148926,0
19380,-0.450195,-0.889648,0.149902,0
19400,-0.449707,-0.877441,0.14502,0
19420,-0.452637,-0.87793,0.135742,0
19440,-0.456055,-0.88623,0.140625,0
19460,-0.459961,-0.89209,0.155762,0
19480,-0.45752,-0.900879,0.152344,0
19500,-0.443848,-0.908691,0.152832,0
19520,-0.444336,-0.90332,0.152832,0
19540,-0.447266,-0.890137,0.145996,0
19560,-0.442383,-0.880859,0.14209,0
19580,-0.446777,-0.88623,0.140625,0
19600,-0.45752,-0.89502,0.145508,0
19620,-0.457031,-0.897461,0.147949,0
19640,-0.44873,-0.889648,0.151367,0
19660,-0.446289,-0.893066,0.147949,0
19680,-0.452637,-0.895996,0.151367,0
19700,-0.444824,-0.892578,0.14502,0
19720,-0.442383,-0.879395,0.147949,0
19740,-0.455078,-0.887207,0.152832,0
19760,-0.454102,-0.898926,0.152832,0
19780,-0.45166,-0.897949,0.15332,0
19800,-0.448242,-0.902832,0.149902,0
19820,-0.439941,-0.901855,0.157227,0
19840,-0.441406,-0.906738,0.152832,0
19860,-0.436035,-0.904785,0.159668,0
19880,-0.442383,-0.904297,0.160156,0
19900,-0.444336,-0.902832,0.168457,0
19920,-0.442383,-0.891602,0.164062,0
19940,-0.443848,-0.882812,0.171875,0
19960,-0.447754,-0.885254,0.162598,0
19980,-0.443359,-0.881836,0.157715,0
20000,-0.4375,-0.892578,0.160645,0
20020,-0.439453,-0.890137,0.158203,0
20040,-0.454102,-0.896973,0.165039,0
20060,-0.463867,-0.903809,0.17334,0
20080,-0.454102,-0.893555,0.165039,0
20100,-0.431152,-0.891602,0.15918,0
20120,-0.445312,-0.89209,0.155762,0
20140,-0.437988,-0.90332,0.150879,0
20160,-0.443359,-0.914062,0.164062,0
20180,-0.448242,-0.921875,0.162598,0
20200,-0.441406,-0.927246,0.161133,0
20220,-0.432129,-0.911621,0.172363,0
20240,-0.441895,-0.902344,0.17041,0
20260,-0.447754,-0.904785,0.166992,0
20280,-0.4375,-0.904297,0.152344,0
20300,-0.437012,-0.89502,0.165527,0
20320,-0.440918,-0.877441,0.180176,0
20340,-0.429688,-0.883789,0.183594,0
20360,-0.412109,-0.903809,0.18457,0
20380,-0.421387,-0.892578,0.183594,0
20400,-0.441406,-0.878906,0.19043,0
20420,-0.450684,-0.890625,0.189453,0
20440,-0.450684,-0.893066,0.188477,0
20460,-0.440918,-0.888184,0.167969,0
20480,-0.436523,-0.884766,0.157715,0
20500,-0.443359,-0.87793,0.143555,0
20520,-0.450684,-0.882812,0.144531,0
20540,-0.454102,-0.89209,0.149414,0
20560,-0.447754,-0.90625,0.160645,0
20580,-0.438477,-0.92334,0.165527,0
20600,-0.437988,-0.916504,0.158203,0
20620,-0.437988,-0.901855,0.150391,0
20640,-0.443359,-0.897949,0.140137,0
20660,-0.444336,-0.892578,0.123047,0
20680,-0.447266,-0.886719,0.115723,0
20700,-0.434082,-0.889648,0.120605,0
20720,-0.438477,-0.902344,0.11377,0
20740,-0.438477,-0.902832,0.123047,0
20760,-0.44043,-0.898438,0.140625,0
20780,-0.443848,-0.887207,0.145996,0
20800,-0.437012,-0.890625,0.14502,0
20820,-0.433594,-0.888672,0.150391,0
20840,-0.418945,-0.888184,0.146484,0
20860,-0.398438,-0.894531,0.141113,0
20880,-0.415039,-0.890625,0.143555,0
20900,-0.415527,-0.878418,0.140625,0
20920,-0.45459,-0.889648,0.134277,0
20940,-0.5,-0.884277,0.141113,0
20960,-0.578613,-0.853027,0.103516,0
20980,-0.574707,-0.875977,0.059082,0
21000,-0.515137,-0.920898,0.0761719,0
21020,-0.45752,-0.946777,0.100586,0
21040,-0.414062,-0.932129,0.165039,0
21060,-0.411133,-0.895508,0.192383,0
21080,-0.443359,-0.862305,0.186523,0
21100,-0.474121,-0.87793,0.146973,0
21120,-0.459473,-0.913086,0.124023,0
21140,-0.458984,-0.925781,0.114746,0
21160,-0.455566,-0.904297,0.127441,0
21180,-0.45166,-0.87793,0.155273,0
21200,-0.45459,-0.864746,0.16748,0
21220,-0.456543,-0.873535,0.162109,0
21240,-0.443359,-0.891602,0.166504,0
21260,-0.429199,-0.905762,0.153809,0
21280,-0.425293,-0.885742,0.151855,0
21300,-0.434082,-0.880371,0.163086,0
21320,-0.456543,-0.894531,0.175781,0
21340,-0.467285,-0.911621,0.158203,0
21350,-0.461426,-0.912598,0.154297,0
21370,-0.456543,-0.900391,0.141113,0
21390,-0.458984,-0.896973,0.13623,0
21410,-0.467285,-0.902832,0.146484,0
21430,-0.470703,-0.901855,0.149902,0
21450,-0.470703,-0.893066,0.148926,0
21470,-0.469238,-0.888184,0.145508,0
21490,-0.458008,-0.876465,0.145508,0
21510,-0.453125,-0.87207,0.144531,0
21530,-0.441406,-0.881836,0.144043,0
21550,-0.450195,-0.895508,0.151855,0
21570,-0.473145,-0.888672,0.149414,0
21590,-0.473145,-0.878906,0.148926,0
21610,-0.48291,-0.926758,0.13623,0
21630,-0.454102,-0.956543,0.165039,0
21650,-0.458496,-0.984863,0.0756836,0
21670,-0.512695,-1.04346,0.0654297,0
21690,-0.555176,-0.93457,0.090332,0
21710,-0.599609,-0.758301,0.11377,0
21730,-0.486328,-0.708496,0.181641,0
21750,-0.53125,-0.863281,0.40918,0
21770,-0.472168,-0.944336,0.525879,0
21790,-0.395996,-1.03516,0.451172,0
21810,-0.29248,-1.05811,0.3125,0
21830,-0.225586,-0.966309,0.283203,0
21850,-0.262695,-0.837402,0.306152,0
21870,-0.21582,-0.735352,0.27002,0
21890,-0.214355,-0.831055,0.151367,0
21910,-0.198242,-0.953125,0.17334,0
21930,-0.222168,-0.88916,0.339844,0
21950,-0.249512,-0.88916,0.288574,0
21970,-0.227051,-0.978027,0.328125,0
21990,-0.165527,-0.961426,0.356445,0
22010,-0.111328,-0.992676,0.317871,0
22030,-0.0419922,-0.932129,0.36084,0
22050,-0.0371094,-0.930664,0.402344,0
22070,-0.0917969,-0.970215,0.366699,0
22090,-0.0532227,-0.972168,0.415527,0
22110,0.0478516,-0.996094,0.419922,0
22130,0.116699,-1.02539,0.375977,0
22150,0.15625,-0.904297,0.380859,0
22170,0.187988,-0.812012,0.299805,0
22190,0.170898,-0.731934,0.333984,0
22210,0.122559,-0.615723,0.42041,0
22230,0.0712891,-0.664062,0.437988,0
22250,0.081543,-0.868652,0.438965,0
22270,0.0991211,-0.922852,0.423828,0
22290,0.134766,-0.918945,0.396973,0
22310,0.111816,-0.882324,0.435547,0
22330,0.0688477,-0.842285,0.4375,0
22350,0.074707,-0.852539,0.439941,0
22370,0.116211,-0.902344,0.329102,0
22390,0.142578,-0.855469,0.258789,0
22410,0.0668945,-0.791992,0.336914,0
22430,0.00390625,-0.806152,0.458008,0
22450,0.0620117,-0.839844,0.402344,0
22470,0.117676,-0.77832,0.397949,0
22490,0.137207,-0.76709,0.381348,0
22510,0.203613,-0.762695,0.346191,0
22530,0.19873,-0.852051,0.407227,0
22550,0.180176,-0.911621,0.406738,0
22570,0.186035,-0.937012,0.362305,0
22590,0.208984,-0.848633,0.330078,0
22610,0.181641,-0.793945,0.333496,0
22630,0.174805,-0.85791,0.311523,0
22650,0.136719,-0.927246,0.435059,0
22670,0.154785,-0.850586,0.45459,0
22690,0.205566,-0.788574,0.40332,0
22710,0.231445,-0.818848,0.445312,0
22730,0.232422,-0.864258,0.47998,0
22750,0.275879,-0.928223,0.477051,0
22770,0.296875,-0.939941,0.42627,0
22790,0.395508,-0.951172,0.371094,0
22810,0.319336,-0.936523,0.344238,0
22830,0.293457,-0.904297,0.394531,0
22850,0.298828,-0.958984,0.369629,0
22870,0.293945,-0.944824,0.385742,0
22890,0.325684,-0.916504,0.329102,0
22910,0.336914,-0.865723,0.363281,0
22930,0.318359,-0.848145,0.335938,0
22950,0.322266,-0.77832,0.332031,0
22970,0.293945,-0.784668,0.349609,0
22990,0.302734,-0.781738,0.343262,0
23010,0.34375,-0.760742,0.320312,0
23030,0.34375,-0.761719,0.348145,0
23050,0.352051,-0.79834,0.323242,0
23070,0.364746,-0.790527,0.282227,0
23090,0.375,-0.751465,0.280762,0
23110,0.389648,-0.777832,0.307617,0
23130,0.413086,-0.792969,0.303711,0
23150,0.425293,-0.827148,0.290039,0
23170,0.422363,-0.824707,0.277344,0
23190,0.433594,-0.799316,0.269043,0
23210,0.451172,-0.8125,0.283691,0
23230,0.437012,-0.825684,0.231445,0
23250,0.419922,-0.808105,0.255371,0
23270,0.407715,-0.788574,0.280762,0
23280,0.39209,-0.80127,0.313965,0
23310,0.425781,-0.802734,0.299316,0
23330,0.413574,-0.778809,0.292969,0
23340,0.427734,-0.772949,0.291016,0
23360,0.429688,-0.803711,0.305664,0
23380,0.437988,-0.818359,0.308594,0
23400,0.423828,-0.816406,0.315918,0
23420,0.416016,-0.813965,0.321777,0
23440,0.440918,-0.810059,0.317871,0
23460,0.437988,-0.810547,0.311523,0
23480,0.436523,-0.816895,0.304688,0
23500,0.43457,-0.805664,0.306641,0
23520,0.422363,-0.802734,0.32666,0
23540,0.414551,-0.80957,0.327148,0
23560,0.430176,-0.79541,0.333984,0
23580,0.416504,-0.79541,0.335449,0
23610,0.421875,-0.800293,0.321777,0
23630,0.416992,-0.801758,0.32959,0
23650,0.424316,-0.791504,0.322754,0
23670,0.427734,-0.805664,0.311035,0
23690,0.41748,-0.818848,0.32666,0
23710,0.41748,-0.802246,0.313477,0
23730,0.432129,-0.805176,0.327148,0
23750,0.424316,-0.810059,0.355469,0
23770,0.403809,-0.811035,0.351562,0
23790,0.400879,-0.793945,0.347168,0
23810,0.402344,-0.791016,0.338867,0
23830,0.398438,-0.790527,0.341309,0
23850,0.403809,-0.795898,0.335938,0
23870,0.409668,-0.802734,0.327148,0
23890,0.409668,-0.79541,0.334961,0
23910,0.417969,-0.797363,0.333008,0
23930,0.418457,-0.799805,0.336914,0
23950,0.416504,-0.787598,0.334473,0
23970,0.42334,-0.79248,0.344238,0
23990,0.408203,-0.791504,0.361816,0
24010,0.408691,-0.814941,0.357422,0
24030,0.410645,-0.805664,0.370117,0
24050,0.40625,-0.803223,0.354492,0
24070,0.411133,-0.805176,0.345215,0
24090,0.415527,-0.806641,0.342285,0
24110,0.412598,-0.812988,0.344238,0
24130,0.417969,-0.817383,0.355469,0
24150,0.415527,-0.807617,0.358398,0
24170,0.421387,-0.806152,0.335449,0
24190,0.427734,-0.779785,0.337891,0
24210,0.409668,-0.791992,0.36377,0
24230,0.412109,-0.79248,0.339355,0
24250,0.40332,-0.777832,0.352539,0
24270,0.405762,-0.779297,0.374512,0
24290,0.407227,-0.773438,0.388184,0
24310,0.431641,-0.831055,0.327148,0
24330,0.415039,-0.776855,0.336914,0
24350,0.412598,-0.764648,0.339355,0
24370,0.393066,-0.801758,0.345703,0
24390,0.398438,-0.79834,0.343262,0
24410,0.405762,-0.782227,0.342285,0
24430,0.411133,-0.777832,0.348145,0
24450,0.40332,-0.801758,0.367676,0
24470,0.402832,-0.80127,0.376953,0
24490,0.405762,-0.805176,0.350586,0
24510,0.393555,-0.800781,0.351562,0
24530,0.408203,-0.791504,0.365234,0
24550,0.40625,-0.804688,0.362305,0
24570,0.408203,-0.793457,0.341309,0
24590,0.418457,-0.791992,0.333008,0
24610,0.399414,-0.796387,0.347168,0
24630,0.400879,-0.797852,0.352539,0
24650,0.391113,-0.790039,0.361816,0
24670,0.404297,-0.804688,0.378418,0
24690,0.395508,-0.796387,0.336426,0
24710,0.396484,-0.78418,0.33252,0
24730,0.402832,-0.796387,0.354492,0
24750,0.392578,-0.800293,0.359375,0
24770,0.39502,-0.794922,0.371094,0
24790,0.404297,-0.811523,0.356445,0
24810,0.39209,-0.788086,0.361328,0
24830,0.39209,-0.793457,0.35498,0
24850,0.393066,-0.787598,0.351074,0
24860,0.427734,-0.822754,0.339844,0
24880,0.412598,-0.78418,0.354004,0
24900,0.397949,-0.802246,0.310059,0
24920,0.385254,-0.8125,0.350098,0
24940,0.380371,-0.802246,0.370117,0
24960,0.398926,-0.811523,0.361816,0
24980,0.393066,-0.795898,0.349609,0
25000,0.395508,-0.812012,0.353516,0
25020,0.378418,-0.808594,0.363281,0
25040,0.397461,-0.801758,0.364746,0
25060,0.388672,-0.792969,0.34375,0
25080,0.394043,-0.80127,0.352051,0
25100,0.402832,-0.805176,0.340332,0
25120,0.398438,-0.814941,0.361816,0
25140,0.40918,-0.796875,0.370117,0
25160,0.398926,-0.788086,0.333496,0
25180,0.410645,-0.805664,0.32959,0
25200,0.407715,-0.813965,0.330078,0
25220,0.40332,-0.810059,0.345703,0
25240,0.383789,-0.812012,0.351074,0
25260,0.368164,-0.807129,0.352539,0
25280,0.380371,-0.80127,0.354004,0
25300,0.39209,-0.807617,0.344727,0
25320,0.385742,-0.803223,0.360352,0
25340,0.405762,-0.819824,0.369141,0
25360,0.371094,-0.807617,0.358887,0
25380,0.395508,-0.817383,0.350586,0
25400,0.388672,-0.789551,0.372559,0
25420,0.401855,-0.817871,0.366699,0
25440,0.40332,-0.808594,0.325684,0
25460,0.405273,-0.809082,0.3125,0
25480,0.378906,-0.797363,0.335449,0
25500,0.381836,-0.837402,0.339355,0
25520,0.384277,-0.816895,0.370117,0
25540,0.394043,-0.810547,0.34668,0
25560,0.38623,-0.816895,0.319336,0
25580,0.385254,-0.812012,0.33252,0
25600,0.378906,-0.800293,0.345703,0
25620,0.382324,-0.801758,0.349609,0
25640,0.375488,-0.805664,0.347168,0
25660,0.382812,-0.800781,0.335449,0
25680,0.387207,-0.799805,0.367676,0
25700,0.396973,-0.796875,0.35498,0
25720,0.397461,-0.834473,0.32959,0
25740,0.389648,-0.797363,0.330078,0
25760,0.392578,-0.822754,0.347168,0
25780,0.385254,-0.805176,0.359863,0
25800,0.38623,-0.808105,0.336426,0
25820,0.373047,-0.822266,0.325195,0
25840,0.359375,-0.808105,0.347168,0
25860,0.376953,-0.820312,0.371094,0
25880,0.366211,-0.827148,0.369629,0
25900,0.383789,-0.82666,0.311523,0
25920,0.365723,-0.811523,0.325195,0
25940,0.360352,-0.828125,0.322266,0
25960,0.382812,-0.842285,0.316895,0
25980,0.364258,-0.808105,0.362793,0
26000,0.382324,-0.826172,0.34082,0
26020,0.399902,-0.841797,0.334473,0
26040,0.386719,-0.808594,0.333496,0
26060,0.379395,-0.804199,0.357422,0
26080,0.393555,-0.79248,0.361328,0
26100,0.422363,-0.816406,0.351074,0
26120,0.408203,-0.839355,0.330078,0
26140,0.378906,-0.840332,0.365723,0
26160,0.371582,-0.794434,0.38623,0
26180,0.394043,-0.774414,0.348145,0
26200,0.414551,-0.813965,0.335449,0
26220,0.398438,-0.808594,0.334961,0
26240,0.402344,-0.792969,0.397461,0
26260,0.432617,-0.786621,0.34668,0
26280,0.438965,-0.771484,0.346191,0
26300,0.442871,-0.822266,0.306641,0
26320,0.415039,-0.811035,0.299805,0
26340,0.412598,-0.828125,0.330078,0
26360,0.40625,-0.802734,0.331055,0
26380,0.430176,-0.820801,0.292969,0
26400,0.421875,-0.822266,0.297363,0
26420,0.396973,-0.800781,0.30957,0
26440,0.424316,-0.793457,0.306152,0
26460,0.450684,-0.753906,0.335938,0
26480,0.475586,-0.735352,0.313477,0
26500,0.489746,-0.738281,0.320801,0
26520,0.477539,-0.765137,0.287109,0
26540,0.458008,-0.756348,0.301758,0
26560,0.419434,-0.74707,0.243652,0
26580,0.402344,-0.785156,0.234375,0
26600,0.39209,-0.796387,0.252441,0
26620,0.335449,-0.827637,0.339844,0
26640,0.350098,-0.845215,0.416016,0
26660,0.396973,-0.830566,0.318848,0
26680,0.407227,-0.813477,0.344727,0
26700,0.42041,-0.829102,0.362305,0
26720,0.406738,-0.830078,0.328125,0
26740,0.40332,-0.834473,0.347168,0
26750,0.412598,-0.834961,0.303223,0
26770,0.418945,-0.814941,0.291992,0
26790,0.432129,-0.833984,0.334473,0
26810,0.449707,-0.840332,0.32666,0
26830,0.416992,-0.80957,0.296387,0
26850,0.425293,-0.807129,0.282715,0
26870,0.416016,-0.794434,0.291992,0
26890,0.422363,-0.796387,0.28125,0
26910,0.42041,-0.823242,0.290039,0
26930,0.405762,-0.800293,0.304199,0
26950,0.399902,-0.836914,0.286621,0
26970,0.390625,-0.822266,0.324219,0
26990,0.373047,-0.833496,0.342773,0
27010,0.393066,-0.809082,0.301758,0
27030,0.40918,-0.805664,0.289551,0
27050,0.413086,-0.819336,0.302734,0
27070,0.399902,-0.845703,0.336914,0
27090,0.414062,-0.808594,0.348145,0
27110,0.40332,-0.79248,0.302246,0
27130,0.411133,-0.783203,0.306641,0
27150,0.432617,-0.805664,0.281738,0
27170,0.422852,-0.796387,0.280273,0
27190,0.413574,-0.817383,0.300781,0
27210,0.379395,-0.792969,0.396484,0
27230,0.375977,-0.806641,0.384277,0
27250,0.419922,-0.813477,0.295898,0
27270,0.425293,-0.79541,0.285156,0
27290,0.41748,-0.783691,0.331055,0
27310,0.419922,-0.797852,0.31543,0
27330,0.448242,-0.803223,0.289551,0
27350,0.399414,-0.786621,0.341797,0
27370,0.387207,-0.821777,0.356934,0
27390,0.42627,-0.858398,0.312988,0
27410,0.445801,-0.808105,0.264648,0
27430,0.420898,-0.707031,0.236328,0
27450,0.436523,-0.804688,0.26709,0
27470,0.372559,-0.908691,0.399414,0
27490,0.380371,-0.843262,0.341309,0
27510,0.40332,-0.697266,0.315918,0
27530,0.419434,-0.773926,0.266602,0
27550,0.387207,-0.90625,0.301758,0
27570,0.390137,-0.890137,0.336426,0
27590,0.404297,-0.853027,0.27832,0
27610,0.402832,-0.859863,0.241211,0
27630,0.402832,-0.888672,0.248047,0
27650,0.390625,-0.895996,0.256348,0
27670,0.358398,-0.901855,0.28418,0
27690,0.392578,-0.849121,0.21875,0
27710,0.380371,-0.86084,0.242676,0
27730,0.385742,-0.86084,0.219727,0
27750,0.361816,-0.86377,0.229004,0
27770,0.393555,-0.854492,0.243164,0
27790,0.366211,-0.84668,0.243652,0
27810,0.370605,-0.834961,0.254395,0
27830,0.396484,-0.827148,0.281738,0
27850,0.391602,-0.802734,0.278809,0
27870,0.397461,-0.828613,0.289062,0
27890,0.447266,-0.833496,0.297363,0
27910,0.43457,-0.834961,0.291016,0
27930,0.440918,-0.798828,0.255859,0
27950,0.432617,-0.801758,0.249512,0
27970,0.419922,-0.851074,0.268555,0
27990,0.425781,-0.833984,0.260742,0
28010,0.425781,-0.830566,0.272949,0
28030,0.430664,-0.832031,0.263672,0
28050,0.422852,-0.847656,0.282227,0
28070,0.419922,-0.812012,0.280762,0
28090,0.419922,-0.825195,0.259277,0
28110,0.415039,-0.830078,0.269043,0
28130,0.416504,-0.834473,0.261719,0
28150,0.412598,-0.833008,0.262695,0
28170,0.42041,-0.826172,0.251465,0
28190,0.416504,-0.820801,0.269043,0
28210,0.419922,-0.836426,0.276367,0
28230,0.414062,-0.834961,0.273926,0
28250,0.409668,-0.830566,0.280273,0
28270,0.413086,-0.824219,0.275879,0
28290,0.422852,-0.81543,0.267578,0
28310,0.435059,-0.819336,0.270508,0
28330,0.435059,-0.835938,0.268555,0
28350,0.444824,-0.844727,0.248047,0
28370,0.443359,-0.842285,0.243652,0
28390,0.432129,-0.833984,0.25293,0
28410,0.435059,-0.841797,0.267578,0
28430,0.425293,-0.82373,0.271484,0
28450,0.442871,-0.793457,0.273438,0
28470,0.429688,-0.785156,0.266113,0
28510,0.407715,-0.816895,0.288574,0
28530,0.379883,-0.848633,0.272949,0
28550,0.381348,-0.830078,0.266113,0
28570,0.384766,-0.857422,0.255371,0
28590,0.401367,-0.837891,0.278809,0
28610,0.399414,-0.847168,0.246094,0
28630,0.426758,-0.830078,0.259766,0
28650,0.419922,-0.825684,0.26123,0
28670,0.425781,-0.84082,0.270996,0
28690,0.419922,-0.837402,0.280762,0
28710,0.416016,-0.832031,0.27002,0
28730,0.41748,-0.833496,0.266113,0
28750,0.412598,-0.831055,0.274414,0
28760,0.414062,-0.835449,0.269043,0
28780,0.409668,-0.828125,0.27002,0
28800,0.411133,-0.828125,0.274414,0
28820,0.398438,-0.82666,0.277344,0
28840,0.397949,-0.830078,0.279297,0
28860,0.401855,-0.836426,0.28418,0
28880,0.400879,-0.827148,0.281738,0
28900,0.474121,-0.748535,0.276367,0
28920,0.397461,-0.83252,0.266602,0
28940,0.390137,-0.822754,0.269531,0
28960,0.407715,-0.824707,0.271973,0
28980,0.399902,-0.871582,0.253906,0
29000,0.378906,-0.820801,0.224609,0
29020,0.321289,-0.818848,0.251465,0
29040,0.366211,-0.855469,0.303711,0
29060,0.382324,-0.898926,0.30957,0
29080,0.414062,-0.878418,0.262695,0
29100,0.398438,-0.839355,0.272461,0
29120,0.381348,-0.875488,0.263184,0
29140,0.37207,-0.884766,0.287109,0
29160,0.347168,-0.876953,0.298828,0
29180,0.351074,-0.893066,0.297852,0
29200,0.351562,-0.873535,0.305664,0
29220,0.355957,-0.858887,0.299805,0
29240,0.37207,-0.864746,0.279785,0
29260,0.367676,-0.870117,0.26123,0
29280,0.342773,-0.858398,0.27832,0
29300,0.32959,-0.887207,0.241699,0
29320,0.348145,-0.856445,0.257324,0
29340,0.353516,-0.855469,0.251465,0
29360,0.349121,-0.849121,0.26709,0
29380,0.355957,-0.85498,0.282227,0
29400,0.356445,-0.864746,0.263184,0
29420,0.355957,-0.845215,0.280762,0
29440,0.360352,-0.843262,0.28418,0
29460,0.373535,-0.85791,0.272949,0
29480,0.380859,-0.867676,0.293457,0
29500,0.363281,-0.853516,0.264648,0
29520,0.381836,-0.849609,0.26123,0
29540,0.359863,-0.843262,0.28418,0
29560,0.383789,-0.844727,0.297363,0
29580,0.385254,-0.845703,0.283691,0
29600,0.375488,-0.848633,0.270996,0
29620,0.369141,-0.849609,0.271484,0
29640,0.367676,-0.861328,0.272461,0
29660,0.365723,-0.84375,0.273926,0
29680,0.369629,-0.847168,0.275391,0
29700,0.365723,-0.849609,0.291016,0
29720,0.375,-0.854492,0.290527,0
29740,0.384277,-0.853516,0.270996,0
29760,0.375977,-0.845215,0.270508,0
29780,0.369629,-0.847656,0.26416,0
29800,0.366699,-0.849609,0.272949,0
29820,0.362793,-0.853027,0.275391,0
29840,0.354492,-0.851074,0.276367,0
29860,0.36377,-0.866211,0.283203,0
29880,0.365234,-0.854492,0.293945,0
29900,0.373047,-0.844727,0.284668,0
29920,0.370605,-0.853027,0.274902,0
29940,0.372559,-0.84375,0.278809,0
29960,0.368652,-0.844238,0.280273,0
29980,0.369629,-0.848633,0.28418,0
30000,0.365723,-0.85498,0.278809,0
30020,0.359375,-0.839355,0.28125,0
30040,0.362305,-0.840332,0.28125,0
30060,0.357422,-0.852539,0.288086,0
30080,0.36084,-0.85498,0.293945,0
30100,0.363281,-0.850586,0.287598,0
30120,0.371094,-0.85498,0.289551,0
30140,0.370117,-0.855469,0.282227,0
30160,0.375,-0.851074,0.275879,0
30180,0.367188,-0.846191,0.273926,0
30200,0.365723,-0.856445,0.279297,0
30220,0.371582,-0.863281,0.280762,0
30240,0.361328,-0.84082,0.276855,0
30260,0.370117,-0.850586,0.280273,0
30280,0.362793,-0.851562,0.283203,0
30300,0.364746,-0.859375,0.280762,0
30320,0.360352,-0.844238,0.287598,0
30340,0.362793,-0.855469,0.280762,0
30360,0.373047,-0.855469,0.291992,0
30380,0.368164,-0.847656,0.280762,0
30400,0.369629,-0.842285,0.27832,0
30420,0.367188,-0.845215,0.287109,0
30440,0.369141,-0.853516,0.285156,0
30460,0.357422,-0.841797,0.274902,0
30480,0.365234,-0.842773,0.274414,0
30500,0.37207,-0.845215,0.282715,0
30520,0.359375,-0.848145,0.29834,0
30540,0.370605,-0.854492,0.280762,0
30560,0.356934,-0.84375,0.272949,0
30580,0.374023,-0.847656,0.27832,0
30600,0.37207,-0.855957,0.275879,0
30620,0.381836,-0.851074,0.290527,0
30640,0.370117,-0.853027,0.287598,0
30660,0.37207,-0.851562,0.275879,0
30680,0.369629,-0.855469,0.293945,0
30700,0.375977,-0.853516,0.285645,0
30720,0.361328,-0.850586,0.273926,0
30740,0.366699,-0.848145,0.277344,0
30760,0.359375,-0.855469,0.27832,0
30780,0.360352,-0.850586,0.294434,0
30800,0.36377,-0.853027,0.283691,0
30820,0.361328,-0.853516,0.275879,0
30840,0.360352,-0.858398,0.259766,0
30860,0.363281,-0.842773,0.270508,0
30880,0.355469,-0.845703,0.275879,0
30900,0.35791,-0.851074,0.288086,0
30920,0.347168,-0.849121,0.285645,0
30940,0.359863,-0.85791,0.290527,0
30960,0.372559,-0.865234,0.291504,0
30980,0.358887,-0.850586,0.286133,0
31000,0.365234,-0.84668,0.276367,0
31020,0.36084,-0.85498,0.291504,0
31040,0.355957,-0.854492,0.287598,0
31060,0.354492,-0.854004,0.278809,0
31080,0.356445,-0.852051,0.287109,0
31100,0.35791,-0.85498,0.289551,0
31120,0.359863,-0.853516,0.291992,0
31140,0.365234,-0.852539,0.279297,0
31160,0.363281,-0.856445,0.289551,0
31180,0.37207,-0.863281,0.281738,0
31200,0.354004,-0.86084,0.285156,0
31220,0.35498,-0.858398,0.292969,0
31240,0.361816,-0.856934,0.289062,0
31260,0.348633,-0.85791,0.27832,0
31280,0.348633,-0.84082,0.289551,0
31300,0.364258,-0.848145,0.29248,0
31320,0.362305,-0.837402,0.299805,0
31340,0.365234,-0.85498,0.281738,0
31360,0.349609,-0.862793,0.294434,0
31380,0.356934,-0.86084,0.271484,0
31400,0.367188,-0.855469,0.274902,0
31420,0.344238,-0.859863,0.293945,0
31440,0.36377,-0.862305,0.286621,0
31460,0.352051,-0.851074,0.298828,0
31480,0.384277,-0.849609,0.27832,0
31500,0.378906,-0.822266,0.278809,0
31520,0.390137,-0.853027,0.272461,0
31540,0.361328,-0.846191,0.28418,0
31560,0.350586,-0.837402,0.282227,0
31580,0.343262,-0.864746,0.290039,0
31600,0.350586,-0.86084,0.299805,0
31620,0.357422,-0.845215,0.294434,0
31640,0.369141,-0.849609,0.274902,0
31660,0.366211,-0.848145,0.275391,0
31680,0.369629,-0.861816,0.28125,0
31700,0.36084,-0.851074,0.299316,0
31720,0.373047,-0.869141,0.283203,0
31740,0.361328,-0.851562,0.291504,0
31760,0.369629,-0.851074,0.288574,0
31780,0.364746,-0.863281,0.278809,0
31800,0.371094,-0.842285,0.274414,0
31820,0.375488,-0.82959,0.285156,0
31840,0.366699,-0.835938,0.279297,0
31860,0.363281,-0.840332,0.288574,0
31880,0.375,-0.865234,0.285645,0
31900,0.351074,-0.873047,0.273926,0
31920,0.376465,-0.847168,0.252441,0
31940,0.355957,-0.84375,0.264648,0
31960,0.362793,-0.857422,0.284668,0
31980,0.363281,-0.844727,0.288574,0
32000,0.362305,-0.845703,0.287109,0
32020,0.359863,-0.855469,0.292969,0
32040,0.367676,-0.853027,0.283691,0
32060,0.368164,-0.852539,0.275879,0
32080,0.365723,-0.854492,0.292969,0
32100,0.357422,-0.865723,0.28125,0
32120,0.371582,-0.842773,0.275879,0
32140,0.375,-0.839844,0.272461,0
32160,0.364258,-0.86377,0.286133,0
32180,0.365723,-0.866699,0.286621,0
32200,0.367188,-0.850586,0.273438,0
32210,0.36377,-0.855469,0.273438,0
32230,0.369141,-0.845703,0.301758,0
32250,0.368652,-0.858398,0.271973,0
32270,0.364258,-0.851074,0.273438,0
32290,0.355469,-0.853516,0.266602,0
32310,0.359375,-0.853516,0.26416,0
32330,0.36377,-0.853027,0.277832,0
32350,0.367188,-0.857422,0.280273,0
32370,0.371094,-0.849609,0.286621,0
32390,0.372559,-0.841797,0.271484,0
32410,0.369629,-0.84375,0.290527,0
32430,0.364258,-0.858398,0.295898,0
32450,0.365723,-0.861328,0.27832,0
32470,0.361816,-0.851562,0.268066,0
32490,0.366699,-0.841309,0.275879,0
32510,0.375488,-0.836914,0.269043,0
32530,0.370117,-0.839355,0.272949,0
32550,0.382812,-0.852051,0.280762,0
32570,0.371582,-0.854492,0.279785,0
32590,0.370117,-0.840332,0.272949,0
32610,0.373535,-0.859863,0.237305,0
32630,0.360352,-0.866699,0.256348,0
32650,0.355957,-0.868652,0.276855,0
32670,0.35498,-0.860352,0.290527,0
32690,0.353027,-0.856934,0.280273,0
32710,0.362793,-0.851562,0.270508,0
32730,0.362793,-0.855957,0.289551,0
32750,0.369141,-0.861328,0.287598,0
32770,0.370117,-0.854004,0.270508,0
32790,0.36377,-0.86084,0.263672,0
32810,0.357422,-0.847656,0.270996,0
32830,0.35498,-0.844238,0.279297,0
32850,0.361816,-0.851074,0.298828,0
32870,0.371582,-0.856445,0.275879,0
32890,0.362793,-0.837891,0.272949,0
32910,0.37207,-0.857422,0.275879,0
32930,0.360352,-0.864746,0.282227,0
32950,0.351562,-0.855957,0.260742,0
32970,0.380371,-0.850098,0.268066,0
32990,0.367676,-0.849609,0.300781,0
33010,0.359375,-0.855469,0.268066,0
33030,0.362793,-0.857422,0.269043,0
33050,0.369141,-0.855957,0.285645,0
33070,0.371094,-0.860352,0.266602,0
33090,0.364258,-0.866211,0.271973,0
33110,0.365723,-0.855469,0.272949,0
33130,0.36377,-0.853027,0.279785,0
33150,0.364746,-0.86377,0.281738,0
33170,0.368164,-0.86084,0.28125,0
33190,0.366211,-0.86084,0.269531,0
33210,0.36377,-0.853516,0.272949,0
33230,0.364746,-0.865723,0.265625,0
33250,0.364258,-0.851074,0.272461,0
33270,0.375,-0.862305,0.274902,0
33290,0.362793,-0.857422,0.270996,0
33310,0.36377,-0.855957,0.282715,0
33330,0.365723,-0.86084,0.272949,0
33350,0.367188,-0.854492,0.279785,0
33370,0.383789,-0.851074,0.275391,0
33390,0.375977,-0.861816,0.282715,0
33410,0.427246,-0.849609,0.279297,0
33430,0.384277,-0.859863,0.29248,0
33450,0.36084,-0.904297,0.248047,0
33470,0.356445,-0.844727,0.304688,0
33490,0.431641,-0.893555,0.267578,0
33510,0.377441,-0.807617,0.250977,0
33530,0.318359,-0.785156,0.291504,0
33550,0.357422,-0.855957,0.310059,0
33570,0.357422,-0.861816,0.287598,0
33590,0.364746,-0.791016,0.286133,0
33610,0.390625,-0.819336,0.268066,0
33630,0.394043,-0.834473,0.285645,0
33650,0.38623,-0.8125,0.276855,0
33670,0.385254,-0.831055,0.27002,0
33690,0.381836,-0.842773,0.288086,0
33710,0.38623,-0.835449,0.291992,0
33730,0.383301,-0.828125,0.291016,0
33750,0.38916,-0.836914,0.291016,0
33770,0.394531,-0.845703,0.282227,0
33790,0.39209,-0.833008,0.270508,0
33810,0.388672,-0.837891,0.287109,0
33830,0.394531,-0.851074,0.283203,0
33850,0.372559,-0.841309,0.290527,0
33870,0.370605,-0.845215,0.291504,0
33890,0.375,-0.859863,0.285645,0
33910,0.375488,-0.844727,0.274902,0
33930,0.366699,-0.838867,0.276855,0
33950,0.371582,-0.838867,0.269531,0
33970,0.36377,-0.84375,0.290039,0
33990,0.378418,-0.858887,0.296875,0
34010,0.387207,-0.854004,0.289551,0
34030,0.385254,-0.853516,0.270996,0
34050,0.380371,-0.846191,0.271484,0
34070,0.386719,-0.860352,0.287598,0
34090,0.376465,-0.844238,0.304199,0
34110,0.377441,-0.842773,0.282715,0
34130,0.372559,-0.857422,0.304199,0
34150,0.379883,-0.845703,0.29248,0
34170,0.366699,-0.845215,0.277832,0
34190,0.354492,-0.837891,0.280762,0
34200,0.363281,-0.849609,0.28418,0
34220,0.366211,-0.846191,0.285645,0
34240,0.362793,-0.833496,0.288086,0
34260,0.366699,-0.833496,0.284668,0
34280,0.378418,-0.83252,0.280762,0
34300,0.361328,-0.832031,0.285645,0
34320,0.361816,-0.84668,0.271973,0
34340,0.361328,-0.861328,0.282227,0
34360,0.366211,-0.852051,0.272949,0
34380,0.388672,-0.880859,0.280273,0
34400,0.359863,-0.869141,0.280762,0
34420,0.380859,-0.882324,0.249023,0
34440,0.368164,-0.871094,0.264648,0
34460,0.375,-0.835449,0.291992,0
34480,0.362793,-0.834961,0.307617,0
34500,0.379395,-0.861816,0.29834,0
34520,0.356934,-0.826172,0.285645,0
34540,0.370605,-0.852539,0.26123,0
34560,0.380371,-0.86377,0.276367,0
34580,0.381836,-0.848145,0.273926,0
34600,0.359863,-0.840332,0.26123,0
34620,0.371094,-0.853516,0.26123,0
34640,0.34668,-0.853027,0.266602,0
34660,0.369141,-0.854492,0.23877,0
34680,0.370605,-0.837402,0.26709,0
34700,0.355957,-0.845703,0.279297,0
34720,0.345215,-0.870117,0.309082,0
34740,0.343262,-0.865723,0.303223,0
34760,0.356445,-0.862793,0.284668,0
34780,0.368652,-0.847168,0.25,0
34800,0.35498,-0.868164,0.254883,0
34820,0.35498,-0.883301,0.248047,0
34840,0.363281,-0.882812,0.23877,0
34860,0.36084,-0.875,0.254883,0
34880,0.34375,-0.861816,0.269531,0
34900,0.343262,-0.870117,0.282715,0
34920,0.366699,-0.868652,0.275879,0
34940,0.359375,-0.844727,0.27002,0
34960,0.344727,-0.852051,0.261719,0
34980,0.361328,-0.866211,0.256836,0
35000,0.321777,-0.835938,0.269531,0
35020,0.381836,-0.869629,0.23877,0
35040,0.359863,-0.888672,0.245117,0
35060,0.340332,-0.866699,0.220215,0
35080,0.348633,-0.896484,0.259277,0
35100,0.364258,-0.891113,0.274902,0
35120,0.349121,-0.846191,0.258789,0
35140,0.347168,-0.853516,0.248047,0
35160,0.356934,-0.880371,0.260742,0
35180,0.342285,-0.861328,0.271484,0
35200,0.35498,-0.887695,0.267578,0
35220,0.354492,-0.868164,0.265137,0
35240,0.37793,-0.885254,0.261719,0
35260,0.357422,-0.869629,0.249023,0
35280,0.36084,-0.866211,0.259766,0
35300,0.356934,-0.872559,0.263184,0
35320,0.345703,-0.859863,0.255371,0
35340,0.353516,-0.838867,0.268555,0
35360,0.355469,-0.851562,0.25293,0
35380,0.342773,-0.837891,0.263672,0
35400,0.350586,-0.870605,0.255859,0
35420,0.35791,-0.859375,0.254395,0
35440,0.359863,-0.858398,0.242676,0
35460,0.375977,-0.880371,0.254883,0
35480,0.347168,-0.879395,0.265137,0
35500,0.358398,-0.890137,0.255371,0
35520,0.353027,-0.846191,0.267578,0
35540,0.355957,-0.86084,0.260254,0
35560,0.355957,-0.855957,0.285645,0
35580,0.36084,-0.870117,0.271973,0
35600,0.364258,-0.885254,0.272461,0
35620,0.34668,-0.886719,0.25,0
35640,0.341309,-0.87207,0.240723,0
35660,0.343262,-0.874512,0.269043,0
35680,0.334473,-0.875488,0.283203,0
35700,0.321777,-0.89209,0.28418,0
35720,0.330566,-0.869141,0.276855,0
35740,0.339355,-0.848633,0.303223,0
35760,0.365723,-0.846191,0.306641,0
35780,0.383789,-0.828125,0.32666,0
35800,0.388184,-0.828613,0.347168,0
35820,0.383301,-0.831543,0.341797,0
35840,0.38623,-0.804688,0.347656,0
35860,0.386719,-0.810547,0.339844,0
35880,0.386719,-0.811523,0.341309,0
35900,0.381348,-0.808594,0.333984,0
35920,0.378418,-0.790527,0.308594,0
35940,0.378418,-0.800781,0.331543,0
35960,0.384766,-0.813965,0.32959,0
35980,0.400879,-0.806641,0.318359,0
36000,0.388672,-0.805176,0.294922,0
36020,0.371582,-0.814941,0.305176,0
36040,0.375488,-0.815918,0.304199,0
36060,0.379883,-0.805176,0.321289,0
36080,0.375488,-0.797852,0.338379,0
36100,0.370117,-0.81543,0.338379,0
36120,0.367188,-0.811035,0.33252,0
36140,0.366211,-0.842285,0.310547,0
36160,0.382812,-0.820312,0.310059,0
36180,0.39209,-0.820312,0.31543,0
36200,0.365723,-0.849609,0.340332,0
36220,0.383301,-0.857422,0.338867,0
36240,0.395996,-0.834473,0.338379,0
36260,0.391602,-0.795898,0.3125,0
36280,0.388184,-0.82373,0.341797,0
36300,0.381836,-0.833984,0.361816,0
36320,0.396973,-0.841309,0.387695,0
36340,0.391113,-0.819824,0.368652,0
36360,0.375488,-0.821289,0.351562,0
36380,0.375,-0.809082,0.370117,0
36400,0.387695,-0.808105,0.363281,0
36420,0.383789,-0.791992,0.37793,0
36440,0.393066,-0.77832,0.369141,0
36460,0.387695,-0.802246,0.363281,0
36480,0.380371,-0.814941,0.354004,0
36500,0.374512,-0.811523,0.351074,0
36520,0.36377,-0.811035,0.374023,0
36540,0.377441,-0.8125,0.361816,0
36560,0.368164,-0.804688,0.353516,0
36580,0.349121,-0.805176,0.374512,0
36600,0.347168,-0.811035,0.362305,0
36620,0.322754,-0.823242,0.359863,0
36640,0.324707,-0.825195,0.345215,0
36660,0.320312,-0.833496,0.32959,0
36680,0.320801,-0.807129,0.356934,0
36700,0.322266,-0.793945,0.349121,0
36720,0.34375,-0.816895,0.34668,0
36740,0.350098,-0.811035,0.366211,0
36760,0.352539,-0.813965,0.367676,0
36780,0.35791,-0.800781,0.356445,0
36800,0.366211,-0.791504,0.349121,0
36820,0.378906,-0.798828,0.370117,0
36840,0.376953,-0.80957,0.383789,0
36860,0.382324,-0.795898,0.37793,0
36880,0.37207,-0.783691,0.394043,0
36900,0.367188,-0.795898,0.380371,0
36920,0.376465,-0.785156,0.358887,0
36940,0.365234,-0.785156,0.375,0
36960,0.386719,-0.782227,0.376953,0
36980,0.390137,-0.802734,0.375488,0
37000,0.391113,-0.804688,0.365723,0
37020,0.400391,-0.814453,0.368164,0
37040,0.378418,-0.814941,0.374512,0
37060,0.380859,-0.816895,0.375488,0
37080,0.358398,-0.805176,0.393066,0
37100,0.352539,-0.795898,0.399414,0
37120,0.352051,-0.794434,0.390137,0
37140,0.352539,-0.79541,0.398438,0
37160,0.349609,-0.795898,0.391602,0
37180,0.343262,-0.810059,0.389648,0
37200,0.340332,-0.816406,0.378418,0
37220,0.35791,-0.80957,0.372559,0
37240,0.361328,-0.79541,0.37207,0
37260,0.361328,-0.791992,0.384766,0
37280,0.373047,-0.799805,0.383789,0
37300,0.361816,-0.791992,0.38623,0
37320,0.377441,-0.798828,0.388672,0
37340,0.374023,-0.789062,0.388184,0
37360,0.37207,-0.79248,0.385742,0
37380,0.369141,-0.804688,0.390625,0
37400,0.360352,-0.80957,0.392578,0
37420,0.355957,-0.821289,0.400391,0
37440,0.357422,-0.831543,0.378418,0
37460,0.345215,-0.814941,0.370605,0
37480,0.352051,-0.793945,0.371582,0
37500,0.353516,-0.791504,0.380859,0
37520,0.342285,-0.790527,0.402832,0
37540,0.34375,-0.802734,0.399414,0
37560,0.348145,-0.795898,0.390625,0
37580,0.355957,-0.805664,0.392578,0
37600,0.353516,-0.799316,0.388672,0
37620,0.355469,-0.80957,0.382812,0
37640,0.36084,-0.79834,0.376465,0
37650,0.371094,-0.811523,0.387207,0
37670,0.375488,-0.821289,0.398438,0
37690,0.350586,-0.804688,0.387207,0
37710,0.353027,-0.790039,0.379395,0
37730,0.353516,-0.78125,0.398438,0
37750,0.358887,-0.786621,0.404297,0
37770,0.356445,-0.78125,0.405762,0
37790,0.392578,-0.790039,0.40625,0
37810,0.348145,-0.788086,0.393066,0
37830,0.381836,-0.800293,0.39502,0
37850,0.375488,-0.800781,0.389648,0
37870,0.371582,-0.796875,0.383789,0
37890,0.365234,-0.810547,0.392578,0
37910,0.356934,-0.807617,0.401855,0
37930,0.350586,-0.797363,0.397949,0
37950,0.339355,-0.786621,0.391602,0
37970,0.356934,-0.786133,0.393066,0
37990,0.357422,-0.782715,0.397461,0
38010,0.349609,-0.780273,0.396484,0
38030,0.361328,-0.793945,0.402344,0
38050,0.383789,-0.800781,0.416016,0
38070,0.375488,-0.793457,0.398926,0
38090,0.387695,-0.801758,0.395508,0
38110,0.37207,-0.794434,0.389648,0
38130,0.378906,-0.803711,0.396973,0
38150,0.371094,-0.796875,0.405762,0
38170,0.365234,-0.79834,0.397461,0
38190,0.358398,-0.794434,0.390137,0
38210,0.347168,-0.784668,0.383301,0
38230,0.371094,-0.779785,0.383301,0
38250,0.37793,-0.793457,0.397461,0
38270,0.374512,-0.801758,0.399414,0
38290,0.353516,-0.792969,0.393555,0
38310,0.378418,-0.792969,0.378418,0
38330,0.367676,-0.793945,0.408203,0
38350,0.389648,-0.811523,0.375,0
38370,0.365234,-0.79541,0.387207,0
38390,0.368164,-0.802246,0.385742,0
38410,0.35791,-0.80127,0.378418,0
38430,0.359375,-0.803223,0.382324,0
38450,0.287109,-0.771973,0.394531,0
38470,0.363281,-0.793457,0.367188,0
38490,0.352051,-0.786621,0.385742,0
38510,0.347168,-0.782227,0.39209,0
38530,0.353027,-0.785156,0.375488,0
38550,0.357422,-0.795898,0.387695,0
38570,0.360352,-0.802246,0.375977,0
38590,0.36377,-0.80127,0.380371,0
38610,0.358398,-0.796875,0.387207,0
38630,0.345703,-0.785645,0.388184,0
38650,0.366699,-0.811035,0.394531,0
38670,0.358398,-0.795898,0.402832,0
38690,0.37207,-0.792969,0.407227,0
38710,0.362793,-0.782227,0.402344,0
38730,0.365234,-0.791504,0.401367,0
38750,0.378906,-0.811035,0.393555,0
38770,0.375,-0.805176,0.398926,0
38790,0.399414,-0.807129,0.39209,0
38810,0.379395,-0.802246,0.382812,0
38830,0.378906,-0.794434,0.384766,0
38850,0.367676,-0.804199,0.385254,0
38870,0.356445,-0.800293,0.388672,0
38880,0.351074,-0.813477,0.369141,0
38900,0.353027,-0.812012,0.369141,0
38920,0.369141,-0.813477,0.365723,0
38940,0.339355,-0.822266,0.355957,0
38960,0.34375,-0.818359,0.356934,0
38980,0.346191,-0.832031,0.358887,0
39000,0.350098,-0.81543,0.354004,0
39020,0.35791,-0.827148,0.35498,0
39040,0.331543,-0.835938,0.350586,0
39060,0.337891,-0.830078,0.356445,0
39090,0.337891,-0.833496,0.36377,0
39130,0.385254,-0.855957,0.349609,0
39140,0.356445,-0.835449,0.34668,0
39160,0.35791,-0.83252,0.352539,0
39180,0.355469,-0.827148,0.353516,0
39200,0.352539,-0.82959,0.353027,0
39220,0.340332,-0.835938,0.349609,0
39240,0.34375,-0.831055,0.358398,0
39260,0.344238,-0.827148,0.352539,0
39280,0.34082,-0.821289,0.349609,0
39300,0.351562,-0.808594,0.356934,0
39320,0.336914,-0.810059,0.351562,0
39340,0.333008,-0.810059,0.36377,0
39380,0.342285,-0.799316,0.357422,0
39400,0.341797,-0.808105,0.361328,0
39420,0.348145,-0.818848,0.356445,0
39440,0.353516,-0.824707,0.358887,0
39500,0.353027,-0.831055,0.354492,0
39520,0.339844,-0.835938,0.34082,0
39540,0.348145,-0.822266,0.35791,0
39550,0.352539,-0.827637,0.336426,0
39570,0.335449,-0.811523,0.362305,0
39590,0.333496,-0.816895,0.360352,0
39610,0.339355,-0.825684,0.364746,0
39630,0.335938,-0.827148,0.358398,0
39650,0.337891,-0.829102,0.364746,0
39670,0.34375,-0.834961,0.359863,0
39690,0.342285,-0.829102,0.350098,0
39700,0.351562,-0.820801,0.358398,0
39720,0.348633,-0.817383,0.365723,0
39730,0.347656,-0.82666,0.356934,0
39760,0.336914,-0.822266,0.360352,0
39780,0.334961,-0.82373,0.35791,0
39790,0.333984,-0.82666,0.35791,0
39810,0.336914,-0.826172,0.352051,0
39830,0.339844,-0.825195,0.358398,0
39840,0.340332,-0.828125,0.352539,0
39860,0.337402,-0.829102,0.351074,0
39880,0.335449,-0.82373,0.364258,0
39900,0.335449,-0.830566,0.359375,0
39920,0.33252,-0.821777,0.374512,0
39940,0.340332,-0.820312,0.358398,0
39960,0.335449,-0.82373,0.36377,0
39980,0.337891,-0.825684,0.355957,0
40000,0.335938,-0.830078,0.355957,0
40020,0.330078,-0.824707,0.362305,0
40040,0.336914,-0.82666,0.369629,0
40060,0.33252,-0.83252,0.367676,0
40080,0.331543,-0.834473,0.365234,0
40130,0.333008,-0.827148,0.365723,0
40160,0.337402,-0.835938,0.361328,0
40190,0.331543,-0.826172,0.357422,0
40220,0.328125,-0.830566,0.356934,0
40240,0.336914,-0.824707,0.353516,0
40270,0.336914,-0.827637,0.361328,0
40290,0.32666,-0.827637,0.366699,0
40320,0.321289,-0.819336,0.370605,0
40330,0.333984,-0.830078,0.359375,0
40350,0.338379,-0.82959,0.359863,0
40370,0.34668,-0.825684,0.362305,0
40380,0.34668,-0.833984,0.354004,0
40400,0.311035,-0.819336,0.370117,0
40430,0.329102,-0.827637,0.361328,0
40440,0.341797,-0.820801,0.366211,0
40460,0.344727,-0.823242,0.367188,0
40490,0.329102,-0.82959,0.372559,0
40520,0.326172,-0.837891,0.341797,0
40550,0.337891,-0.814941,0.365723,0
40580,0.320801,-0.825195,0.387695,0
40600,0.313965,-0.821777,0.38916,0
40610,0.320801,-0.822266,0.375488,0
40630,0.327148,-0.827148,0.369629,0
40660,0.359863,-0.826172,0.356445,0
40680,0.343262,-0.824219,0.368164,0
40710,0.322754,-0.841797,0.36377,0
40720,0.341797,-0.834473,0.358398,0
40750,0.343262,-0.825684,0.371094,0
40770,0.345215,-0.821289,0.369141,0
40790,0.334961,-0.822266,0.352539,0
40820,0.346191,-0.820801,0.358398,0
40840,0.352051,-0.827148,0.358398,0
40860,0.350098,-0.822266,0.359375,0
40880,0.348145,-0.826172,0.360352,0
40900,0.336426,-0.832031,0.36084,0
40920,0.333496,-0.833984,0.354492,0
40940,0.340332,-0.829102,0.341797,0
40960,0.343262,-0.826172,0.339844,0
40980,0.344727,-0.828613,0.354492,0
41010,0.338867,-0.826172,0.359375,0
41040,0.336914,-0.82373,0.355957,0
41060,0.328125,-0.823242,0.361328,0
41070,0.334473,-0.820312,0.355957,0
41090,0.341309,-0.820312,0.353516,0
41110,0.349121,-0.811523,0.354492,0
41130,0.34082,-0.825684,0.347168,0
41150,0.330566,-0.82666,0.354492,0
41160,0.336426,-0.824707,0.352539,0
41170,0.347656,-0.828613,0.347168,0
41190,0.350586,-0.82666,0.36084,0
41230,0.330078,-0.833008,0.360352,0
41250,0.34375,-0.831543,0.354492,0
41260,0.347168,-0.832031,0.348145,0
41290,0.344727,-0.828613,0.346191,0
41300,0.339355,-0.822754,0.364258,0
41320,0.332031,-0.824219,0.368164,0
41340,0.333008,-0.82666,0.356934,0
41360,0.331055,-0.827637,0.353516,0
41380,0.340332,-0.835449,0.354004,0
41420,0.347168,-0.83252,0.352539,0
41440,0.351074,-0.821777,0.357422,0
41460,0.342773,-0.815918,0.357422,0
41490,0.325684,-0.813965,0.361328,0
41520,0.33252,-0.826172,0.359863,0
41550,0.341309,-0.833008,0.348145,0
41570,0.348633,-0.827637,0.364258,0
41580,0.335938,-0.820801,0.369629,0
41590,0.334473,-0.815918,0.366699,0
41610,0.327637,-0.819336,0.371094,0
41630,0.321289,-0.833984,0.369141,0
41630,0.329102,-0.834473,0.361816,0
41650,0.333008,-0.83252,0.36084,0
41670,0.350586,-0.83252,0.356934,0
41700,0.325195,-0.830078,0.368164,0
41720,0.320312,-0.818359,0.358887,0
41740,0.322754,-0.82373,0.367188,0
41760,0.333496,-0.832031,0.368164,0
41780,0.34668,-0.824707,0.366699,0
41800,0.342773,-0.825684,0.367188,0
41820,0.34375,-0.830566,0.366699,0
41840,0.338867,-0.826172,0.366211,0
41870,0.328125,-0.838379,0.367676,0
41890,0.322266,-0.842285,0.359863,0
41900,0.321777,-0.839844,0.351074,0
41920,0.337891,-0.824219,0.347656,0
41940,0.328125,-0.817871,0.371582,0
41960,0.321777,-0.826172,0.370605,0
41980,0.319336,-0.83252,0.370605,0
42010,0.349609,-0.824707,0.363281,0
42030,0.342773,-0.821777,0.366699,0
42050,0.324219,-0.838379,0.360352,0
42070,0.322266,-0.831543,0.35498,0
42090,0.331543,-0.829102,0.352539,0
42130,0.34082,-0.82666,0.359863,0
42150,0.334961,-0.824707,0.365234,0
42170,0.333496,-0.821289,0.361328,0
42190,0.32666,-0.824219,0.36377,0
42230,0.336914,-0.836914,0.339355,0
42250,0.337402,-0.837402,0.339844,0
42270,0.335449,-0.82959,0.351562,0
42290,0.338379,-0.827148,0.35791,0
42310,0.335449,-0.832031,0.354004,0
42350,0.327637,-0.832031,0.353027,0
42370,0.330078,-0.837891,0.349121,0
42390,0.327148,-0.84082,0.34375,0
42410,0.329102,-0.837402,0.354492,0
42440,0.341797,-0.82959,0.356934,0
42490,0.315918,-0.830566,0.352051,0
42510,0.329102,-0.833984,0.34668,0
42540,0.338379,-0.833496,0.351562,0
42580,0.336426,-0.824707,0.362793,0
42630,0.326172,-0.83252,0.363281,0
42650,0.328613,-0.843262,0.357422,0
42670,0.334473,-0.841309,0.352539,0
42710,0.349609,-0.827148,0.350586,0
42730,0.343262,-0.830078,0.351562,0
42770,0.331055,-0.823242,0.35791,0
42800,0.326172,-0.839844,0.361328,0
42860,0.34375,-0.835449,0.351562,0
42880,0.350098,-0.825195,0.347656,0
42910,0.342773,-0.833984,0.347168,0
42930,0.335938,-0.831055,0.354492,0
42930,0.328613,-0.830078,0.349121,0
42950,0.331055,-0.830078,0.347168,0
42970,0.333984,-0.832031,0.344727,0
43010,0.350098,-0.831543,0.35498,0
43030,0.347656,-0.828125,0.342285,0
43050,0.369141,-0.843262,0.33252,0
43070,0.38916,-0.830566,0.347168,0
43090,0.382812,-0.852051,0.333496,0
43110,0.373535,-0.822754,0.349609,0
43120,0.371582,-0.848145,0.351074,0
43160,0.366699,-0.847656,0.344727,0
43180,0.368164,-0.793457,0.332031,0
43200,0.382324,-0.824219,0.339355,0
43220,0.383789,-0.810547,0.327148,0
43240,0.366211,-0.818359,0.329102,0
43260,0.382812,-0.812988,0.318359,0
43280,0.381836,-0.793945,0.32666,0
43300,0.396973,-0.839844,0.336426,0
43320,0.364746,-0.805176,0.328125,0
43340,0.378906,-0.803223,0.32959,0
43360,0.376465,-0.824219,0.336426,0
43380,0.361328,-0.789551,0.331055,0
43400,0.381348,-0.816406,0.324707,0
43420,0.376465,-0.830078,0.308105,0
43440,0.399902,-0.817383,0.271973,0
43460,0.412109,-0.834961,0.248535,0
43480,0.423828,-0.844727,0.254395,0
43500,0.429688,-0.853027,0.262207,0
43520,0.427246,-0.835938,0.268066,0
43540,0.432617,-0.8125,0.288086,0
43560,0.44043,-0.817383,0.295898,0
43580,0.422363,-0.802734,0.294922,0
43600,0.419922,-0.798828,0.299805,0
43620,0.419922,-0.802734,0.299805,0
43640,0.407715,-0.788574,0.299316,0
43660,0.416992,-0.791992,0.299316,0
43680,0.41748,-0.799805,0.300293,0
43700,0.429688,-0.795898,0.294434,0
43720,0.412598,-0.788574,0.288086,0
43740,0.429199,-0.807617,0.26709,0
43760,0.432129,-0.8125,0.27832,0
43780,0.453125,-0.830078,0.255859,0
43800,0.464355,-0.814453,0.253906,0
43820,0.476562,-0.821777,0.261719,0
43840,0.480957,-0.827148,0.270996,0
43860,0.493164,-0.812988,0.283691,0
43880,0.5,-0.807129,0.288086,0
43900,0.5,-0.8125,0.277344,0
43920,0.489746,-0.803223,0.277832,0
43940,0.460938,-0.809082,0.272461,0
43960,0.467285,-0.797363,0.281738,0
43980,0.452148,-0.797852,0.288086,0
44000,0.460449,-0.800293,0.270996,0
44020,0.462891,-0.779297,0.273926,0
44040,0.458984,-0.796875,0.272461,0
44060,0.433594,-0.800781,0.266602,0
44080,0.435547,-0.829102,0.295898,0
44100,0.446289,-0.799805,0.306152,0
44120,0.432617,-0.837891,0.277344,0
44140,0.456543,-0.799316,0.260742,0
44160,0.4375,-0.791992,0.251465,0
44180,0.432129,-0.796875,0.270996,0
44200,0.441406,-0.831543,0.286621,0
44220,0.446289,-0.837891,0.265137,0
44240,0.458984,-0.808594,0.248047,0
44260,0.477539,-0.808105,0.260254,0
44280,0.500977,-0.8125,0.266602,0
44300,0.498535,-0.837402,0.265137,0
44320,0.509277,-0.835938,0.265137,0
44340,0.460449,-0.811035,0.246582,0
44360,0.477051,-0.808105,0.239746,0
44380,0.439453,-0.810547,0.270508,0
44400,0.443848,-0.814453,0.294434,0
44420,0.447754,-0.805176,0.302734,0
44440,0.411133,-0.808105,0.292969,0
44460,0.407715,-0.811523,0.272461,0
44480,0.420898,-0.788574,0.261719,0
44500,0.430176,-0.804199,0.258789,0
44520,0.431152,-0.813965,0.255371,0
44540,0.437012,-0.807617,0.257812,0
44560,0.447266,-0.798828,0.234375,0
44580,0.467773,-0.815918,0.246094,0
44600,0.474121,-0.815918,0.248047,0
44620,0.46875,-0.811523,0.243164,0
44640,0.447266,-0.794434,0.230957,0
44660,0.436523,-0.795898,0.266602,0
44680,0.431152,-0.831055,0.260742,0
44700,0.431152,-0.826172,0.266602,0
44720,0.452148,-0.836426,0.255859,0
44740,0.412109,-0.82959,0.265625,0
44760,0.400391,-0.827148,0.269043,0
44780,0.408691,-0.825195,0.27002,0
44800,0.411621,-0.827637,0.257324,0
44820,0.418945,-0.823242,0.259277,0
44840,0.405762,-0.817871,0.246582,0
44860,0.400391,-0.813477,0.250488,0
44880,0.431641,-0.827637,0.251465,0
44900,0.449707,-0.838379,0.251953,0
44920,0.458984,-0.834961,0.22998,0
44940,0.463867,-0.824219,0.233398,0
44960,0.459473,-0.822266,0.241211,0
44980,0.490234,-0.850098,0.247559,0
45000,0.491699,-0.835449,0.250488,0
45020,0.491211,-0.816406,0.227539,0
45040,0.492188,-0.829102,0.208008,0
45060,0.495605,-0.826172,0.211426,0
45080,0.521484,-0.835938,0.189941,0
45120,0.520996,-0.828125,0.189941,0
45140,0.502441,-0.842773,0.19043,0
45160,0.495117,-0.83252,0.203125,0
45180,0.480469,-0.852051,0.231445,0
45200,0.501953,-0.878418,0.245605,0
45220,0.493652,-0.86084,0.249512,0
45250,0.401855,-0.870117,0.211914,0
45270,0.395996,-0.877441,0.243164,0
45290,0.365234,-0.890137,0.236816,0
45310,0.330566,-0.884277,0.244629,0
45330,0.292969,-0.873535,0.242676,0
45350,0.272461,-0.875,0.252441,0
45370,0.277832,-0.889648,0.23584,0
45390,0.267578,-0.865234,0.245605,0
45410,0.249023,-0.87207,0.246094,0
45430,0.252441,-0.873047,0.230957,0
45450,0.27832,-0.881836,0.249023,0
45470,0.272461,-0.894531,0.249512,0
45490,0.272949,-0.891113,0.225586,0
45510,0.287109,-0.893066,0.226562,0
45530,0.293457,-0.897949,0.230469,0
45550,0.305664,-0.897461,0.228027,0
45570,0.312012,-0.902344,0.230469,0
45590,0.317383,-0.911621,0.234375,0
45610,0.328613,-0.908203,0.242188,0
45630,0.334961,-0.905762,0.208496,0
45650,0.312012,-0.906738,0.198242,0
45670,0.319336,-0.90332,0.217285,0
45690,0.333008,-0.902344,0.213379,0
45710,0.307129,-0.892578,0.215332,0
45730,0.292969,-0.886719,0.211426,0
45750,0.304199,-0.907715,0.213379,0
45770,0.324707,-0.898926,0.226562,0
45790,0.312988,-0.893066,0.227539,0
45810,0.302734,-0.900879,0.213867,2000
45830,0.303711,-0.889648,0.210449,0
45850,0.297363,-0.869629,0.214355,0
45870,0.27832,-0.891113,0.225098,0
45890,0.251465,-0.886719,0.223145,0
45910,0.255371,-0.890137,0.218262,0
45930,0.240723,-0.884277,0.220215,0
45950,0.243652,-0.88916,0.227539,0
45970,0.248047,-0.885254,0.239258,0
45990,0.243652,-0.897461,0.213379,0
46010,0.25293,-0.90625,0.214844,0
46030,0.274902,-0.88916,0.231445,0
46050,0.279297,-0.882324,0.233398,0
46070,0.290527,-0.894531,0.230957,0
46090,0.294922,-0.907715,0.222656,0
46110,0.286133,-0.912598,0.217773,0
46130,0.281738,-0.891113,0.213379,0
46150,0.296387,-0.898438,0.225098,0
46170,0.306641,-0.899902,0.240234,0
46190,0.324219,-0.901855,0.226074,0
46210,0.312012,-0.893066,0.198242,0
46230,0.301758,-0.876953,0.189941,0
46250,0.316895,-0.88916,0.206055,0
46270,0.328125,-0.890625,0.223633,0
46290,0.313477,-0.883789,0.224121,0
46310,0.30127,-0.881348,0.220215,0
46320,0.317871,-0.884277,0.21582,0
46340,0.355957,-0.898438,0.21582,0
46360,0.370605,-0.891602,0.20752,0
46380,0.349121,-0.88916,0.20459,0
46400,0.357422,-0.882812,0.22168,0
46420,0.379883,-0.885254,0.233887,0
46440,0.376465,-0.897949,0.230957,0
46460,0.376465,-0.890625,0.211426,0
46480,0.371582,-0.887695,0.19873,0
46500,0.356934,-0.879395,0.208984,0
46520,0.358887,-0.885742,0.21875,0
46540,0.362305,-0.889648,0.223633,0
46560,0.350586,-0.883301,0.202148,0
46580,0.374023,-0.870117,0.194824,0
46600,0.413574,-0.864746,0.214844,0
46620,0.427734,-0.872559,0.22998,0
46640,0.413574,-0.89209,0.201172,0
46660,0.408691,-0.884766,0.166016,0
46680,0.447266,-0.878906,0.176758,0
46700,0.425781,-0.87793,0.195801,0
46720,0.42334,-0.859375,0.189941,0
46740,0.411621,-0.875977,0.167969,0
46760,0.420898,-0.883789,0.166992,0
46780,0.43457,-0.866699,0.193359,0
46800,0.435059,-0.857422,0.197266,0
46820,0.452148,-0.847168,0.177246,0
46840,0.440918,-0.840332,0.177246,0
46860,0.461914,-0.845703,0.172363,0
46880,0.472168,-0.841797,0.190918,0
46900,0.466309,-0.862793,0.182617,0
46920,0.427734,-0.881348,0.169434,0
46940,0.446777,-0.855957,0.164551,0
46960,0.47168,-0.850098,0.175293,0
46980,0.467285,-0.836426,0.17334,0
47000,0.453125,-0.834473,0.169434,0
47020,0.467773,-0.851074,0.164551,0
47040,0.468262,-0.840332,0.168457,0
47060,0.493164,-0.811523,0.167969,0
47080,0.506348,-0.819824,0.185059,0
47100,0.504883,-0.818848,0.17041,0
47120,0.525391,-0.800781,0.148438,0
47140,0.534668,-0.786133,0.140625,0
47160,0.546387,-0.784668,0.155762,0
47180,0.547363,-0.779297,0.148926,0
47200,0.573242,-0.756348,0.13623,0
47220,0.573242,-0.770996,0.15332,0
47240,0.572754,-0.772949,0.152832,0
47260,0.586426,-0.768555,0.127441,0
47280,0.553711,-0.848145,0.121094,0
47300,0.543945,-0.771484,0.135254,0
47320,0.54834,-0.770508,0.143555,0
47340,0.567871,-0.765137,0.163086,0
47360,0.581543,-0.770996,0.159668,0
47380,0.603516,-0.772461,0.164551,0
47400,0.602539,-0.77002,0.149902,0
47420,0.608398,-0.770508,0.140625,0
47440,0.605957,-0.774414,0.141602,0
47460,0.598633,-0.762695,0.137695,0
47480,0.587402,-0.76416,0.136719,0
47500,0.589844,-0.744629,0.118164,0
47520,0.595703,-0.758789,0.121582,0
47540,0.605469,-0.754883,0.108398,0
47560,0.612793,-0.744141,0.116699,0
47580,0.619629,-0.741211,0.117676,0
47600,0.61084,-0.731445,0.122559,0
47620,0.619141,-0.720703,0.120605,0
47640,0.641113,-0.711914,0.132324,0
47660,0.643066,-0.708984,0.13623,0
47680,0.654297,-0.700195,0.145996,0
47700,0.65332,-0.704102,0.143066,0
47720,0.661133,-0.702637,0.147461,0
47740,0.663086,-0.703613,0.157715,0
47760,0.647949,-0.694336,0.153809,0
47780,0.660156,-0.699707,0.142578,0
47800,0.690918,-0.712891,0.146973,0
47820,0.599121,-0.703125,0.169922,0
47840,0.602539,-0.723145,0.178711,0
47860,0.60498,-0.713867,0.165039,0
47880,0.621582,-0.709961,0.17627,0
47900,0.631836,-0.722656,0.186035,0
47920,0.638672,-0.723145,0.181152,0
47940,0.633789,-0.71582,0.163086,0
47960,0.580566,-0.73291,0.168945,0
47980,0.591309,-0.744141,0.167969,0
48000,0.569336,-0.732422,0.192871,0
48020,0.58252,-0.727051,0.189453,0
48040,0.588379,-0.750488,0.186035,0
48060,0.594727,-0.720703,0.165527,0
48080,0.600586,-0.747559,0.183105,0
48100,0.591309,-0.753906,0.189941,0
48120,0.598145,-0.756348,0.17627,0
48140,0.59375,-0.733398,0.178223,0
48160,0.628418,-0.73877,0.192383,0
48180,0.619141,-0.756836,0.189453,0
48200,0.594727,-0.76123,0.204102,0
48220,0.616211,-0.72998,0.191895,0
48240,0.608887,-0.734375,0.178223,0
48260,0.61084,-0.763672,0.191895,0
48280,0.61084,-0.748535,0.204102,0
48290,0.596191,-0.760742,0.181641,0
48310,0.569824,-0.768066,0.19043,0
48330,0.575195,-0.769043,0.207031,0
48350,0.575195,-0.739746,0.204102,0
48370,0.590332,-0.75,0.209961,0
48390,0.565918,-0.755859,0.195312,0
48410,0.564941,-0.753906,0.19873,0
48430,0.553223,-0.76416,0.227539,0
48450,0.544922,-0.778809,0.236328,0
48470,0.541016,-0.783203,0.234863,0
48490,0.552246,-0.783691,0.217773,0
48510,0.569336,-0.773438,0.222656,0
48530,0.560547,-0.759766,0.23584,0
48550,0.543945,-0.756348,0.24707,0
48570,0.492676,-0.825684,0.244629,0
48590,0.479492,-0.819336,0.219727,0
48610,0.498047,-0.796875,0.200684,0
48630,0.485352,-0.799316,0.25293,0
48650,0.461914,-0.799805,0.27832,0
48670,0.421387,-0.816895,0.269531,0
48690,0.437988,-0.811523,0.255859,0
48710,0.434082,-0.819824,0.26709,0
48730,0.416992,-0.838379,0.268066,0
48750,0.432617,-0.833008,0.245605,0
48770,0.458984,-0.807129,0.249512,0
48790,0.46875,-0.802734,0.253418,0
48810,0.444336,-0.819336,0.275391,0
48820,0.414062,-0.849609,0.26709,0
48830,0.439453,-0.845703,0.257812,0
48850,0.458496,-0.835938,0.258789,0
48870,0.433105,-0.813965,0.259277,0
48890,0.424805,-0.808105,0.246582,0
48910,0.416016,-0.820801,0.24707,0
48930,0.416016,-0.814453,0.262207,0
48950,0.393555,-0.822754,0.26709,0
48970,0.414551,-0.829102,0.246582,0
48990,0.408691,-0.807617,0.265137,0
49010,0.38916,-0.825684,0.258789,0
49030,0.413574,-0.835938,0.271973,0
49050,0.432129,-0.858398,0.263184,0
49070,0.437012,-0.84375,0.254395,0
49090,0.429688,-0.840332,0.25293,0
49110,0.443848,-0.840332,0.257812,0
49130,0.435059,-0.848633,0.24707,0
49150,0.432617,-0.844727,0.249512,0
49170,0.437988,-0.834961,0.224609,0
49190,0.451172,-0.850098,0.214355,0
49210,0.445312,-0.859375,0.257812,0
49230,0.429199,-0.834961,0.255859,0
49250,0.402832,-0.834961,0.254395,0
49270,0.402344,-0.833496,0.251953,0
49290,0.383789,-0.835938,0.243164,0
49310,0.387207,-0.838867,0.243164,0
49330,0.37793,-0.830566,0.254883,0
49350,0.365234,-0.839844,0.251465,0
49370,0.344238,-0.82959,0.261719,0
49390,0.347656,-0.82666,0.250488,0
49410,0.344238,-0.851562,0.256836,0
49430,0.357422,-0.859375,0.26416,0
49450,0.344238,-0.861816,0.254883,0
49470,0.364258,-0.845215,0.229492,0
49490,0.383789,-0.86377,0.216797,0
49510,0.376465,-0.874512,0.242676,0
49530,0.351074,-0.881836,0.248535,0
49550,0.373047,-0.883789,0.228516,0
49570,0.380371,-0.882324,0.228027,0
49590,0.362793,-0.879395,0.242188,0
49610,0.363281,-0.876953,0.258301,0
49630,0.381836,-0.869629,0.242188,0
49650,0.390625,-0.871582,0.202148,0
49670,0.373047,-0.86084,0.210449,0
49690,0.374023,-0.86084,0.216309,0
49710,0.389648,-0.86084,0.216797,0
49730,0.381348,-0.872559,0.202148,0
49750,0.382812,-0.859375,0.200195,0
49770,0.395996,-0.839355,0.193848,0
49790,0.381348,-0.847656,0.18457,0
49810,0.388184,-0.858398,0.193848,0
49830,0.391113,-0.855469,0.193359,0
49850,0.399414,-0.867188,0.20752,0
49870,0.379395,-0.856934,0.186035,0
49890,0.352051,-0.841309,0.166504,0
49910,0.395996,-0.850098,0.168945,0
49930,0.422852,-0.86377,0.180176,0
49950,0.39502,-0.864258,0.168945,0
49970,0.38623,-0.869629,0.157227,0
49990,0.382812,-0.862305,0.163574,0
50010,0.398438,-0.855957,0.154297,0
50030,0.374023,-0.854492,0.161133,0
50050,0.38916,-0.86377,0.146484,0
50070,0.428223,-0.866211,0.158691,0
50090,0.464355,-0.866699,0.157227,0
50110,0.462402,-0.892578,0.147949,0
50130,0.449707,-0.890137,0.126953,0
50150,0.447754,-0.82373,0.145996,0
50170,0.472656,-0.853027,0.125488,0
50190,0.472168,-0.873535,0.119141,0
50210,0.461426,-0.861328,0.114746,0
50230,0.446777,-0.834961,0.110352,0
50250,0.457031,-0.824707,0.120117,0
50270,0.452637,-0.838379,0.14502,0
50290,0.460449,-0.828125,0.144531,0
50310,0.479004,-0.831055,0.10498,0
50330,0.487305,-0.829102,0.097168,0
50350,0.480957,-0.826172,0.11377,0
50370,0.472656,-0.820801,0.111816,0
50390,0.480957,-0.813965,0.0981445,0
50410,0.468262,-0.838867,0.0952148,0
50430,0.46875,-0.827148,0.097168,0
50450,0.496094,-0.828125,0.0986328,0
50470,0.511719,-0.827148,0.0991211,0
50490,0.498535,-0.819824,0.0996094,0
50510,0.520508,-0.812012,0.0922852,0
50530,0.544434,-0.825195,0.0888672,0
50550,0.538574,-0.830078,0.0810547,0
50570,0.515137,-0.838867,0.0634766,0
50590,0.514648,-0.834961,0.0830078,0
50610,0.530273,-0.833496,0.103027,0
50630,0.529297,-0.82373,0.0991211,0
50650,0.526367,-0.793457,0.0776367,0
50670,0.547363,-0.811523,0.0786133,0
50690,0.56543,-0.817871,0.0893555,0
50710,0.556641,-0.814941,0.0805664,0
50730,0.554199,-0.818848,0.0732422,0
50750,0.582031,-0.814941,0.0668945,0
50770,0.575684,-0.782227,0.103027,0
50790,0.568359,-0.796875,0.0952148,0
50810,0.599121,-0.79834,0.0732422,0
50830,0.603516,-0.812012,0.0639648,0
50850,0.595215,-0.794434,0.0859375,0
50870,0.584473,-0.783203,0.0693359,0
50890,0.606934,-0.776367,0.0839844,0
50910,0.614258,-0.760254,0.0917969,0
50930,0.611816,-0.774902,0.0883789,0
50950,0.611816,-0.759766,0.0678711,0
50970,0.602539,-0.779297,0.0776367,0
50990,0.647461,-0.767578,0.0917969,0
51010,0.661133,-0.741211,0.102539,0
51030,0.645508,-0.729004,0.0834961,0
51050,0.634277,-0.753418,0.0810547,0
51070,0.636719,-0.729492,0.0839844,0
51090,0.64502,-0.737305,0.116699,0
51110,0.62793,-0.727539,0.116211,0
51130,0.629883,-0.723145,0.101074,0
51150,0.624023,-0.711426,0.0947266,0
51170,0.634277,-0.687988,0.0776367,0
51190,0.658203,-0.702148,0.120117,0
51210,0.654297,-0.70166,0.126953,0
51230,0.674805,-0.688965,0.111328,0
51250,0.675781,-0.682617,0.110352,0
51270,0.701172,-0.680176,0.128906,0
51290,0.709961,-0.674805,0.125488,0
51310,0.720215,-0.675781,0.104004,0
51330,0.708496,-0.686523,0.0986328,0
51350,0.696777,-0.668945,0.120605,0
51370,0.70166,-0.661621,0.137207,0
51390,0.700684,-0.658691,0.120117,0
51410,0.690918,-0.663086,0.117676,0
51430,0.692871,-0.649414,0.137207,0
51450,0.705078,-0.657227,0.151367,0
51470,0.696289,-0.646484,0.148438,0
51490,0.70752,-0.652832,0.130859,0
51510,0.711914,-0.631348,0.143066,0
51530,0.729492,-0.632324,0.144531,0
51550,0.729492,-0.635742,0.146973,0
51570,0.730469,-0.633301,0.125977,0
51590,0.734863,-0.628418,0.123535,0
51610,0.722168,-0.62207,0.138184,0
51630,0.728516,-0.615723,0.147461,0
51650,0.720703,-0.614258,0.148438,0
51670,0.731934,-0.60791,0.144531,0
51690,0.740723,-0.606445,0.154785,0
51700,0.740234,-0.614746,0.150879,0
51720,0.760254,-0.61377,0.158691,0
51740,0.764648,-0.587402,0.156738,0
51760,0.757812,-0.602539,0.166992,0
51780,0.757324,-0.622559,0.15918,0
51800,0.76709,-0.619141,0.156738,0
51820,0.740723,-0.619629,0.165527,0
51840,0.713379,-0.609863,0.185059,0
51860,0.724609,-0.605469,0.162109,0
51880,0.732422,-0.572266,0.16748,0
51900,0.723633,-0.608887,0.171875,0
51920,0.678711,-0.626465,0.17041,0
51940,0.663086,-0.645996,0.191406,0
51960,0.694336,-0.640137,0.195801,0
51980,0.70166,-0.623047,0.197266,0
52000,0.720703,-0.621094,0.17627,0
52020,0.723145,-0.631348,0.174805,0
52040,0.710938,-0.629395,0.183105,0
52060,0.71875,-0.655273,0.182129,0
52080,0.714844,-0.674805,0.188965,0
52100,0.713867,-0.665039,0.181152,0
52120,0.720703,-0.647949,0.16748,0
52140,0.722656,-0.648926,0.183105,0
52160,0.702148,-0.657715,0.169922,0
52180,0.686523,-0.673828,0.194336,0
52200,0.693359,-0.660645,0.200684,0
52220,0.695312,-0.66748,0.193848,0
52240,0.677246,-0.674316,0.195312,0
52260,0.67041,-0.668457,0.206543,0
52280,0.655273,-0.664551,0.194336,0
52300,0.623047,-0.672852,0.206543,0
52320,0.620117,-0.661621,0.208984,0
52340,0.619629,-0.656738,0.212891,0
52360,0.609375,-0.674316,0.230469,0
52380,0.605957,-0.672852,0.223145,0
52400,0.621094,-0.668945,0.197754,0
52420,0.618164,-0.676758,0.197266,0
52440,0.615234,-0.676758,0.21875,0
52460,0.61084,-0.6875,0.201172,0
52480,0.607422,-0.682129,0.205078,0
52500,0.619141,-0.68457,0.199707,0
52520,0.611816,-0.691895,0.206543,0
52540,0.621582,-0.709961,0.209473,0
52560,0.638672,-0.710449,0.221191,0
52580,0.63623,-0.724121,0.216309,0
52600,0.626953,-0.733887,0.222656,0
52620,0.62793,-0.73291,0.216309,0
52640,0.618652,-0.738281,0.21875,0
52660,0.624512,-0.731934,0.202148,0
52680,0.622559,-0.743652,0.212402,0
52700,0.631348,-0.742676,0.236816,0
52720,0.602539,-0.743652,0.214355,0
52740,0.601562,-0.757324,0.217773,0
52760,0.590332,-0.75293,0.219727,0
52780,0.587891,-0.741699,0.210938,0
52800,0.58252,-0.740723,0.197754,0
52820,0.591797,-0.737793,0.201172,0
52840,0.595215,-0.734375,0.223633,0
52860,0.581543,-0.739258,0.212891,0
52880,0.572754,-0.745117,0.181641,0
52900,0.564941,-0.758301,0.163574,0
52920,0.554199,-0.739746,0.17627,0
52940,0.566895,-0.73291,0.164551,0
52960,0.563965,-0.74707,0.160645,0
52980,0.533203,-0.759277,0.149414,0
53000,0.543945,-0.764648,0.12793,0
53020,0.562012,-0.787598,0.131836,0
53040,0.54834,-0.780762,0.146484,0
53060,0.557129,-0.772461,0.117676,0
53080,0.561035,-0.787109,0.0932617,0
53100,0.550293,-0.789551,0.115234,0
53120,0.543945,-0.80127,0.119629,0
53140,0.520508,-0.819824,0.102051,0
53160,0.535645,-0.812988,0.0834961,0
53180,0.549316,-0.809082,0.0898438,0
53200,0.530762,-0.805176,0.106445,0
53220,0.519531,-0.815918,0.108398,0
53240,0.536621,-0.831055,0.0981445,0
53260,0.517578,-0.824707,0.090332,0
53280,0.522949,-0.81543,0.074707,0
53300,0.53125,-0.814453,0.0966797,0
53320,0.493652,-0.821289,0.097168,0
53340,0.498535,-0.831055,0.0898438,0
53360,0.524414,-0.830566,0.0786133,0
53380,0.524414,-0.812988,0.0786133,0
53400,0.508301,-0.797363,0.0649414,0
53420,0.519531,-0.802734,0.0649414,0
53440,0.539062,-0.826172,0.0625,0
53460,0.528809,-0.820312,0.0561523,0
53480,0.512207,-0.812012,0.0507812,0
53500,0.51416,-0.816895,0.0488281,0
53520,0.524902,-0.816895,0.0415039,0
53540,0.504883,-0.802246,0.050293,0
53560,0.504883,-0.791504,0.0463867,0
53580,0.504395,-0.799316,0.0224609,0
53600,0.512207,-0.80957,0.00683594,0
53620,0.525391,-0.810059,0.012207,0
53640,0.510742,-0.808105,0.0136719,0
53660,0.533203,-0.810059,0.00732422,0
53680,0.550781,-0.816406,-0.00927734,0
53690,0.54541,-0.802246,-0.0126953,0
53710,0.540039,-0.799316,-0.0136719,0
53730,0.531738,-0.796387,-0.0131836,0
53750,0.548828,-0.808594,-0.0219727,0
53770,0.568848,-0.808105,-0.0175781,0
53790,0.568848,-0.805664,-0.0161133,0
53810,0.562012,-0.807129,-0.0229492,0
53830,0.569824,-0.791992,-0.0273438,0
53850,0.577637,-0.779785,-0.0356445,0
53870,0.57959,-0.789062,-0.0415039,0
53890,0.5625,-0.784668,-0.0307617,0
53910,0.57373,-0.779297,-0.0561523,0
53930,0.598633,-0.780273,-0.078125,0
53950,0.586914,-0.76416,-0.0727539,0
53970,0.590332,-0.750977,-0.0888672,0
53990,0.633301,-0.76123,-0.0996094,0
54010,0.64209,-0.757812,-0.0869141,0
54030,0.624023,-0.757812,-0.0996094,0
54050,0.648438,-0.753906,-0.109863,0
54070,0.702637,-0.742188,-0.101074,0
54090,0.702637,-0.722656,-0.12793,0
54110,0.69043,-0.732422,-0.161621,0
54130,0.700195,-0.73291,-0.146484,0
54150,0.696777,-0.70752,-0.11377,0
54170,0.678711,-0.695801,-0.152344,0
54190,0.665527,-0.706543,-0.168945,0
54210,0.678223,-0.689941,-0.157227,0
54230,0.713379,-0.683105,-0.150879,0
54250,0.711426,-0.688477,-0.171875,0
54270,0.727051,-0.668945,-0.20459,0
54290,0.727051,-0.65332,-0.199219,0
54310,0.744629,-0.66748,-0.16748,0
54330,0.761719,-0.662109,-0.174316,0
54350,0.766113,-0.651367,-0.199219,0
54370,0.769043,-0.641113,-0.205078,0
54390,0.73877,-0.633301,-0.188477,0
54410,0.755859,-0.620605,-0.189453,0
54430,0.793945,-0.615723,-0.166992,0
54450,0.794922,-0.603027,-0.168457,0
54470,0.775879,-0.597656,-0.191406,0
54490,0.790039,-0.592285,-0.201172,0
54510,0.806152,-0.594727,-0.172363,0
54530,0.796875,-0.57666,-0.166992,0
54550,0.797852,-0.57666,-0.188965,0
54570,0.792969,-0.574707,-0.197754,0
54590,0.791504,-0.560059,-0.1875,0
54610,0.795898,-0.564453,-0.15625,0
54630,0.811035,-0.55127,-0.161133,0
54650,0.804199,-0.539551,-0.15332,0
54670,0.788086,-0.537109,-0.155762,0
54690,0.795898,-0.530762,-0.159668,0
54710,0.812988,-0.520996,-0.134766,0
54730,0.819336,-0.509277,-0.121094,0
54750,0.821289,-0.502441,-0.137695,0
54770,0.831543,-0.493652,-0.140137,0
54790,0.84082,-0.501953,-0.122559,0
54810,0.85791,-0.489746,-0.100586,0
54830,0.847168,-0.478027,-0.103516,0
54850,0.856445,-0.470215,-0.109375,0
54870,0.867676,-0.47998,-0.109375,0
54890,0.867188,-0.478027,-0.0761719,0
54910,0.858398,-0.459473,-0.0585938,0
54930,0.883301,-0.454102,-0.0859375,0
54950,0.892578,-0.453125,-0.0961914,0
54970,0.875977,-0.449219,-0.0874023,0
54990,0.855957,-0.465332,-0.0566406,0
55010,0.850586,-0.458984,-0.046875,0
55030,0.858887,-0.4375,-0.0483398,0
55050,0.871582,-0.444336,-0.0395508,0
55070,0.857422,-0.463867,-0.00683594,0
55090,0.837891,-0.475098,-0.000488281,0
55110,0.836426,-0.478516,0,0
55130,0.844727,-0.472168,0.0258789,0
55150,0.855469,-0.475586,0.0307617,0
55170,0.845215,-0.490234,0.0175781,0
55190,0.856934,-0.491699,0.00292969,0
55210,0.858887,-0.498535,0.0341797,0
55230,0.857422,-0.518555,0.0478516,0
55250,0.864746,-0.508301,0.0546875,0
55270,0.861816,-0.49707,0.0551758,0
55290,0.872559,-0.490234,0.0527344,0
55310,0.881836,-0.483398,0.0507812,0
55330,0.858398,-0.49707,0.0302734,0
55350,0.82666,-0.523926,0.0458984,0
55370,0.798828,-0.532715,0.0717773,0
55390,0.788574,-0.548828,0.0888672,0
55410,0.80957,-0.529785,0.113281,0
55430,0.828125,-0.523926,0.103516,0
55450,0.813477,-0.533691,0.120117,0
55470,0.770996,-0.589844,0.14209,0
55490,0.76416,-0.597168,0.140625,0
55510,0.776367,-0.590332,0.145508,0
55530,0.780762,-0.591797,0.174805,0
55550,0.765137,-0.570312,0.18457,0
55570,0.76123,-0.546387,0.180664,0
55590,0.768555,-0.572266,0.15625,0
55610,0.740234,-0.607422,0.168945,0
55630,0.736816,-0.594727,0.186035,0
55650,0.758789,-0.578125,0.180176,0
55670,0.768555,-0.575684,0.202148,0
55690,0.741699,-0.609375,0.17627,0
55710,0.730469,-0.598145,0.183594,0
55730,0.733887,-0.597656,0.170898,0
55750,0.735352,-0.610352,0.177246,0
55770,0.708008,-0.618652,0.174805,0
55790,0.687988,-0.619629,0.159668,0
55810,0.708008,-0.630859,0.157715,0
55830,0.708496,-0.651367,0.176758,0
55850,0.705078,-0.651855,0.161133,0
55870,0.70166,-0.666992,0.151367,0
55890,0.685059,-0.655273,0.140137,0
55910,0.664062,-0.658203,0.156738,0
55930,0.626953,-0.678711,0.157227,0
55950,0.651855,-0.675781,0.175293,0
55970,0.65625,-0.680176,0.158691,0
55990,0.652832,-0.670898,0.171387,0
56010,0.64209,-0.687988,0.162109,0
56030,0.652832,-0.706543,0.159668,0
56050,0.648926,-0.70752,0.154785,0
56070,0.643066,-0.702637,0.162598,0
56090,0.634766,-0.70166,0.158691,0
56110,0.624512,-0.703125,0.177734,0
56130,0.631836,-0.693848,0.168945,0
56150,0.656738,-0.713379,0.172363,0
56170,0.654785,-0.725586,0.171875,0
56190,0.612305,-0.71875,0.201172,0
56210,0.604004,-0.738281,0.17627,0
56230,0.617676,-0.740234,0.164062,0
56250,0.610352,-0.739258,0.19043,0
56270,0.583008,-0.738281,0.190918,0
56290,0.594727,-0.73584,0.189453,0
56310,0.560547,-0.768066,0.166992,0
56330,0.532227,-0.756836,0.175781,0
56350,0.549316,-0.728027,0.166504,0
56370,0.568848,-0.733887,0.169434,0
56390,0.557617,-0.747559,0.164551,0
56410,0.53418,-0.751953,0.155762,0
56430,0.510742,-0.756836,0.162109,0
56450,0.531738,-0.76709,0.154297,0
56470,0.571289,-0.758301,0.161621,0
56490,0.567383,-0.762695,0.15332,0
56510,0.57666,-0.742188,0.13916,0
56530,0.55957,-0.775391,0.130371,0
56550,0.541992,-0.798828,0.144531,0
56570,0.569336,-0.783691,0.125977,0
56590,0.593262,-0.786133,0.141113,0
56610,0.569336,-0.788574,0.157715,0
56630,0.553223,-0.791992,0.129395,0
56650,0.598145,-0.792969,0.135742,0
56670,0.594727,-0.789551,0.135254,0
56690,0.559082,-0.813477,0.12207,0
56710,0.53125,-0.802734,0.104004,0
56730,0.525391,-0.807617,0.10498,0
56750,0.516602,-0.807129,0.103516,0
56770,0.500488,-0.817383,0.106445,0
56790,0.518066,-0.802734,0.109375,0
56810,0.525391,-0.79248,0.122559,0
56830,0.503906,-0.806641,0.0981445,0
56850,0.494629,-0.827637,0.0996094,0
56870,0.509277,-0.825684,0.105469,0
56890,0.494141,-0.811035,0.100098,0
56910,0.481934,-0.783203,0.090332,0
56930,0.465332,-0.784668,0.0839844,0
56950,0.477051,-0.814941,0.0952148,0
56970,0.455566,-0.805176,0.0849609,0
56990,0.428711,-0.786133,0.0639648,0
57010,0.443359,-0.774902,0.0439453,0
57030,0.51416,-0.788574,0.0712891,0
57050,0.522461,-0.806152,0.0625,0
57070,0.496582,-0.809082,0.0317383,0
57090,0.499023,-0.796387,0.00927734,0
57110,0.516602,-0.780762,0.0415039,0
57130,0.580566,-0.805664,0.043457,0
57140,0.60498,-0.811035,0.0146484,0
57160,0.564941,-0.786133,-0.00683594,0
57180,0.549805,-0.786621,-0.0249023,0
57200,0.564941,-0.812012,-0.00830078,0
57220,0.584473,-0.817383,-0.00585938,0
57240,0.596191,-0.762695,-0.00195312,0
57260,0.607422,-0.740234,-0.0283203,0
57280,0.57959,-0.752441,-0.0288086,0
57300,0.575684,-0.775391,-0.0341797,0
57320,0.632324,-0.796875,-0.0708008,0
57340,0.651855,-0.782227,-0.0786133,0
57360,0.631836,-0.745117,-0.0761719,0
57380,0.626465,-0.714844,-0.0859375,0
57400,0.658691,-0.744629,-0.128418,0
57420,0.642578,-0.771484,-0.0981445,0
57440,0.634277,-0.737305,-0.097168,0
57460,0.660156,-0.709961,-0.143066,0
57480,0.681152,-0.708984,-0.158203,0
57500,0.677734,-0.696289,-0.158203,0
57520,0.678223,-0.695801,-0.166016,0
57540,0.700684,-0.677246,-0.151855,0
57560,0.703613,-0.690918,-0.165527,0
57580,0.71875,-0.67627,-0.183594,0
57600,0.733398,-0.666504,-0.190918,0
57620,0.761719,-0.650391,-0.208496,0
57640,0.765137,-0.652832,-0.197266,0
57660,0.750488,-0.632812,-0.205566,0
57680,0.789551,-0.609863,-0.240723,0
57700,0.793457,-0.627441,-0.234863,0
57720,0.782715,-0.612793,-0.219727,0
57740,0.779785,-0.595703,-0.226562,0
57760,0.791504,-0.578613,-0.262207,0
57780,0.818848,-0.558105,-0.266602,0
57800,0.829102,-0.541504,-0.273926,0
57820,0.828125,-0.560547,-0.29541,0
57840,0.82959,-0.559082,-0.285156,0
57860,0.84668,-0.54541,-0.280762,0
57880,0.874023,-0.544922,-0.291016,0
57900,0.869629,-0.52832,-0.293457,0
57920,0.864258,-0.519531,-0.283691,0
57940,0.864746,-0.496094,-0.296875,0
57960,0.881348,-0.495605,-0.307617,0
57980,0.890137,-0.508301,-0.312012,0
58000,0.847656,-0.463379,-0.309082,2001
58020,0.798828,-0.473145,-0.256836,0
58040,0.819336,-0.517578,-0.276855,0
58060,0.807129,-0.508301,-0.251465,0
58080,0.793457,-0.48584,-0.249023,0
58100,0.786133,-0.477539,-0.259766,0
58120,0.783691,-0.499023,-0.282227,0
58140,0.789551,-0.527344,-0.264648,0
58160,0.769043,-0.527344,-0.245605,0
58180,0.741699,-0.510254,-0.258301,0
58200,0.714844,-0.509766,-0.26416,0
58220,0.696289,-0.501465,-0.280762,0
58240,0.691406,-0.530273,-0.273926,0
58260,0.711914,-0.544434,-0.255859,0
58280,0.723145,-0.524414,-0.231934,0
58300,0.72998,-0.515625,-0.258301,0
58320,0.733887,-0.503418,-0.257324,0
58340,0.737793,-0.530273,-0.27002,0
58360,0.708008,-0.546387,-0.27002,0
58380,0.668457,-0.56543,-0.255371,0
58400,0.677246,-0.566895,-0.257812,0
58420,0.705566,-0.570312,-0.249023,0
58440,0.713379,-0.563477,-0.228516,0
58460,0.703125,-0.551758,-0.23877,0
58480,0.6875,-0.564453,-0.266602,0
58500,0.682617,-0.58252,-0.243164,0
58520,0.699707,-0.58252,-0.212891,0
58540,0.67041,-0.569824,-0.205078,0
58580,0.678711,-0.582031,-0.259277,0
58630,0.693359,-0.65332,-0.128906,0
58650,0.730469,-0.683105,-0.0776367,0
58670,0.733398,-0.71582,-0.0830078,0
58690,0.719727,-0.711426,-0.0888672,0
58710,0.704102,-0.708008,-0.106445,0
58720,0.717285,-0.805664,-0.0170898,0
58740,0.692383,-0.819824,-0.0249023,0
58780,0.647461,-0.859863,-0.00585938,0
58800,0.634766,-0.856445,0.0170898,0
58820,0.626465,-0.913574,0.0424805,0
58840,0.63916,-0.902344,0.0717773,0
58860,0.608398,-0.907715,0.0786133,0
58880,0.59082,-0.951172,0.0668945,0
58900,0.564941,-0.964844,0.0966797,0
58920,0.508789,-0.98291,0.123047,0
58940,0.46582,-0.992676,0.149902,0
58960,0.422852,-0.964844,0.15918,0
58980,0.390137,-0.961426,0.133301,0
59000,0.353516,-0.951172,0.149414,0
59020,0.342773,-0.94873,0.172852,0
59040,0.313477,-0.962402,0.168457,0
59050,0.307129,-0.944336,0.172852,0
59070,0.294922,-0.953613,0.174316,0
59090,0.266602,-0.927734,0.18457,0
59110,0.264648,-0.92627,0.171875,0
59130,0.260254,-0.938965,0.167969,0
59150,0.261719,-0.940918,0.180664,0
59170,0.251953,-0.954102,0.16748,0
59190,0.257812,-0.961426,0.152344,0
59210,0.258301,-0.961426,0.153809,0
59230,0.251953,-0.943848,0.175781,0
59250,0.258301,-0.937012,0.171875,0
59270,0.274902,-0.941406,0.171387,0
59290,0.269531,-0.943359,0.166992,0
59310,0.245117,-0.931641,0.166992,0
59330,0.214355,-0.915039,0.179199,0
59350,0.211426,-0.928223,0.175293,2000
59370,0.23877,-0.916016,0.191895,0
59390,0.239746,-0.911621,0.16748,0
59410,0.225586,-0.916992,0.166016,0
59430,0.227539,-0.939453,0.151367,0
59450,0.228027,-0.933594,0.165527,0
59470,0.250488,-0.938477,0.182129,0
59490,0.287109,-0.921387,0.166504,0
59510,0.276855,-0.907715,0.155762,0
59530,0.28418,-0.914551,0.174805,0
59550,0.297363,-0.925293,0.160156,0
59570,0.305664,-0.91748,0.153809,0
59590,0.3125,-0.943848,0.154785,0
59610,0.308105,-0.92627,0.154785,0
59630,0.325195,-0.912109,0.138184,0
59650,0.336426,-0.931641,0.147461,0
59670,0.32373,-0.935059,0.157715,0
59690,0.314453,-0.91748,0.147949,0
59710,0.326172,-0.930664,0.133789,0
59730,0.328613,-0.921387,0.12207,0
59750,0.307617,-0.922852,0.123535,0
59770,0.29541,-0.919434,0.149902,0
59790,0.282227,-0.924805,0.151367,0
59810,0.280273,-0.917969,0.143555,0
59830,0.299316,-0.921875,0.145508,0
59850,0.308594,-0.905273,0.143066,0
59870,0.303711,-0.899902,0.138672,0
59890,0.282227,-0.923828,0.144043,0
59910,0.282715,-0.943848,0.15625,0
59930,0.29834,-0.920898,0.174805,0
59950,0.311523,-0.919922,0.163086,0
59970,0.320801,-0.913086,0.148438,0
59990,0.32666,-0.928711,0.12793,0
60010,0.330566,-0.910645,0.144043,0
60030,0.339844,-0.911133,0.149902,0
60050,0.34082,-0.927246,0.146973,0
60070,0.355957,-0.930176,0.130859,0
60090,0.359863,-0.920898,0.135254,0
60110,0.351074,-0.913086,0.15332,0
60130,0.359863,-0.919922,0.141113,0
60150,0.340332,-0.908203,0.15332,0
60170,0.344238,-0.888672,0.15332,0
60190,0.362305,-0.890137,0.154297,0
60210,0.348145,-0.911133,0.15332,0
60230,0.35498,-0.897461,0.159668,0
60250,0.365234,-0.911621,0.162109,0
60270,0.354492,-0.900391,0.16748,0
60290,0.334473,-0.907715,0.17334,0
60310,0.337402,-0.904785,0.160156,0
60330,0.333496,-0.899414,0.15332,0
60350,0.351562,-0.902832,0.161621,0
60370,0.330566,-0.899902,0.169434,0
60390,0.339355,-0.905762,0.163574,0
60410,0.339844,-0.904297,0.175293,0
60430,0.350586,-0.919922,0.171387,0
60450,0.351562,-0.895508,0.154785,0
60470,0.371582,-0.885254,0.154297,0
60490,0.380859,-0.889648,0.143555,0
60510,0.372559,-0.893066,0.157715,0
60530,0.371582,-0.880859,0.170898,0
60550,0.376465,-0.876465,0.183105,0
60570,0.399414,-0.887695,0.160645,0
60590,0.394043,-0.872559,0.146973,0
60610,0.418457,-0.871582,0.140625,0
60630,0.396973,-0.87793,0.147461,0
60640,0.410645,-0.891602,0.158203,0
60660,0.425781,-0.876465,0.150391,0
60690,0.442383,-0.891602,0.146973,0
60710,0.428711,-0.870605,0.144531,0
60730,0.463867,-0.85498,0.157715,0
60750,0.463379,-0.851074,0.172852,0
60770,0.475098,-0.850098,0.155762,0
60790,0.464355,-0.841797,0.159668,0
60810,0.476562,-0.835449,0.163574,0
60830,0.486328,-0.84668,0.16748,0
60850,0.493164,-0.846191,0.17334,0
60870,0.478027,-0.84668,0.159668,0
60890,0.492188,-0.853027,0.123535,0
60910,0.496582,-0.849121,0.111816,0
60930,0.503418,-0.842773,0.122559,0
60950,0.526367,-0.860352,0.115234,0
60970,0.507324,-0.836914,0.118164,0
60990,0.501953,-0.812012,0.123047,0
61010,0.495605,-0.814941,0.137695,0
61030,0.511719,-0.797852,0.125488,0
61050,0.496094,-0.76123,0.118164,0
61070,0.553711,-0.77832,0.114746,0
61090,0.560547,-0.759277,0.125,0
61110,0.57666,-0.754395,0.130859,0
61130,0.586914,-0.754883,0.132812,0
61150,0.598633,-0.750977,0.129395,0
61170,0.594727,-0.754395,0.125977,0
61190,0.602539,-0.757812,0.123535,0
61210,0.612305,-0.743652,0.118652,0
61230,0.605469,-0.753418,0.117676,0
61250,0.594238,-0.765625,0.132812,0
61270,0.583008,-0.76123,0.161133,0
61290,0.591797,-0.75293,0.152344,0
61310,0.592285,-0.744629,0.141602,0
61330,0.616211,-0.752441,0.136719,0
61350,0.59668,-0.740723,0.123047,0
61370,0.611328,-0.738281,0.146484,0
61390,0.601562,-0.743164,0.166016,0
61410,0.598145,-0.736328,0.178711,0
61430,0.625,-0.734863,0.169922,0
61450,0.627441,-0.724609,0.166016,0
61470,0.634277,-0.73291,0.162598,0
61490,0.622559,-0.736816,0.192871,0
61510,0.621094,-0.744629,0.189453,0
61530,0.619629,-0.731934,0.1875,0
61550,0.587891,-0.734375,0.197266,0
61570,0.590332,-0.729004,0.20166,0
61590,0.628418,-0.714355,0.197266,0
61610,0.60498,-0.70459,0.196289,0
61630,0.611328,-0.726074,0.208496,0
61650,0.602051,-0.731445,0.212891,0
61670,0.581055,-0.753906,0.196777,0
61690,0.578125,-0.765625,0.196289,0
61710,0.57666,-0.755859,0.196289,0
61730,0.54834,-0.754395,0.211426,0
61750,0.542969,-0.769043,0.20459,0
61770,0.554199,-0.777832,0.210449,0
61790,0.570312,-0.773438,0.194824,0
61810,0.555664,-0.773438,0.193848,0
61830,0.539551,-0.777832,0.20752,0
61850,0.549805,-0.766113,0.224121,0
61870,0.568848,-0.775879,0.188965,0
61890,0.547852,-0.772949,0.227051,0
61910,0.556152,-0.782227,0.215332,0
61930,0.53125,-0.788574,0.230469,0
61950,0.536133,-0.797852,0.213867,0
61970,0.538574,-0.794434,0.234375,0
61990,0.555176,-0.806641,0.242188,0
62010,0.53418,-0.843262,0.230957,0
62030,0.530273,-0.827148,0.22168,0
62050,0.516113,-0.79834,0.205566,0
62070,0.489258,-0.822266,0.207031,0
62090,0.489258,-0.810547,0.22998,0
62110,0.493652,-0.836426,0.233398,0
62130,0.458008,-0.847656,0.22998,0
62150,0.438965,-0.831543,0.214355,0
62170,0.446777,-0.825195,0.227051,0
62190,0.459473,-0.819336,0.221191,0
62210,0.462891,-0.825195,0.248535,0
62230,0.442871,-0.82666,0.266113,0
62250,0.40918,-0.845215,0.264648,0
62270,0.406738,-0.82666,0.246094,0
62290,0.424805,-0.824219,0.236328,0
62310,0.435059,-0.839355,0.252441,0
62330,0.441895,-0.824219,0.266113,0
62350,0.460449,-0.808594,0.271484,0
62370,0.447754,-0.841309,0.294922,0
62390,0.410156,-0.843262,0.258301,0
62420,0.437012,-0.819336,0.271973,0
62450,0.402344,-0.828613,0.252441,0
62460,0.407227,-0.820801,0.241699,0
62480,0.424316,-0.820801,0.253418,0
62500,0.397461,-0.833008,0.266113,0
62510,0.370117,-0.834961,0.244141,0
62530,0.382324,-0.839355,0.248047,0
62550,0.408691,-0.830566,0.260742,0
62570,0.387207,-0.82959,0.249512,0
62590,0.373047,-0.839355,0.239258,0
62610,0.393555,-0.839355,0.248047,0
62630,0.39502,-0.849609,0.23877,0
62650,0.369629,-0.841797,0.247559,0
62670,0.357422,-0.846191,0.229004,0
62690,0.363281,-0.851562,0.241699,0
62710,0.366699,-0.873047,0.251465,0
62730,0.34375,-0.879883,0.248047,0
62750,0.362793,-0.849121,0.233398,0
62770,0.391602,-0.858398,0.246582,0
62790,0.376465,-0.871582,0.242188,0
62810,0.352539,-0.876465,0.228027,0
62830,0.383301,-0.878418,0.226074,0
62850,0.388672,-0.883789,0.239746,0
62870,0.365723,-0.887695,0.216797,0
62890,0.334473,-0.860352,0.17627,0
62910,0.363281,-0.849121,0.192871,0
62930,0.353027,-0.859375,0.177734,0
62950,0.321777,-0.866211,0.1875,0
62970,0.313477,-0.882324,0.176758,0
62990,0.325684,-0.872559,0.181152,0
63010,0.354492,-0.880371,0.175293,0
63030,0.374512,-0.875488,0.164551,0
63050,0.344727,-0.888672,0.138672,0
63070,0.315918,-0.880371,0.134277,0
63090,0.314453,-0.879395,0.121582,0
63110,0.337891,-0.879883,0.14209,0
63130,0.347656,-0.908691,0.131348,0
63150,0.375,-0.912598,0.126953,0
63170,0.376953,-0.892578,0.150879,0
63190,0.381348,-0.866211,0.132324,0
63210,0.39502,-0.871582,0.126953,0
63230,0.428711,-0.868652,0.166016,0
63250,0.438477,-0.891113,0.140137,0
63270,0.422363,-0.893066,0.125977,0
63290,0.422852,-0.881836,0.0947266,0
63310,0.422363,-0.860352,0.106934,0
63330,0.446289,-0.859863,0.122559,0
63350,0.474609,-0.893066,0.0957031,0
63370,0.489258,-0.866699,0.0791016,0
63390,0.48584,-0.841797,0.0693359,0
63410,0.462402,-0.836914,0.0717773,0
63430,0.45459,-0.864258,0.0620117,0
63450,0.459473,-0.875977,0.059082,0
63470,0.475098,-0.849121,0.0668945,0
63490,0.496582,-0.827148,0.0556641,0
63510,0.502441,-0.833984,0.0405273,0
63530,0.509277,-0.830566,0.0463867,0
63550,0.498535,-0.849609,0.0595703,0
63570,0.495117,-0.87793,0.0405273,0
63590,0.498535,-0.856445,0.046875,0
63610,0.506836,-0.82373,0.0615234,0
63630,0.513184,-0.818848,0.0756836,0
63650,0.51123,-0.835449,0.0532227,0
63670,0.529297,-0.83252,0.0341797,0
63690,0.521973,-0.852539,0.0322266,0
63710,0.522461,-0.849609,0.0527344,0
63730,0.525391,-0.824707,0.0556641,0
63750,0.518066,-0.821777,0.0571289,0
63770,0.52832,-0.824219,0.0576172,0
63790,0.524902,-0.812012,0.0405273,0
63810,0.520508,-0.805664,0.0737305,0
63830,0.550293,-0.810547,0.0834961,0
63850,0.576172,-0.813477,0.0678711,0
63870,0.577637,-0.790527,0.0493164,0
63890,0.59375,-0.791504,0.0415039,0
63910,0.591309,-0.787109,0.0668945,0
63930,0.623535,-0.792969,0.0712891,0
63950,0.638672,-0.789551,0.059082,0
63970,0.649902,-0.77002,0.0361328,0
63990,0.614746,-0.760254,0.0493164,0
64010,0.645508,-0.760742,0.0561523,0
64030,0.663574,-0.74707,0.0742188,0
64050,0.668945,-0.731445,0.0678711,0
64070,0.67041,-0.729004,0.0537109,0
64090,0.652344,-0.723633,0.0512695,0
64110,0.661621,-0.716797,0.0517578,0
64130,0.685547,-0.706055,0.0693359,0
64150,0.685547,-0.693359,0.0576172,0
64170,0.671875,-0.678711,0.0727539,0
64190,0.682617,-0.690918,0.0654297,0
64210,0.67627,-0.681152,0.0776367,0
64230,0.679688,-0.662109,0.0732422,0
64250,0.696777,-0.654297,0.0722656,0
64270,0.694336,-0.635742,0.10791,0
64290,0.72168,-0.625488,0.123047,0
64310,0.726562,-0.633301,0.124023,0
64330,0.724121,-0.625488,0.118164,0
64350,0.729492,-0.633789,0.105957,0
64370,0.731445,-0.643066,0.106445,0
64390,0.739746,-0.633789,0.0966797,0
64400,0.763672,-0.630859,0.109375,0
64420,0.772949,-0.630859,0.11377,0
64440,0.778809,-0.619141,0.111816,0
64460,0.760742,-0.609375,0.116699,0
64480,0.775879,-0.610352,0.126465,0
64500,0.771484,-0.606445,0.161133,0
64520,0.76709,-0.60498,0.137207,0
64540,0.776855,-0.619629,0.12793,0
64560,0.775391,-0.593262,0.14502,0
64580,0.749512,-0.606934,0.154297,0
64600,0.740234,-0.595703,0.169922,0
64620,0.762695,-0.581055,0.168457,0
64640,0.770996,-0.589355,0.164062,0
64660,0.757812,-0.575684,0.181152,0
64680,0.741211,-0.592773,0.166016,0
64700,0.730957,-0.627441,0.174316,0
64720,0.700684,-0.606934,0.196777,0
64740,0.71875,-0.589844,0.192383,0
64760,0.74707,-0.612305,0.18457,0
64780,0.746582,-0.621094,0.169922,0
64800,0.730957,-0.627441,0.162598,0
64820,0.699707,-0.647949,0.187988,0
64840,0.708008,-0.667969,0.187988,0
64860,0.731445,-0.669434,0.161621,0
64880,0.757324,-0.643555,0.165039,0
64900,0.741699,-0.628906,0.178711,0
64920,0.717285,-0.65918,0.181641,0
64940,0.713867,-0.674805,0.181152,0
64960,0.725586,-0.646973,0.168457,0
64980,0.710938,-0.65918,0.15918,0
65000,0.681152,-0.658691,0.182617,0
65020,0.658691,-0.662109,0.174805,0
65040,0.646973,-0.663086,0.185547,0
65060,0.653809,-0.672852,0.188477,0
65080,0.658691,-0.664551,0.166016,0
65100,0.649414,-0.648926,0.173828,0
65120,0.646973,-0.643555,0.188965,0
65140,0.637695,-0.654785,0.165039,0
65160,0.634277,-0.678223,0.155273,0
65180,0.635742,-0.668945,0.164062,0
65200,0.629883,-0.674805,0.15918,0
65220,0.621582,-0.693848,0.157227,0
65240,0.647461,-0.666992,0.162109,0
65260,0.628906,-0.689453,0.165527,0
65280,0.600586,-0.715332,0.163574,0
65300,0.612305,-0.716797,0.148438,0
65320,0.63623,-0.714355,0.161621,0
65340,0.635254,-0.714355,0.169434,0
65360,0.589844,-0.737793,0.170898,0
65380,0.594727,-0.756348,0.148926,0
65400,0.620117,-0.748535,0.161133,0
65420,0.637695,-0.74707,0.151855,0
65440,0.61084,-0.748535,0.149902,0
65460,0.585938,-0.766113,0.147461,0
65480,0.587402,-0.785645,0.158203,0
65500,0.553223,-0.794922,0.154785,0
65520,0.539062,-0.789551,0.137695,0
65540,0.557617,-0.78125,0.131348,0
65560,0.549805,-0.768555,0.151367,0
65580,0.552246,-0.772461,0.172852,0
65600,0.548828,-0.805664,0.152344,0
65620,0.547363,-0.816406,0.147949,0
65640,0.553223,-0.822754,0.141602,0
65660,0.53125,-0.830566,0.146484,0
65680,0.522949,-0.814453,0.145996,0
65700,0.504883,-0.823242,0.145508,0
65720,0.505859,-0.818848,0.122559,0
65740,0.521973,-0.837402,0.137207,0
65760,0.505371,-0.82959,0.151367,0
65780,0.48584,-0.831543,0.133789,0
65800,0.488281,-0.823242,0.129883,0
65820,0.494629,-0.828125,0.131836,0
65840,0.474121,-0.841309,0.121582,0
65860,0.473633,-0.827148,0.129883,0
65880,0.472656,-0.807617,0.111328,0
65900,0.475098,-0.817871,0.116211,0
65920,0.465332,-0.818848,0.100586,0
65940,0.458496,-0.8125,0.0996094,0
65960,0.464844,-0.813477,0.0874023,0
65980,0.471191,-0.831543,0.0722656,0
66000,0.480957,-0.841797,0.0712891,0
66020,0.488281,-0.839844,0.0761719,0
66040,0.470703,-0.852539,0.0668945,0
66060,0.45752,-0.825195,0.0551758,0
66080,0.435547,-0.820801,0.0556641,0
66100,0.441895,-0.824707,0.034668,0
66120,0.453613,-0.850098,0.0195312,0
66140,0.459473,-0.837891,0.00634766,0
66160,0.445801,-0.83252,0.00488281,0
66180,0.441895,-0.847656,0.0195312,0
66200,0.462891,-0.852539,0.0141602,0
66220,0.489746,-0.87207,0.00830078,0
66240,0.482422,-0.862305,-0.00585938,0
66260,0.472168,-0.848145,-0.00439453,0
66280,0.501953,-0.857422,-0.00439453,0
66300,0.501465,-0.867188,-0.00488281,0
66320,0.493652,-0.867676,-0.0244141,0
66340,0.495117,-0.862305,-0.012207,0
66360,0.477051,-0.836914,-0.012207,0
66380,0.47998,-0.833496,-0.0214844,0
66400,0.491211,-0.833984,-0.0170898,0
66420,0.501465,-0.836426,-0.0297852,0
66440,0.50293,-0.826172,-0.0229492,0
66460,0.525391,-0.82666,-0.0498047,0
66480,0.554688,-0.84082,-0.0498047,0
66500,0.568848,-0.832031,-0.0541992,0
66520,0.567871,-0.820312,-0.0737305,0
66540,0.566406,-0.801758,-0.0830078,0
66560,0.571777,-0.802246,-0.0874023,0
66580,0.620117,-0.808594,-0.0947266,0
66600,0.621094,-0.813965,-0.103027,0
66620,0.59375,-0.783203,-0.125,0
66640,0.589355,-0.762207,-0.134766,0
66660,0.623535,-0.768555,-0.149414,0
66680,0.655762,-0.770996,-0.140137,0
66700,0.651855,-0.743164,-0.140625,0
66720,0.660156,-0.739258,-0.166016,0
66740,0.655273,-0.733398,-0.183594,0
66760,0.667969,-0.713867,-0.206543,0
66780,0.682129,-0.706543,-0.194824,0
66800,0.696289,-0.713379,-0.198242,0
66810,0.692871,-0.720703,-0.224121,0
66830,0.679688,-0.705078,-0.244141,0
66850,0.680664,-0.694824,-0.23291,0
66870,0.70166,-0.679688,-0.226562,0
66890,0.712891,-0.671875,-0.239746,0
66910,0.689941,-0.683594,-0.268066,0
66930,0.684082,-0.666992,-0.262695,0
