Timestamp, Acceleration x, Acceleration y, Acceleration z, Marker
40,-0.351074,-0.719238,0.520508,0
60,-0.351074,-0.719727,0.522461,0
80,-0.376953,-0.739258,0.514648,0
100,-0.402832,-0.733398,0.527344,0
120,-0.42041,-0.747559,0.504395,0
130,-0.431641,-0.755859,0.484375,0
130,-0.443359,-0.76123,0.46875,0
180,-0.44873,-0.74707,0.461914,0
200,-0.445801,-0.739746,0.461914,0
220,-0.444824,-0.724121,0.45752,0
240,-0.449707,-0.724609,0.458008,0
260,-0.45459,-0.717773,0.459473,0
280,-0.446777,-0.734375,0.461426,0
300,-0.445312,-0.734863,0.45459,0
320,-0.456055,-0.729004,0.467773,0
340,-0.466797,-0.75293,0.46582,0
360,-0.464844,-0.76416,0.475098,0
380,-0.473145,-0.755859,0.487305,0
400,-0.472656,-0.738281,0.48877,0
420,-0.473145,-0.728027,0.467773,0
440,-0.472168,-0.722168,0.457031,0
460,-0.473145,-0.717773,0.481934,0
480,-0.479004,-0.694336,0.486816,0
500,-0.478516,-0.69873,0.494141,0
520,-0.47168,-0.691895,0.482422,0
540,-0.441895,-0.710449,0.501953,0
560,-0.428223,-0.707031,0.511719,0
580,-0.40625,-0.663574,0.503906,0
600,-0.38916,-0.71875,0.531738,0
620,-0.38916,-0.735352,0.512207,0
640,-0.376465,-0.746094,0.521484,0
660,-0.367188,-0.717773,0.503906,0
680,-0.364746,-0.719238,0.496094,0
700,-0.384277,-0.712891,0.492676,0
720,-0.374512,-0.733398,0.527344,0
740,-0.378418,-0.716309,0.567383,0
770,-0.428711,-0.715332,0.514648,0
790,-0.45459,-0.72168,0.501953,0
830,-0.439941,-0.708496,0.519043,0
850,-0.429199,-0.691406,0.52002,0
870,-0.427734,-0.691895,0.512207,0
890,-0.426758,-0.710449,0.514648,0
910,-0.419434,-0.713379,0.52002,0
930,-0.418945,-0.719238,0.518066,0
950,-0.421875,-0.714355,0.513184,0
970,-0.429199,-0.714355,0.518066,0
980,-0.429688,-0.716309,0.519531,0
1000,-0.423828,-0.715332,0.526367,0
1020,-0.429199,-0.701172,0.521973,0
1040,-0.433105,-0.701172,0.521484,0
1060,-0.436523,-0.701172,0.521973,0
1080,-0.43457,-0.708008,0.51416,0
1100,-0.441895,-0.702148,0.510254,0
1120,-0.435059,-0.711914,0.512695,0
1140,-0.431152,-0.708008,0.517578,0
1160,-0.436035,-0.702637,0.52002,0
1180,-0.438965,-0.710449,0.521973,0
1200,-0.435547,-0.707031,0.523438,0
1220,-0.439453,-0.707031,0.522949,0
1240,-0.441895,-0.706055,0.512695,0
1260,-0.442871,-0.711426,0.508301,0
1280,-0.44043,-0.710938,0.516602,0
1300,-0.442383,-0.704102,0.512695,0
1320,-0.441406,-0.707031,0.512695,0
1340,-0.439941,-0.703613,0.514648,0
1360,-0.436523,-0.701172,0.510254,0
1380,-0.431641,-0.704102,0.519043,0
1400,-0.442871,-0.705078,0.518555,0
1420,-0.439941,-0.697266,0.516602,0
1440,-0.427734,-0.697754,0.515625,0
1460,-0.418457,-0.707031,0.514648,0
1480,-0.411621,-0.716309,0.512207,0
1500,-0.420898,-0.708008,0.521973,0
1520,-0.42334,-0.708496,0.520996,0
1540,-0.437988,-0.713867,0.512695,0
1560,-0.445801,-0.702148,0.498535,0
1580,-0.452148,-0.694336,0.499512,0
1600,-0.435547,-0.696777,0.489746,0
1620,-0.431152,-0.699219,0.511719,0
1640,-0.426758,-0.688477,0.506836,0
1660,-0.414062,-0.6875,0.505371,0
1680,-0.392578,-0.675293,0.525879,0
1700,-0.400879,-0.669434,0.551758,0
1720,-0.417969,-0.665527,0.55127,0
1740,-0.422363,-0.679688,0.544922,0
1760,-0.421875,-0.701172,0.547363,0
1780,-0.418457,-0.692383,0.564453,0
1800,-0.431152,-0.691895,0.558105,0
1820,-0.420898,-0.677246,0.560059,0
1840,-0.40625,-0.677246,0.584473,0
1860,-0.398438,-0.647461,0.590332,0
1880,-0.370605,-0.634766,0.594727,0
1900,-0.355957,-0.627441,0.605957,0
1920,-0.366699,-0.62207,0.631348,0
1940,-0.381348,-0.615234,0.620605,0
1960,-0.407227,-0.624512,0.60791,0
1980,-0.392578,-0.608887,0.618164,0
2000,-0.393555,-0.586914,0.654297,0
2020,-0.391113,-0.553223,0.641602,0
2040,-0.390625,-0.57959,0.664062,0
2060,-0.423828,-0.565918,0.689453,0
2080,-0.419434,-0.524414,0.720703,0
2100,-0.410156,-0.524902,0.72998,0
2120,-0.385742,-0.525391,0.681641,0
2140,-0.362793,-0.534668,0.677734,0
2160,-0.388184,-0.517578,0.681152,0
2180,-0.416016,-0.522949,0.6875,0
2200,-0.376465,-0.459473,0.739746,0
2220,-0.319824,-0.407227,0.819824,0
2240,-0.291992,-0.40918,0.851074,0
2260,-0.290527,-0.372559,0.863281,0
2280,-0.299316,-0.359375,0.875488,0
2300,-0.280762,-0.344238,0.858398,0
2320,-0.288574,-0.381348,0.86377,0
2340,-0.280762,-0.337402,0.841797,0
2360,-0.29248,-0.348633,0.835938,0
2380,-0.296875,-0.350586,0.826172,0
2400,-0.304199,-0.372559,0.811035,0
2420,-0.311035,-0.369141,0.805176,0
2440,-0.313965,-0.366211,0.80957,0
2460,-0.30957,-0.36377,0.813965,0
2480,-0.311523,-0.366699,0.817871,0
2500,-0.303711,-0.365723,0.830078,0
2520,-0.301758,-0.356445,0.832031,0
2540,-0.298828,-0.357422,0.838867,0
2560,-0.299805,-0.351074,0.824707,0
2580,-0.297363,-0.352539,0.829102,0
2600,-0.297852,-0.353027,0.821777,0
2620,-0.29834,-0.354004,0.817871,0
2640,-0.29541,-0.351562,0.81543,0
2660,-0.301758,-0.362305,0.8125,0
2680,-0.307129,-0.356445,0.823242,0
2700,-0.307617,-0.343262,0.810059,0
2720,-0.3125,-0.359375,0.815918,0
2740,-0.31543,-0.364746,0.814941,0
2760,-0.317383,-0.367188,0.814453,0
2780,-0.318359,-0.368164,0.81543,0
2800,-0.318359,-0.374512,0.814453,0
2820,-0.314941,-0.368652,0.819336,0
2840,-0.312012,-0.356934,0.821777,0
2860,-0.312988,-0.354004,0.816406,0
2880,-0.304688,-0.362793,0.807129,0
2900,-0.297363,-0.354492,0.81543,0
2920,-0.292969,-0.359375,0.818848,0
2940,-0.299316,-0.362793,0.813477,0
2960,-0.300293,-0.358887,0.821777,0
2980,-0.30127,-0.347656,0.82373,0
3000,-0.309082,-0.350098,0.822754,0
3020,-0.306641,-0.352051,0.825684,0
3040,-0.311523,-0.351074,0.822266,0
3060,-0.308105,-0.353027,0.819336,0
3080,-0.310059,-0.355957,0.819824,0
3100,-0.306641,-0.355957,0.82373,0
3120,-0.304688,-0.35498,0.818848,0
3140,-0.303223,-0.349121,0.820312,0
3160,-0.311523,-0.36084,0.818359,0
3180,-0.306641,-0.348633,0.816406,0
3200,-0.300781,-0.345215,0.813477,0
3220,-0.299316,-0.355957,0.821777,0
3240,-0.306152,-0.355957,0.833008,0
3260,-0.307129,-0.349609,0.831543,0
3280,-0.298828,-0.351074,0.824219,0
3300,-0.291504,-0.354492,0.817383,0
3320,-0.296875,-0.360352,0.815918,0
3340,-0.296387,-0.352051,0.822266,0
3360,-0.290039,-0.352051,0.820312,0
3380,-0.292969,-0.349121,0.817383,0
3400,-0.29248,-0.354004,0.830566,0
3420,-0.304199,-0.340332,0.837891,0
3440,-0.297363,-0.334473,0.826172,0
3460,-0.295898,-0.337402,0.825195,0
3480,-0.29834,-0.34375,0.817383,0
3500,-0.291504,-0.348633,0.809082,0
3520,-0.285156,-0.357422,0.78125,0
3540,-0.297363,-0.354004,0.794434,0
3560,-0.335938,-0.329102,0.834473,0
3580,-0.328613,-0.326172,0.826172,0
3600,-0.265625,-0.328125,0.820312,0
3620,-0.208008,-0.315918,0.85498,0
3640,-0.166016,-0.298828,0.909668,0
3660,-0.205566,-0.241211,0.912109,0
3680,-0.237793,-0.195312,0.916504,0
3690,-0.233887,-0.15332,0.899902,0
3710,-0.254883,-0.141113,0.905273,0
3730,-0.246582,-0.153809,0.916016,0
3750,-0.273926,-0.149414,0.911621,0
3770,-0.263184,-0.157227,0.902344,0
3790,-0.242676,-0.163086,0.885254,0
3810,-0.239258,-0.172852,0.867676,0
3830,-0.239258,-0.205078,0.864746,0
3850,-0.230957,-0.21582,0.882324,0
3870,-0.233887,-0.217285,0.889648,0
3890,-0.253418,-0.210938,0.898438,0
3910,-0.260254,-0.200195,0.881836,0
3930,-0.250977,-0.196777,0.872559,0
3950,-0.255859,-0.194336,0.880371,0
3970,-0.252441,-0.192871,0.887207,0
3990,-0.242188,-0.18457,0.881836,0
4010,-0.245605,-0.190918,0.891602,0
4030,-0.239746,-0.190918,0.888672,0
4050,-0.239746,-0.190918,0.878418,0
4070,-0.239258,-0.200195,0.873047,0
4090,-0.23291,-0.192871,0.881836,0
4110,-0.236328,-0.191406,0.891602,0
4130,-0.249512,-0.196777,0.88623,0
4150,-0.256348,-0.18457,0.881348,0
4170,-0.250977,-0.189941,0.877441,0
4190,-0.250488,-0.194824,0.88916,0
4210,-0.250488,-0.193848,0.887695,0
4230,-0.239746,-0.188965,0.886719,0
4250,-0.233398,-0.197754,0.880859,0
4270,-0.234375,-0.193848,0.882812,0
4290,-0.233887,-0.191895,0.877441,0
4310,-0.230469,-0.19873,0.893555,0
4330,-0.248535,-0.191406,0.915039,0
4350,-0.254395,-0.194336,0.888184,0
4370,-0.253906,-0.194336,0.872559,0
4390,-0.246094,-0.19873,0.880371,0
4410,-0.242188,-0.196777,0.904785,0
4430,-0.22998,-0.188477,0.899414,0
4450,-0.244629,-0.20166,0.88623,0
4470,-0.251953,-0.229004,0.86084,0
4490,-0.245117,-0.258301,0.85791,0
4510,-0.258301,-0.267578,0.867676,0
4530,-0.271484,-0.274414,0.841309,0
4550,-0.276855,-0.294434,0.829102,0
4570,-0.274902,-0.305664,0.819336,0
4590,-0.275391,-0.308105,0.841309,0
4610,-0.290039,-0.291992,0.870605,0
4630,-0.293457,-0.279297,0.852051,0
4650,-0.26416,-0.28418,0.848145,0
4670,-0.251953,-0.288574,0.84668,0
4690,-0.24707,-0.29248,0.861816,0
4710,-0.271973,-0.29834,0.862793,0
4730,-0.27002,-0.296387,0.845703,0
4750,-0.264648,-0.312988,0.838379,0
4770,-0.267578,-0.327148,0.836426,0
4790,-0.280273,-0.32959,0.840332,0
4810,-0.276855,-0.32373,0.838379,0
4830,-0.270996,-0.329102,0.828613,0
4850,-0.266602,-0.320801,0.833496,0
4870,-0.267578,-0.306152,0.84082,0
4890,-0.266602,-0.314453,0.839355,0
4910,-0.274902,-0.31543,0.845215,0
4930,-0.28125,-0.317871,0.847168,0
4950,-0.28418,-0.317383,0.84375,0
4970,-0.279785,-0.320801,0.834961,0
4990,-0.28418,-0.320801,0.845215,0
5010,-0.281738,-0.321289,0.835938,0
5030,-0.28418,-0.321777,0.843262,0
5050,-0.27832,-0.327148,0.847656,0
5070,-0.274902,-0.325684,0.840332,0
5090,-0.272949,-0.319824,0.841309,0
5110,-0.276367,-0.319824,0.844727,0
5130,-0.276367,-0.317871,0.844238,0
5150,-0.278809,-0.313965,0.835938,0
5170,-0.279785,-0.318848,0.830566,0
5190,-0.287598,-0.328125,0.842773,0
5210,-0.283203,-0.324219,0.838867,0
5230,-0.277344,-0.324219,0.838867,0
5250,-0.276367,-0.32666,0.836914,0
5270,-0.277832,-0.324219,0.842285,0
5290,-0.281738,-0.322266,0.838379,0
5310,-0.27832,-0.323242,0.842285,0
5330,-0.277832,-0.33252,0.837402,0
5350,-0.279785,-0.328613,0.837402,0
5370,-0.279785,-0.325684,0.838867,0
5390,-0.280273,-0.32666,0.834961,0
5410,-0.282715,-0.328125,0.840332,0
5430,-0.285156,-0.331543,0.833008,0
5450,-0.286133,-0.327637,0.835449,0
5470,-0.283203,-0.331055,0.840332,0
5490,-0.280273,-0.329102,0.833496,0
5510,-0.27832,-0.327637,0.838379,0
5530,-0.27002,-0.339844,0.839355,0
5550,-0.277344,-0.336426,0.847168,0
5570,-0.274902,-0.336426,0.85791,0
5590,-0.282227,-0.341309,0.872559,0
5610,-0.289551,-0.331055,0.867188,0
5630,-0.307129,-0.324707,0.844238,0
5650,-0.313477,-0.328125,0.822266,0
5670,-0.317383,-0.340332,0.813965,0
5680,-0.310547,-0.362793,0.803711,0
5700,-0.304688,-0.379883,0.800293,0
5720,-0.300293,-0.405273,0.789551,0
5740,-0.307129,-0.42041,0.801758,0
5760,-0.305664,-0.421387,0.787598,0
5780,-0.319824,-0.442871,0.769531,0
5800,-0.320312,-0.470215,0.758301,0
5820,-0.322754,-0.485352,0.74707,0
5840,-0.339844,-0.487793,0.739258,0
5860,-0.334961,-0.48877,0.741699,0
5880,-0.338379,-0.47998,0.741211,0
5900,-0.328125,-0.480469,0.74707,0
5920,-0.342285,-0.483398,0.748047,0
5940,-0.36377,-0.491211,0.743652,0
5960,-0.383301,-0.496582,0.724121,0
5980,-0.383301,-0.49707,0.712402,0
6000,-0.386719,-0.507812,0.692871,0
6020,-0.391113,-0.516113,0.69873,0
6040,-0.39209,-0.518066,0.702637,0
6060,-0.38623,-0.507324,0.712402,0
6080,-0.383301,-0.495117,0.717773,0
6100,-0.383789,-0.489258,0.728027,0
6120,-0.378418,-0.484863,0.728516,0
6140,-0.375977,-0.483398,0.732422,0
6160,-0.373535,-0.473145,0.74707,0
6180,-0.373047,-0.474121,0.745605,0
6200,-0.367676,-0.475586,0.733887,0
6220,-0.371582,-0.480957,0.740723,0
6240,-0.370117,-0.481934,0.737305,0
6260,-0.369141,-0.46875,0.743164,0
6280,-0.365234,-0.476074,0.747559,0
6300,-0.363281,-0.460938,0.757324,0
6320,-0.364258,-0.449219,0.775391,0
6340,-0.36084,-0.45459,0.77002,0
6360,-0.368652,-0.466309,0.763672,0
6380,-0.36084,-0.475098,0.76709,0
6400,-0.386719,-0.467773,0.759277,0
6420,-0.389648,-0.479004,0.722168,0
6440,-0.390137,-0.496582,0.697754,0
6460,-0.391602,-0.510254,0.691895,0
6480,-0.381836,-0.508301,0.690918,0
6500,-0.372559,-0.513672,0.703613,0
6520,-0.368652,-0.503906,0.71582,0
6540,-0.366211,-0.499023,0.724121,0
6560,-0.361816,-0.490723,0.726562,0
6580,-0.367188,-0.491699,0.731934,0
6600,-0.375977,-0.495605,0.720703,0
6620,-0.375488,-0.493652,0.710449,0
6640,-0.376465,-0.495605,0.716309,0
6660,-0.369629,-0.494629,0.731934,0
6680,-0.36377,-0.479492,0.751953,0
6700,-0.361328,-0.456055,0.771484,0
6720,-0.365723,-0.453613,0.775879,0
6740,-0.354492,-0.446777,0.775391,0
6760,-0.356445,-0.446289,0.766602,0
6780,-0.355957,-0.445312,0.766602,0
6800,-0.358887,-0.450684,0.76416,0
6820,-0.36084,-0.449707,0.746582,0
6840,-0.361328,-0.45459,0.754395,0
6860,-0.359863,-0.45166,0.761719,0
6880,-0.36084,-0.446777,0.760254,0
6900,-0.363281,-0.443359,0.76709,0
6920,-0.366699,-0.445801,0.760254,0
6940,-0.359375,-0.453125,0.762695,0
6960,-0.354492,-0.454102,0.764648,0
6980,-0.351074,-0.442871,0.758789,0
7000,-0.354004,-0.441406,0.758301,0
7020,-0.344727,-0.450684,0.754395,0
7040,-0.358887,-0.459473,0.754395,0
7060,-0.356934,-0.433105,0.753906,0
7080,-0.371094,-0.449219,0.775391,0
7100,-0.371582,-0.425781,0.765625,0
7120,-0.355469,-0.42334,0.758789,0
7140,-0.373047,-0.430176,0.756836,0
7160,-0.376465,-0.441895,0.751465,0
7180,-0.362305,-0.442871,0.754395,0
7200,-0.350586,-0.440918,0.757812,0
7220,-0.35498,-0.448242,0.760742,0
7240,-0.380371,-0.43457,0.785645,0
7260,-0.382812,-0.437012,0.781738,0
7280,-0.358398,-0.442871,0.771484,0
7300,-0.345703,-0.428711,0.75293,0
7320,-0.317383,-0.439453,0.739746,0
7340,-0.331055,-0.455566,0.742188,0
7360,-0.369141,-0.449707,0.768555,0
7380,-0.355469,-0.436523,0.790039,0
7400,-0.329102,-0.431152,0.779785,0
7420,-0.319336,-0.45166,0.762207,0
7440,-0.320312,-0.467773,0.737793,0
7460,-0.341797,-0.449707,0.753418,0
7480,-0.368652,-0.439941,0.796875,0
7500,-0.371094,-0.436523,0.819824,0
7520,-0.356445,-0.440918,0.817871,0
7540,-0.337891,-0.415527,0.818848,0
7560,-0.313477,-0.388672,0.796387,0
7580,-0.32373,-0.388184,0.797363,0
7600,-0.354004,-0.375,0.796387,0
7620,-0.372559,-0.376465,0.798828,0
7640,-0.383789,-0.396484,0.787598,0
7660,-0.38623,-0.411621,0.782715,0
7680,-0.393066,-0.424316,0.777832,0
7700,-0.382812,-0.430176,0.77002,0
7720,-0.363281,-0.428711,0.755371,0
7740,-0.359863,-0.42627,0.751465,0
7760,-0.367676,-0.430664,0.75,0
7780,-0.357422,-0.447754,0.75,0
7800,-0.347168,-0.465332,0.738281,0
7820,-0.330566,-0.462891,0.724609,0
7840,-0.332031,-0.462891,0.731445,0
7860,-0.344727,-0.460449,0.742188,0
7880,-0.36084,-0.463867,0.775391,0
7900,-0.373047,-0.452148,0.79541,0
7920,-0.369141,-0.424316,0.798828,0
7940,-0.362793,-0.400879,0.803711,0
7960,-0.359375,-0.387695,0.775391,0
7980,-0.364258,-0.392578,0.753418,0
8000,-0.368164,-0.393555,0.725098,0
8020,-0.368652,-0.401855,0.72168,0
8040,-0.372559,-0.414062,0.726074,0
8060,-0.378906,-0.431152,0.739746,0
8080,-0.364746,-0.440918,0.749512,0
8100,-0.347656,-0.441895,0.78125,0
8120,-0.336426,-0.434082,0.803711,0
8140,-0.333496,-0.40332,0.82373,0
8160,-0.320801,-0.37793,0.833496,0
8180,-0.290039,-0.395508,0.811035,0
8200,-0.274414,-0.430176,0.79248,0
8220,-0.299316,-0.444824,0.813477,0
8240,-0.322754,-0.408691,0.793945,0
8260,-0.37207,-0.338379,0.771484,0
8280,-0.462891,-0.298828,0.785156,0
8300,-0.477051,-0.381348,0.754883,0
8320,-0.325684,-0.52832,0.749512,0
8340,-0.265625,-0.550293,0.755859,0
8360,-0.271973,-0.469727,0.75293,0
8380,-0.331055,-0.383789,0.828125,0
8400,-0.364746,-0.331543,0.856934,0
8420,-0.374023,-0.353516,0.825684,0
8440,-0.351562,-0.387695,0.8125,0
8460,-0.314453,-0.407227,0.794434,0
8480,-0.294434,-0.410156,0.775879,0
8500,-0.310059,-0.402832,0.772949,0
8520,-0.338379,-0.398438,0.782227,0
8540,-0.351074,-0.400879,0.794434,0
8560,-0.330078,-0.405762,0.799805,0
8580,-0.316895,-0.401367,0.793457,0
8600,-0.319336,-0.403809,0.790039,0
8620,-0.329102,-0.406738,0.794922,0
8640,-0.345703,-0.404297,0.788086,0
8660,-0.359375,-0.405762,0.799805,0
8680,-0.35791,-0.403809,0.781738,0
8700,-0.352539,-0.413574,0.772949,0
8720,-0.339844,-0.40332,0.779785,0
8740,-0.335938,-0.396484,0.789551,0
8760,-0.34082,-0.394043,0.791016,0
8780,-0.341309,-0.396484,0.787598,0
8800,-0.340332,-0.404785,0.789062,0
8820,-0.341797,-0.410645,0.786133,0
8840,-0.34375,-0.411621,0.788574,0
8860,-0.342285,-0.398926,0.789551,0
8880,-0.340332,-0.388672,0.790039,0
8900,-0.34668,-0.394531,0.796875,0
8920,-0.337891,-0.404785,0.789551,0
8940,-0.338867,-0.408691,0.784668,0
8960,-0.342773,-0.413574,0.789551,0
8980,-0.340332,-0.414062,0.791992,0
9000,-0.337402,-0.413574,0.787598,0
9020,-0.33252,-0.403809,0.78418,0
9040,-0.333008,-0.401367,0.79248,0
9060,-0.336426,-0.400391,0.791992,0
9080,-0.34375,-0.39502,0.792969,0
9100,-0.347168,-0.401367,0.79541,0
9110,-0.339355,-0.399902,0.79248,0
9130,-0.342773,-0.407227,0.785645,0
9150,-0.335938,-0.407227,0.783691,0
9170,-0.333496,-0.404297,0.789551,0
9190,-0.331543,-0.399902,0.792969,0
9210,-0.339355,-0.396973,0.789062,0
9230,-0.339844,-0.402344,0.786133,0
9250,-0.344238,-0.404297,0.786621,0
9270,-0.347168,-0.404297,0.782227,0
9290,-0.351562,-0.408203,0.783691,0
9310,-0.354492,-0.416016,0.782715,0
9330,-0.355957,-0.415527,0.782227,0
9350,-0.350098,-0.410156,0.784668,0
9370,-0.34668,-0.414551,0.78418,0
9390,-0.346191,-0.407227,0.786133,0
9410,-0.340332,-0.40332,0.789062,0
9430,-0.338379,-0.400391,0.788086,0
9450,-0.337891,-0.401367,0.791016,0
9470,-0.339355,-0.409668,0.783691,0
9490,-0.337402,-0.40332,0.780273,0
9510,-0.334961,-0.408691,0.799316,0
9530,-0.339844,-0.410156,0.791992,0
9550,-0.341797,-0.407227,0.791016,0
9570,-0.344238,-0.405273,0.787598,0
9590,-0.341309,-0.414551,0.78125,0
9610,-0.34082,-0.40918,0.78418,0
9630,-0.344727,-0.412109,0.78125,0
9650,-0.34668,-0.416992,0.783203,0
9670,-0.347656,-0.419922,0.779297,0
9690,-0.34082,-0.412598,0.78125,0
9710,-0.34082,-0.413574,0.781738,0
9730,-0.348145,-0.415527,0.78418,0
9750,-0.349609,-0.40625,0.782227,0
9770,-0.348633,-0.411621,0.781738,0
9790,-0.345703,-0.416504,0.78418,0
9810,-0.354492,-0.413086,0.779785,0
9830,-0.349609,-0.414551,0.780762,0
9850,-0.342285,-0.411133,0.785156,0
9870,-0.346191,-0.416992,0.779297,0
9890,-0.34375,-0.416504,0.785645,0
9910,-0.34082,-0.414551,0.785645,0
9930,-0.341797,-0.415527,0.789062,0
9950,-0.341309,-0.416016,0.784668,0
9970,-0.345215,-0.415039,0.781738,0
9990,-0.345215,-0.407227,0.785156,0
10010,-0.349609,-0.409668,0.779297,0
10030,-0.348145,-0.413086,0.781738,0
10050,-0.350586,-0.413086,0.783691,0
10070,-0.347168,-0.416992,0.777344,0
10090,-0.348633,-0.415527,0.774902,0
10110,-0.347656,-0.415527,0.777344,0
10130,-0.349121,-0.412109,0.78418,0
10150,-0.349121,-0.410645,0.78125,0
10170,-0.350098,-0.412109,0.78418,0
10190,-0.345215,-0.413574,0.785156,0
10210,-0.351562,-0.414062,0.779297,0
10230,-0.350586,-0.416504,0.779785,0
10250,-0.34375,-0.40918,0.785645,0
10270,-0.34668,-0.404785,0.787109,0
10290,-0.346191,-0.410645,0.78418,0
10310,-0.349609,-0.411621,0.777344,0
10330,-0.34375,-0.40625,0.78125,0
10350,-0.348145,-0.413086,0.785156,0
10370,-0.351074,-0.40918,0.782715,0
10390,-0.349121,-0.408691,0.783691,0
10410,-0.348145,-0.411133,0.777344,0
10430,-0.347656,-0.41748,0.779297,0
10450,-0.349121,-0.42041,0.778809,0
10470,-0.345703,-0.412109,0.784668,0
10490,-0.347656,-0.414551,0.780762,0
10510,-0.349609,-0.416504,0.789062,0
10530,-0.348145,-0.41748,0.774902,0
10550,-0.345703,-0.408203,0.776855,0
10570,-0.346191,-0.414551,0.790039,0
10590,-0.348633,-0.412598,0.780273,0
10610,-0.348633,-0.407227,0.787598,0
10630,-0.344727,-0.405762,0.783691,0
10650,-0.348633,-0.412109,0.776855,0
10670,-0.350586,-0.409668,0.780762,0
10690,-0.348145,-0.40918,0.785645,0
10710,-0.350098,-0.410645,0.788574,0
10730,-0.348633,-0.411621,0.782715,0
10750,-0.348145,-0.409668,0.782715,0
10770,-0.34668,-0.408691,0.782715,0
10790,-0.347656,-0.416016,0.786621,0
10810,-0.345215,-0.413086,0.780273,0
10830,-0.347656,-0.406738,0.775879,0
10850,-0.34668,-0.411621,0.781738,0
10870,-0.347656,-0.411621,0.785645,0
10890,-0.345703,-0.413574,0.77832,0
10910,-0.346191,-0.412598,0.782715,0
10930,-0.349121,-0.414551,0.78418,0
10950,-0.347656,-0.416504,0.782227,0
10970,-0.347168,-0.41748,0.782227,0
10990,-0.350586,-0.410645,0.780762,0
11010,-0.346191,-0.412109,0.78418,0
11030,-0.344238,-0.410156,0.783203,0
11050,-0.342285,-0.411133,0.779785,0
11070,-0.345215,-0.42041,0.784668,0
11090,-0.344727,-0.407715,0.786133,0
11100,-0.34082,-0.407227,0.786133,0
11120,-0.345703,-0.415039,0.783691,0
11140,-0.348633,-0.415039,0.776855,0
11160,-0.345703,-0.412598,0.77832,0
11180,-0.347168,-0.409668,0.783203,0
11200,-0.344238,-0.413574,0.783691,0
11220,-0.345215,-0.411133,0.782227,0
11240,-0.341309,-0.413574,0.788086,0
11260,-0.344727,-0.412109,0.782715,0
11280,-0.341797,-0.41748,0.779297,0
11300,-0.34082,-0.412109,0.786133,0
11320,-0.344727,-0.414062,0.784668,0
11340,-0.346191,-0.415039,0.784668,0
11360,-0.344727,-0.416992,0.786133,0
11380,-0.337891,-0.408203,0.782715,0
11400,-0.345215,-0.407715,0.779785,0
11420,-0.34668,-0.413574,0.783691,0
11440,-0.345703,-0.415039,0.783203,0
11460,-0.345703,-0.408691,0.785156,0
11480,-0.346191,-0.416504,0.78125,0
11500,-0.346191,-0.414551,0.78418,0
11520,-0.343262,-0.411621,0.782227,0
11540,-0.346191,-0.415039,0.781738,0
11560,-0.344727,-0.419434,0.782715,0
11580,-0.342773,-0.417969,0.778809,0
11600,-0.34375,-0.411621,0.780273,0
11620,-0.345703,-0.412109,0.787109,0
11640,-0.344238,-0.413574,0.783203,0
11660,-0.344727,-0.405762,0.783203,0
11680,-0.34082,-0.410645,0.784668,0
11700,-0.342285,-0.412598,0.782715,0
11720,-0.34375,-0.408203,0.78418,0
11740,-0.345215,-0.40918,0.784668,0
11760,-0.345703,-0.414551,0.785156,0
11780,-0.346191,-0.415527,0.782715,0
11800,-0.34375,-0.402832,0.779785,0
11820,-0.346191,-0.411621,0.782715,0
11840,-0.341797,-0.416992,0.788086,0
11860,-0.347168,-0.405762,0.785645,0
11880,-0.34082,-0.40918,0.78125,0
11900,-0.343262,-0.410645,0.788574,0
11920,-0.342285,-0.412109,0.786621,0
11940,-0.342773,-0.408203,0.777832,0
11960,-0.345215,-0.410156,0.77832,0
11980,-0.346191,-0.415527,0.782227,0
12000,-0.342773,-0.411133,0.786133,0
12020,-0.342773,-0.410156,0.786133,0
12040,-0.342285,-0.411133,0.789551,0
12060,-0.342285,-0.415527,0.785156,0
12080,-0.339355,-0.408203,0.775879,0
12100,-0.345703,-0.409668,0.779297,0
12120,-0.345703,-0.418457,0.783691,0
12140,-0.346191,-0.40918,0.787109,0
12160,-0.339844,-0.408203,0.777344,0
12180,-0.341309,-0.410156,0.788574,0
12200,-0.345703,-0.410645,0.785156,0
12220,-0.34668,-0.408691,0.786621,0
12240,-0.345703,-0.407227,0.791504,0
12260,-0.34375,-0.414062,0.779297,0
12280,-0.342773,-0.405762,0.787598,0
12300,-0.340332,-0.40918,0.791016,0
12320,-0.341797,-0.413086,0.785645,0
12340,-0.344238,-0.416016,0.78418,0
12360,-0.338379,-0.411133,0.786133,0
12380,-0.341797,-0.413086,0.779785,0
12400,-0.344727,-0.412109,0.785156,0
12420,-0.344238,-0.408203,0.787109,0
12440,-0.34375,-0.412598,0.783203,0
12460,-0.34375,-0.411621,0.784668,0
12480,-0.343262,-0.411133,0.791992,0
12500,-0.340332,-0.408691,0.783203,0
12520,-0.342773,-0.408691,0.783203,0
12540,-0.344727,-0.40918,0.786133,0
12560,-0.341309,-0.410645,0.785156,0
12580,-0.339844,-0.407227,0.785156,0
12600,-0.34375,-0.409668,0.788574,0
12620,-0.347656,-0.40918,0.788086,0
12640,-0.347168,-0.413574,0.788574,0
12660,-0.337891,-0.408203,0.787598,0
12680,-0.341797,-0.416016,0.783203,0
12700,-0.343262,-0.410156,0.783203,0
12720,-0.345215,-0.408691,0.782715,0
12740,-0.345703,-0.410156,0.788086,0
12760,-0.346191,-0.412109,0.778809,0
12780,-0.341797,-0.410645,0.782715,0
12800,-0.340332,-0.40918,0.777344,0
12820,-0.343262,-0.412109,0.785645,0
12840,-0.34375,-0.411621,0.782227,0
12860,-0.34375,-0.406738,0.77832,0
12880,-0.339355,-0.413086,0.777832,0
12900,-0.34375,-0.414062,0.777344,0
12920,-0.34668,-0.411133,0.784668,0
12940,-0.34375,-0.407715,0.781738,0
12960,-0.345215,-0.412598,0.791504,0
12980,-0.348633,-0.410645,0.77832,0
13000,-0.346191,-0.406738,0.782715,0
13020,-0.346191,-0.410156,0.785156,0
13040,-0.344727,-0.410645,0.785156,0
13060,-0.34668,-0.408691,0.782715,0
13080,-0.34668,-0.410156,0.787109,0
13100,-0.347168,-0.411133,0.785645,0
13120,-0.343262,-0.413086,0.783691,0
13140,-0.345215,-0.412109,0.776855,0
13160,-0.344727,-0.414062,0.780762,0
13180,-0.34375,-0.416992,0.782715,0
13200,-0.346191,-0.411133,0.787598,0
13220,-0.351074,-0.410645,0.78418,0
13240,-0.34668,-0.411133,0.782715,0
13260,-0.34668,-0.407715,0.785156,0
13280,-0.346191,-0.409668,0.789551,0
13300,-0.348145,-0.407715,0.783203,0
13320,-0.353027,-0.410645,0.782227,0
13340,-0.346191,-0.404297,0.779785,0
13360,-0.348145,-0.405762,0.783691,0
13380,-0.347656,-0.408203,0.777832,0
13400,-0.352539,-0.412109,0.785645,0
13420,-0.350098,-0.408203,0.788574,0
13440,-0.350098,-0.408203,0.789062,0
13460,-0.344238,-0.413574,0.788086,0
13480,-0.344727,-0.40625,0.786621,0
13500,-0.34375,-0.401855,0.782715,0
13520,-0.350098,-0.404785,0.780762,0
13540,-0.352539,-0.405762,0.784668,0
13560,-0.349121,-0.407227,0.78418,0
13580,-0.345703,-0.40918,0.78125,0
13600,-0.345703,-0.411133,0.783203,0
13620,-0.342285,-0.40625,0.789062,0
13640,-0.347168,-0.400879,0.783203,0
13660,-0.35791,-0.404785,0.776855,0
13680,-0.358887,-0.418457,0.778809,0
13700,-0.354004,-0.415527,0.782227,0
13720,-0.344238,-0.416016,0.783203,0
13740,-0.342285,-0.410156,0.791992,0
13760,-0.348633,-0.396484,0.788086,0
13780,-0.345703,-0.391602,0.791992,0
13800,-0.349609,-0.400391,0.780762,0
13820,-0.35498,-0.407227,0.77832,0
13840,-0.344238,-0.407715,0.77832,0
13860,-0.335449,-0.418945,0.76709,0
13880,-0.335938,-0.423828,0.786621,0
13900,-0.340332,-0.416992,0.793457,0
13920,-0.333008,-0.415039,0.788574,0
13940,-0.341797,-0.416504,0.789551,0
13960,-0.350098,-0.40625,0.776367,0
13980,-0.354004,-0.404297,0.779785,0
14000,-0.361328,-0.400879,0.778809,0
14020,-0.356934,-0.411133,0.78418,0
14040,-0.348145,-0.409668,0.791504,0
14060,-0.334961,-0.404785,0.793457,0
14080,-0.340332,-0.407715,0.793457,0
14100,-0.34082,-0.410645,0.790039,0
14120,-0.339844,-0.411133,0.780273,0
14140,-0.347656,-0.407715,0.78418,0
14160,-0.348145,-0.412109,0.781738,0
14180,-0.349121,-0.40625,0.787598,0
14200,-0.345215,-0.406738,0.783203,0
14220,-0.347168,-0.405273,0.789551,0
14240,-0.345215,-0.408203,0.787109,0
14260,-0.338867,-0.397461,0.784668,0
14280,-0.341797,-0.405762,0.786133,0
14300,-0.347656,-0.408691,0.780273,0
14320,-0.349121,-0.407715,0.780762,0
14340,-0.347656,-0.404785,0.786621,0
14360,-0.341797,-0.410156,0.781738,0
14380,-0.347168,-0.40918,0.785645,0
14400,-0.344238,-0.404785,0.785156,0
14420,-0.341797,-0.406738,0.782715,0
14440,-0.338379,-0.410156,0.781738,0
14460,-0.347656,-0.407715,0.789062,0
14480,-0.343262,-0.404785,0.78418,0
14500,-0.344238,-0.407715,0.782715,0
14520,-0.344727,-0.411621,0.78418,0
14530,-0.34668,-0.406738,0.78418,0
14550,-0.345215,-0.405273,0.78418,0
14570,-0.350098,-0.408203,0.786133,0
14590,-0.345215,-0.40332,0.788574,0
14610,-0.345703,-0.404785,0.784668,0
14630,-0.34668,-0.40918,0.786621,0
14650,-0.342773,-0.405762,0.786133,0
14670,-0.348145,-0.407227,0.788574,0
14690,-0.34375,-0.401367,0.791992,0
14710,-0.345215,-0.406738,0.78418,0
14730,-0.343262,-0.410645,0.784668,0
14750,-0.34082,-0.408691,0.789062,0
14770,-0.344727,-0.408691,0.790039,0
14790,-0.338867,-0.412598,0.789062,0
14810,-0.34375,-0.404785,0.787598,0
14830,-0.337891,-0.398926,0.787109,0
14850,-0.345703,-0.405273,0.787109,0
14870,-0.344238,-0.405762,0.786621,0
14890,-0.345215,-0.400391,0.782227,0
14910,-0.34375,-0.40625,0.786621,0
14930,-0.342285,-0.407227,0.782227,0
14950,-0.341309,-0.399414,0.789062,0
14970,-0.341309,-0.394531,0.790527,0
14990,-0.345703,-0.403809,0.791992,0
15010,-0.350586,-0.405273,0.790527,0
15030,-0.34082,-0.407227,0.79541,0
15050,-0.343262,-0.40625,0.785645,0
15070,-0.347656,-0.404785,0.787109,0
15090,-0.342285,-0.40332,0.785645,0
15110,-0.341797,-0.399902,0.785156,0
15130,-0.338867,-0.406738,0.791016,0
15150,-0.344238,-0.411621,0.788574,0
15170,-0.342773,-0.403809,0.794434,0
15190,-0.341309,-0.40625,0.789551,0
15210,-0.349609,-0.40625,0.787109,0
15230,-0.347168,-0.400879,0.784668,0
15250,-0.341309,-0.398926,0.782227,0
15270,-0.341309,-0.404297,0.78418,0
15290,-0.34375,-0.407227,0.786133,0
15310,-0.345703,-0.412598,0.78418,0
15330,-0.343262,-0.411133,0.785156,0
15350,-0.350098,-0.411133,0.782227,0
15370,-0.345215,-0.399414,0.79248,0
15390,-0.343262,-0.401855,0.79248,0
15410,-0.345703,-0.411621,0.788574,0
15430,-0.345703,-0.40918,0.783691,0
15450,-0.347168,-0.402344,0.785645,0
15470,-0.344238,-0.401367,0.78418,0
15490,-0.348633,-0.407715,0.779297,0
15510,-0.344238,-0.404785,0.786133,0
15530,-0.345215,-0.407227,0.790039,0
15550,-0.341797,-0.40332,0.78418,0
15570,-0.342285,-0.400879,0.791992,0
15590,-0.346191,-0.39502,0.785645,0
15610,-0.34375,-0.404297,0.785645,0
15630,-0.345215,-0.40918,0.789062,0
15650,-0.350098,-0.405273,0.788086,0
15670,-0.345215,-0.405273,0.782227,0
15690,-0.342773,-0.405273,0.785156,0
15710,-0.347656,-0.410156,0.787109,0
15730,-0.348145,-0.401367,0.792969,0
15750,-0.341797,-0.402344,0.784668,0
15770,-0.339844,-0.405273,0.791016,0
15790,-0.341309,-0.402832,0.787109,0
15810,-0.341797,-0.397461,0.786133,0
15830,-0.342285,-0.402344,0.789062,0
15850,-0.338867,-0.407227,0.781738,0
15870,-0.342773,-0.403809,0.786621,0
15890,-0.343262,-0.404297,0.787109,0
15910,-0.341309,-0.401855,0.793457,0
15930,-0.341797,-0.401855,0.789551,0
15950,-0.342285,-0.399414,0.789062,0
15970,-0.345703,-0.400879,0.785645,0
15990,-0.346191,-0.401855,0.780762,0
16010,-0.351562,-0.402344,0.786621,0
16030,-0.34668,-0.409668,0.785156,0
16050,-0.344727,-0.410645,0.788574,0
16070,-0.34082,-0.401367,0.791016,0
16090,-0.344238,-0.398926,0.793945,0
16110,-0.346191,-0.40332,0.791992,0
16130,-0.339844,-0.407227,0.790527,0
16150,-0.338867,-0.399902,0.781738,0
16170,-0.343262,-0.405273,0.78418,0
16190,-0.343262,-0.399902,0.786621,0
16210,-0.342773,-0.402344,0.791992,0
16230,-0.339355,-0.391113,0.794922,0
16250,-0.343262,-0.401367,0.791504,0
16270,-0.342773,-0.411133,0.785156,0
16290,-0.342285,-0.406738,0.782715,0
16310,-0.34668,-0.400879,0.78418,0
16330,-0.347168,-0.398926,0.785156,0
16350,-0.346191,-0.40332,0.790039,0
16370,-0.342773,-0.400391,0.785156,0
16390,-0.344727,-0.403809,0.787109,0
16410,-0.348633,-0.405762,0.783691,0
16430,-0.347656,-0.407227,0.791016,0
16450,-0.342773,-0.400879,0.787109,0
16470,-0.342773,-0.404297,0.793945,0
16490,-0.345703,-0.404297,0.789551,0
16510,-0.344727,-0.399902,0.790039,0
16520,-0.346191,-0.405762,0.782715,0
16540,-0.339355,-0.407227,0.791992,0
16560,-0.337891,-0.401855,0.788574,0
16580,-0.341309,-0.399902,0.795898,0
16600,-0.347656,-0.398926,0.79248,0
16620,-0.346191,-0.402344,0.790527,0
16640,-0.344238,-0.403809,0.787109,0
16660,-0.34375,-0.40332,0.784668,0
16680,-0.341309,-0.403809,0.788086,0
16700,-0.343262,-0.399414,0.790527,0
16720,-0.342285,-0.402344,0.786621,0
16740,-0.345703,-0.408203,0.789062,0
16760,-0.348633,-0.408691,0.793945,0
16780,-0.342285,-0.402344,0.783691,0
16800,-0.34082,-0.401855,0.786621,0
16820,-0.342773,-0.40625,0.790527,0
16840,-0.336426,-0.403809,0.788574,0
16860,-0.336914,-0.399902,0.790039,0
16880,-0.342773,-0.398438,0.783203,0
16900,-0.348145,-0.401855,0.784668,0
16920,-0.344238,-0.402344,0.785156,0
16940,-0.34668,-0.407715,0.789062,0
16960,-0.351074,-0.402832,0.789062,0
16980,-0.34375,-0.400391,0.791504,0
17000,-0.350098,-0.400391,0.784668,0
17020,-0.347168,-0.404297,0.790527,0
17040,-0.342773,-0.40625,0.784668,0
17060,-0.341309,-0.401367,0.791504,0
17080,-0.343262,-0.401367,0.792969,0
17100,-0.339355,-0.404785,0.791992,0
17120,-0.34082,-0.401855,0.785645,0
17140,-0.337891,-0.397461,0.788086,0
17160,-0.343262,-0.399902,0.791504,0
17180,-0.342285,-0.397949,0.785645,0
17200,-0.345703,-0.396973,0.790039,0
17220,-0.344727,-0.400391,0.788086,0
17240,-0.341309,-0.405273,0.788086,0
17260,-0.341309,-0.399902,0.789062,0
17280,-0.345703,-0.402832,0.791016,0
17300,-0.341797,-0.401855,0.793457,0
17320,-0.342773,-0.401855,0.793457,0
17340,-0.341309,-0.399414,0.783691,0
17360,-0.342773,-0.399414,0.788574,0
17380,-0.344727,-0.399902,0.785645,0
17400,-0.342773,-0.398926,0.793457,0
17420,-0.34375,-0.396973,0.791992,0
17440,-0.34082,-0.404297,0.787109,0
17460,-0.338867,-0.402832,0.787109,0
17480,-0.337891,-0.398926,0.791016,0
17500,-0.339355,-0.395996,0.78418,0
17520,-0.34375,-0.402832,0.788086,0
17540,-0.341309,-0.399414,0.790527,0
17560,-0.340332,-0.398438,0.787109,0
17580,-0.340332,-0.401855,0.789062,0
17600,-0.344238,-0.404785,0.787598,0
17620,-0.345215,-0.400391,0.787109,0
17640,-0.341309,-0.402832,0.790527,0
17660,-0.336426,-0.402344,0.787109,0
17680,-0.341797,-0.399902,0.79248,0
17700,-0.344727,-0.398926,0.789551,0
17720,-0.347656,-0.401367,0.786133,0
17740,-0.342285,-0.409668,0.789062,0
17760,-0.341797,-0.398438,0.782715,0
17780,-0.340332,-0.395508,0.79248,0
17800,-0.341309,-0.398438,0.794434,0
17820,-0.341309,-0.396973,0.796875,0
17840,-0.335938,-0.397949,0.79541,0
17860,-0.339355,-0.402344,0.78418,0
17880,-0.341309,-0.406738,0.787598,0
17900,-0.34082,-0.400879,0.790039,0
17920,-0.342773,-0.401855,0.786133,0
17940,-0.342773,-0.403809,0.789551,0
17960,-0.341309,-0.401367,0.786133,0
17980,-0.342285,-0.398438,0.786133,0
18000,-0.34082,-0.402344,0.791504,0
18020,-0.341797,-0.405273,0.793945,0
18040,-0.339844,-0.397461,0.793457,0
18060,-0.338867,-0.400391,0.793457,0
18080,-0.342773,-0.400391,0.791016,0
18100,-0.337402,-0.403809,0.789062,0
18120,-0.342773,-0.402832,0.786133,0
18140,-0.337402,-0.403809,0.786133,0
18160,-0.339355,-0.404297,0.786621,0
18180,-0.34082,-0.40332,0.787598,0
18200,-0.339844,-0.396973,0.793457,0
18220,-0.342773,-0.405762,0.797363,0
18240,-0.339355,-0.405273,0.787598,0
18260,-0.341797,-0.401367,0.793945,0
18280,-0.339844,-0.405762,0.793457,0
18300,-0.341309,-0.403809,0.784668,0
18320,-0.341309,-0.399414,0.787598,0
18340,-0.339355,-0.402344,0.787109,0
18360,-0.345215,-0.405273,0.794434,0
18380,-0.343262,-0.403809,0.790039,0
18400,-0.337402,-0.398926,0.790039,0
18420,-0.338379,-0.40625,0.789062,0
18440,-0.334473,-0.405273,0.786133,0
18460,-0.336426,-0.397949,0.789062,0
18480,-0.337402,-0.399902,0.791016,0
18500,-0.341797,-0.40918,0.789062,0
18520,-0.338379,-0.403809,0.787109,0
18540,-0.338867,-0.395996,0.791992,0
18560,-0.339844,-0.399414,0.789062,0
18580,-0.34082,-0.403809,0.789551,0
18600,-0.34082,-0.39502,0.791992,0
18620,-0.337891,-0.394531,0.79248,0
18640,-0.339355,-0.400391,0.790527,0
18660,-0.340332,-0.401855,0.787598,0
18680,-0.337891,-0.400391,0.790039,0
18700,-0.338379,-0.400879,0.787109,0
18720,-0.338379,-0.400391,0.783691,0
18740,-0.335938,-0.395996,0.790527,0
18760,-0.34082,-0.395996,0.793945,0
18780,-0.341797,-0.401855,0.791992,0
18800,-0.338867,-0.402832,0.790527,0
18820,-0.337402,-0.399414,0.786621,0
18840,-0.337891,-0.397949,0.797363,0
18860,-0.341797,-0.411621,0.789551,0
18880,-0.338867,-0.406738,0.801758,0
18900,-0.336914,-0.402832,0.805664,0
18920,-0.342285,-0.396973,0.800781,0
18940,-0.334473,-0.415039,0.805176,0
18960,-0.390625,-0.39209,0.820801,0
18980,-0.407227,-0.428223,0.905762,0
19000,-0.359863,-0.443848,0.789062,0
19020,-0.314941,-0.543457,0.661133,0
19040,-0.288574,-0.618164,0.724609,0
19060,-0.269531,-0.579102,0.782715,0
19080,-0.259766,-0.694336,0.825684,0
19100,-0.15625,-0.852051,0.919434,0
19120,0.0195312,-0.897461,0.924316,0
19140,0.03125,-0.765137,0.86084,0
19160,0.0654297,-0.629395,0.76123,0
19180,-0.0390625,-0.547363,0.762695,0
19200,0.00488281,-0.64502,0.788574,0
19220,0.065918,-0.707031,0.78125,0
19240,0.0712891,-0.697266,0.729004,0
19260,0.0888672,-0.678711,0.708008,0
19280,0.0532227,-0.666016,0.689941,0
19300,0.0869141,-0.620605,0.697754,0
19320,0.13623,-0.616211,0.668945,0
19340,0.133789,-0.594727,0.633301,0
19360,0.0986328,-0.571289,0.631348,0
19380,0.0546875,-0.583984,0.598145,0
19400,0.0507812,-0.623535,0.627441,0
19420,0.0664062,-0.641602,0.599121,0
19440,0.0981445,-0.634766,0.572754,0
19460,0.107422,-0.630859,0.541016,0
19480,0.111328,-0.643555,0.520508,0
19500,0.114746,-0.660645,0.506836,0
19520,0.157227,-0.689941,0.488281,0
19540,0.192383,-0.683594,0.492676,0
19560,0.181152,-0.687988,0.467773,0
19580,0.207031,-0.719727,0.464355,0
19600,0.258789,-0.750977,0.46582,0
19620,0.281738,-0.762207,0.480469,0
19640,0.282715,-0.78125,0.456055,0
19660,0.307617,-0.795898,0.442871,0
19680,0.299805,-0.787598,0.453125,0
19700,0.304199,-0.789062,0.455566,0
19720,0.325684,-0.783203,0.46582,0
19740,0.331055,-0.752441,0.48584,0
19760,0.329102,-0.73877,0.473633,0
19780,0.318848,-0.727539,0.476562,0
19800,0.30957,-0.700195,0.485352,0
19820,0.318848,-0.683594,0.493164,0
19840,0.333496,-0.684082,0.489258,0
19860,0.310547,-0.672363,0.477051,0
19880,0.303223,-0.686035,0.485352,0
19900,0.340332,-0.687988,0.502441,0
19920,0.383301,-0.708008,0.487305,0
19930,0.426758,-0.741699,0.47998,0
19950,0.463867,-0.763672,0.49707,0
19970,0.464355,-0.767578,0.503418,0
19990,0.462402,-0.767578,0.485352,0
20010,0.453613,-0.757324,0.476074,0
20030,0.424805,-0.74707,0.475098,0
20050,0.388672,-0.735352,0.474121,0
20070,0.373047,-0.712402,0.467773,0
20090,0.347656,-0.684082,0.466797,0
20110,0.337402,-0.683105,0.45166,0
20130,0.335938,-0.661621,0.459961,0
20150,0.338867,-0.654785,0.462402,0
20170,0.341309,-0.670898,0.440918,0
20190,0.359375,-0.694824,0.45166,0
20210,0.397949,-0.72168,0.437012,0
20230,0.421387,-0.724609,0.451172,0
20250,0.424316,-0.742188,0.463379,0
20270,0.447266,-0.760254,0.469727,0
20290,0.461426,-0.76123,0.473633,0
20310,0.463379,-0.76416,0.47998,0
20330,0.467285,-0.770996,0.474609,0
20350,0.439941,-0.752441,0.476562,0
20370,0.410156,-0.74707,0.461426,0
20390,0.398438,-0.737305,0.476074,0
20410,0.369141,-0.729004,0.474121,0
20430,0.341309,-0.712891,0.458984,0
20450,0.313477,-0.703613,0.459961,0
20470,0.29248,-0.713867,0.444824,0
20490,0.300293,-0.710449,0.45459,0
20510,0.313477,-0.716797,0.444824,0
20530,0.344727,-0.743164,0.429199,0
20550,0.368164,-0.751465,0.436035,0
20570,0.396973,-0.760254,0.42627,0
20590,0.404297,-0.760742,0.42627,0
20610,0.405762,-0.778809,0.437988,0
20630,0.422852,-0.787109,0.440918,0
20650,0.420898,-0.780273,0.429199,0
20670,0.407227,-0.773438,0.433594,0
20690,0.402832,-0.770996,0.453613,0
20710,0.402344,-0.766113,0.455566,0
20730,0.391602,-0.753906,0.441406,0
20750,0.383301,-0.743652,0.445312,0
20770,0.375488,-0.73584,0.449219,0
20790,0.389648,-0.731934,0.452148,0
20810,0.396484,-0.731445,0.45166,0
20830,0.409668,-0.734863,0.460938,0
20850,0.417969,-0.737793,0.446289,0
20870,0.428223,-0.743652,0.439453,0
20890,0.442383,-0.756836,0.443359,0
20910,0.466309,-0.757324,0.463379,0
20930,0.470703,-0.741211,0.461426,0
20950,0.45459,-0.720703,0.457031,0
20970,0.442383,-0.724121,0.453125,0
20990,0.422363,-0.71582,0.443359,0
21010,0.39209,-0.714355,0.430176,0
21030,0.364746,-0.713867,0.433594,0
21050,0.356445,-0.696289,0.444824,0
21070,0.35791,-0.702148,0.445801,0
21090,0.358887,-0.70459,0.44043,0
21110,0.34375,-0.697754,0.448242,0
21130,0.341797,-0.701172,0.449707,0
21150,0.360352,-0.713867,0.44873,0
21170,0.365723,-0.717773,0.442871,0
21190,0.355469,-0.707031,0.44873,0
21210,0.355957,-0.718262,0.453125,0
21230,0.377441,-0.729492,0.441406,0
21250,0.374023,-0.723145,0.436035,0
21270,0.362305,-0.717285,0.449219,0
21290,0.352051,-0.702148,0.453613,0
21310,0.326172,-0.70459,0.442871,0
21330,0.334961,-0.713867,0.453613,0
21350,0.349609,-0.708984,0.45752,0
21370,0.326172,-0.675781,0.437012,0
21390,0.268555,-0.658203,0.447266,0
21410,0.246582,-0.667969,0.491211,0
21440,0.475586,-0.757812,0.47998,0
21460,0.56543,-0.789062,0.49707,0
21480,0.583984,-0.755371,0.541016,0
21500,0.515625,-0.698242,0.536133,0
21520,0.401367,-0.64502,0.534668,0
21540,0.22168,-0.57666,0.509277,0
21560,0.108398,-0.5625,0.572754,0
21580,0.129883,-0.612305,0.604492,0
21600,0.349121,-0.715332,0.498535,0
21620,0.547852,-0.78418,0.48291,0
21640,0.608398,-0.794922,0.538574,0
21660,0.612305,-0.772949,0.554199,0
21680,0.57373,-0.751465,0.508789,0
21700,0.522949,-0.73291,0.480469,0
21720,0.48877,-0.729492,0.499023,0
21740,0.493164,-0.719238,0.515625,0
21760,0.488281,-0.685547,0.522461,0
21780,0.446777,-0.629395,0.511719,0
21800,0.399414,-0.557617,0.51709,0
21820,0.34082,-0.509766,0.523438,0
21840,0.33252,-0.484863,0.557129,0
21860,0.376465,-0.492676,0.562012,0
21880,0.410645,-0.5,0.562988,0
21900,0.418457,-0.491211,0.564941,0
21910,0.467285,-0.503418,0.582031,0
21930,0.538086,-0.535645,0.58252,0
21950,0.585938,-0.553711,0.57959,0
21970,0.569824,-0.55957,0.586914,0
21990,0.533203,-0.550781,0.600098,0
22010,0.557617,-0.572754,0.584473,0
22030,0.589844,-0.600098,0.617188,0
22050,0.61084,-0.61377,0.626465,0
22070,0.654297,-0.62793,0.643066,0
22090,0.713867,-0.662598,0.623535,0
22110,0.754883,-0.714844,0.598633,0
22130,0.791992,-0.737305,0.608398,0
22150,0.797852,-0.760254,0.635254,0
22170,0.759766,-0.730469,0.632324,0
22190,0.676758,-0.685059,0.616699,0
22210,0.649414,-0.649902,0.608398,0
22230,0.649902,-0.595215,0.586914,0
22250,0.581543,-0.538574,0.563477,0
22270,0.429688,-0.460938,0.555176,0
22290,0.32666,-0.467285,0.589355,0
22310,0.381836,-0.512695,0.57959,0
22330,0.460449,-0.473633,0.583496,0
22350,0.451172,-0.45166,0.471191,0
22370,0.385254,-0.422852,0.295898,0
22390,0.308105,-0.361816,0.289062,0
22410,0.316406,-0.345703,0.362305,0
22430,0.357422,-0.462402,0.345703,0
22450,0.339355,-0.472656,0.353027,0
22470,0.287598,-0.5,0.459473,0
22490,0.4375,-0.599609,0.374023,0
22510,0.63623,-0.749023,0.308594,0
22530,0.735352,-0.791504,0.422852,0
22550,0.668945,-0.771484,0.483398,0
22570,0.560059,-0.690918,0.489258,0
22590,0.510254,-0.693359,0.486328,0
22610,0.504883,-0.688965,0.506836,0
22630,0.491699,-0.650879,0.524414,0
22650,0.44873,-0.616211,0.541016,0
22670,0.40332,-0.608887,0.480469,0
22690,0.343262,-0.632324,0.445312,0
22710,0.351562,-0.62207,0.471191,0
22730,0.433594,-0.609375,0.464844,0
22750,0.518066,-0.603516,0.475098,0
22770,0.56543,-0.605957,0.528809,0
22790,0.566406,-0.623535,0.516602,0
22810,0.579102,-0.633789,0.489746,0
22830,0.610352,-0.629395,0.517578,0
22850,0.600098,-0.619141,0.556641,0
22870,0.550293,-0.605469,0.561523,0
22890,0.522461,-0.592773,0.561523,0
22910,0.495605,-0.554688,0.530762,0
22930,0.46875,-0.535156,0.51416,0
22950,0.474121,-0.576172,0.509766,0
22970,0.465332,-0.549316,0.495605,0
22990,0.41748,-0.540039,0.485352,0
23010,0.408203,-0.551758,0.472168,0
23030,0.453613,-0.571289,0.539551,0
23050,0.523926,-0.578125,0.543457,0
23070,0.544922,-0.542969,0.522461,0
23090,0.527344,-0.519043,0.521484,0
23110,0.50293,-0.529785,0.500488,0
23130,0.458496,-0.54834,0.506836,0
23150,0.450195,-0.56543,0.552734,0
23170,0.519531,-0.598145,0.530273,0
23190,0.514648,-0.566895,0.523438,0
23210,0.453125,-0.528809,0.505371,0
23230,0.421387,-0.540039,0.498047,0
23250,0.446777,-0.571777,0.522949,0
23270,0.462891,-0.592773,0.559082,0
23290,0.407227,-0.570801,0.534668,0
23310,0.373047,-0.603516,0.519531,0
23330,0.426758,-0.619141,0.564941,0
23350,0.472168,-0.581055,0.580566,0
23370,0.442871,-0.561523,0.583496,0
23390,0.38623,-0.548828,0.606445,0
23410,0.445801,-0.63916,0.55957,0
23430,0.574707,-0.638672,0.59375,0
23450,0.592773,-0.599121,0.577148,0
23470,0.441406,-0.543457,0.557617,0
23490,0.347168,-0.503418,0.587891,0
23510,0.391602,-0.521973,0.615234,0
23530,0.489746,-0.537598,0.645508,0
23550,0.522461,-0.509277,0.61377,0
23570,0.458984,-0.443848,0.623535,0
23590,0.436035,-0.468262,0.59668,0
23610,0.515625,-0.476074,0.599609,0
23630,0.516602,-0.464844,0.644043,0
23650,0.486328,-0.474609,0.653809,0
23670,0.499023,-0.499023,0.638672,0
23690,0.554199,-0.519531,0.606934,0
23710,0.543945,-0.51123,0.644043,0
23730,0.544922,-0.45752,0.653809,0
23750,0.539062,-0.466309,0.620605,0
23770,0.544922,-0.458984,0.620117,0
23790,0.547363,-0.453125,0.624023,0
23810,0.537598,-0.436523,0.659668,0
23830,0.539062,-0.445312,0.665527,0
23850,0.54248,-0.439453,0.669434,0
23870,0.515625,-0.418457,0.669434,0
23890,0.507812,-0.40332,0.661621,0
23910,0.529297,-0.415039,0.643066,0
23930,0.553223,-0.416992,0.658691,0
23950,0.555176,-0.432617,0.682617,0
23970,0.508301,-0.414551,0.688965,0
23990,0.486328,-0.409668,0.711914,0
24010,0.506836,-0.393066,0.68457,0
24030,0.51709,-0.383789,0.687012,0
24050,0.524414,-0.376953,0.694824,0
24070,0.529785,-0.393066,0.677734,0
24090,0.524902,-0.406738,0.67334,0
24110,0.495605,-0.415039,0.664551,0
24130,0.484375,-0.42041,0.679688,0
24150,0.486816,-0.401855,0.694336,0
24170,0.487793,-0.388184,0.698242,0
24190,0.476074,-0.408203,0.703125,0
24210,0.459473,-0.406738,0.6875,0
24230,0.453613,-0.404297,0.689453,0
24250,0.456543,-0.391113,0.657227,0
24270,0.484863,-0.373047,0.635742,0
24290,0.493652,-0.346191,0.653809,0
24310,0.51416,-0.339355,0.658691,0
24330,0.51123,-0.324219,0.673828,0
24350,0.513184,-0.323242,0.675293,0
24370,0.538086,-0.320312,0.666992,0
24390,0.543457,-0.320801,0.637207,0
24410,0.519043,-0.330566,0.653809,0
24430,0.464844,-0.330566,0.695801,0
24450,0.470703,-0.330078,0.682129,0
24470,0.497559,-0.313965,0.69873,0
24490,0.500488,-0.30957,0.71875,0
24510,0.510254,-0.319824,0.729004,0
24530,0.496582,-0.350098,0.746094,0
24550,0.499512,-0.36084,0.757324,0
24570,0.509277,-0.375,0.723145,0
24590,0.499512,-0.392578,0.723633,0
24610,0.493652,-0.384766,0.726562,0
24630,0.483887,-0.401367,0.695312,0
24650,0.458496,-0.399414,0.710449,0
24670,0.453125,-0.404297,0.696289,0
24690,0.458008,-0.402832,0.686523,0
24710,0.470703,-0.404785,0.661133,0
24730,0.488281,-0.376953,0.661133,0
24750,0.496094,-0.370117,0.664062,0
24770,0.498535,-0.361328,0.678223,0
24790,0.497559,-0.357422,0.674805,0
24810,0.490723,-0.349609,0.67627,0
24830,0.477539,-0.334961,0.681152,0
24850,0.455566,-0.320801,0.679688,0
24870,0.438965,-0.322754,0.699219,0
24890,0.429688,-0.324219,0.721191,0
24910,0.436035,-0.36084,0.731934,0
24930,0.424805,-0.379883,0.720215,0
24950,0.425293,-0.395996,0.716797,0
24970,0.42041,-0.424316,0.730957,0
24990,0.399902,-0.441895,0.726074,0
25010,0.388672,-0.465332,0.72168,0
25030,0.416016,-0.465332,0.719727,0
25050,0.423828,-0.463379,0.711426,0
25070,0.435547,-0.415527,0.691895,0
25090,0.424805,-0.37793,0.713867,0
25110,0.443848,-0.391113,0.719238,0
25130,0.493164,-0.397949,0.694336,0
25150,0.48291,-0.392578,0.676758,0
25170,0.444336,-0.365723,0.710449,0
25190,0.424805,-0.344238,0.745605,0
25210,0.45166,-0.331543,0.754395,0
25230,0.459473,-0.338867,0.732422,0
25250,0.457031,-0.379883,0.714844,0
25270,0.442383,-0.376465,0.716797,0
25290,0.429688,-0.390625,0.735352,0
25310,0.428711,-0.40332,0.732422,0
25330,0.430664,-0.389648,0.682129,0
25340,0.470215,-0.385254,0.660156,0
25360,0.494629,-0.38916,0.68457,0
25380,0.484375,-0.364258,0.727051,0
25400,0.47998,-0.351562,0.695312,0
25420,0.488281,-0.383789,0.67041,0
25440,0.48877,-0.362305,0.662109,0
25460,0.481934,-0.379395,0.683105,0
25480,0.487793,-0.367676,0.677734,0
25500,0.498047,-0.378906,0.664551,0
25520,0.514648,-0.385742,0.642578,0
25540,0.530273,-0.366699,0.662598,0
25560,0.538574,-0.36084,0.654785,0
25580,0.532715,-0.370117,0.607422,0
25600,0.542969,-0.377441,0.619629,0
25620,0.542969,-0.369629,0.657227,0
25640,0.501953,-0.358398,0.702637,0
25660,0.489258,-0.385742,0.722656,0
25680,0.508789,-0.408203,0.700684,0
25700,0.501465,-0.420898,0.680176,0
25720,0.487305,-0.378418,0.699219,0
25740,0.503418,-0.334473,0.695312,0
25760,0.509277,-0.355469,0.675781,0
25780,0.490723,-0.383789,0.669922,0
25800,0.479004,-0.405762,0.661621,0
25820,0.478027,-0.355957,0.680176,0
25840,0.475098,-0.329102,0.680664,0
25860,0.470703,-0.345703,0.658691,0
25880,0.484375,-0.347168,0.67041,0
25900,0.520508,-0.355469,0.665039,0
25920,0.532227,-0.359375,0.653809,0
25940,0.52002,-0.372559,0.642578,0
25960,0.496094,-0.367676,0.672363,0
25980,0.503906,-0.355957,0.70459,0
26000,0.507324,-0.332031,0.70459,0
26020,0.501465,-0.342285,0.73291,0
26040,0.476562,-0.324707,0.738281,0
26060,0.460449,-0.339844,0.728027,0
26080,0.44873,-0.378906,0.732422,0
26100,0.442383,-0.376953,0.733887,0
26120,0.43457,-0.363281,0.712891,0
26140,0.405273,-0.345703,0.726562,0
26160,0.410645,-0.34082,0.73291,0
26180,0.427734,-0.326172,0.729492,0
26200,0.449219,-0.376953,0.710449,0
26220,0.433105,-0.358398,0.729004,0
26240,0.440918,-0.364258,0.714844,0
26260,0.447754,-0.337891,0.726562,0
26280,0.441406,-0.349121,0.717285,0
26310,0.445312,-0.334473,0.751465,0
26330,0.466309,-0.335938,0.739746,0
26350,0.478027,-0.325684,0.726074,0
26370,0.45166,-0.347168,0.719727,0
26390,0.435059,-0.34668,0.726562,0
26410,0.420898,-0.34082,0.741211,0
26430,0.427246,-0.341797,0.730957,0
26450,0.444336,-0.345215,0.723145,0
26460,0.427246,-0.337891,0.724121,0
26480,0.429199,-0.337891,0.749512,0
26500,0.442871,-0.345215,0.700684,0
26520,0.455078,-0.341797,0.704102,0
26540,0.459961,-0.349121,0.711914,0
26560,0.458496,-0.35498,0.706543,0
26580,0.477539,-0.353027,0.709961,0
26600,0.498047,-0.345703,0.706543,0
26620,0.496582,-0.338867,0.723145,0
26640,0.508301,-0.358398,0.69873,0
26680,0.52002,-0.373535,0.671387,0
26700,0.525879,-0.377441,0.698242,0
26720,0.543457,-0.380371,0.693848,0
26740,0.541504,-0.405273,0.665527,0
26760,0.550781,-0.416016,0.663574,0
26790,0.59082,-0.460449,0.683105,0
26810,0.59082,-0.48584,0.666016,0
26830,0.606445,-0.495117,0.658691,0
26850,0.598633,-0.498535,0.647949,0
26870,0.619629,-0.509766,0.634277,0
26890,0.611816,-0.51416,0.609863,0
26910,0.605957,-0.484375,0.616211,0
26930,0.587402,-0.45166,0.628906,0
26950,0.550293,-0.42041,0.63916,0
26970,0.506836,-0.430664,0.645996,0
26990,0.472168,-0.434082,0.617676,0
27010,0.455566,-0.447266,0.594727,0
27030,0.447266,-0.438965,0.640625,0
27050,0.386719,-0.442383,0.682129,0
27070,0.328613,-0.445801,0.679688,0
27090,0.310059,-0.458496,0.657227,0
27110,0.328613,-0.488281,0.652344,0
27130,0.383789,-0.479492,0.671875,0
27150,0.403809,-0.48291,0.657227,0
27170,0.400879,-0.486816,0.657227,0
27190,0.39209,-0.475098,0.630371,0
27210,0.352539,-0.479004,0.598145,0
27230,0.346191,-0.501465,0.615723,0
27250,0.376465,-0.541016,0.612793,0
27270,0.416016,-0.54541,0.610352,0
27290,0.410156,-0.54541,0.614258,0
27300,0.352539,-0.518066,0.606934,0
27320,0.275879,-0.514648,0.596191,0
27340,0.287109,-0.549805,0.595215,0
27360,0.379883,-0.57666,0.637207,0
27380,0.421387,-0.580566,0.637207,0
27400,0.423828,-0.571289,0.634766,0
27420,0.416504,-0.563965,0.649902,0
27440,0.401855,-0.555176,0.64209,0
27460,0.352051,-0.552734,0.614746,0
27480,0.319824,-0.552734,0.601074,0
27500,0.30957,-0.566895,0.615234,0
27520,0.318359,-0.56543,0.626465,0
27540,0.33252,-0.536133,0.65332,0
27560,0.340332,-0.523438,0.645508,0
27580,0.348633,-0.529785,0.668457,0
27600,0.378906,-0.553711,0.651855,0
27620,0.410645,-0.541992,0.640137,0
27640,0.45459,-0.561523,0.634277,0
27660,0.525391,-0.573242,0.658203,0
27680,0.561523,-0.574219,0.640625,0
27710,0.525879,-0.539551,0.600098,0
27730,0.495117,-0.544434,0.606934,0
27750,0.490723,-0.541016,0.629395,0
27770,0.486328,-0.536621,0.635742,0
27790,0.476074,-0.532715,0.619629,0
27810,0.436035,-0.52002,0.616699,0
27830,0.394531,-0.513184,0.609375,0
27850,0.391113,-0.527832,0.603027,0
27870,0.404785,-0.532227,0.614258,0
27890,0.40918,-0.521484,0.624512,0
27910,0.403809,-0.515625,0.607422,0
27930,0.411133,-0.530273,0.61377,0
27950,0.431152,-0.546387,0.634766,0
27970,0.420898,-0.546875,0.628418,0
27990,0.40918,-0.516113,0.622559,0
28010,0.436035,-0.521484,0.637207,0
28030,0.467773,-0.52832,0.637207,0
28050,0.471191,-0.531738,0.639648,0
28070,0.449219,-0.526855,0.640625,0
28090,0.44043,-0.529785,0.630859,0
28110,0.445312,-0.525391,0.633789,0
28130,0.441895,-0.530762,0.633789,0
28150,0.413574,-0.541016,0.624512,0
28170,0.384766,-0.536133,0.624512,0
28190,0.382324,-0.532227,0.626465,0
28210,0.380371,-0.530273,0.635742,0
28230,0.382324,-0.538086,0.628906,0
28250,0.399902,-0.541992,0.622559,0
28270,0.414062,-0.532715,0.623535,0
28290,0.411133,-0.527832,0.626465,0
28310,0.408691,-0.526855,0.633301,0
28330,0.431152,-0.525391,0.638184,0
28350,0.451172,-0.529785,0.643066,0
28370,0.441895,-0.531738,0.623047,0
28390,0.435547,-0.532227,0.62793,0
28410,0.44873,-0.541504,0.63916,0
28430,0.471191,-0.544922,0.637207,0
28450,0.464355,-0.538574,0.630859,0
28470,0.416992,-0.516602,0.630859,0
28490,0.40332,-0.512695,0.630371,0
28510,0.440918,-0.526855,0.637695,0
28530,0.458008,-0.520508,0.636719,0
28550,0.442871,-0.506348,0.624512,0
28570,0.443359,-0.510742,0.632812,0
28590,0.467773,-0.514648,0.637207,0
28610,0.476562,-0.517578,0.625,0
28630,0.464844,-0.51709,0.632812,0
28650,0.47168,-0.524902,0.619629,0
28670,0.479004,-0.531738,0.625,0
28690,0.458984,-0.530273,0.633789,0
28710,0.423828,-0.522461,0.625488,0
28730,0.411621,-0.521973,0.636719,0
28750,0.419434,-0.518066,0.637695,0
28770,0.417969,-0.516113,0.632324,0
28790,0.416992,-0.51416,0.643066,0
28810,0.418457,-0.513672,0.629395,0
28830,0.41748,-0.515137,0.631836,0
28850,0.415039,-0.511719,0.635254,0
28870,0.431641,-0.520996,0.630371,0
28890,0.441406,-0.520508,0.629883,0
28910,0.431641,-0.525879,0.627441,0
28930,0.438965,-0.535156,0.631836,0
28950,0.449707,-0.533691,0.632324,0
28970,0.450684,-0.52832,0.637695,0
28990,0.439453,-0.529297,0.63916,0
29010,0.44043,-0.530273,0.625,0
29030,0.449219,-0.522461,0.631348,0
29050,0.439941,-0.524902,0.630859,0
29070,0.429199,-0.525391,0.626465,0
29090,0.427734,-0.524414,0.628906,0
29110,0.437012,-0.524902,0.628906,0
29130,0.437988,-0.521484,0.633789,0
29150,0.430176,-0.515625,0.62793,0
29170,0.431152,-0.523926,0.62793,0
29190,0.438965,-0.53125,0.62793,2000
29210,0.444336,-0.52832,0.629883,0
29230,0.432129,-0.51416,0.633301,0
29250,0.429199,-0.512695,0.633301,0
29270,0.436523,-0.539062,0.632812,0
29290,0.447754,-0.555664,0.626953,0
29310,0.436523,-0.551758,0.617188,0
29330,0.424805,-0.535645,0.621582,0
29350,0.427246,-0.531738,0.625977,0
29370,0.421387,-0.522461,0.625977,0
29390,0.42627,-0.521973,0.626465,0
29410,0.436523,-0.521484,0.625,0
29430,0.426758,-0.529297,0.625488,0
29450,0.414062,-0.515137,0.62207,0
29470,0.41748,-0.505371,0.627441,0
29490,0.401367,-0.515137,0.633301,0
29510,0.394531,-0.517578,0.623535,0
29530,0.400879,-0.523926,0.619141,0
29550,0.400879,-0.536621,0.62207,0
29570,0.407227,-0.529785,0.625977,0
29590,0.410645,-0.521973,0.630859,0
29610,0.422363,-0.521484,0.632812,0
29630,0.418945,-0.529297,0.611816,0
29650,0.408203,-0.529785,0.626953,0
29670,0.407227,-0.536133,0.625,0
29690,0.406738,-0.541016,0.611328,0
29710,0.396484,-0.545898,0.608887,0
29730,0.406738,-0.524414,0.625977,0
29750,0.424316,-0.520508,0.632812,0
29770,0.419922,-0.550781,0.604492,0
29790,0.40918,-0.557129,0.57373,0
29810,0.433594,-0.547852,0.609863,0
29830,0.469727,-0.553711,0.638184,0
29850,0.46875,-0.54248,0.611816,0
29870,0.428711,-0.539551,0.57959,0
29890,0.43457,-0.554199,0.574219,0
29910,0.467773,-0.566406,0.59082,0
29930,0.452637,-0.565918,0.603516,0
29950,0.41748,-0.565918,0.582031,0
29970,0.4375,-0.567383,0.583496,0
29990,0.520508,-0.558594,0.598633,0
30010,0.530273,-0.559082,0.580078,0
30040,0.466797,-0.543457,0.555176,0
30060,0.530273,-0.568359,0.552734,0
30080,0.550781,-0.568848,0.540039,0
30100,0.516113,-0.565918,0.512207,0
30120,0.674805,-0.512207,0.508789,0
30140,0.662598,-0.508789,0.484375,0
30150,0.618164,-0.499023,0.494141,0
30170,0.673828,-0.504883,0.462402,0
30190,0.725098,-0.501953,0.429688,0
30210,0.727539,-0.50293,0.424316,0
30230,0.691406,-0.477051,0.438477,0
30250,0.709961,-0.460938,0.430176,0
30270,0.734375,-0.444336,0.411621,0
30290,0.723633,-0.435547,0.396484,0
30310,0.75293,-0.425293,0.393555,0
30330,0.762695,-0.401367,0.383301,0
30350,0.77002,-0.395996,0.349121,0
30370,0.808594,-0.389648,0.34375,0
30390,0.805664,-0.37207,0.334473,0
30410,0.819336,-0.380859,0.334961,0
30430,0.830566,-0.382324,0.321289,0
30450,0.827637,-0.373047,0.336426,0
30470,0.805176,-0.381836,0.361816,0
30500,0.804199,-0.35791,0.360352,0
30510,0.885254,-0.347168,0.370117,0
30530,0.898926,-0.349609,0.391602,0
30550,0.848633,-0.361328,0.425781,0
30570,0.758789,-0.377441,0.443359,0
30590,0.730469,-0.355469,0.44873,0
30620,0.807129,-0.362793,0.530762,0
30630,0.758301,-0.394043,0.540039,0
30650,0.717773,-0.384766,0.541504,0
30670,0.628418,-0.362305,0.554199,0
30690,0.617676,-0.32666,0.587891,0
30710,0.665039,-0.348633,0.585938,0
30730,0.705566,-0.414551,0.56543,0
30750,0.722656,-0.441895,0.624512,0
30770,0.631836,-0.408691,0.686523,0
30790,0.609863,-0.384277,0.681152,0
30810,0.655762,-0.362305,0.667969,0
30830,0.59375,-0.379395,0.681641,0
30850,0.510254,-0.412109,0.697754,0
30870,0.514648,-0.415039,0.699219,0
30890,0.546875,-0.415039,0.683594,0
30910,0.558594,-0.378906,0.680664,0
30930,0.510254,-0.352539,0.677246,0
30950,0.463867,-0.363281,0.71875,0
30970,0.453125,-0.415039,0.721191,0
30990,0.467285,-0.433594,0.730469,0
31010,0.475586,-0.42627,0.736328,0
31030,0.462402,-0.386719,0.69873,0
31050,0.394531,-0.385254,0.702148,0
31070,0.371094,-0.399902,0.721191,0
31090,0.356934,-0.414551,0.663574,0
31110,0.327637,-0.460449,0.634766,0
31130,0.303223,-0.46875,0.664551,0
31150,0.353516,-0.418945,0.696289,0
31170,0.401367,-0.416016,0.670898,0
31190,0.376953,-0.459961,0.665527,0
31210,0.34082,-0.529785,0.668945,0
31230,0.324707,-0.543945,0.670898,0
31250,0.321289,-0.524414,0.648438,0
31270,0.306152,-0.503418,0.633301,0
31290,0.299316,-0.532715,0.630859,0
31310,0.288574,-0.583984,0.601562,0
31330,0.274414,-0.577148,0.595703,0
31350,0.254883,-0.552734,0.592773,0
31370,0.279785,-0.584961,0.59375,0
31390,0.287598,-0.612305,0.588867,0
31410,0.281738,-0.614258,0.548828,0
31430,0.268555,-0.619629,0.551758,0
31450,0.256348,-0.618164,0.539551,0
31470,0.22168,-0.618164,0.49707,0
31490,0.217285,-0.683594,0.478027,0
31510,0.260742,-0.682129,0.462402,0
31530,0.243652,-0.650879,0.461914,0
31550,0.200195,-0.671387,0.452148,0
31570,0.242188,-0.72168,0.473633,0
31590,0.312988,-0.746582,0.494629,0
31610,0.334473,-0.706055,0.470215,0
31630,0.277832,-0.693848,0.443359,0
31650,0.291992,-0.782227,0.41748,0
31670,0.411621,-0.783203,0.441406,0
31690,0.416992,-0.732422,0.431641,0
31710,0.299805,-0.687012,0.378418,0
31730,0.27002,-0.725586,0.339844,0
31750,0.382324,-0.762695,0.407715,0
31770,0.486816,-0.770508,0.424316,0
31790,0.469238,-0.737305,0.383789,0
31810,0.352539,-0.744141,0.300293,0
31830,0.35498,-0.743164,0.346191,0
31850,0.44873,-0.744141,0.434082,0
31870,0.53418,-0.743164,0.400879,0
31890,0.498535,-0.750488,0.304688,0
31910,0.476562,-0.759766,0.304688,0
31930,0.577637,-0.755371,0.336426,0
31950,0.685059,-0.738281,0.372559,0
31970,0.626953,-0.679688,0.336914,0
31990,0.59082,-0.665527,0.265625,0
32010,0.639648,-0.695312,0.283691,0
32030,0.719238,-0.70752,0.28418,0
32050,0.675293,-0.703125,0.25,0
32070,0.58252,-0.63623,0.274414,0
32090,0.644531,-0.631836,0.256348,0
32110,0.81543,-0.634766,0.268555,0
32130,0.837891,-0.592285,0.269531,0
32150,0.672363,-0.550781,0.195801,0
32170,0.710449,-0.591797,0.135254,0
32190,0.821777,-0.616699,0.147461,0
32210,0.859863,-0.611328,0.173828,0
32230,0.746094,-0.547363,0.179199,0
32250,0.756836,-0.515137,0.102051,0
32270,0.873047,-0.516602,0.121094,0
32290,0.911621,-0.485352,0.158203,0
32310,0.852051,-0.449219,0.148438,0
32330,0.846191,-0.444336,0.10791,0
32350,0.875977,-0.443359,0.118164,0
32370,0.894531,-0.384277,0.14209,0
32390,0.919922,-0.375,0.14209,0
32410,0.936035,-0.369629,0.129395,0
32430,0.945312,-0.361816,0.14209,0
32450,0.950195,-0.350098,0.172852,0
32470,0.937988,-0.334961,0.171875,0
32490,0.955078,-0.329102,0.203125,0
32510,0.961426,-0.336914,0.212402,0
32530,0.961914,-0.319824,0.243652,0
32550,0.95166,-0.33252,0.267578,0
32570,0.947754,-0.353027,0.291504,0
32590,0.910645,-0.356934,0.30127,0
32610,0.875,-0.347168,0.334473,0
32630,0.888184,-0.348633,0.358887,0
32640,0.876953,-0.35791,0.391113,0
32660,0.845215,-0.356934,0.407715,0
32680,0.775391,-0.36377,0.458984,0
32700,0.775879,-0.347168,0.464355,0
32720,0.800781,-0.378906,0.45459,0
32740,0.811035,-0.392578,0.501953,0
32760,0.765137,-0.377441,0.533691,0
32780,0.72998,-0.375,0.527344,0
32800,0.750488,-0.353027,0.51416,0
32820,0.759277,-0.381348,0.509277,0
32840,0.762695,-0.388672,0.559082,0
32860,0.70752,-0.41748,0.571289,0
32880,0.669922,-0.427734,0.536133,0
32900,0.630859,-0.427734,0.519531,0
32920,0.598633,-0.40625,0.523926,0
32940,0.57666,-0.438965,0.541504,0
32960,0.555664,-0.46582,0.560547,0
32980,0.558594,-0.476074,0.556152,0
33000,0.520508,-0.461914,0.543457,0
33020,0.458496,-0.489746,0.523926,0
33040,0.460449,-0.507324,0.530762,0
33060,0.496094,-0.500488,0.539062,0
33080,0.428223,-0.501953,0.515625,0
33100,0.380371,-0.53418,0.495605,0
33120,0.405273,-0.572754,0.489258,0
33140,0.425781,-0.582031,0.499023,0
33160,0.422852,-0.603027,0.469238,0
33180,0.448242,-0.608398,0.444336,0
33200,0.4375,-0.574219,0.444336,0
33220,0.39502,-0.632324,0.429688,0
33240,0.400879,-0.677734,0.436523,0
33260,0.427246,-0.682617,0.398438,0
33280,0.415527,-0.644531,0.400391,0
33300,0.381348,-0.650391,0.408691,0
33320,0.397461,-0.711914,0.396973,0
33340,0.418457,-0.71875,0.39502,0
33360,0.387695,-0.687012,0.369629,0
33380,0.370605,-0.682129,0.354004,0
33400,0.378418,-0.711914,0.368652,0
33420,0.40625,-0.726074,0.324707,0
33440,0.381348,-0.720703,0.286133,0
33460,0.379395,-0.729492,0.283691,0
33480,0.452637,-0.75,0.316406,0
33500,0.48584,-0.756348,0.307617,0
33520,0.442383,-0.753906,0.280273,0
33540,0.448242,-0.766602,0.283691,0
33560,0.519531,-0.752441,0.309082,0
33580,0.54834,-0.725586,0.288086,0
33600,0.47998,-0.728516,0.235352,0
33620,0.470703,-0.793457,0.186523,0
33640,0.531738,-0.774414,0.233887,0
33660,0.569336,-0.737305,0.23877,0
33680,0.54541,-0.67627,0.228027,0
33700,0.515137,-0.737793,0.139648,0
33720,0.601562,-0.726074,0.216309,0
33740,0.665527,-0.687988,0.240723,0
33760,0.644043,-0.650879,0.205078,0
33780,0.657227,-0.719727,0.131348,0
33800,0.72998,-0.72168,0.161133,0
33820,0.737305,-0.692871,0.135254,0
33840,0.672852,-0.619629,0.158203,0
33860,0.71582,-0.654297,0.145996,0
33880,0.789551,-0.657715,0.158691,0
33900,0.782715,-0.602539,0.121094,0
33920,0.718262,-0.580078,0.0874023,0
33940,0.745117,-0.616699,0.0541992,0
33960,0.850098,-0.618164,0.10791,0
33980,0.868652,-0.580078,0.122559,0
34000,0.80127,-0.534668,0.0888672,0
34020,0.760742,-0.491699,0.0649414,0
34040,0.859863,-0.523438,0.0410156,0
34060,0.894043,-0.515137,0.0849609,0
34080,0.868652,-0.475586,0.105957,0
34100,0.839355,-0.441406,0.0898438,0
34120,0.889648,-0.437012,0.107422,0
34140,0.950684,-0.421875,0.137207,0
34160,0.935547,-0.421387,0.125,0
34180,0.877441,-0.391602,0.117676,0
34200,0.871094,-0.373047,0.108887,0
34220,0.942871,-0.356445,0.146973,0
34240,0.969238,-0.346191,0.158203,0
34260,0.944336,-0.342773,0.155762,0
34280,0.911621,-0.331543,0.171387,0
34300,0.914062,-0.312012,0.19043,0
34320,0.924805,-0.29248,0.209473,0
34340,0.927246,-0.274414,0.217285,0
34360,0.932617,-0.273926,0.220215,0
34380,0.931641,-0.277344,0.227539,0
34390,0.932129,-0.268555,0.249512,0
34400,0.927246,-0.257812,0.279785,0
34420,0.919434,-0.265137,0.305664,0
34440,0.908691,-0.289062,0.285645,0
34460,0.900391,-0.268555,0.322266,0
34480,0.886719,-0.26709,0.352051,0
34500,0.895508,-0.290527,0.38623,0
34520,0.90625,-0.310059,0.404297,0
34540,0.884277,-0.341797,0.393066,0
34560,0.850098,-0.320312,0.444824,0
34580,0.824707,-0.337891,0.458008,0
34600,0.834961,-0.337402,0.480469,0
34620,0.790527,-0.366211,0.487305,0
34640,0.755371,-0.384766,0.501465,0
34660,0.760742,-0.402344,0.558594,0
34680,0.808105,-0.382812,0.558594,0
34700,0.787598,-0.350098,0.57666,0
34720,0.696289,-0.444336,0.465332,0
34740,0.616699,-0.484863,0.435059,0
34760,0.53418,-0.447754,0.491699,0
34780,0.541504,-0.405762,0.530273,0
34800,0.574707,-0.411133,0.513184,0
34820,0.585938,-0.460938,0.466309,0
34840,0.583984,-0.529297,0.484863,0
34860,0.570312,-0.495605,0.522461,0
34880,0.549805,-0.460938,0.508301,0
34900,0.55957,-0.543457,0.458008,0
34920,0.583496,-0.547363,0.444336,0
34940,0.539551,-0.529297,0.487305,0
34960,0.504395,-0.544922,0.434082,0
34980,0.502441,-0.583008,0.375977,0
35000,0.518066,-0.602051,0.393066,0
35020,0.486816,-0.592285,0.400391,0
35040,0.499023,-0.641602,0.379883,0
35060,0.531738,-0.626953,0.361816,0
35080,0.488281,-0.581055,0.311035,0
35100,0.429688,-0.618164,0.29834,0
35120,0.44043,-0.657715,0.325684,0
35140,0.495117,-0.693848,0.353516,0
35160,0.500488,-0.631836,0.312012,0
35180,0.446777,-0.585449,0.254883,0
35200,0.450684,-0.697754,0.283203,0
35220,0.523926,-0.707031,0.322754,0
35240,0.530273,-0.689453,0.331543,0
35260,0.534668,-0.678223,0.27002,0
35280,0.532715,-0.717773,0.233398,0
35300,0.532227,-0.753906,0.25,0
35320,0.559082,-0.740723,0.248535,0
35340,0.558594,-0.685059,0.244141,0
35360,0.590332,-0.708008,0.25293,0
35380,0.615234,-0.746094,0.231445,0
35400,0.606934,-0.779785,0.179688,0
35420,0.552734,-0.742188,0.145508,0
35440,0.521484,-0.722168,0.165527,0
35460,0.62207,-0.721191,0.20459,0
35480,0.696289,-0.742188,0.161621,0
35500,0.638672,-0.749023,0.131836,0
35520,0.600586,-0.685547,0.130859,0
35540,0.604492,-0.630859,0.120117,0
35560,0.606445,-0.689941,0.0961914,0
35580,0.628906,-0.70459,0.0927734,0
35600,0.685547,-0.69043,0.101562,0
35620,0.680176,-0.671875,0.0981445,0
35640,0.664551,-0.683105,0.0751953,0
35660,0.695312,-0.686523,0.0537109,0
35680,0.723633,-0.651367,0.0649414,0
35700,0.754395,-0.616699,0.0932617,0
35720,0.749512,-0.61084,0.0893555,0
35740,0.745605,-0.623535,0.0307617,0
35760,0.75293,-0.639648,0.0209961,0
35780,0.761719,-0.592773,0.0571289,0
35800,0.763184,-0.586914,0.0654297,0
35820,0.79541,-0.583496,0.0131836,0
35840,0.793945,-0.581543,0.0195312,0
35860,0.807129,-0.570312,0.0380859,0
35880,0.806641,-0.542969,0.0366211,0
35900,0.810547,-0.523438,0.0170898,0
35920,0.851074,-0.53125,0.00878906,0
35940,0.891113,-0.529297,0.0336914,0
35960,0.871094,-0.507812,0.0317383,0
35980,0.819336,-0.492676,0.00683594,0
36000,0.842773,-0.495605,-0.0234375,0
36020,0.903809,-0.492188,-0.00585938,0
36030,0.922363,-0.479004,0.00585938,2001
36050,0.86377,-0.450684,-0.00244141,0
36070,0.865234,-0.469238,-0.0195312,0
36090,0.887695,-0.461914,0.000488281,0
36110,0.891602,-0.444336,-0.00537109,0
36130,0.899902,-0.430176,-0.00830078,0
36150,0.902344,-0.439453,0.0146484,0
36170,0.884766,-0.435059,0.00292969,0
36190,0.874023,-0.428711,0.0146484,0
36210,0.873535,-0.422852,0.0180664,0
36230,0.853027,-0.42334,0.0180664,0
36250,0.818848,-0.430664,0.0151367,0
36270,0.786133,-0.436523,0.0224609,0
36290,0.759766,-0.42041,0.0244141,0
36310,0.779785,-0.42041,0.0214844,0
36330,0.787598,-0.424316,0.0292969,0
36350,0.765137,-0.434082,0.0200195,0
36370,0.731445,-0.429199,0.0185547,0
36390,0.698242,-0.43457,0.0185547,0
36410,0.705078,-0.433105,0.0263672,0
36430,0.718262,-0.427734,0.0546875,0
36450,0.68457,-0.396484,0.0634766,0
36470,0.668945,-0.411621,0.0317383,0
36490,0.664551,-0.42334,0.046875,0
36510,0.692871,-0.411621,0.118164,0
36530,0.654297,-0.36377,0.164551,0
36550,0.598145,-0.323242,0.140625,0
36570,0.619629,-0.394043,0.0600586,0
36590,0.74707,-0.46582,0.12793,0
36610,0.79541,-0.462891,0.239746,0
36630,0.756348,-0.4375,0.212891,0
36650,0.824707,-0.50293,0.170898,0
36670,0.898438,-0.547363,0.262207,0
36690,0.863281,-0.529785,0.330078,0
36710,0.826172,-0.538086,0.274902,0
36730,0.884766,-0.609863,0.270996,0
36750,0.921875,-0.634766,0.382812,0
36770,0.855469,-0.651367,0.411133,0
36790,0.75,-0.64502,0.388672,0
36810,0.762207,-0.678223,0.390625,0
36830,0.782227,-0.723633,0.437988,0
36850,0.753906,-0.703613,0.448242,0
36890,0.695801,-0.764648,0.48584,0
36910,0.658691,-0.788086,0.503906,0
36930,0.599121,-0.754395,0.48584,0
36950,0.539551,-0.740234,0.474121,0
36970,0.500977,-0.72168,0.51416,0
36990,0.475098,-0.716309,0.53418,0
37010,0.446289,-0.708496,0.519043,0
37030,0.425781,-0.697266,0.509766,0
37050,0.404785,-0.699707,0.47998,0
37070,0.413086,-0.733887,0.484863,0
37090,0.416992,-0.730469,0.504395,0
37110,0.40332,-0.710938,0.489746,0
37130,0.383789,-0.686523,0.472656,0
37150,0.404297,-0.69043,0.460938,0
37170,0.410156,-0.684082,0.463379,0
37190,0.376953,-0.667969,0.466797,0
37210,0.358398,-0.686035,0.45166,0
37230,0.401367,-0.713379,0.44873,0
37250,0.435059,-0.714355,0.488281,0
37270,0.407715,-0.682617,0.48877,0
37290,0.405762,-0.691895,0.47998,0
37310,0.436035,-0.713867,0.480957,0
37330,0.447266,-0.712891,0.490234,0
37350,0.433594,-0.696289,0.480957,0
37370,0.435547,-0.699707,0.471191,0
37390,0.441406,-0.699707,0.493652,0
37410,0.441895,-0.685059,0.504395,0
37430,0.434082,-0.68457,0.492188,0
37450,0.420898,-0.703125,0.483398,0
37470,0.431641,-0.69043,0.486816,0
37490,0.430176,-0.673828,0.498535,0
37510,0.40332,-0.672363,0.499023,0
37530,0.400391,-0.678223,0.494141,0
37550,0.41748,-0.691895,0.48584,0
37570,0.415039,-0.687988,0.489746,0
37590,0.403809,-0.668945,0.490723,2000
37610,0.398926,-0.664551,0.484863,0
37630,0.418457,-0.689941,0.499512,0
37650,0.422852,-0.708984,0.490234,0
37670,0.402832,-0.700195,0.485352,0
37690,0.401855,-0.689941,0.471191,0
37710,0.398926,-0.668945,0.476074,0
37730,0.411133,-0.654785,0.502441,0
37750,0.42627,-0.67041,0.501465,0
37770,0.411133,-0.702637,0.488281,0
37790,0.380859,-0.717773,0.486816,0
37810,0.360352,-0.716309,0.475098,0
37830,0.361328,-0.691895,0.489746,0
37850,0.37793,-0.676758,0.505371,0
37870,0.402832,-0.685059,0.493164,0
37890,0.42041,-0.694336,0.485352,0
37910,0.414551,-0.676758,0.47998,0
37930,0.421875,-0.672852,0.482422,0
37950,0.449219,-0.684082,0.490234,0
37970,0.473633,-0.690918,0.467773,0
37990,0.459961,-0.695801,0.450684,0
38010,0.427734,-0.679688,0.450195,0
38020,0.450195,-0.67627,0.48584,0
38040,0.500977,-0.688477,0.475098,0
38060,0.493652,-0.677246,0.45459,0
38080,0.449219,-0.653809,0.441406,0
38100,0.445312,-0.65625,0.431152,0
38120,0.474121,-0.68457,0.428711,0
38140,0.489258,-0.70166,0.42334,0
38160,0.490234,-0.693359,0.429688,0
38180,0.48291,-0.682129,0.414062,0
38200,0.477539,-0.687988,0.411621,0
38220,0.490723,-0.689453,0.416504,0
38250,0.569336,-0.658203,0.388672,0
38270,0.598145,-0.633789,0.393066,0
38290,0.571289,-0.615723,0.389648,0
38310,0.573242,-0.638672,0.350586,0
38330,0.595703,-0.644531,0.360352,0
38350,0.593262,-0.650391,0.369141,0
38370,0.624023,-0.635742,0.350586,0
38390,0.651367,-0.615234,0.35498,0
38410,0.655762,-0.604492,0.337891,0
38430,0.649414,-0.609375,0.333984,0
38450,0.647949,-0.59082,0.357422,0
38470,0.681641,-0.57666,0.339844,0
38490,0.652344,-0.570801,0.33252,0
38510,0.694336,-0.569824,0.327637,0
38530,0.709473,-0.5625,0.317383,0
38540,0.739746,-0.549805,0.3125,0
38560,0.728516,-0.534668,0.327637,0
38580,0.732422,-0.502441,0.34082,0
38600,0.744141,-0.501465,0.319336,0
38620,0.757324,-0.496582,0.297363,0
38640,0.770996,-0.489746,0.295898,0
38660,0.754395,-0.477051,0.321289,0
38680,0.76123,-0.47168,0.318359,0
38700,0.761719,-0.470215,0.313965,0
38710,0.773926,-0.472168,0.320312,0
38720,0.767578,-0.46875,0.330566,0
38740,0.776367,-0.466309,0.332031,0
38760,0.779785,-0.470703,0.334961,0
38780,0.794922,-0.464844,0.345703,0
38800,0.796875,-0.466797,0.335938,0
38810,0.793457,-0.463867,0.351074,0
38830,0.77832,-0.453125,0.381836,0
38850,0.765137,-0.455566,0.364746,0
38870,0.779785,-0.454102,0.370605,0
38890,0.776367,-0.441406,0.39209,0
38910,0.747559,-0.411621,0.410645,0
38920,0.775879,-0.404297,0.427734,0
38940,0.697266,-0.385254,0.480957,0
38960,0.663086,-0.400879,0.486816,0
38980,0.694824,-0.416992,0.47168,0
39000,0.759766,-0.419434,0.492676,0
39020,0.76709,-0.428711,0.504883,0
39040,0.658203,-0.412109,0.538086,0
39060,0.639648,-0.394531,0.51709,0
39080,0.70459,-0.413574,0.524902,0
39100,0.73291,-0.421875,0.533691,0
39120,0.709473,-0.416992,0.554688,0
39140,0.675293,-0.401855,0.557129,0
39160,0.633301,-0.389648,0.556152,0
39180,0.647949,-0.399902,0.553711,0
39200,0.655273,-0.401855,0.584473,0
39220,0.657227,-0.394043,0.59668,0
39240,0.681152,-0.392578,0.594727,0
39260,0.637695,-0.401855,0.601562,0
39280,0.541016,-0.371582,0.602051,0
39300,0.549805,-0.393066,0.580078,0
39320,0.590332,-0.404785,0.632324,0
39340,0.605469,-0.438965,0.653809,0
39360,0.592285,-0.438477,0.619141,0
39380,0.556641,-0.411621,0.594238,0
39400,0.53418,-0.380859,0.609375,0
39420,0.547363,-0.405762,0.666504,0
39440,0.56543,-0.443359,0.669922,0
39460,0.552246,-0.464844,0.649902,0
39480,0.539551,-0.462891,0.630371,0
39500,0.543945,-0.478516,0.640137,0
39520,0.551758,-0.444336,0.682129,0
39540,0.495117,-0.478027,0.667969,0
39560,0.490723,-0.479492,0.695312,0
39580,0.469238,-0.480469,0.689453,0
39600,0.417969,-0.481934,0.67041,0
39620,0.398438,-0.512695,0.661133,0
39640,0.383789,-0.49707,0.677246,0
39660,0.361328,-0.541504,0.626465,0
39680,0.333008,-0.540527,0.637695,0
39700,0.285156,-0.529297,0.602051,0
39720,0.26416,-0.545898,0.587402,0
39740,0.330566,-0.557617,0.610352,0
39760,0.40918,-0.563965,0.588379,0
39780,0.388184,-0.556641,0.574219,0
39800,0.330078,-0.555664,0.598633,0
39820,0.351562,-0.576172,0.607422,0
39840,0.380859,-0.608398,0.566895,0
39860,0.381836,-0.602051,0.558594,0
39880,0.385254,-0.634766,0.580566,0
39900,0.395508,-0.642578,0.567383,0
39920,0.328613,-0.609375,0.507324,0
39940,0.297852,-0.617188,0.493652,0
39960,0.331543,-0.608887,0.541992,0
39980,0.350586,-0.645508,0.541016,0
40000,0.36084,-0.650879,0.512207,0
40020,0.375,-0.672363,0.496582,0
40040,0.355957,-0.669434,0.49707,0
40060,0.315918,-0.671875,0.505371,0
40080,0.31543,-0.70166,0.483887,0
40100,0.35498,-0.706055,0.448242,0
40120,0.366699,-0.664551,0.446777,0
40140,0.308594,-0.684082,0.467773,0
40160,0.322266,-0.728516,0.477051,0
40180,0.34082,-0.727051,0.430176,0
40200,0.331543,-0.716309,0.401367,0
40220,0.345703,-0.726074,0.43457,0
40240,0.373047,-0.751465,0.455078,0
40260,0.371582,-0.771973,0.435547,0
40280,0.362793,-0.745605,0.395996,0
40300,0.338379,-0.742676,0.364746,0
40320,0.357422,-0.753906,0.390625,0
40340,0.389648,-0.748535,0.388184,0
40360,0.39502,-0.756348,0.35791,0
40380,0.400391,-0.763672,0.338379,0
40400,0.451172,-0.776855,0.36084,0
40420,0.51123,-0.754883,0.385742,0
40440,0.481445,-0.732422,0.341797,0
40460,0.442383,-0.742676,0.258301,0
40480,0.430176,-0.766113,0.271484,0
40500,0.500977,-0.745117,0.318848,0
40520,0.540039,-0.723633,0.335938,0
40540,0.551758,-0.773438,0.245605,0
40560,0.589844,-0.797852,0.227539,0
40580,0.599121,-0.763184,0.271484,0
40600,0.577637,-0.705566,0.305664,0
40620,0.544922,-0.688477,0.290039,0
40640,0.587891,-0.728027,0.165039,0
40660,0.635254,-0.734375,0.182617,0
40680,0.625,-0.722656,0.227539,0
40700,0.581055,-0.638184,0.286133,0
40720,0.589355,-0.623535,0.23877,0
40740,0.647461,-0.678711,0.152832,0
40760,0.641602,-0.705566,0.160645,0
40780,0.609375,-0.682129,0.197754,0
40800,0.602539,-0.632324,0.241211,0
40820,0.6875,-0.65918,0.196777,0
40840,0.779785,-0.656738,0.152832,0
40860,0.730957,-0.625977,0.191895,0
40880,0.708984,-0.611328,0.180664,0
40900,0.726562,-0.65625,0.102051,0
40920,0.850098,-0.612793,0.130859,0
40940,0.84375,-0.566406,0.179688,0
40960,0.791992,-0.557129,0.158691,0
40980,0.765137,-0.556641,0.0996094,0
41000,0.828125,-0.54541,0.0834961,0
41020,0.873047,-0.521484,0.126465,0
41040,0.869141,-0.477539,0.149414,0
41060,0.849609,-0.458984,0.132324,0
41080,0.852539,-0.459473,0.0737305,0
41100,0.884277,-0.446777,0.10498,0
41120,0.913086,-0.416992,0.126465,0
41140,0.924805,-0.38916,0.128906,0
41160,0.907715,-0.381348,0.109863,0
41180,0.925781,-0.385742,0.106445,0
41200,0.948242,-0.375977,0.11084,0
41220,0.940918,-0.357422,0.141602,0
41240,0.922363,-0.331055,0.179199,0
41260,0.934082,-0.317871,0.17627,0
41280,0.921875,-0.323242,0.196289,0
41300,0.916992,-0.320312,0.219238,0
41310,0.944336,-0.319824,0.247559,0
41330,0.92334,-0.304199,0.272461,0
41350,0.895996,-0.29834,0.305176,0
41370,0.865723,-0.311523,0.314941,0
41390,0.88623,-0.322266,0.311523,0
41410,0.882812,-0.29834,0.339355,0
41430,0.848145,-0.282715,0.374512,0
41450,0.859863,-0.298828,0.429199,0
41470,0.837402,-0.302246,0.432129,0
41490,0.804688,-0.318359,0.412109,0
41510,0.772461,-0.355957,0.422852,0
41530,0.777832,-0.333496,0.481445,0
41550,0.786621,-0.32666,0.515137,0
41570,0.772949,-0.356445,0.496094,0
41590,0.728516,-0.351074,0.497559,0
41610,0.791992,-0.371094,0.527832,0
41630,0.815918,-0.36377,0.549805,0
41650,0.775879,-0.316895,0.526855,0
41670,0.67627,-0.327148,0.485352,0
41690,0.611328,-0.36377,0.504395,0
41710,0.655762,-0.403809,0.527344,0
41730,0.679199,-0.408203,0.560547,0
41750,0.671387,-0.375488,0.527344,0
41770,0.675293,-0.409668,0.507812,0
41790,0.688477,-0.458984,0.556641,0
41810,0.655273,-0.45752,0.586426,0
41830,0.582031,-0.44873,0.534668,0
41850,0.553711,-0.419434,0.533691,0
41870,0.571289,-0.455566,0.544434,0
41890,0.569824,-0.499023,0.526367,0
41910,0.505371,-0.505371,0.505859,0
41930,0.464355,-0.480469,0.517578,0
41950,0.476074,-0.483887,0.506836,0
41970,0.511719,-0.529297,0.512695,0
41990,0.518555,-0.519531,0.508789,0
42010,0.479004,-0.498047,0.499023,0
42030,0.482422,-0.516602,0.519531,0
42050,0.520508,-0.57373,0.487305,0
42070,0.505371,-0.603516,0.450195,0
42090,0.481934,-0.574707,0.464844,0
42110,0.479004,-0.541992,0.464355,0
42130,0.49707,-0.563965,0.461914,0
42150,0.514648,-0.59375,0.450684,0
42170,0.505371,-0.595215,0.448242,0
42190,0.510254,-0.614258,0.470215,0
42210,0.514648,-0.660645,0.457031,0
42230,0.524902,-0.643066,0.423828,0
42250,0.516113,-0.616211,0.427246,0
42270,0.458984,-0.636719,0.424316,0
42290,0.473145,-0.6875,0.401855,0
42310,0.465332,-0.652832,0.380859,0
42330,0.422852,-0.651855,0.355957,0
42350,0.410156,-0.679199,0.371094,0
42370,0.432617,-0.696289,0.376465,0
42390,0.437988,-0.683594,0.323242,0
42410,0.408691,-0.677734,0.316895,0
42430,0.413086,-0.718262,0.341797,0
42450,0.457031,-0.733398,0.350586,0
42470,0.47168,-0.741211,0.312988,0
42490,0.478027,-0.749512,0.30127,0
42510,0.51123,-0.754395,0.333008,0
42530,0.539551,-0.764648,0.335449,0
42550,0.545898,-0.764648,0.278809,0
42570,0.519531,-0.743164,0.260254,0
42590,0.525391,-0.739746,0.259766,0
42610,0.568359,-0.755371,0.27002,0
42630,0.579102,-0.779297,0.242188,0
42650,0.543945,-0.74707,0.216309,0
42670,0.513672,-0.750488,0.196289,0
42690,0.548828,-0.747559,0.220703,0
42710,0.583984,-0.744629,0.207031,0
42730,0.571777,-0.75,0.161621,0
42750,0.556641,-0.728516,0.166504,0
42770,0.571777,-0.706055,0.182617,0
42790,0.61084,-0.696777,0.176758,0
42810,0.631836,-0.698242,0.137207,0
42830,0.607422,-0.700195,0.10498,0
42850,0.59668,-0.69873,0.10498,0
42870,0.655762,-0.695312,0.112305,0
42890,0.692871,-0.657715,0.124512,0
42910,0.673828,-0.697754,0.0620117,0
42930,0.708008,-0.691895,0.0639648,0
42950,0.788086,-0.700684,0.0654297,0
42970,0.744629,-0.637207,0.0825195,0
42990,0.6875,-0.637207,0.0419922,0
43010,0.777832,-0.659668,-0.00341797,0
43030,0.876953,-0.639648,0.0292969,0
43050,0.790039,-0.560059,0.043457,0
43070,0.737305,-0.54248,-0.0102539,0
43090,0.809082,-0.586914,-0.0810547,0
43110,0.889648,-0.555176,0.00732422,0
43130,0.829102,-0.521973,0.0302734,0
43150,0.803711,-0.469727,-0.0102539,0
43170,0.857422,-0.450684,-0.0307617,0
43190,0.902832,-0.42627,0.00878906,0
43210,0.876465,-0.40332,-0.00341797,0
43230,0.867188,-0.38623,-0.0424805,0
43240,0.911621,-0.365723,-0.0078125,0
43270,0.916504,-0.339844,0,0
43280,0.925293,-0.337402,-0.0205078,0
43300,0.932617,-0.314941,-0.0161133,0
43320,0.945801,-0.297363,0.0175781,0
43340,0.974609,-0.273926,0.03125,0
43360,0.975098,-0.267578,0.0322266,0
43380,0.958008,-0.251953,0.0625,0
43400,0.955078,-0.242188,0.0786133,0
43420,0.953125,-0.225586,0.0893555,0
43440,0.952148,-0.210449,0.120117,0
43460,0.968262,-0.208008,0.138672,0
43480,0.958496,-0.210449,0.146484,0
43500,0.97168,-0.191895,0.183594,0
43520,0.97998,-0.178711,0.20752,0
43540,0.950684,-0.185547,0.22998,0
43560,0.927246,-0.180176,0.225586,0
43580,0.940918,-0.186035,0.244629,0
43600,0.931152,-0.195312,0.275879,0
43620,0.939453,-0.180176,0.309082,0
43640,0.931152,-0.200195,0.344727,0
43660,0.897949,-0.212402,0.336426,0
43680,0.888672,-0.211426,0.330566,0
43700,0.876465,-0.165527,0.383301,0
43720,0.89209,-0.209473,0.392578,0
43740,0.905273,-0.256348,0.40918,0
43760,0.885742,-0.275879,0.429199,0
43780,0.86377,-0.293457,0.416504,0
43800,0.799316,-0.268066,0.427246,0
43820,0.835449,-0.288086,0.453613,0
43840,0.905273,-0.312988,0.493164,0
43860,0.859863,-0.336914,0.475098,0
43880,0.740723,-0.376953,0.455566,0
43900,0.724609,-0.375977,0.48291,0
43920,0.765625,-0.395996,0.466309,0
43940,0.734375,-0.410645,0.478027,0
43960,0.663086,-0.444336,0.462891,0
43980,0.688965,-0.495605,0.473145,0
44000,0.760742,-0.478516,0.50293,0
44020,0.693848,-0.460449,0.491211,0
44040,0.53418,-0.496582,0.452148,0
44060,0.51709,-0.525879,0.429688,0
44080,0.544434,-0.5,0.445801,0
44100,0.491699,-0.491211,0.4375,0
44120,0.501465,-0.544434,0.456543,0
44140,0.518555,-0.577148,0.464355,0
44160,0.552246,-0.591309,0.42334,0
44180,0.557617,-0.600098,0.398926,0
44200,0.570312,-0.590332,0.369629,0
44220,0.549316,-0.603516,0.37207,0
44240,0.522461,-0.637207,0.320801,0
44260,0.519531,-0.650879,0.281738,0
44280,0.515625,-0.603516,0.299805,0
44300,0.508301,-0.613281,0.323242,0
44320,0.482422,-0.661133,0.305664,0
44340,0.493164,-0.67041,0.250488,0
44360,0.499512,-0.668457,0.237793,0
44380,0.479004,-0.646973,0.236328,0
44400,0.493652,-0.71875,0.227051,0
44420,0.513672,-0.71875,0.225586,0
44440,0.517578,-0.687988,0.248535,0
44460,0.564941,-0.675781,0.23584,0
44480,0.604004,-0.70752,0.236328,0
44500,0.586426,-0.70752,0.217773,0
44520,0.572754,-0.705566,0.193848,0
44540,0.619629,-0.717285,0.163574,0
44560,0.619141,-0.693848,0.133789,0
44580,0.58252,-0.675781,0.142578,0
44600,0.554199,-0.702148,0.114746,0
44620,0.602539,-0.75,0.130859,0
44640,0.646973,-0.748535,0.147949,0
44660,0.657715,-0.708496,0.140137,0
44680,0.612793,-0.695312,0.100586,0
44700,0.590332,-0.722656,0.0649414,0
44720,0.634277,-0.759277,0.0717773,0
44740,0.692871,-0.721191,0.102539,0
44760,0.699707,-0.674316,0.0737305,0
44780,0.648438,-0.668945,0.0317383,0
44800,0.647461,-0.671387,0.0234375,0
44820,0.664062,-0.646484,0.0302734,0
44840,0.683105,-0.651855,0.0180664,0
44860,0.746582,-0.663086,0.000976562,0
44880,0.76709,-0.645996,-0.012207,0
44900,0.710938,-0.617676,0.00634766,0
44920,0.693359,-0.626953,0.00683594,0
44940,0.764648,-0.635742,-0.00732422,0
44960,0.839844,-0.618164,-0.0327148,0
44980,0.802734,-0.599121,-0.0454102,0
45000,0.762207,-0.585938,-0.0341797,0
45020,0.802246,-0.59375,-0.0400391,0
45040,0.851562,-0.595703,-0.0561523,0
45060,0.808105,-0.570801,-0.0737305,0
45080,0.78418,-0.531738,-0.0473633,0
45100,0.774414,-0.506348,-0.0185547,0
45120,0.812988,-0.53418,-0.0600586,0
45140,0.870605,-0.528809,-0.0986328,0
45160,0.866699,-0.523926,-0.0649414,0
45180,0.830078,-0.507324,-0.043457,0
45200,0.842285,-0.495117,-0.0581055,0
45220,0.912109,-0.476562,-0.0761719,0
45240,0.953125,-0.508301,-0.0737305,2001
45260,0.920898,-0.489258,-0.0375977,0
45280,0.898926,-0.450195,-0.0532227,0
45300,0.900879,-0.450684,-0.074707,0
45320,0.903809,-0.448242,-0.0732422,0
45340,0.894531,-0.452148,-0.074707,0
45360,0.905762,-0.458008,-0.078125,0
45380,0.897461,-0.431152,-0.0600586,0
45400,0.862793,-0.425781,-0.0644531,0
45420,0.828613,-0.424316,-0.0585938,0
45440,0.812012,-0.42334,-0.0541992,0
45460,0.784668,-0.413574,-0.0288086,0
45480,0.76416,-0.403809,-0.0449219,0
45500,0.75293,-0.411133,-0.046875,0
45520,0.693848,-0.393555,-0.0141602,0
45540,0.617676,-0.360352,-0.0136719,0
45560,0.59375,-0.367676,-0.0424805,0
45580,0.619141,-0.394531,-0.0288086,0
45600,0.641602,-0.387207,0.0239258,0
45620,0.61084,-0.36377,0.0551758,0
45640,0.586426,-0.388184,0.0146484,0
45660,0.679199,-0.427734,-0.0244141,0
45680,0.765625,-0.414551,0.0742188,0
45700,0.716309,-0.383301,0.154785,0
45720,0.674316,-0.425293,0.126465,0
45740,0.777344,-0.496094,0.121094,0
45760,0.822754,-0.476074,0.253906,0
45780,0.78418,-0.462402,0.291504,0
45800,0.79248,-0.574219,0.203613,0
45820,0.90332,-0.637207,0.249512,0
45840,0.941406,-0.60791,0.337402,0
45860,0.915039,-0.600098,0.349121,0
45880,0.911621,-0.682617,0.336426,0
45900,0.877441,-0.736328,0.362305,0
45920,0.787109,-0.701172,0.40332,0
45940,0.72998,-0.645996,0.447754,0
45960,0.72168,-0.686035,0.456055,0
45980,0.759277,-0.758789,0.449707,0
46000,0.715332,-0.752441,0.484375,0
46020,0.640625,-0.703125,0.490234,0
46040,0.599121,-0.662598,0.506348,0
46060,0.598145,-0.688965,0.538574,0
46080,0.585449,-0.729004,0.501953,0
46100,0.568848,-0.75293,0.487305,0
46120,0.546387,-0.708008,0.512207,0
46140,0.507812,-0.659668,0.535645,0
46160,0.484863,-0.662598,0.533203,0
46180,0.495605,-0.686035,0.52002,0
46200,0.5,-0.688965,0.506836,0
46220,0.455078,-0.662109,0.521484,0
46240,0.424805,-0.654785,0.515625,0
46260,0.421387,-0.64502,0.523926,0
46280,0.426758,-0.649414,0.523926,0
46300,0.421387,-0.664062,0.512695,0
46320,0.38916,-0.661621,0.511719,0
46340,0.375488,-0.660156,0.508301,0
46360,0.38916,-0.67334,0.507812,0
46380,0.415039,-0.664062,0.512695,0
46400,0.422852,-0.660156,0.503418,0
46420,0.428223,-0.670898,0.501953,0
46440,0.430176,-0.661133,0.503906,0
46460,0.443359,-0.655273,0.505859,0
46480,0.452637,-0.641113,0.513672,0
46500,0.457031,-0.659668,0.505371,2000
46520,0.461914,-0.67334,0.493164,0
46540,0.455078,-0.646973,0.505859,0
46560,0.455078,-0.62793,0.513184,0
46580,0.44043,-0.650879,0.516602,0
46600,0.449707,-0.658203,0.519531,0
46620,0.449219,-0.667969,0.519531,0
46640,0.432129,-0.67041,0.507324,0
46660,0.387695,-0.652832,0.498047,0
46680,0.391602,-0.652344,0.499512,0
46700,0.402344,-0.666504,0.509766,0
46720,0.388672,-0.665527,0.506348,0
46730,0.374512,-0.661133,0.508301,0
46750,0.369629,-0.667969,0.514648,0
46770,0.371094,-0.666992,0.508789,0
46790,0.390625,-0.646484,0.529785,0
46810,0.421387,-0.641113,0.521484,0
46830,0.441895,-0.65332,0.510254,0
46850,0.449219,-0.654785,0.511719,0
46870,0.473633,-0.644531,0.516602,0
46890,0.498535,-0.630859,0.500977,0
46910,0.497559,-0.634277,0.486328,0
46930,0.482422,-0.645996,0.467285,0
46950,0.486328,-0.631348,0.495605,0
46970,0.514648,-0.629395,0.494141,0
46990,0.526855,-0.632324,0.475098,0
47010,0.494141,-0.635742,0.460938,0
47030,0.481445,-0.637207,0.466309,0
47050,0.51123,-0.653809,0.46582,0
47070,0.522949,-0.639648,0.456543,0
47090,0.535156,-0.635254,0.443848,0
47110,0.522461,-0.641113,0.462402,0
47130,0.509766,-0.640137,0.44043,0
47150,0.542969,-0.637207,0.409668,0
47170,0.565918,-0.627441,0.398438,0
47190,0.584473,-0.62207,0.42627,0
47210,0.591309,-0.611816,0.414551,0
47230,0.590332,-0.609375,0.394531,0
47250,0.581543,-0.591309,0.382324,0
47270,0.589844,-0.613281,0.391602,0
47290,0.620605,-0.602539,0.395508,0
47330,0.673828,-0.574219,0.348145,0
47330,0.645508,-0.568848,0.360352,0
47350,0.620117,-0.604004,0.317383,0
47350,0.697266,-0.597656,0.333496,0
47370,0.728027,-0.567871,0.344727,0
47390,0.728516,-0.535645,0.3125,0
47410,0.73291,-0.509277,0.299805,0
47430,0.755371,-0.494141,0.292969,0
47450,0.748047,-0.512207,0.270508,0
47470,0.770996,-0.497559,0.271973,0
47490,0.797852,-0.474121,0.265625,0
47510,0.788574,-0.457031,0.26123,0
47530,0.804688,-0.437988,0.254883,0
47550,0.843262,-0.438477,0.244629,0
47570,0.872559,-0.405762,0.222168,0
47590,0.89502,-0.380371,0.194336,0
47610,0.892578,-0.375977,0.196777,0
47630,0.897461,-0.360352,0.197266,0
47650,0.887207,-0.380859,0.189941,0
47670,0.890625,-0.394531,0.172852,0
47690,0.888672,-0.384766,0.186523,0
47710,0.885254,-0.379395,0.217285,0
47730,0.885254,-0.375488,0.221191,0
47750,0.905762,-0.369629,0.22168,0
47770,0.919922,-0.378418,0.232422,0
47790,0.969727,-0.356934,0.232422,0
47830,0.832031,-0.32373,0.370605,0
47850,0.842773,-0.359375,0.339355,0
47870,0.84668,-0.370117,0.395996,0
47890,0.757324,-0.344238,0.455566,0
47910,0.753906,-0.334961,0.480957,0
47930,0.759277,-0.369629,0.473145,0
47950,0.744629,-0.41748,0.462891,0
47970,0.705566,-0.374512,0.533203,0
47990,0.67627,-0.376953,0.564941,0
48010,0.702637,-0.373535,0.570801,0
48030,0.711426,-0.377441,0.580078,0
48050,0.671875,-0.384277,0.585449,0
48070,0.635254,-0.396484,0.613281,0
48090,0.588379,-0.37207,0.603027,0
48110,0.616211,-0.370117,0.629395,0
48130,0.61084,-0.425293,0.633301,0
48150,0.573242,-0.435547,0.646973,0
48170,0.515625,-0.392578,0.635742,0
48190,0.511719,-0.371582,0.636719,0
48210,0.553223,-0.415527,0.666504,0
48230,0.57373,-0.456543,0.648438,0
48250,0.521484,-0.452637,0.648438,0
48260,0.473145,-0.382324,0.645508,0
48290,0.477051,-0.393555,0.654785,0
48310,0.486816,-0.445312,0.675293,0
48330,0.491699,-0.489258,0.646973,0
48350,0.491699,-0.513672,0.663086,0
48370,0.483887,-0.466309,0.682617,0
48390,0.422852,-0.441406,0.664551,0
48410,0.372559,-0.464355,0.67334,0
48430,0.38623,-0.524902,0.6875,0
48450,0.394043,-0.545898,0.674805,0
48470,0.381836,-0.507324,0.648926,0
48490,0.328613,-0.470703,0.650879,0
48510,0.326172,-0.515625,0.645996,0
48530,0.374023,-0.584961,0.630859,0
48550,0.369141,-0.58252,0.640625,0
48570,0.312012,-0.569336,0.592773,0
48590,0.293945,-0.550781,0.609375,0
48610,0.295898,-0.585938,0.568848,0
48620,0.29248,-0.597168,0.564453,0
48640,0.251953,-0.584961,0.561035,0
48660,0.287109,-0.604004,0.54541,0
48680,0.375977,-0.634766,0.55127,0
48700,0.37793,-0.645508,0.540527,0
48720,0.299316,-0.625977,0.515137,0
48740,0.274414,-0.618652,0.491699,0
48760,0.313477,-0.66748,0.502441,0
48780,0.34668,-0.702637,0.513672,0
48800,0.277344,-0.677246,0.47168,0
48820,0.213867,-0.675293,0.412598,0
48840,0.194824,-0.672363,0.414062,0
48860,0.228516,-0.713379,0.463867,0
48880,0.302246,-0.728516,0.477051,0
48900,0.339355,-0.738281,0.441406,0
48920,0.310059,-0.739258,0.433594,0
48940,0.293945,-0.752441,0.44043,0
48960,0.339844,-0.751465,0.424316,0
48980,0.373535,-0.758789,0.381836,0
49000,0.364746,-0.731445,0.399414,0
49020,0.358398,-0.749512,0.394043,0
49040,0.400879,-0.782715,0.402832,0
49060,0.429688,-0.754395,0.410645,0
49080,0.405273,-0.717773,0.403809,0
49100,0.416992,-0.734375,0.382324,0
49120,0.510254,-0.779297,0.364258,0
49140,0.535156,-0.742188,0.355957,0
49160,0.499512,-0.702148,0.353516,0
49180,0.463379,-0.697266,0.36084,0
49200,0.544434,-0.71875,0.347656,0
49220,0.61377,-0.718262,0.32959,0
49240,0.527832,-0.67627,0.280273,0
49260,0.431152,-0.713867,0.265625,0
49280,0.508301,-0.712891,0.280762,0
49300,0.599121,-0.703125,0.292969,0
49320,0.614746,-0.700195,0.260254,0
49340,0.561035,-0.69873,0.272949,0
49360,0.574707,-0.677246,0.330566,0
49380,0.619629,-0.661621,0.33252,0
49400,0.625,-0.623047,0.309082,0
49420,0.588379,-0.62793,0.258789,0
49440,0.614746,-0.658691,0.25,0
49460,0.694336,-0.67627,0.272949,0
49480,0.723145,-0.646484,0.300781,0
49500,0.674805,-0.588379,0.259766,0
49520,0.735352,-0.643066,0.204102,0
49540,0.844727,-0.631836,0.196777,0
49560,0.889648,-0.598633,0.221191,0
49580,0.824219,-0.523926,0.231934,0
49600,0.793945,-0.492676,0.185059,0
49620,0.84375,-0.541992,0.100098,0
49640,0.914062,-0.516113,0.125,0
49660,0.883789,-0.458008,0.161133,0
49680,0.833496,-0.432617,0.15625,0
49700,0.869629,-0.411621,0.123047,0
49720,0.936523,-0.394531,0.118164,0
49740,0.930664,-0.365234,0.132324,0
49760,0.902344,-0.331543,0.154297,0
49780,0.894043,-0.321777,0.140137,0
49800,0.931152,-0.319336,0.132812,0
49820,0.934082,-0.306641,0.135742,0
49840,0.943359,-0.270996,0.151367,0
49860,0.953125,-0.277832,0.163574,0
49880,0.922852,-0.26416,0.194824,0
49900,0.907715,-0.250488,0.209473,0
49920,0.90625,-0.245605,0.202637,0
49940,0.941406,-0.243652,0.212402,0
49960,0.959961,-0.230469,0.250977,0
49980,0.958496,-0.21875,0.286133,0
50000,0.946777,-0.220703,0.297363,0
50020,0.916504,-0.223633,0.302734,0
50040,0.911621,-0.225098,0.318359,0
50060,0.923828,-0.223633,0.358398,0
50080,0.901855,-0.199219,0.402344,0
50100,0.901855,-0.202148,0.42627,0
50120,0.873535,-0.208984,0.434082,0
50140,0.828613,-0.253418,0.430176,0
50160,0.817383,-0.266113,0.459473,0
50180,0.812988,-0.244141,0.507324,0
50200,0.816406,-0.251465,0.540039,0
50220,0.825195,-0.261719,0.540527,0
50240,0.806641,-0.29541,0.522949,0
50260,0.772461,-0.323242,0.54248,0
50280,0.74707,-0.296387,0.567871,0
50300,0.735352,-0.306152,0.572754,0
50320,0.713867,-0.326172,0.571777,0
50340,0.655273,-0.386719,0.568359,0
50360,0.600098,-0.384277,0.586914,0
50380,0.569336,-0.355957,0.588379,0
50400,0.551758,-0.395508,0.609375,0
50420,0.525391,-0.464355,0.59375,0
50440,0.490234,-0.442383,0.530762,0
50460,0.479004,-0.462891,0.553223,0
50480,0.491699,-0.430664,0.539551,0
50500,0.544434,-0.47168,0.537598,0
50520,0.523438,-0.506348,0.522461,0
50540,0.438965,-0.519531,0.52002,0
50560,0.467773,-0.512207,0.536621,0
50580,0.54248,-0.558594,0.517578,0
50600,0.572266,-0.537109,0.495117,0
50620,0.540039,-0.519043,0.486328,0
50640,0.527344,-0.568848,0.498047,0
50660,0.525879,-0.626953,0.484375,0
50680,0.519043,-0.626465,0.456055,0
50700,0.44873,-0.560547,0.435547,0
50720,0.407715,-0.599121,0.438477,0
50740,0.512695,-0.699707,0.477051,0
50760,0.53418,-0.668945,0.457031,0
50780,0.427734,-0.617676,0.363281,0
50800,0.348633,-0.631836,0.333984,0
50820,0.358398,-0.681641,0.345703,0
50840,0.393066,-0.72168,0.346191,0
50860,0.379883,-0.685547,0.29834,0
50880,0.358398,-0.65918,0.257812,0
50900,0.378906,-0.727539,0.335938,0
50920,0.479004,-0.781738,0.318359,0
50940,0.498047,-0.767578,0.272949,0
50960,0.447754,-0.733887,0.255371,0
50980,0.458008,-0.757812,0.275879,0
51000,0.509766,-0.798828,0.268066,0
51020,0.55127,-0.793457,0.234375,0
51040,0.490723,-0.755371,0.224609,0
51060,0.47998,-0.739746,0.204102,0
51080,0.526367,-0.755859,0.214844,0
51100,0.572266,-0.757812,0.211426,0
51120,0.538086,-0.707031,0.189941,0
51140,0.484863,-0.742188,0.143066,0
51160,0.535645,-0.790527,0.139648,0
51180,0.644043,-0.79541,0.164551,0
51200,0.64502,-0.739746,0.143066,0
51220,0.554688,-0.702148,0.130371,0
51240,0.552246,-0.765137,0.0844727,0
51260,0.636719,-0.771973,0.0917969,0
51280,0.679688,-0.751465,0.104004,0
51300,0.633301,-0.680664,0.102051,0
51320,0.624512,-0.715332,0.0556641,0
51340,0.688477,-0.716309,0.0751953,0
51360,0.728027,-0.680176,0.0883789,0
51380,0.726074,-0.666016,0.0400391,0
51400,0.67334,-0.675293,0.00732422,0
51420,0.69873,-0.682617,-0.00146484,0
51440,0.727051,-0.662598,0.03125,0
51460,0.672363,-0.611328,0.0356445,0
51480,0.653809,-0.637695,-0.0600586,0
51500,0.762695,-0.660156,-0.0488281,0
51520,0.825195,-0.621094,-0.00585938,0
51540,0.773926,-0.55957,0.00634766,0
51560,0.783203,-0.560059,-0.0874023,0
51580,0.853027,-0.560059,-0.0683594,0
51600,0.95166,-0.554199,-0.046875,0
51620,0.902344,-0.503418,-0.0366211,0
51640,0.813965,-0.453613,-0.0732422,0
51660,0.87207,-0.467773,-0.118164,0
51680,0.935547,-0.454102,-0.0766602,0
51700,0.902832,-0.410645,-0.0463867,0
51720,0.827148,-0.34375,-0.0224609,0
51740,0.857422,-0.331055,-0.0527344,0
51760,0.90918,-0.320312,-0.0566406,0
51780,0.921875,-0.283691,-0.0366211,0
51800,0.899414,-0.260742,-0.0219727,0
51820,0.946289,-0.270996,-0.0537109,0
51840,0.970703,-0.25,-0.0317383,0
51860,0.949219,-0.244141,-0.0239258,0
51880,0.955566,-0.236816,-0.0175781,0
51900,0.972656,-0.222656,0.0205078,0
51920,0.972168,-0.20166,0.0576172,0
51940,0.981445,-0.199219,0.0678711,0
51960,1.00342,-0.203613,0.0600586,0
51980,1.03076,-0.207031,0.104004,0
52000,0.993164,-0.182617,0.166504,0
52020,0.976562,-0.179688,0.192871,0
52040,0.964844,-0.178223,0.202148,0
52050,1.00293,-0.188477,0.226562,0
52070,0.985352,-0.211426,0.25,0
52090,0.98291,-0.210449,0.282715,0
52110,0.924316,-0.184082,0.316895,0
52130,0.943359,-0.207031,0.349121,0
52150,0.986816,-0.220703,0.366211,0
52170,0.990234,-0.248535,0.394043,0
52190,0.958496,-0.277832,0.422363,0
52210,0.930664,-0.29248,0.432129,0
52230,0.895996,-0.262695,0.467773,0
52250,0.871582,-0.284668,0.47168,0
52270,0.847656,-0.325195,0.459473,0
52290,0.815918,-0.348145,0.507812,0
52310,0.73877,-0.383789,0.557617,0
52330,0.713867,-0.373535,0.518555,0
52350,0.739746,-0.392578,0.500488,0
52370,0.695312,-0.375977,0.527344,0
52390,0.598145,-0.450684,0.566406,0
52410,0.59375,-0.473633,0.570312,0
52430,0.58252,-0.4375,0.500488,0
52450,0.503418,-0.475586,0.453125,0
52470,0.430664,-0.492188,0.446289,0
52490,0.405273,-0.489258,0.483398,0
52510,0.464844,-0.516602,0.470703,0
52530,0.519531,-0.54248,0.45166,0
52550,0.497559,-0.559082,0.46582,0
52570,0.448242,-0.602051,0.432617,0
52590,0.478516,-0.609375,0.395996,0
52610,0.522461,-0.629395,0.390625,0
52630,0.524414,-0.607422,0.379395,0
52650,0.493652,-0.662598,0.33252,0
52670,0.518555,-0.65625,0.311035,0
52690,0.528809,-0.669434,0.291504,0
52710,0.496094,-0.664551,0.317383,0
52730,0.486328,-0.700195,0.273438,0
52750,0.504883,-0.70459,0.208496,0
52770,0.458984,-0.67041,0.198242,0
52790,0.437012,-0.706055,0.212402,0
52810,0.507812,-0.727539,0.200684,0
52830,0.535156,-0.754883,0.191895,0
52850,0.521484,-0.72998,0.144043,0
52870,0.507812,-0.741699,0.143555,0
52890,0.561523,-0.77002,0.138672,0
52910,0.618164,-0.786133,0.0864258,0
52930,0.583984,-0.76709,0.0654297,0
52950,0.567383,-0.741699,0.0761719,0
52970,0.607422,-0.750977,0.0581055,0
52990,0.640137,-0.756836,0.0595703,0
53010,0.635742,-0.737793,0.0380859,0
53030,0.619629,-0.694336,0.019043,0
53050,0.607422,-0.697266,0.0214844,0
53070,0.651855,-0.691895,0.0283203,0
53090,0.678223,-0.690918,0.0244141,0
53110,0.706055,-0.68457,-0.00292969,0
53130,0.724121,-0.656738,-0.0244141,0
53150,0.708984,-0.635742,-0.0239258,0
53170,0.679199,-0.614746,-0.0263672,0
53190,0.696289,-0.615234,-0.0527344,0
53210,0.751465,-0.621582,-0.0634766,0
53230,0.792969,-0.601074,-0.0102539,0
53250,0.816895,-0.551758,-0.0117188,0
53270,0.787598,-0.540527,-0.0488281,0
53290,0.777832,-0.555176,-0.0859375,0
53310,0.859375,-0.54248,-0.0551758,0
53330,0.909668,-0.549805,-0.0620117,0
53350,0.814941,-0.479492,-0.0634766,0
53370,0.769531,-0.448242,-0.0878906,0
53390,0.853516,-0.496582,-0.11377,0
53410,0.935547,-0.500977,-0.0805664,0
53430,0.900879,-0.436523,-0.0541992,0
53450,0.816406,-0.396973,-0.0883789,0
53470,0.853027,-0.413574,-0.145508,0
53490,0.930176,-0.445801,-0.102539,2001
53510,0.950684,-0.439941,-0.103027,0
53530,0.90625,-0.414062,-0.123047,0
53550,0.899414,-0.407227,-0.118652,0
53570,0.928711,-0.42627,-0.0957031,0
53590,0.939941,-0.42627,-0.106934,0
53610,0.92334,-0.419922,-0.109375,0
53630,0.890625,-0.421387,-0.0991211,0
53650,0.842285,-0.405273,-0.0839844,0
53670,0.787109,-0.37793,-0.0791016,0
53690,0.764648,-0.399414,-0.090332,0
53710,0.734863,-0.405273,-0.0834961,0
53730,0.70459,-0.352051,-0.0307617,0
53750,0.63916,-0.314941,-0.0263672,0
53770,0.574707,-0.302734,-0.0488281,0
53790,0.583496,-0.333496,-0.0625,0
53810,0.643066,-0.361816,-0.0400391,0
53830,0.669434,-0.349121,0.00683594,0
53850,0.617188,-0.336914,0.0229492,0
53870,0.615723,-0.369141,-0.0327148,0
53890,0.713379,-0.416016,0.00585938,0
53910,0.803223,-0.402344,0.114746,0
53930,0.780273,-0.390137,0.124023,0
53950,0.740723,-0.45459,0.0620117,0
53970,0.862305,-0.497559,0.180664,0
53990,0.872559,-0.475098,0.315918,0
54010,0.759766,-0.455078,0.271973,0
54030,0.800781,-0.59375,0.158691,0
54040,0.912598,-0.601562,0.305664,0
54060,0.927734,-0.597168,0.390137,0
54080,0.882812,-0.611816,0.34668,0
54100,0.92041,-0.718262,0.277344,0
54120,0.920898,-0.737793,0.398438,0
54140,0.830078,-0.662109,0.471191,0
54160,0.745605,-0.595215,0.469727,0
54180,0.729492,-0.673828,0.431152,0
54200,0.745605,-0.751953,0.441895,0
54220,0.718262,-0.714844,0.494629,0
54240,0.669434,-0.654785,0.510742,0
54260,0.62793,-0.624512,0.512695,0
54280,0.610352,-0.703613,0.499512,0
54300,0.595703,-0.723145,0.501465,0
54320,0.578125,-0.712891,0.524902,0
54340,0.544434,-0.683594,0.565918,0
54360,0.556152,-0.674805,0.57666,0
54380,0.546875,-0.670898,0.57373,0
54400,0.508301,-0.662598,0.576172,0
54420,0.48584,-0.663574,0.564453,0
54440,0.455566,-0.631348,0.585449,0
54460,0.455078,-0.605469,0.580078,0
54480,0.455078,-0.600586,0.558105,0
54500,0.459473,-0.60498,0.540527,0
54520,0.450195,-0.59668,0.560059,0
54540,0.452637,-0.599121,0.561523,0
54560,0.429199,-0.584473,0.549316,0
54580,0.429199,-0.599609,0.536133,0
54600,0.436035,-0.592773,0.534668,0
54620,0.425293,-0.596191,0.540039,0
54640,0.413574,-0.591309,0.549805,0
54660,0.450684,-0.598145,0.544922,0
54680,0.467285,-0.603516,0.547363,0
54700,0.450195,-0.601074,0.552734,2000
54720,0.463379,-0.609863,0.533203,0
54740,0.479004,-0.606934,0.552246,0
54760,0.455566,-0.614746,0.542969,0
54780,0.407715,-0.634277,0.522461,0
54800,0.375,-0.646973,0.535645,0
54820,0.381836,-0.648438,0.541016,0
54840,0.390137,-0.631836,0.554688,0
54860,0.385254,-0.603027,0.557617,0
54880,0.39502,-0.597168,0.579102,0
54900,0.436035,-0.614258,0.567383,0
54920,0.416016,-0.620605,0.533691,0
54940,0.375488,-0.603516,0.528809,0
54960,0.39502,-0.601562,0.549316,0
54980,0.435547,-0.616211,0.558594,0
55000,0.442871,-0.605469,0.53418,0
55020,0.42627,-0.604492,0.520508,0
55040,0.415039,-0.628906,0.518066,0
55060,0.44043,-0.619141,0.54248,0
55080,0.486816,-0.607422,0.545898,0
55100,0.487793,-0.607422,0.523438,0
55120,0.455566,-0.603516,0.509766,0
55140,0.45752,-0.602539,0.508789,0
55160,0.48877,-0.616699,0.521973,0
55180,0.515137,-0.633789,0.494629,0
55200,0.5,-0.619141,0.478027,0
55220,0.488281,-0.605469,0.513672,0
55230,0.564941,-0.622559,0.45752,0
55250,0.554688,-0.581055,0.458008,0
55270,0.553711,-0.575195,0.470215,0
55290,0.538574,-0.61377,0.439453,0
55310,0.538086,-0.623535,0.413086,0
55330,0.580078,-0.621094,0.410156,0
55340,0.624023,-0.619629,0.406738,0
55360,0.609375,-0.606934,0.399414,0
55370,0.617188,-0.574707,0.405273,0
55390,0.60498,-0.574219,0.412598,0
55410,0.643555,-0.61084,0.370117,0
55420,0.654785,-0.612793,0.357422,0
55430,0.710449,-0.566406,0.367188,0
55460,0.719727,-0.527344,0.312988,0
55480,0.724121,-0.520508,0.321289,0
55500,0.744629,-0.50293,0.307617,0
55520,0.757812,-0.500488,0.294434,0
55540,0.766602,-0.493164,0.27832,0
55560,0.76709,-0.478516,0.279785,0
55580,0.802734,-0.459961,0.262207,0
55600,0.79834,-0.435547,0.263184,0
55620,0.813477,-0.436523,0.27002,0
55640,0.797852,-0.447754,0.244629,0
55660,0.806641,-0.43457,0.237305,0
55680,0.824707,-0.442383,0.248047,0
55700,0.84375,-0.438477,0.263184,0
55720,0.844727,-0.430176,0.275391,0
55740,0.841797,-0.429199,0.275391,0
55760,0.825684,-0.430176,0.278809,0
55780,0.827148,-0.408203,0.285645,0
55800,0.866211,-0.389648,0.287109,0
55810,0.868652,-0.433105,0.302246,0
55840,0.821777,-0.400391,0.388184,0
55860,0.825195,-0.387207,0.404297,0
55880,0.8125,-0.397949,0.42627,0
55900,0.765137,-0.40625,0.450684,0
55920,0.738281,-0.421875,0.481934,0
55940,0.683105,-0.416016,0.531738,0
55960,0.705078,-0.389648,0.526367,0
55980,0.739258,-0.434082,0.535156,0
56000,0.741211,-0.421387,0.544434,0
56020,0.704102,-0.404785,0.558105,0
56040,0.652344,-0.402832,0.567383,0
56060,0.657227,-0.402344,0.594727,0
56080,0.672363,-0.411133,0.597168,0
56100,0.657227,-0.392578,0.61084,0
56120,0.61084,-0.419922,0.609375,0
56140,0.581543,-0.418457,0.644043,0
56160,0.546387,-0.387695,0.658691,0
56180,0.528809,-0.403809,0.658203,0
56200,0.543945,-0.432129,0.670898,0
56220,0.545898,-0.447266,0.700684,0
56240,0.486328,-0.420898,0.69043,0
56260,0.396484,-0.414551,0.673828,0
56280,0.361816,-0.437012,0.685547,0
56300,0.386719,-0.476074,0.694336,0
56320,0.406738,-0.471191,0.681152,0
56340,0.392578,-0.436523,0.664551,0
56360,0.356934,-0.450684,0.666992,0
56380,0.34668,-0.468262,0.670898,0
56400,0.351562,-0.510254,0.67627,0
56420,0.381836,-0.522949,0.654297,0
56440,0.414062,-0.494629,0.634277,0
56460,0.379395,-0.465332,0.654297,0
56480,0.365234,-0.493652,0.684082,0
56500,0.369629,-0.547852,0.678711,0
56520,0.384277,-0.543945,0.659668,0
56540,0.375488,-0.526855,0.672363,0
56560,0.31543,-0.533203,0.679688,0
56580,0.324219,-0.570312,0.627441,0
56600,0.327148,-0.543457,0.57959,0
56620,0.274902,-0.529297,0.564453,0
56640,0.248535,-0.507812,0.632324,0
56660,0.3125,-0.558594,0.652832,0
56680,0.349121,-0.614258,0.551758,0
56700,0.287109,-0.568848,0.501953,0
56720,0.248047,-0.588867,0.565918,0
56740,0.31543,-0.61084,0.614746,0
56760,0.342285,-0.612305,0.581055,0
56780,0.283691,-0.62793,0.499512,0
56800,0.260742,-0.651855,0.545898,0
56820,0.342773,-0.67627,0.608887,0
56840,0.335938,-0.659668,0.574707,0
56860,0.264648,-0.666992,0.475586,0
56880,0.282227,-0.663086,0.48877,0
56900,0.359863,-0.634766,0.606445,0
56920,0.344238,-0.698242,0.579102,0
56940,0.335938,-0.695801,0.483887,0
56960,0.287598,-0.672852,0.452637,0
56980,0.290039,-0.715332,0.452637,0
57000,0.364746,-0.706055,0.485352,0
57020,0.369629,-0.705566,0.466797,0
57040,0.317871,-0.708496,0.423828,0
57060,0.3125,-0.747559,0.399414,0
57080,0.347168,-0.737305,0.434082,0
57100,0.360352,-0.709961,0.431641,0
57120,0.315918,-0.711426,0.375488,0
57140,0.31543,-0.764648,0.351074,0
57160,0.376465,-0.77002,0.401855,0
57180,0.422852,-0.730957,0.42334,0
57200,0.391113,-0.726074,0.366211,0
57220,0.369629,-0.748047,0.325195,0
57240,0.418457,-0.759766,0.370605,0
57260,0.490723,-0.741699,0.403809,0
57280,0.453613,-0.70752,0.376953,0
57290,0.445801,-0.715332,0.333496,0
57310,0.533691,-0.731934,0.34375,0
57330,0.617188,-0.734863,0.354492,0
57350,0.57373,-0.699219,0.353027,0
57370,0.505859,-0.644531,0.368164,0
57390,0.55127,-0.691895,0.306152,0
57410,0.651855,-0.703613,0.277344,0
57430,0.643555,-0.66748,0.292969,0
57450,0.566895,-0.646973,0.324707,0
57470,0.608398,-0.617676,0.319336,0
57490,0.754883,-0.632324,0.241699,0
57510,0.849609,-0.607422,0.274414,0
57530,0.774414,-0.581543,0.268555,0
57550,0.683594,-0.572266,0.227051,0
57570,0.723145,-0.59082,0.197754,0
57590,0.869141,-0.554199,0.208984,0
57610,0.913574,-0.5,0.219727,0
57630,0.847656,-0.483887,0.199707,0
57650,0.779785,-0.498535,0.132812,0
57670,0.827637,-0.503906,0.116699,0
57690,0.942871,-0.470703,0.129395,0
57710,0.955566,-0.430664,0.14209,0
57730,0.872559,-0.421387,0.113281,0
57750,0.908203,-0.414062,0.09375,0
57770,0.972168,-0.359863,0.115723,0
57790,0.961426,-0.321289,0.119629,0
57810,0.939453,-0.299805,0.117188,0
57830,0.949707,-0.312012,0.11377,0
57850,0.962402,-0.279785,0.131348,0
57870,0.951172,-0.257812,0.159668,0
57890,0.919434,-0.248535,0.169434,0
57910,0.924805,-0.246094,0.158691,0
57930,0.942871,-0.256836,0.172852,0
57950,0.943848,-0.254395,0.222656,0
57970,0.907715,-0.227051,0.271484,0
57990,0.898438,-0.230469,0.285156,0
58010,0.908691,-0.23877,0.29541,0
58030,0.894531,-0.243164,0.307617,0
58050,0.906738,-0.226562,0.354004,0
58070,0.916992,-0.255371,0.375,0
58090,0.895508,-0.259277,0.388672,0
58110,0.86084,-0.243652,0.413574,0
58130,0.849121,-0.245117,0.442383,0
58150,0.839844,-0.255371,0.461426,0
58170,0.831543,-0.277344,0.479004,0
58190,0.824219,-0.274414,0.475098,0
58210,0.806152,-0.280273,0.515137,0
58230,0.775879,-0.249512,0.503906,0
58250,0.774414,-0.305176,0.518066,0
58270,0.76709,-0.32666,0.562988,0
58290,0.776367,-0.356445,0.577148,0
58310,0.76123,-0.320312,0.565918,0
58330,0.726074,-0.319336,0.542969,0
58350,0.677246,-0.324707,0.594727,0
58370,0.662109,-0.358398,0.61084,0
58390,0.640137,-0.361328,0.58252,0
58410,0.616699,-0.348633,0.557129,0
58430,0.577637,-0.324219,0.577637,0
58450,0.575195,-0.358887,0.612305,0
58470,0.531738,-0.362793,0.59082,0
58490,0.523926,-0.421387,0.568359,0
58510,0.570801,-0.429688,0.656738,0
58530,0.566895,-0.392578,0.641113,0
58550,0.51123,-0.42041,0.526367,0
58570,0.430176,-0.464355,0.506836,0
58590,0.40332,-0.472168,0.547852,0
58610,0.417969,-0.480469,0.57373,0
58630,0.488281,-0.47998,0.529785,0
58650,0.500977,-0.510254,0.507324,0
58670,0.463867,-0.562012,0.514648,0
58690,0.462402,-0.565918,0.494629,0
58710,0.487305,-0.562988,0.459961,0
58730,0.499512,-0.619141,0.480469,0
58750,0.49707,-0.650879,0.535645,0
58770,0.504395,-0.630371,0.477539,0
58790,0.486328,-0.618164,0.385254,0
58810,0.430176,-0.618164,0.398438,0
58830,0.436523,-0.666016,0.434082,0
58850,0.490723,-0.677246,0.384277,0
58870,0.444824,-0.726562,0.341797,0
58890,0.427734,-0.698242,0.378906,0
58910,0.42334,-0.710449,0.360352,0
58930,0.42627,-0.699707,0.319336,0
58950,0.417969,-0.724609,0.325195,0
58970,0.415039,-0.749512,0.345703,0
58990,0.460938,-0.744141,0.276855,0
59010,0.441895,-0.750488,0.216309,0
59030,0.418457,-0.737793,0.238281,0
59050,0.410645,-0.73584,0.258789,0
59070,0.437988,-0.769043,0.224121,0
59090,0.490723,-0.791504,0.174805,0
59110,0.509766,-0.772461,0.19873,0
59130,0.490723,-0.751953,0.216309,0
59150,0.490234,-0.76709,0.174316,0
59170,0.519531,-0.772949,0.133301,0
59190,0.537109,-0.756836,0.138672,0
59210,0.539551,-0.742188,0.17041,0
59230,0.578125,-0.747559,0.151367,0
59250,0.628906,-0.742188,0.118652,0
59270,0.679199,-0.708496,0.0859375,0
59280,0.654785,-0.700684,0.0981445,0
59300,0.65332,-0.681641,0.12207,0
59320,0.659668,-0.681641,0.0839844,0
59340,0.678711,-0.675781,0.0161133,0
59360,0.69873,-0.69043,0.0375977,0
59380,0.76123,-0.687988,0.0820312,0
59400,0.749023,-0.646484,0.0517578,0
59420,0.671387,-0.605957,0.00390625,0
59440,0.671875,-0.607422,0.00488281,0
59460,0.755371,-0.62793,0.0322266,0
59480,0.762695,-0.618652,0.00537109,0
59500,0.701172,-0.557617,0.00390625,0
59520,0.702637,-0.565918,-0.0532227,0
59540,0.844727,-0.597168,-0.0473633,0
59560,0.922852,-0.594727,-0.046875,0
59580,0.884766,-0.55127,-0.0458984,0
59600,0.823242,-0.503418,-0.0405273,0
59620,0.920898,-0.483887,-0.0522461,0
59640,0.954102,-0.493164,-0.0800781,0
59660,0.932617,-0.47998,-0.104492,0
59680,0.899414,-0.449219,-0.0898438,0
59700,0.94043,-0.436035,-0.0849609,0
59720,0.938477,-0.40918,-0.0869141,0
59740,0.938477,-0.373047,-0.0830078,0
59760,0.908203,-0.351074,-0.0805664,0
59780,0.900879,-0.350098,-0.0957031,0
59800,0.929688,-0.325195,-0.0507812,0
59820,0.93457,-0.28125,-0.0239258,0
59840,0.929688,-0.277344,-0.0712891,0
59860,0.954102,-0.271484,-0.0419922,0
59880,0.965332,-0.256348,-0.0117188,0
59900,0.944336,-0.242188,-0.00292969,0
59920,0.936523,-0.226074,0.0107422,0
59940,0.961914,-0.199707,0.0263672,0
59960,0.978516,-0.174316,0.0561523,0
59980,0.995117,-0.175781,0.0952148,0
60000,0.979492,-0.187988,0.0917969,0
60020,0.96582,-0.168945,0.106445,0
60040,0.967773,-0.161621,0.126953,0
60060,0.986328,-0.15918,0.179688,0
60080,0.991699,-0.175781,0.181152,0
60100,0.958496,-0.179199,0.199707,0
60120,0.929199,-0.165039,0.21875,0
60150,0.958984,-0.17334,0.303223,0
60170,0.966797,-0.216797,0.309082,0
60190,0.943848,-0.233887,0.303711,0
60210,0.909668,-0.214355,0.347168,0
60230,0.909668,-0.206055,0.378906,0
60250,0.931152,-0.244141,0.432129,0
60270,0.934082,-0.285645,0.408203,0
60290,0.90918,-0.297852,0.42627,0
60310,0.842285,-0.283203,0.473633,0
60330,0.847656,-0.312988,0.49707,0
60350,0.85791,-0.349121,0.500488,0
60370,0.773926,-0.385254,0.492188,0
60390,0.697266,-0.366211,0.524902,0
60410,0.711914,-0.371582,0.592773,0
60430,0.73877,-0.411621,0.556641,0
60450,0.64209,-0.458984,0.436035,0
60470,0.587402,-0.475098,0.486328,0
60490,0.595703,-0.373047,0.546387,0
60510,0.550293,-0.391113,0.471191,0
60530,0.553223,-0.504883,0.421875,0
60550,0.590332,-0.55957,0.468262,0
60570,0.538574,-0.501465,0.467285,0
60590,0.447266,-0.480957,0.406738,0
60610,0.460938,-0.558105,0.362305,0
60630,0.560059,-0.581543,0.397949,0
60650,0.56543,-0.576172,0.397461,0
60670,0.484863,-0.535156,0.350098,0
60690,0.489746,-0.596191,0.342773,0
60710,0.578613,-0.629395,0.394531,0
60730,0.569824,-0.637207,0.363281,0
60750,0.533691,-0.608398,0.311523,0
60770,0.570801,-0.611328,0.30957,0
60790,0.608398,-0.643066,0.36084,0
60810,0.538086,-0.661133,0.303711,0
60830,0.537598,-0.655762,0.22998,0
60850,0.563477,-0.628418,0.296387,0
60870,0.582031,-0.664062,0.307617,0
60890,0.511719,-0.677734,0.237305,0
60910,0.474121,-0.666504,0.18457,0
60930,0.544922,-0.662109,0.229004,0
60950,0.580078,-0.705566,0.274902,0
60970,0.567871,-0.702637,0.230957,0
60990,0.535645,-0.701172,0.181152,0
61010,0.541992,-0.710449,0.170898,0
61030,0.604492,-0.727539,0.231445,0
61050,0.618652,-0.708984,0.215332,0
61070,0.609863,-0.719238,0.150879,0
61090,0.611816,-0.702637,0.158691,0
61110,0.607422,-0.709473,0.152344,0
61130,0.650391,-0.716309,0.147461,0
61150,0.668945,-0.689941,0.135742,0
61170,0.63916,-0.680664,0.111816,0
61190,0.66748,-0.703125,0.0986328,0
61210,0.729004,-0.69873,0.105469,0
61230,0.720215,-0.67627,0.0708008,0
61250,0.67041,-0.660645,0.0439453,0
61270,0.669434,-0.661133,0.0458984,0
61290,0.71582,-0.651855,0.0478516,0
61310,0.755859,-0.646973,0.0351562,0
61330,0.774414,-0.631836,0.00537109,0
61350,0.741211,-0.613281,-0.0249023,0
61370,0.729492,-0.600098,-0.0356445,0
61390,0.757324,-0.600586,-0.0322266,0
61410,0.741699,-0.565918,-0.0351562,0
61430,0.726562,-0.570801,-0.0566406,0
61450,0.753906,-0.566406,-0.0380859,0
61470,0.769043,-0.552246,-0.0512695,0
61490,0.745117,-0.526367,-0.0810547,0
61510,0.75,-0.540527,-0.0917969,0
61530,0.806641,-0.543945,-0.0830078,0
61550,0.854004,-0.516602,-0.0439453,0
61570,0.799316,-0.455566,-0.0571289,0
61590,0.791992,-0.486816,-0.136719,0
61610,0.875,-0.51416,-0.119141,0
61630,0.936035,-0.504883,-0.0737305,0
61650,0.896484,-0.455566,-0.0673828,0
61670,0.867676,-0.446289,-0.122559,0
61690,0.945801,-0.475098,-0.131348,0
61710,0.989258,-0.462891,-0.102051,0
61730,0.961914,-0.415039,-0.0834961,2001
61750,0.949219,-0.436035,-0.126465,0
61770,0.943848,-0.436523,-0.124512,0
61790,0.945801,-0.42334,-0.101562,0
61810,0.931152,-0.404785,-0.105957,0
61830,0.912598,-0.394043,-0.108887,0
61850,0.897949,-0.390137,-0.0859375,0
61870,0.875,-0.393066,-0.0708008,0
61890,0.838379,-0.374023,-0.0717773,0
61910,0.790039,-0.355957,-0.0678711,0
61930,0.73584,-0.352051,-0.0498047,0
61950,0.692871,-0.361328,-0.0439453,0
61970,0.64209,-0.346191,-0.0375977,0
61990,0.602051,-0.323242,-0.0297852,0
62010,0.549805,-0.294922,-0.00292969,0
62030,0.519531,-0.30957,-0.00683594,0
62050,0.550781,-0.324707,-0.0258789,0
62070,0.616211,-0.334473,0.0307617,0
62090,0.642578,-0.347656,0.0756836,0
62110,0.60498,-0.353027,0.0727539,0
62130,0.681641,-0.40625,0.012207,0
62150,0.840332,-0.458984,0.0712891,0
62170,0.916992,-0.436035,0.214355,0
62190,0.825684,-0.418457,0.234863,0
62210,0.85791,-0.526367,0.118652,0
62230,0.977051,-0.556641,0.248047,0
62250,0.912598,-0.490723,0.385254,0
62270,0.833984,-0.476074,0.361816,0
62290,0.850098,-0.581055,0.288574,0
62310,0.972168,-0.647461,0.364746,0
62340,0.824219,-0.561035,0.424316,0
62360,0.811035,-0.608398,0.416504,0
62380,0.857422,-0.660156,0.47998,0
62400,0.834961,-0.668457,0.502441,0
62420,0.804688,-0.647461,0.494141,0
62440,0.817383,-0.666016,0.501953,0
62460,0.804199,-0.682129,0.524902,0
62480,0.748047,-0.674316,0.521973,0
62500,0.697266,-0.650879,0.501953,0
62520,0.695312,-0.664551,0.53418,0
62540,0.637695,-0.653809,0.586426,0
62560,0.557129,-0.632812,0.576172,0
62580,0.500488,-0.631348,0.577148,0
62600,0.458496,-0.60791,0.592773,0
62620,0.411621,-0.591797,0.597656,0
62640,0.365723,-0.602051,0.580078,0
62660,0.354004,-0.611816,0.555176,0
62680,0.353027,-0.611328,0.54834,0
62690,0.350098,-0.592773,0.567871,0
62710,0.368164,-0.571289,0.55127,0
62730,0.374512,-0.583984,0.538574,0
62750,0.412109,-0.587891,0.544922,0
62770,0.450684,-0.578613,0.543945,0
62790,0.480469,-0.583496,0.538574,0
62810,0.50293,-0.588867,0.555664,0
62830,0.535645,-0.603516,0.538574,0
62850,0.552246,-0.612793,0.539551,0
62870,0.530762,-0.601074,0.549805,0
62890,0.504883,-0.581543,0.570801,0
62910,0.505371,-0.580566,0.570312,0
62930,0.507812,-0.589355,0.546387,0
62950,0.475586,-0.577637,0.537598,0
62970,0.444824,-0.585449,0.557617,0
62990,0.428711,-0.59375,0.556641,0
63010,0.425781,-0.607422,0.55957,0
63030,0.428223,-0.589844,0.560059,2000
63050,0.418945,-0.592285,0.540039,0
63070,0.402832,-0.585449,0.560059,0
63090,0.378906,-0.624512,0.556152,0
63110,0.365723,-0.627441,0.571777,0
63130,0.392578,-0.616211,0.578125,0
63150,0.414062,-0.606445,0.558594,0
63170,0.40625,-0.568848,0.553223,0
63190,0.414062,-0.577637,0.547363,0
63210,0.424805,-0.61377,0.557617,0
63230,0.440918,-0.644531,0.566406,0
63250,0.447266,-0.630371,0.55127,0
63270,0.422363,-0.623047,0.543945,0
63290,0.428711,-0.604492,0.563477,0
63310,0.457031,-0.577637,0.563965,0
63330,0.450684,-0.606934,0.530273,0
63350,0.419922,-0.592773,0.521973,0
63370,0.397949,-0.589355,0.508301,0
63390,0.410156,-0.625977,0.54541,0
63410,0.456055,-0.64502,0.544922,0
63430,0.490723,-0.644043,0.524902,0
63450,0.5,-0.638672,0.508301,0
63470,0.445801,-0.622559,0.494141,0
63490,0.458984,-0.620117,0.501953,0
63510,0.521973,-0.608398,0.513184,0
63530,0.553223,-0.61377,0.5,0
63550,0.530273,-0.606445,0.459961,0
63570,0.513184,-0.600098,0.444824,0
63590,0.560547,-0.615234,0.444824,0
63610,0.620605,-0.605957,0.416016,0
63630,0.613281,-0.608887,0.410645,0
63650,0.625977,-0.589355,0.407715,0
63660,0.652344,-0.541016,0.432617,0
63680,0.669922,-0.511719,0.421875,0
63710,0.680176,-0.522949,0.349609,0
63740,0.731445,-0.55127,0.312012,0
63760,0.751465,-0.522461,0.290039,0
63780,0.750488,-0.520508,0.290527,0
63800,0.779785,-0.493652,0.299316,0
63820,0.821777,-0.481445,0.272949,0
63840,0.852539,-0.464355,0.233398,0
63860,0.832031,-0.434082,0.201172,0
63880,0.808105,-0.45166,0.199707,0
63900,0.816895,-0.444336,0.180176,0
63920,0.848633,-0.446289,0.164551,0
63940,0.870605,-0.439941,0.168457,0
63960,0.902344,-0.435059,0.166504,0
63980,0.902344,-0.421875,0.158691,0
64000,0.899902,-0.418945,0.159668,0
64020,0.902832,-0.422363,0.161133,0
64060,0.918945,-0.381836,0.208984,0
64080,0.873047,-0.368164,0.271484,0
64100,0.869629,-0.375488,0.276367,0
64120,0.858398,-0.37793,0.268066,0
64140,0.884277,-0.342285,0.308105,0
64160,0.828613,-0.352051,0.362793,0
64180,0.826172,-0.344238,0.400391,0
64200,0.799316,-0.362793,0.414062,0
64220,0.745117,-0.361328,0.433594,0
64240,0.737793,-0.345215,0.458984,0
64260,0.728027,-0.35498,0.502441,0
64280,0.751465,-0.368652,0.54541,0
64300,0.752441,-0.367188,0.482422,0
64320,0.705566,-0.36377,0.555176,0
64340,0.693359,-0.370117,0.572754,0
64360,0.6875,-0.402832,0.5625,0
64380,0.692383,-0.395508,0.587891,0
64400,0.691406,-0.396484,0.597168,0
64420,0.715332,-0.408203,0.607422,0
64440,0.661133,-0.399414,0.668945,0
64460,0.553711,-0.394531,0.668945,0
64480,0.533203,-0.404297,0.620117,0
64500,0.566895,-0.402832,0.61377,0
64520,0.58252,-0.389648,0.705566,0
64540,0.548828,-0.407715,0.692871,0
64560,0.486816,-0.442871,0.646484,0
64580,0.425781,-0.461426,0.648926,0
64600,0.442871,-0.435547,0.703125,0
64610,0.447754,-0.44873,0.713379,0
64630,0.42334,-0.459473,0.680664,0
64650,0.404297,-0.466309,0.711426,0
64670,0.437012,-0.473633,0.750488,0
64690,0.442871,-0.455078,0.716309,0
64710,0.378906,-0.422852,0.651855,0
64730,0.290527,-0.46875,0.629883,0
64750,0.30127,-0.520508,0.654297,0
64770,0.330078,-0.521484,0.671387,0
64790,0.343262,-0.508789,0.629883,0
64810,0.32666,-0.518066,0.630371,0
64830,0.337891,-0.54834,0.620117,0
64850,0.365234,-0.550293,0.624512,0
64870,0.34082,-0.494141,0.61084,0
64890,0.317871,-0.565918,0.630859,0
64910,0.363281,-0.592285,0.664062,0
64930,0.335449,-0.571777,0.584961,0
64950,0.266602,-0.553711,0.496094,0
64970,0.244141,-0.610352,0.510254,0
64990,0.291992,-0.611816,0.523438,0
65010,0.296387,-0.626465,0.468262,0
65030,0.220703,-0.618652,0.461426,0
65050,0.219727,-0.638184,0.46875,0
65070,0.294434,-0.662598,0.508301,0
65090,0.305176,-0.6875,0.480469,0
65110,0.273438,-0.678223,0.440918,0
65130,0.255371,-0.677246,0.428711,0
65150,0.302734,-0.729492,0.462402,0
65170,0.36084,-0.748047,0.465332,0
65190,0.37207,-0.748047,0.421387,0
65210,0.34668,-0.748535,0.413574,0
65230,0.332031,-0.752441,0.41748,0
65250,0.388184,-0.748047,0.4375,0
65270,0.397949,-0.729004,0.430176,0
65290,0.371094,-0.750977,0.371094,0
65310,0.383789,-0.794922,0.371582,0
65330,0.46582,-0.800293,0.421387,0
65350,0.505371,-0.742676,0.432129,0
65370,0.467773,-0.748047,0.364746,0
65390,0.476074,-0.76416,0.351074,0
65410,0.527344,-0.760742,0.372559,0
65430,0.535645,-0.725098,0.371094,0
65450,0.493652,-0.692383,0.335449,0
65470,0.437012,-0.741211,0.270508,0
65490,0.471191,-0.757812,0.309082,0
65510,0.52832,-0.731934,0.321289,0
65530,0.549805,-0.695801,0.302734,0
65550,0.521484,-0.704102,0.261719,0
65570,0.564453,-0.717773,0.287109,0
65590,0.631836,-0.706055,0.291016,0
65610,0.631836,-0.66748,0.268555,0
65630,0.593262,-0.629395,0.240723,0
65650,0.634766,-0.661621,0.233887,0
65670,0.717285,-0.666504,0.274414,0
65690,0.710938,-0.644531,0.246582,0
65710,0.645508,-0.603027,0.20166,0
65730,0.653809,-0.598145,0.181152,0
65750,0.688477,-0.636719,0.169434,0
65770,0.71582,-0.626465,0.220703,0
65790,0.702148,-0.587891,0.195801,0
65810,0.65625,-0.614746,0.137207,0
65830,0.745117,-0.646484,0.125977,0
65850,0.779297,-0.62207,0.192383,0
65870,0.755371,-0.586914,0.212402,0
65890,0.73584,-0.595703,0.13916,0
65910,0.791992,-0.581055,0.123535,0
65930,0.878418,-0.565918,0.12793,0
65950,0.871582,-0.546875,0.139648,0
65970,0.824707,-0.483887,0.160156,0
65990,0.837402,-0.472656,0.12793,0
66010,0.894531,-0.465332,0.0844727,0
66030,0.919922,-0.461426,0.0800781,0
66050,0.899902,-0.423828,0.097168,0
66070,0.906738,-0.391602,0.0859375,0
66090,0.928223,-0.380371,0.0791016,0
66110,0.931152,-0.364258,0.0708008,0
66130,0.938477,-0.349121,0.0727539,0
66150,0.95459,-0.338379,0.0820312,0
66170,0.957031,-0.328125,0.09375,0
66190,0.933105,-0.305664,0.121094,0
66210,0.912598,-0.29834,0.129395,0
66230,0.90625,-0.299805,0.137695,0
66250,0.925781,-0.286621,0.176758,0
66270,0.913574,-0.268555,0.20752,0
66290,0.918457,-0.253418,0.225098,0
66310,0.899902,-0.278809,0.215332,0
66330,0.9375,-0.274414,0.263672,0
66350,0.89502,-0.293457,0.288086,0
66370,0.859863,-0.274902,0.311035,0
66390,0.888672,-0.265625,0.336914,0
66410,0.921875,-0.270508,0.364746,0
66430,0.895996,-0.282227,0.376465,0
66450,0.857422,-0.293457,0.413086,0
66470,0.862305,-0.298828,0.419434,0
66490,0.854004,-0.295898,0.451172,0
66510,0.861816,-0.258301,0.481445,0
66530,0.842285,-0.276855,0.506348,0
66550,0.827637,-0.322266,0.507812,0
66570,0.791016,-0.338379,0.524902,0
66590,0.785645,-0.288574,0.581055,0
66610,0.804688,-0.274414,0.591797,0
