Timestamp, Acceleration x, Acceleration y, Acceleration z, Marker
30,0.282715,-0.524902,0.729004,0
40,0.296387,-0.506348,0.730957,0
80,0.325684,-0.468262,0.707031,0
100,0.335938,-0.466797,0.707031,0
120,0.336914,-0.447266,0.722656,0
140,0.330078,-0.434082,0.731445,0
160,0.321777,-0.438965,0.728516,0
170,0.305176,-0.455566,0.724121,0
170,0.303711,-0.473633,0.712891,0
210,0.299805,-0.496094,0.729004,0
230,0.311523,-0.50293,0.745117,0
250,0.311523,-0.498535,0.745605,0
270,0.323242,-0.510254,0.73877,0
290,0.319824,-0.493164,0.722168,0
310,0.339355,-0.469727,0.69873,0
330,0.349121,-0.458984,0.714844,0
350,0.35498,-0.469238,0.725586,0
370,0.338379,-0.470703,0.720215,0
390,0.328125,-0.470703,0.729004,0
410,0.31543,-0.483398,0.731445,0
430,0.306152,-0.487305,0.731934,0
450,0.293945,-0.479004,0.717773,0
470,0.290039,-0.47168,0.723633,0
490,0.290039,-0.47168,0.729004,0
510,0.29541,-0.47168,0.725586,0
530,0.291992,-0.46875,0.719727,0
550,0.297363,-0.467773,0.727051,0
580,0.295898,-0.474609,0.732422,0
600,0.29834,-0.478516,0.729492,0
610,0.313477,-0.478516,0.728516,0
640,0.321777,-0.467773,0.729004,0
660,0.325195,-0.475586,0.728027,0
680,0.318359,-0.474609,0.736816,0
700,0.3125,-0.47168,0.738281,0
720,0.308594,-0.464355,0.745117,0
760,0.297363,-0.461914,0.740723,0
780,0.301758,-0.460938,0.743164,0
800,0.302246,-0.452148,0.777344,0
820,0.29248,-0.45752,0.77832,0
840,0.287598,-0.473633,0.753906,0
860,0.290039,-0.486328,0.73877,0
880,0.3125,-0.46875,0.735352,0
900,0.297852,-0.450684,0.752441,0
920,0.282227,-0.44043,0.766113,0
940,0.272461,-0.438965,0.756836,0
960,0.263672,-0.442871,0.750488,0
980,0.257812,-0.438477,0.76123,0
1000,0.254883,-0.433105,0.77832,0
1030,0.257812,-0.481934,0.756836,0
1050,0.259766,-0.5,0.730469,0
1070,0.274902,-0.493652,0.731445,0
1090,0.26709,-0.443359,0.739746,0
1110,0.27832,-0.412598,0.778809,0
1130,0.277344,-0.453613,0.780273,0
1150,0.290527,-0.513184,0.769531,0
1170,0.314453,-0.51709,0.731445,0
1190,0.330078,-0.480957,0.70752,0
1210,0.341797,-0.453125,0.681641,0
1230,0.346191,-0.465332,0.695801,0
1250,0.342285,-0.51709,0.706543,0
1270,0.315918,-0.526855,0.697266,0
1290,0.311523,-0.520508,0.661133,0
1310,0.336426,-0.529297,0.661621,0
1330,0.341797,-0.54248,0.692383,0
1350,0.333984,-0.522949,0.712402,0
1370,0.327637,-0.511719,0.720703,0
1390,0.306152,-0.519531,0.71582,0
1410,0.291992,-0.541992,0.710938,0
1430,0.286621,-0.529785,0.714844,0
1450,0.265137,-0.522461,0.72168,0
1470,0.261719,-0.53125,0.728516,0
1490,0.256348,-0.553223,0.706543,0
1510,0.241211,-0.553711,0.687988,0
1530,0.244629,-0.538086,0.695312,0
1550,0.23877,-0.533691,0.681152,0
1570,0.239746,-0.539062,0.680176,0
1590,0.239746,-0.574219,0.683105,0
1610,0.26709,-0.594238,0.671875,0
1630,0.29834,-0.576172,0.650879,0
1650,0.326172,-0.555664,0.626953,0
1670,0.329102,-0.598633,0.603027,0
1690,0.368164,-0.648926,0.580078,0
1710,0.386719,-0.62207,0.617676,0
1730,0.382812,-0.574707,0.662109,0
1750,0.323242,-0.583008,0.657227,0
1770,0.28418,-0.63623,0.646973,0
1790,0.294922,-0.66748,0.654297,0
1810,0.299805,-0.620117,0.678223,0
1830,0.290039,-0.562988,0.716309,0
1850,0.282227,-0.51123,0.719238,0
1870,0.280762,-0.485352,0.67627,0
1890,0.287109,-0.44873,0.655762,0
1910,0.269531,-0.435547,0.673828,0
1940,0.232422,-0.52832,0.737793,0
1960,0.244141,-0.597168,0.762695,0
1980,0.25293,-0.64209,0.773438,0
2000,0.254395,-0.650391,0.703613,0
2020,0.284668,-0.635254,0.584961,0
2040,0.327637,-0.601562,0.587402,0
2060,0.34375,-0.564453,0.619629,0
2080,0.342285,-0.546875,0.666992,0
2100,0.325195,-0.523926,0.710449,0
2120,0.311523,-0.541992,0.740234,0
2140,0.308594,-0.560059,0.73584,0
2160,0.298828,-0.575684,0.722656,0
2180,0.307129,-0.566895,0.710449,0
2200,0.310059,-0.544434,0.70459,0
2220,0.305176,-0.530762,0.705078,0
2240,0.298828,-0.524902,0.70459,0
2260,0.297363,-0.530273,0.684082,0
2280,0.301758,-0.532715,0.690918,0
2300,0.305664,-0.489258,0.711914,0
2320,0.306152,-0.469238,0.721191,0
2340,0.305664,-0.466797,0.717285,0
2360,0.313477,-0.464355,0.72168,0
2380,0.318359,-0.462402,0.727051,0
2400,0.3125,-0.449219,0.73584,0
2420,0.319824,-0.44873,0.749512,0
2440,0.316895,-0.462402,0.740723,0
2460,0.320801,-0.470215,0.731934,0
2480,0.316406,-0.476562,0.728027,0
2500,0.315918,-0.464844,0.748535,0
2520,0.320801,-0.475586,0.75293,0
2540,0.3125,-0.46582,0.744141,0
2560,0.312012,-0.460938,0.733887,0
2580,0.314453,-0.455566,0.741211,0
2600,0.310059,-0.439453,0.735352,0
2620,0.301758,-0.447266,0.745605,0
2640,0.297852,-0.455078,0.744141,0
2660,0.292969,-0.449707,0.753418,0
2680,0.293945,-0.446289,0.743652,0
2700,0.29834,-0.438965,0.741211,0
2720,0.296387,-0.447754,0.737793,0
2740,0.293457,-0.447754,0.730469,0
2750,0.296875,-0.447266,0.750488,0
2770,0.291016,-0.45459,0.750488,0
2790,0.291016,-0.451172,0.742676,0
2810,0.29541,-0.458984,0.749512,0
2830,0.294434,-0.455078,0.748535,0
2840,0.302246,-0.461426,0.736328,0
2900,0.306152,-0.466309,0.740723,0
2940,0.307617,-0.462402,0.740234,0
2970,0.315918,-0.449707,0.740723,0
3020,0.306641,-0.444824,0.742188,0
3040,0.303711,-0.443359,0.741211,0
3060,0.306152,-0.447754,0.74707,0
3080,0.308105,-0.450195,0.752441,0
3120,0.301758,-0.445801,0.75293,0
3140,0.302734,-0.450195,0.749023,0
3160,0.293945,-0.451172,0.742188,0
3180,0.302246,-0.447754,0.735352,0
3200,0.300781,-0.457031,0.75,0
3220,0.297852,-0.455566,0.755859,0
3240,0.297363,-0.462402,0.743652,0
3260,0.294434,-0.456055,0.737305,0
3280,0.302734,-0.458984,0.740723,0
3300,0.303711,-0.446777,0.741211,0
3320,0.304688,-0.458984,0.747559,0
3340,0.301758,-0.455078,0.73877,0
3360,0.29248,-0.463379,0.742188,0
3380,0.297363,-0.456543,0.748535,0
3400,0.29248,-0.459961,0.741211,0
3420,0.296875,-0.458008,0.745117,0
3440,0.30127,-0.467773,0.731445,0
3460,0.312988,-0.463379,0.726562,0
3480,0.312988,-0.473145,0.74707,0
3500,0.310059,-0.46875,0.737793,0
3520,0.320801,-0.478516,0.722168,0
3540,0.325684,-0.481445,0.726074,0
3560,0.331543,-0.499512,0.72998,0
3580,0.342773,-0.495605,0.727051,0
3600,0.347656,-0.506348,0.723145,0
3620,0.356445,-0.52002,0.720215,0
3640,0.359375,-0.532715,0.69043,0
3660,0.359375,-0.523926,0.690918,0
3680,0.329102,-0.522461,0.699219,0
3700,0.314453,-0.53418,0.697754,0
3720,0.306641,-0.533203,0.69043,0
3740,0.325195,-0.525391,0.675781,0
3760,0.344238,-0.541992,0.664062,0
3780,0.362793,-0.566406,0.65332,0
3790,0.372559,-0.594238,0.630371,0
3810,0.350098,-0.595215,0.645996,0
3830,0.346191,-0.601074,0.649902,0
3850,0.356934,-0.603516,0.644531,0
3870,0.400391,-0.614746,0.633789,0
3890,0.372559,-0.618164,0.654785,0
3910,0.341797,-0.621582,0.640625,0
3930,0.356445,-0.622559,0.610352,0
3950,0.354492,-0.638184,0.601074,0
3970,0.305664,-0.61377,0.638672,0
3990,0.300781,-0.622559,0.600586,0
4010,0.318359,-0.645508,0.596191,0
4030,0.291016,-0.635254,0.572754,0
4050,0.247559,-0.607422,0.583008,0
4070,0.293945,-0.630371,0.59668,0
4090,0.307617,-0.625488,0.574219,0
4110,0.305664,-0.628906,0.581055,0
4130,0.330566,-0.653809,0.560547,0
4150,0.347168,-0.645508,0.540039,0
4170,0.349121,-0.64502,0.551758,0
4190,0.35791,-0.649414,0.545898,0
4210,0.373047,-0.654785,0.527832,0
4230,0.351074,-0.646484,0.544434,0
4250,0.353516,-0.654785,0.571289,0
4270,0.371094,-0.662598,0.577637,0
4290,0.385254,-0.65625,0.560059,0
4310,0.392578,-0.645508,0.563965,0
4330,0.368164,-0.651855,0.561035,0
4350,0.364746,-0.640625,0.577148,0
4370,0.374023,-0.663574,0.56543,0
4390,0.37793,-0.657715,0.5625,0
4410,0.360352,-0.654297,0.563477,0
4430,0.36377,-0.659668,0.559082,0
4450,0.370605,-0.668457,0.558594,0
4470,0.376953,-0.655273,0.558105,0
4490,0.379883,-0.638672,0.553711,0
4510,0.360352,-0.651367,0.568359,0
4530,0.359863,-0.662598,0.57959,0
4550,0.351074,-0.650391,0.563965,0
4570,0.356934,-0.648926,0.574219,0
4590,0.375977,-0.645996,0.58252,0
4610,0.385254,-0.65332,0.585449,0
4630,0.383789,-0.645508,0.581543,0
4650,0.388672,-0.654297,0.574219,0
4660,0.39209,-0.668945,0.580078,0
4680,0.378418,-0.666504,0.571289,0
4700,0.390625,-0.666016,0.569336,0
4720,0.40918,-0.652832,0.550781,0
4740,0.384277,-0.643066,0.54834,0
4760,0.375488,-0.646973,0.540039,0
4780,0.373047,-0.655273,0.557617,0
4800,0.35791,-0.65625,0.55957,0
4820,0.361816,-0.634766,0.567383,0
4840,0.373047,-0.672852,0.554199,0
4860,0.366699,-0.646973,0.566895,0
4880,0.339844,-0.639648,0.572754,0
4900,0.348145,-0.656738,0.560547,0
4920,0.345215,-0.686035,0.54248,0
4940,0.352051,-0.671875,0.533691,0
4960,0.371582,-0.681641,0.51123,0
4980,0.355957,-0.681641,0.534668,0
5000,0.360352,-0.681152,0.521484,0
5020,0.365723,-0.681641,0.530762,0
5040,0.370117,-0.668457,0.557129,0
5060,0.389648,-0.682129,0.544434,0
5080,0.380371,-0.683594,0.546875,0
5100,0.388672,-0.67041,0.541992,0
5120,0.378418,-0.674805,0.552246,0
5140,0.382324,-0.660156,0.556152,0
5160,0.380859,-0.679688,0.543457,0
5180,0.372559,-0.675781,0.524414,0
5200,0.375488,-0.664551,0.530762,0
5220,0.378906,-0.662109,0.533203,0
5240,0.370117,-0.677246,0.536621,0
5260,0.364258,-0.677734,0.531738,0
5290,0.366699,-0.686035,0.541992,0
5310,0.378906,-0.682617,0.521484,0
5330,0.371094,-0.670898,0.524414,0
5350,0.377441,-0.682129,0.520996,0
5370,0.379883,-0.688965,0.535156,0
5390,0.385742,-0.693848,0.524414,0
5410,0.389648,-0.698242,0.523926,0
5420,0.378906,-0.688477,0.521973,0
5440,0.376465,-0.689941,0.518066,0
5460,0.389648,-0.6875,0.515625,0
5480,0.383789,-0.685547,0.521484,0
5500,0.380859,-0.685547,0.535645,0
5520,0.425781,-0.693848,0.541016,0
5540,0.420898,-0.690918,0.516113,0
5560,0.431152,-0.687988,0.505859,0
5580,0.452148,-0.692871,0.512207,0
5600,0.417969,-0.687988,0.530762,0
5620,0.424805,-0.669434,0.501953,0
5640,0.431152,-0.669922,0.486816,0
5660,0.441406,-0.676758,0.481934,0
5680,0.409668,-0.681641,0.51416,0
5700,0.399414,-0.667969,0.512695,0
5720,0.396484,-0.677734,0.512695,0
5740,0.393555,-0.687012,0.504395,0
5760,0.384766,-0.702637,0.533203,0
5780,0.36377,-0.723145,0.539551,0
5800,0.30957,-0.717773,0.553711,0
5820,0.29834,-0.702148,0.564941,0
5840,0.282227,-0.693359,0.547852,0
5860,0.257324,-0.689453,0.557129,0
5880,0.243164,-0.714844,0.570801,0
5900,0.234375,-0.720215,0.563965,0
5920,0.22998,-0.733398,0.568359,0
5940,0.264648,-0.735352,0.543945,0
5960,0.279785,-0.716797,0.573242,0
5980,0.316406,-0.726562,0.571289,0
6000,0.335449,-0.719727,0.587891,0
6020,0.353027,-0.687988,0.564453,0
6040,0.395996,-0.700684,0.56543,0
6060,0.40918,-0.695801,0.597656,0
6080,0.372559,-0.695312,0.583496,0
6100,0.374023,-0.70166,0.55957,0
6120,0.399902,-0.711426,0.59375,0
6140,0.338867,-0.701172,0.585938,0
6160,0.232422,-0.703125,0.579102,0
6180,0.21875,-0.717773,0.572754,0
6200,0.232422,-0.702637,0.552734,0
6220,0.216309,-0.709961,0.524414,0
6240,0.169434,-0.722168,0.527832,0
6260,0.128418,-0.744629,0.508789,0
6280,0.134766,-0.772461,0.495605,0
6300,0.176758,-0.773926,0.5,0
6320,0.165039,-0.769531,0.521484,0
6340,0.11377,-0.762207,0.510254,0
6360,0.144043,-0.774414,0.50293,0
6380,0.17041,-0.779785,0.494629,0
6400,0.164062,-0.79248,0.485352,0
6420,0.17041,-0.79541,0.479004,0
6440,0.181641,-0.793457,0.477051,0
6460,0.187012,-0.796387,0.463867,0
6480,0.199219,-0.786621,0.459473,0
6500,0.195801,-0.783691,0.453125,0
6520,0.187988,-0.78125,0.456055,0
6540,0.19043,-0.79541,0.470215,0
6560,0.174316,-0.791016,0.462402,0
6580,0.171387,-0.794434,0.472168,0
6600,0.186035,-0.79248,0.474609,0
6620,0.190918,-0.82666,0.473145,0
6640,0.192871,-0.833496,0.45166,0
6660,0.20459,-0.823242,0.466309,0
6680,0.200195,-0.804688,0.479004,0
6700,0.219238,-0.820801,0.464355,0
6720,0.226074,-0.828613,0.458008,0
6740,0.216309,-0.80957,0.48291,0
6760,0.189453,-0.806152,0.479004,0
6780,0.206543,-0.820312,0.47168,0
6800,0.220215,-0.813477,0.478516,0
6820,0.214844,-0.791504,0.467773,0
6840,0.208008,-0.803223,0.45752,0
6860,0.178711,-0.81543,0.459473,0
6880,0.150391,-0.80957,0.478027,0
6900,0.172363,-0.815918,0.445801,0
6920,0.201172,-0.821777,0.422363,0
6940,0.179688,-0.826172,0.426758,0
6960,0.178223,-0.800293,0.482422,0
6980,0.22168,-0.773438,0.450684,0
7000,0.213379,-0.788574,0.422363,0
7020,0.19873,-0.822266,0.47168,0
7040,0.207031,-0.829102,0.449707,0
7060,0.213379,-0.826172,0.445801,0
7080,0.201172,-0.802246,0.459473,0
7090,0.19043,-0.813965,0.458496,0
7110,0.208008,-0.83252,0.453125,0
7120,0.237793,-0.824707,0.472168,0
7140,0.234863,-0.814453,0.48877,0
7160,0.236816,-0.819824,0.472168,2000
7180,0.242188,-0.819336,0.445801,0
7200,0.249023,-0.848633,0.436523,0
7220,0.213867,-0.791504,0.491699,0
7240,0.178711,-0.736816,0.47998,0
7260,0.204102,-0.770996,0.480957,0
7280,0.229492,-0.809082,0.480957,0
7300,0.257812,-0.84375,0.469727,0
7320,0.247559,-0.852539,0.46875,0
7340,0.228516,-0.785156,0.475586,0
7360,0.216797,-0.766113,0.474609,0
7380,0.216797,-0.771973,0.474121,0
7400,0.202148,-0.807129,0.471191,0
7420,0.179688,-0.812012,0.467285,0
7440,0.196777,-0.808594,0.464844,0
7460,0.230469,-0.794434,0.455078,0
7480,0.230957,-0.777832,0.451172,0
7500,0.194824,-0.802246,0.464844,0
7520,0.200684,-0.804199,0.453613,0
7540,0.195801,-0.805176,0.477539,0
7560,0.191895,-0.802734,0.481934,0
7580,0.194336,-0.808594,0.479492,0
7600,0.198242,-0.823242,0.484375,0
7620,0.181641,-0.819336,0.481934,0
7640,0.185547,-0.82666,0.488281,0
7650,0.188477,-0.812012,0.498535,0
7670,0.178711,-0.79834,0.482422,0
7690,0.172852,-0.806641,0.474121,0
7700,0.15332,-0.81543,0.460938,0
7740,0.148926,-0.788086,0.456543,0
7760,0.163574,-0.777344,0.461914,0
7780,0.167969,-0.782715,0.469238,0
7800,0.162109,-0.794434,0.453613,0
7820,0.176758,-0.800293,0.464844,0
7840,0.192871,-0.805176,0.459961,0
7860,0.194336,-0.807617,0.459961,0
7880,0.206055,-0.810059,0.470215,0
7900,0.235352,-0.810547,0.468262,0
7920,0.228516,-0.811523,0.46582,0
7940,0.199707,-0.804199,0.469238,0
7960,0.230469,-0.813477,0.461426,0
7980,0.244141,-0.814453,0.465332,0
8000,0.222656,-0.80957,0.456055,0
8020,0.232422,-0.81543,0.452148,0
8040,0.246582,-0.806641,0.462402,0
8050,0.237305,-0.811035,0.450195,0
8070,0.227539,-0.814453,0.450195,0
8090,0.245117,-0.819336,0.469727,0
8110,0.25293,-0.817383,0.461914,0
8130,0.284668,-0.815918,0.443848,0
8150,0.275391,-0.807129,0.432129,0
8170,0.266113,-0.801758,0.45166,0
8190,0.272461,-0.811523,0.456055,0
8210,0.269043,-0.793945,0.45166,0
8240,0.241699,-0.782227,0.435059,0
8250,0.272461,-0.779785,0.437988,0
8260,0.248535,-0.79541,0.437012,0
8280,0.298828,-0.798828,0.45752,0
8320,0.312988,-0.777832,0.429199,0
8340,0.313965,-0.779785,0.447754,0
8360,0.312012,-0.791016,0.449707,0
8380,0.321289,-0.802246,0.4375,0
8400,0.301758,-0.77002,0.453613,0
8420,0.310059,-0.771973,0.449219,0
8440,0.338379,-0.76123,0.422852,0
8460,0.357422,-0.765137,0.436035,0
8480,0.350098,-0.751953,0.445312,0
8500,0.33252,-0.769043,0.445312,0
8520,0.351074,-0.786621,0.442871,0
8540,0.368652,-0.807129,0.436035,0
8560,0.386719,-0.787598,0.438477,0
8580,0.402344,-0.773438,0.435059,0
8600,0.40918,-0.767578,0.423828,0
8620,0.412109,-0.767578,0.424316,0
8640,0.414062,-0.758789,0.433594,0
8660,0.408691,-0.757324,0.446777,0
8680,0.429688,-0.752441,0.433594,0
8700,0.439941,-0.756348,0.441406,0
8720,0.426758,-0.73291,0.427734,0
8740,0.438965,-0.724609,0.433105,0
8760,0.44873,-0.724609,0.432129,0
8780,0.446777,-0.708984,0.431641,0
8800,0.444824,-0.700684,0.44043,0
8820,0.452148,-0.708984,0.430664,0
8840,0.446289,-0.705566,0.434082,0
8860,0.426758,-0.710449,0.440918,0
8880,0.434082,-0.695312,0.440918,0
8900,0.449219,-0.702637,0.455078,0
8920,0.429199,-0.708008,0.446289,0
8940,0.435547,-0.71582,0.452637,0
8960,0.452637,-0.723145,0.461914,0
8980,0.45459,-0.720703,0.444336,0
9000,0.445312,-0.70752,0.444336,0
9020,0.434082,-0.706055,0.464844,0
9040,0.429199,-0.711426,0.460938,0
9060,0.424805,-0.710449,0.462402,0
9080,0.429688,-0.71582,0.462402,0
9100,0.433105,-0.709961,0.463867,0
9120,0.432129,-0.694336,0.45459,0
9140,0.428223,-0.696289,0.464355,0
9160,0.405762,-0.698242,0.490234,0
9180,0.413086,-0.697266,0.491699,0
9200,0.426758,-0.697266,0.466309,0
9220,0.439453,-0.683594,0.446289,0
9240,0.445312,-0.693359,0.472168,0
9260,0.449219,-0.693359,0.469727,0
9280,0.454102,-0.694336,0.470703,0
9300,0.45459,-0.682617,0.470703,0
9320,0.449707,-0.686035,0.472168,0
9340,0.452148,-0.680664,0.469727,0
9360,0.438477,-0.674805,0.472168,0
9380,0.447754,-0.674316,0.493164,0
9400,0.451172,-0.677246,0.492676,0
9420,0.441406,-0.677246,0.492188,0
9440,0.447266,-0.680176,0.491211,0
9460,0.456055,-0.675293,0.490234,0
9480,0.438477,-0.674316,0.499023,0
9500,0.452148,-0.67334,0.496094,0
9520,0.46875,-0.678711,0.498535,0
9540,0.462402,-0.666016,0.482422,0
9560,0.458984,-0.664062,0.488281,0
9580,0.454102,-0.660645,0.499023,0
9600,0.455078,-0.672852,0.491699,0
9620,0.455078,-0.664551,0.487305,0
9640,0.460938,-0.665527,0.487305,0
9660,0.468262,-0.649902,0.48877,0
9680,0.471191,-0.662598,0.490723,0
9700,0.472168,-0.656738,0.483398,0
9720,0.467285,-0.647949,0.473633,0
9740,0.472168,-0.654297,0.48584,0
9760,0.452148,-0.660645,0.495117,0
9780,0.458496,-0.656738,0.486328,0
9800,0.474609,-0.661621,0.490234,0
9820,0.482422,-0.648438,0.495605,0
9840,0.484863,-0.657715,0.487793,0
9860,0.494629,-0.664551,0.480957,0
9880,0.473145,-0.650391,0.495605,0
9900,0.463867,-0.651855,0.506348,0
9920,0.45459,-0.651855,0.501953,0
9940,0.455078,-0.652344,0.493164,0
9960,0.451172,-0.654785,0.5,0
9970,0.446289,-0.65918,0.493164,0
9990,0.444336,-0.652832,0.503418,0
10010,0.458496,-0.648926,0.501953,0
10030,0.450684,-0.649902,0.512695,0
10050,0.453125,-0.640137,0.516113,0
10070,0.449219,-0.645996,0.521973,0
10090,0.445801,-0.650391,0.522461,0
10110,0.456055,-0.660156,0.527344,0
10130,0.466797,-0.652344,0.52832,0
10150,0.455078,-0.644531,0.528809,0
10170,0.449219,-0.634766,0.521973,0
10190,0.452148,-0.64209,0.519531,0
10210,0.460449,-0.646973,0.526367,0
10230,0.455078,-0.657227,0.527832,0
10250,0.453125,-0.650391,0.509277,0
10270,0.460449,-0.638672,0.521973,0
10290,0.460449,-0.638672,0.51709,0
10310,0.456055,-0.642578,0.510254,0
10330,0.452148,-0.640625,0.519531,0
10350,0.446777,-0.638184,0.513672,0
10370,0.466309,-0.634766,0.520996,0
10390,0.467773,-0.629395,0.51709,0
10410,0.461914,-0.63623,0.517578,0
10430,0.451172,-0.63916,0.510254,0
10450,0.45166,-0.628418,0.514648,0
10470,0.461426,-0.625,0.511719,0
10490,0.460449,-0.626953,0.508301,0
10510,0.443848,-0.636719,0.524414,0
10530,0.439941,-0.634277,0.53418,0
10550,0.451172,-0.632324,0.529297,0
10570,0.447754,-0.633789,0.532715,0
10590,0.463867,-0.631836,0.521484,0
10610,0.470703,-0.634277,0.52832,0
10630,0.45459,-0.622559,0.523926,0
10650,0.461426,-0.621094,0.529785,0
10670,0.456055,-0.628418,0.529785,0
10690,0.439453,-0.636719,0.528809,0
10710,0.426758,-0.630859,0.521973,0
10730,0.423828,-0.634277,0.520996,0
10750,0.452148,-0.633301,0.536133,0
10770,0.46875,-0.629883,0.523926,0
10790,0.458008,-0.630859,0.528809,0
10810,0.431152,-0.637695,0.530762,0
10830,0.432129,-0.641602,0.532227,0
10850,0.439453,-0.635254,0.525879,0
10870,0.45459,-0.634766,0.525391,0
10890,0.456055,-0.638184,0.524902,0
10910,0.433594,-0.631348,0.543457,0
10930,0.427246,-0.642578,0.541992,0
10950,0.430664,-0.647949,0.539062,0
10970,0.415039,-0.660156,0.530762,0
10990,0.404785,-0.651855,0.542969,0
11010,0.417969,-0.649414,0.539551,0
11030,0.432617,-0.641113,0.531738,0
11050,0.424316,-0.648926,0.518066,0
11070,0.412109,-0.650879,0.530762,0
11090,0.403809,-0.65332,0.540039,0
11110,0.412109,-0.647461,0.535645,0
11130,0.42041,-0.646484,0.521484,0
11150,0.409668,-0.637695,0.52832,0
11170,0.399902,-0.643066,0.538086,0
11190,0.401855,-0.635742,0.52832,0
11210,0.421875,-0.651367,0.529297,0
11230,0.419434,-0.651367,0.541016,0
11250,0.408691,-0.662598,0.538086,0
11270,0.407715,-0.665039,0.542969,0
11290,0.404785,-0.671387,0.549316,0
11310,0.390625,-0.675293,0.543457,0
11330,0.402344,-0.683105,0.536621,0
11350,0.40918,-0.683105,0.541992,0
11370,0.401855,-0.683105,0.543945,0
11390,0.385742,-0.674316,0.547363,0
11410,0.382812,-0.682129,0.543945,0
11430,0.399902,-0.681641,0.543457,0
11450,0.394531,-0.693848,0.542969,0
11470,0.385254,-0.694336,0.53418,0
11490,0.374512,-0.693848,0.534668,0
11510,0.372559,-0.692383,0.531738,0
11530,0.379883,-0.692871,0.524414,0
11550,0.373047,-0.689453,0.522461,0
11570,0.370605,-0.680664,0.51123,0
11590,0.37207,-0.686523,0.514648,0
11610,0.379395,-0.682129,0.514648,0
11630,0.381836,-0.685547,0.516113,0
11650,0.373535,-0.694824,0.516602,0
11670,0.373047,-0.706543,0.520508,0
11690,0.366699,-0.691406,0.535645,0
11710,0.34668,-0.698242,0.530762,0
11730,0.367676,-0.699219,0.520996,0
11750,0.381348,-0.703125,0.51416,0
11770,0.372559,-0.706055,0.494141,0
11790,0.352051,-0.714355,0.504883,0
11810,0.340332,-0.723633,0.505371,0
11830,0.357422,-0.728516,0.506348,0
11850,0.352051,-0.713867,0.505371,0
11870,0.336914,-0.72168,0.503906,0
11890,0.297363,-0.731445,0.512695,0
11910,0.311035,-0.746582,0.516602,0
11930,0.324707,-0.741211,0.500488,0
11950,0.335938,-0.741211,0.500488,0
11970,0.324707,-0.736328,0.502441,0
11990,0.313477,-0.734375,0.504395,0
12010,0.314453,-0.742188,0.493652,0
12030,0.306641,-0.755859,0.492676,0
12050,0.30957,-0.742188,0.495117,0
12070,0.298828,-0.734375,0.5,0
12090,0.294434,-0.734375,0.496094,0
12110,0.308105,-0.75293,0.495605,0
12130,0.300293,-0.753418,0.484863,0
12150,0.289551,-0.753418,0.48584,0
12170,0.299805,-0.754883,0.479004,0
12190,0.308594,-0.751465,0.478027,0
12210,0.299316,-0.741699,0.483398,0
12230,0.287598,-0.746582,0.498535,0
12250,0.278809,-0.749512,0.493164,0
12270,0.284668,-0.766113,0.491211,0
12290,0.296875,-0.763184,0.493652,0
12310,0.287109,-0.762695,0.49707,0
12330,0.289062,-0.748047,0.491699,0
12350,0.293457,-0.750977,0.485352,0
12370,0.287109,-0.758789,0.490723,0
12390,0.279785,-0.762695,0.498047,0
12410,0.265625,-0.765625,0.497559,0
12430,0.271484,-0.76416,0.487305,0
12450,0.276367,-0.764648,0.491699,0
12470,0.276855,-0.775391,0.494629,0
12490,0.277832,-0.766113,0.485352,0
12510,0.28418,-0.768066,0.487305,0
12530,0.282227,-0.756836,0.488281,0
12550,0.287109,-0.763672,0.503418,0
12570,0.273926,-0.748047,0.504395,0
12590,0.270508,-0.772461,0.504395,0
12610,0.297852,-0.782715,0.48584,0
12630,0.306641,-0.777832,0.487305,0
12650,0.282227,-0.753418,0.490723,0
12670,0.287598,-0.745605,0.479004,0
12690,0.303223,-0.75293,0.50293,0
12710,0.28418,-0.762207,0.50293,0
12730,0.26416,-0.77002,0.488281,0
12750,0.273438,-0.771484,0.48877,0
12770,0.285156,-0.768066,0.471191,0
12790,0.263184,-0.762695,0.465332,0
12810,0.253418,-0.75293,0.461426,0
12830,0.264648,-0.764648,0.458496,0
12850,0.282715,-0.779297,0.462891,0
12870,0.280762,-0.777344,0.459961,0
12890,0.275879,-0.778809,0.449707,0
12910,0.276855,-0.787109,0.467285,0
12930,0.274902,-0.80127,0.462891,0
12950,0.280273,-0.80127,0.44873,0
12970,0.282715,-0.792969,0.445801,0
12990,0.27002,-0.789062,0.445801,0
13010,0.271484,-0.793945,0.457031,0
13030,0.260254,-0.790527,0.454102,0
13050,0.267578,-0.815918,0.452148,0
13070,0.302246,-0.814941,0.453125,0
13090,0.293457,-0.808594,0.453125,0
13110,0.261719,-0.793945,0.454102,0
13130,0.253418,-0.800293,0.453125,0
13150,0.265137,-0.807617,0.458496,0
13170,0.26123,-0.817383,0.449219,0
13190,0.259766,-0.803711,0.43457,0
13210,0.269043,-0.798828,0.431641,0
13230,0.26709,-0.791016,0.426758,0
13250,0.256836,-0.801758,0.41748,0
13270,0.260254,-0.803711,0.419434,0
13290,0.264648,-0.8125,0.415039,0
13310,0.254395,-0.815918,0.417969,0
13330,0.24707,-0.822266,0.408203,0
13350,0.255371,-0.814453,0.395996,0
13370,0.251953,-0.812988,0.387207,0
13390,0.270508,-0.814453,0.395996,0
13410,0.256348,-0.819824,0.387695,0
13420,0.247559,-0.836426,0.393066,0
13440,0.236816,-0.838379,0.389648,0
13460,0.259766,-0.831055,0.383301,0
13480,0.268555,-0.834473,0.375977,0
13500,0.263672,-0.825684,0.376953,0
13520,0.263672,-0.838867,0.386719,0
13540,0.291016,-0.839844,0.386719,0
13560,0.288574,-0.842285,0.375488,0
13580,0.285156,-0.851562,0.376465,0
13600,0.300293,-0.853516,0.388184,0
13620,0.319824,-0.832031,0.38623,0
13640,0.325195,-0.834961,0.37207,0
13660,0.334961,-0.826172,0.383301,0
13680,0.33252,-0.832031,0.375,0
13700,0.34082,-0.830566,0.366211,0
13720,0.351074,-0.829102,0.371582,0
13740,0.354004,-0.817383,0.363281,0
13760,0.347656,-0.833008,0.356934,0
13780,0.353516,-0.82373,0.358398,0
13800,0.361816,-0.820801,0.354492,0
13820,0.359863,-0.8125,0.353516,0
13840,0.356934,-0.812012,0.360352,0
13860,0.34375,-0.816895,0.346191,0
13880,0.331543,-0.824707,0.328125,0
13900,0.338379,-0.818359,0.338867,0
13920,0.349609,-0.820801,0.340332,0
13940,0.354004,-0.809082,0.337891,0
13960,0.345215,-0.830078,0.337402,0
13980,0.338379,-0.837402,0.336914,0
14000,0.336914,-0.845703,0.331543,0
14020,0.351074,-0.842285,0.338867,0
14040,0.338379,-0.845215,0.334473,0
14060,0.327148,-0.835449,0.336914,0
14080,0.316406,-0.84375,0.32959,0
14100,0.317383,-0.845703,0.333008,0
14120,0.297363,-0.84668,0.319824,0
14140,0.316406,-0.842285,0.32373,0
14160,0.326172,-0.842285,0.315918,0
14180,0.304199,-0.838379,0.316895,0
14200,0.303711,-0.847656,0.319336,0
14220,0.304688,-0.844238,0.314453,0
14240,0.316406,-0.854492,0.324707,0
14260,0.333984,-0.852539,0.321777,0
14280,0.370605,-0.847656,0.307617,0
14300,0.362793,-0.845215,0.303223,0
14320,0.343262,-0.847168,0.310059,0
14340,0.335938,-0.85498,0.311035,0
14360,0.344238,-0.853516,0.296875,0
14380,0.356445,-0.847656,0.30957,0
14400,0.367676,-0.84082,0.291016,0
14420,0.373047,-0.841797,0.29248,0
14440,0.360352,-0.838379,0.289551,0
14460,0.352051,-0.844727,0.287598,0
14480,0.362305,-0.850586,0.288086,0
14500,0.384277,-0.848145,0.29248,0
14520,0.408691,-0.837891,0.29541,0
14540,0.404785,-0.834473,0.280273,0
14560,0.396484,-0.837891,0.288574,0
14580,0.394531,-0.837891,0.288086,0
14600,0.422363,-0.823242,0.291016,0
14620,0.425781,-0.814453,0.288574,0
14640,0.442871,-0.814941,0.281738,0
14660,0.449707,-0.821777,0.284668,0
14680,0.435547,-0.822266,0.275879,0
14700,0.429688,-0.817871,0.265137,0
14720,0.43457,-0.809082,0.289551,0
14740,0.448242,-0.80127,0.285645,0
14760,0.447754,-0.79834,0.259277,0
14780,0.452148,-0.807617,0.255371,0
14800,0.46875,-0.804199,0.272461,0
14820,0.462891,-0.812012,0.259766,0
14840,0.45752,-0.807617,0.242676,0
14860,0.466797,-0.807617,0.263184,0
14880,0.465332,-0.790039,0.272949,0
14900,0.460449,-0.806641,0.259766,0
14920,0.499023,-0.802734,0.255371,0
14940,0.49707,-0.800781,0.253418,0
14960,0.462402,-0.796875,0.252441,0
14980,0.455078,-0.80957,0.268555,0
15000,0.470215,-0.8125,0.271484,0
15020,0.489746,-0.791504,0.243164,0
15040,0.491211,-0.789062,0.245117,0
15060,0.472168,-0.797363,0.249512,0
15080,0.474121,-0.799805,0.259277,0
15100,0.48291,-0.79834,0.250488,0
15120,0.495605,-0.782715,0.22998,0
15140,0.507324,-0.786133,0.239746,0
15160,0.515137,-0.784668,0.26416,0
15180,0.501953,-0.794434,0.254883,0
15190,0.508301,-0.787598,0.249512,0
15220,0.513184,-0.787598,0.241699,0
15240,0.523926,-0.780273,0.248047,0
15260,0.524902,-0.774902,0.250977,0
15280,0.539551,-0.773438,0.241699,0
15300,0.543457,-0.782227,0.245117,0
15320,0.520508,-0.77832,0.272949,0
15340,0.529785,-0.765625,0.248047,0
15360,0.541504,-0.768066,0.230957,0
15380,0.526367,-0.768555,0.237793,0
15390,0.527344,-0.768555,0.244629,0
15410,0.543945,-0.767578,0.236328,0
15430,0.539062,-0.758789,0.220703,0
15450,0.541016,-0.757812,0.228027,0
15470,0.549316,-0.751465,0.243652,0
15490,0.559082,-0.744141,0.234863,0
15510,0.567871,-0.753418,0.231445,0
15530,0.569824,-0.743164,0.23584,0
15550,0.567871,-0.74707,0.232422,0
15570,0.577637,-0.733887,0.230957,0
15590,0.570801,-0.74707,0.233887,0
15610,0.562012,-0.741699,0.237305,0
15630,0.561523,-0.73877,0.228516,0
15650,0.581543,-0.745117,0.222168,0
15670,0.595703,-0.745605,0.21582,0
15690,0.587891,-0.74707,0.222656,0
15710,0.57959,-0.746094,0.227051,0
15730,0.591797,-0.742188,0.212891,0
15750,0.60498,-0.740234,0.20752,0
15770,0.61084,-0.717773,0.207031,0
15790,0.600586,-0.711914,0.228027,0
15810,0.595703,-0.713867,0.211426,0
15830,0.592773,-0.721191,0.202637,0
15850,0.601074,-0.71582,0.218262,0
15870,0.59082,-0.70166,0.220703,0
15890,0.605469,-0.708496,0.21582,0
15910,0.591797,-0.724609,0.209473,0
15930,0.598633,-0.707031,0.209961,0
15950,0.614746,-0.703613,0.214844,0
15970,0.624512,-0.700195,0.20752,0
15990,0.637207,-0.709473,0.223633,0
16010,0.628906,-0.706055,0.216797,0
16030,0.623047,-0.699707,0.211426,0
16050,0.630859,-0.694824,0.217285,0
16070,0.613281,-0.69873,0.210449,0
16090,0.640137,-0.706055,0.229004,0
16120,0.641602,-0.685547,0.219727,0
16140,0.638184,-0.69873,0.210938,0
16160,0.645508,-0.691895,0.209473,0
16180,0.639648,-0.677246,0.217285,0
16200,0.639648,-0.671875,0.214844,0
16220,0.643066,-0.674316,0.218262,0
16230,0.660645,-0.664062,0.219238,0
16240,0.645996,-0.665527,0.213379,0
16260,0.646973,-0.665039,0.21875,0
16280,0.64209,-0.665039,0.224121,0
16300,0.650879,-0.660645,0.222168,0
16320,0.647949,-0.662598,0.219727,0
16340,0.664551,-0.660645,0.219727,0
16360,0.662598,-0.662109,0.226562,0
16380,0.673828,-0.656738,0.230469,0
16400,0.672363,-0.65918,0.233398,0
16420,0.671875,-0.653809,0.233887,0
16440,0.666504,-0.647461,0.231934,0
16460,0.667969,-0.643066,0.222656,0
16480,0.655762,-0.640625,0.239746,0
16500,0.664062,-0.63623,0.245117,0
16520,0.668457,-0.636719,0.244141,0
16540,0.672852,-0.633301,0.244629,0
16560,0.670898,-0.633789,0.255371,0
16580,0.683594,-0.643555,0.245605,0
16600,0.691406,-0.641602,0.239746,0
16620,0.684082,-0.628418,0.244629,0
16640,0.66748,-0.637207,0.253418,0
16660,0.67334,-0.631348,0.257812,0
16680,0.672852,-0.624023,0.258789,0
16700,0.67627,-0.620117,0.251953,0
16720,0.677734,-0.62793,0.263184,0
16740,0.687012,-0.625488,0.269531,0
16760,0.679199,-0.625977,0.25,0
16780,0.680176,-0.621094,0.249023,0
16800,0.679199,-0.620605,0.255859,0
16820,0.67334,-0.623047,0.258301,0
16840,0.682129,-0.616699,0.256348,0
16860,0.690918,-0.617188,0.265625,0
16880,0.682129,-0.606445,0.269531,0
16900,0.683594,-0.600098,0.270996,0
16920,0.685547,-0.602539,0.274902,0
16940,0.685059,-0.608398,0.274902,0
16960,0.692871,-0.600098,0.280762,0
16980,0.69043,-0.606934,0.28125,0
17000,0.689941,-0.601074,0.280762,0
17020,0.696289,-0.599609,0.287598,0
17040,0.694336,-0.594238,0.280762,0
17060,0.682617,-0.59375,0.288574,0
17080,0.683105,-0.597168,0.298828,0
17100,0.692383,-0.590332,0.300781,0
17120,0.686035,-0.591797,0.297852,0
17140,0.683594,-0.589355,0.30127,0
17160,0.696777,-0.588867,0.304199,0
17180,0.693359,-0.591309,0.305664,0
17200,0.695801,-0.590332,0.296875,0
17220,0.693359,-0.587402,0.296387,0
17240,0.694336,-0.582031,0.315918,0
17260,0.693359,-0.595703,0.304199,0
17280,0.679688,-0.59375,0.293945,0
17300,0.67627,-0.595703,0.294434,0
17320,0.68457,-0.594727,0.313965,0
17340,0.677246,-0.595703,0.316895,0
17360,0.682617,-0.583984,0.32666,0
17380,0.675781,-0.580078,0.327148,0
17400,0.687012,-0.575195,0.331055,0
17420,0.677734,-0.583008,0.330078,0
17440,0.686523,-0.585449,0.331055,0
17460,0.67627,-0.581055,0.325684,0
17480,0.687012,-0.584961,0.317383,0
17500,0.707031,-0.584961,0.327148,0
17520,0.668457,-0.57666,0.336914,0
17540,0.663574,-0.590332,0.323242,0
17560,0.692383,-0.577637,0.338379,0
17580,0.674316,-0.576172,0.331055,0
17600,0.674805,-0.572266,0.339844,0
17620,0.665039,-0.581543,0.341309,0
17640,0.672363,-0.567871,0.349121,0
17660,0.686035,-0.576172,0.35791,0
17680,0.672363,-0.570801,0.354492,0
17700,0.669922,-0.580566,0.351074,0
17720,0.645508,-0.574219,0.370605,0
17740,0.643066,-0.578613,0.350098,0
17760,0.658691,-0.582031,0.357422,0
17780,0.651855,-0.584473,0.36377,0
17800,0.630371,-0.585449,0.373047,0
17820,0.650879,-0.592285,0.371094,0
17840,0.653809,-0.591797,0.371094,0
17860,0.649414,-0.589355,0.36377,0
17880,0.665527,-0.584961,0.358398,0
17900,0.64502,-0.590332,0.37793,0
17920,0.647949,-0.59375,0.371582,0
17940,0.64502,-0.591797,0.368164,0
17960,0.654297,-0.581543,0.363281,0
17980,0.657227,-0.580078,0.375977,0
18000,0.635254,-0.57666,0.384277,0
18020,0.634277,-0.579102,0.359863,0
18040,0.634766,-0.580566,0.376465,0
18060,0.635254,-0.587402,0.378906,0
18080,0.633301,-0.598145,0.373047,0
18100,0.623047,-0.597656,0.367676,0
18120,0.613281,-0.595215,0.380371,0
18140,0.600586,-0.593262,0.399414,0
18160,0.618652,-0.589844,0.387207,0
18180,0.647461,-0.584961,0.378418,0
18200,0.651367,-0.593262,0.388184,0
18220,0.626465,-0.605469,0.388672,0
18240,0.592773,-0.612793,0.393066,0
18260,0.60791,-0.616211,0.391113,0
18280,0.630371,-0.616699,0.387207,0
18300,0.635254,-0.614746,0.379395,0
18320,0.625488,-0.613281,0.385742,0
18340,0.598633,-0.620605,0.397949,0
18360,0.601074,-0.635742,0.370605,0
18380,0.625,-0.632324,0.385254,0
18400,0.625977,-0.633789,0.380859,0
18420,0.611816,-0.633789,0.375,0
18440,0.602051,-0.633789,0.368164,0
18460,0.606445,-0.634277,0.367188,0
18480,0.610352,-0.63623,0.372559,0
18500,0.610352,-0.631836,0.369141,0
18520,0.585938,-0.643066,0.373535,0
18540,0.557129,-0.640137,0.380859,0
18560,0.570801,-0.646973,0.374023,0
18580,0.596191,-0.644043,0.371094,0
18600,0.605957,-0.647461,0.359863,0
18620,0.59375,-0.660156,0.352051,0
18640,0.596191,-0.649902,0.353516,0
18660,0.577637,-0.658203,0.357422,0
18680,0.563477,-0.65918,0.354492,0
18700,0.557129,-0.66748,0.36377,0
18720,0.553223,-0.665039,0.36084,0
18740,0.559082,-0.671387,0.368652,0
18750,0.561035,-0.661133,0.371094,0
18770,0.535156,-0.673828,0.360352,0
18790,0.556641,-0.671875,0.358887,0
18810,0.567871,-0.682129,0.351074,0
18830,0.5625,-0.685547,0.355957,0
18850,0.563965,-0.691406,0.362305,0
18870,0.555176,-0.698242,0.365234,0
18890,0.536133,-0.702637,0.362793,0
18910,0.539062,-0.705566,0.380859,0
18930,0.546387,-0.70459,0.36377,0
18950,0.54541,-0.705566,0.354004,0
18990,0.516113,-0.720215,0.368652,0
19010,0.520996,-0.716797,0.36084,0
19030,0.506348,-0.71582,0.352539,0
19050,0.485352,-0.710938,0.374023,0
19070,0.486816,-0.723145,0.35791,0
19090,0.495605,-0.731445,0.348633,0
19110,0.494141,-0.729492,0.359375,0
19110,0.451172,-0.71582,0.355957,0
19130,0.451172,-0.712402,0.345703,0
19150,0.513184,-0.722656,0.361816,0
19170,0.509277,-0.728027,0.359375,0
19190,0.470703,-0.737305,0.356445,0
19210,0.481934,-0.739258,0.369141,0
19230,0.497559,-0.733887,0.362793,0
19250,0.467285,-0.725586,0.36084,0
19270,0.467285,-0.729492,0.38623,0
19290,0.476074,-0.73877,0.364746,0
19310,0.470703,-0.75293,0.352051,0
19330,0.473145,-0.754883,0.355469,0
19350,0.491211,-0.755371,0.366699,0
19370,0.481445,-0.760742,0.36084,0
19390,0.47168,-0.761719,0.361816,0
19410,0.481445,-0.762207,0.366211,0
19430,0.487793,-0.76123,0.366211,0
19450,0.493652,-0.750488,0.362793,0
19470,0.472656,-0.751953,0.372559,0
19490,0.442383,-0.751465,0.368164,0
19510,0.441406,-0.750977,0.37793,0
19530,0.473145,-0.736816,0.38623,0
19550,0.467285,-0.73584,0.366699,0
19570,0.439453,-0.737305,0.369629,0
19590,0.434082,-0.753418,0.371582,0
19610,0.422852,-0.758789,0.359863,0
19630,0.411621,-0.755859,0.354492,0
19650,0.424316,-0.733398,0.359863,0
19670,0.435059,-0.745605,0.36084,0
19690,0.434082,-0.761719,0.355469,0
19710,0.433105,-0.772461,0.352539,0
19730,0.432617,-0.776855,0.351074,0
19750,0.444336,-0.786621,0.359375,0
19770,0.449707,-0.77832,0.366211,0
19790,0.43457,-0.786133,0.347168,0
19810,0.44873,-0.779785,0.348145,0
19830,0.453613,-0.783203,0.362793,0
19850,0.433594,-0.769043,0.356445,0
19870,0.429688,-0.775391,0.332031,0
19890,0.460938,-0.778809,0.356934,0
19910,0.477051,-0.783691,0.353516,0
19930,0.437988,-0.788574,0.345215,0
19950,0.436523,-0.783691,0.335449,0
19970,0.458008,-0.798828,0.353027,0
19990,0.431152,-0.787109,0.347656,0
20010,0.414551,-0.775391,0.35498,0
20030,0.403809,-0.765137,0.353516,0
20050,0.427246,-0.760254,0.342285,0
20070,0.431152,-0.774414,0.338379,0
20090,0.41748,-0.776855,0.325684,0
20110,0.414062,-0.78125,0.330566,0
20130,0.419922,-0.782227,0.32666,0
20150,0.436035,-0.787109,0.334961,0
20170,0.421875,-0.785645,0.327148,0
20190,0.419922,-0.790039,0.320801,0
20210,0.433594,-0.791504,0.333496,0
20230,0.424805,-0.796387,0.339844,0
20250,0.408691,-0.804688,0.331543,0
20270,0.417969,-0.804688,0.321777,0
20290,0.444336,-0.804199,0.333008,0
20340,0.455078,-0.815918,0.314453,0
20360,0.425781,-0.810059,0.306152,0
20380,0.404785,-0.818848,0.316406,0
20400,0.405273,-0.817871,0.311523,0
20420,0.418457,-0.816406,0.304688,0
20440,0.416992,-0.799316,0.312012,0
20460,0.407715,-0.804199,0.319824,0
20480,0.408203,-0.808105,0.29834,0
20500,0.421387,-0.817383,0.294922,0
20520,0.415527,-0.810059,0.293945,0
20540,0.398926,-0.808105,0.302734,0
20560,0.399414,-0.803711,0.294922,0
20580,0.416016,-0.799805,0.311523,0
20600,0.395996,-0.808105,0.30127,0
20620,0.397949,-0.819336,0.293457,0
20640,0.402832,-0.826172,0.29248,0
20660,0.407715,-0.821289,0.29541,0
20680,0.404297,-0.817383,0.290039,0
20690,0.402344,-0.81543,0.288086,0
20710,0.404297,-0.831543,0.282715,0
20730,0.426758,-0.839355,0.283203,0
20750,0.419434,-0.841309,0.28125,0
20770,0.423828,-0.84668,0.273926,0
20790,0.425293,-0.835449,0.287598,0
20810,0.395996,-0.835449,0.28125,0
20830,0.39502,-0.846191,0.248535,0
20850,0.418945,-0.830566,0.253418,0
20870,0.412109,-0.835938,0.268066,0
20890,0.40918,-0.829102,0.273438,0
20910,0.414062,-0.841797,0.259277,0
20930,0.408203,-0.849609,0.255859,0
20950,0.392578,-0.842773,0.261719,0
20970,0.396484,-0.835449,0.260254,0
20990,0.412598,-0.839844,0.263672,0
21010,0.40625,-0.831055,0.248535,0
21030,0.415039,-0.833496,0.259766,0
21050,0.418457,-0.82666,0.259766,0
21070,0.40625,-0.836426,0.245605,0
21090,0.401367,-0.839355,0.238281,0
21110,0.405273,-0.841309,0.25293,0
21130,0.409668,-0.83252,0.246582,0
21150,0.416992,-0.845703,0.235352,0
21170,0.411621,-0.848633,0.234375,0
21190,0.406738,-0.851074,0.245605,0
21210,0.412598,-0.853027,0.244629,0
21230,0.414062,-0.855957,0.224121,0
21250,0.408203,-0.855469,0.226562,0
21270,0.412109,-0.848633,0.23877,0
21290,0.40625,-0.833984,0.237793,0
21310,0.391602,-0.850098,0.224609,0
21330,0.414062,-0.845215,0.212891,0
21350,0.439941,-0.850098,0.223633,0
21370,0.41748,-0.837891,0.227051,0
21390,0.393066,-0.839355,0.212891,0
21410,0.412598,-0.846191,0.212891,0
21430,0.430664,-0.843262,0.223145,0
21450,0.404785,-0.853027,0.204102,0
21470,0.419434,-0.855469,0.20166,0
21490,0.443848,-0.857422,0.211914,0
21510,0.42334,-0.850586,0.214355,0
21530,0.404785,-0.862793,0.20459,0
21550,0.428711,-0.867188,0.214355,0
21570,0.41748,-0.852051,0.219238,0
21590,0.411133,-0.853516,0.200195,0
21610,0.418457,-0.858887,0.208984,0
21630,0.42041,-0.850586,0.211426,0
21650,0.419922,-0.855957,0.21582,0
21670,0.425293,-0.856445,0.208984,0
21690,0.429199,-0.864258,0.204102,0
21710,0.439453,-0.858887,0.216309,0
21730,0.429199,-0.854492,0.203613,0
21750,0.416504,-0.849609,0.193848,0
21770,0.416504,-0.841797,0.189941,0
21790,0.427734,-0.836426,0.176758,0
21810,0.435547,-0.841797,0.180664,0
21830,0.439453,-0.846191,0.171387,0
21850,0.435547,-0.853516,0.175781,0
21870,0.441406,-0.838379,0.172363,0
21890,0.45459,-0.842773,0.159668,0
21910,0.474121,-0.849609,0.160645,0
21930,0.47998,-0.842773,0.166992,0
21950,0.481934,-0.839355,0.163574,0
21970,0.475098,-0.840332,0.149902,0
21990,0.48877,-0.833984,0.15332,0
22010,0.498047,-0.828613,0.151367,0
22030,0.487305,-0.835938,0.138184,0
22050,0.484863,-0.847656,0.134766,0
22070,0.501953,-0.844727,0.139648,0
22090,0.501953,-0.842285,0.120117,0
22110,0.514648,-0.834961,0.114258,0
22130,0.501953,-0.839844,0.101562,0
22150,0.46875,-0.831543,0.110352,0
22170,0.466309,-0.827637,0.118164,0
22190,0.482422,-0.838867,0.0820312,0
22210,0.495605,-0.848145,0.0844727,0
22230,0.506836,-0.838867,0.104004,0
22250,0.48584,-0.847168,0.0791016,0
22270,0.470703,-0.85498,0.0786133,0
22290,0.470703,-0.85791,0.0917969,0
22310,0.485352,-0.847168,0.0893555,0
22330,0.483887,-0.840332,0.0673828,0
22350,0.489258,-0.852051,0.065918,0
22370,0.486816,-0.863281,0.065918,0
22390,0.477051,-0.861816,0.0717773,0
22410,0.476074,-0.861328,0.0595703,0
22430,0.497559,-0.852051,0.0595703,0
22450,0.507812,-0.839355,0.0541992,0
22470,0.515137,-0.848145,0.0458984,0
22490,0.507324,-0.848633,0.0458984,0
22510,0.500977,-0.834473,0.0517578,0
22530,0.499512,-0.825195,0.0610352,0
22550,0.506836,-0.821289,0.0527344,0
22570,0.499023,-0.820312,0.0366211,0
22590,0.495605,-0.810547,0.043457,0
22610,0.511719,-0.820801,0.0483398,0
22630,0.523926,-0.824219,0.0249023,0
22650,0.519043,-0.818848,0.0410156,0
22670,0.507812,-0.811035,0.0488281,0
22690,0.526367,-0.810547,0.059082,0
22710,0.548828,-0.803711,0.0371094,0
22730,0.551758,-0.800781,0.0415039,0
22750,0.552734,-0.799805,0.043457,0
22770,0.566895,-0.806641,0.0454102,0
22790,0.571777,-0.803711,0.0395508,0
22810,0.5625,-0.799805,0.0253906,0
22830,0.577637,-0.795898,0.0463867,0
22850,0.601074,-0.777344,0.0512695,0
22870,0.600586,-0.772461,0.0356445,0
22890,0.597656,-0.771484,0.0224609,0
22910,0.606445,-0.785645,0.0224609,0
22930,0.610352,-0.774902,0.0175781,0
22950,0.625,-0.768555,0.0244141,0
22970,0.635254,-0.755371,0.0327148,0
22990,0.644043,-0.75,0.015625,0
23010,0.618164,-0.758789,0.0244141,0
23030,0.615234,-0.759766,0.03125,0
23050,0.630859,-0.750488,0.0161133,0
23070,0.632812,-0.752441,0.00195312,0
23090,0.62793,-0.755859,-0.00146484,0
23110,0.634766,-0.761719,0.0166016,0
23130,0.650391,-0.754883,0.0131836,0
23150,0.65332,-0.743652,0.0141602,0
23170,0.653809,-0.737793,0.00341797,0
23190,0.651855,-0.750977,0.00683594,0
23210,0.664551,-0.746582,0.0195312,0
23230,0.660645,-0.731934,0.0180664,0
23250,0.665527,-0.724121,0.0136719,0
23270,0.66748,-0.730469,0.00390625,0
23290,0.683594,-0.731934,0.0263672,0
23310,0.678223,-0.719238,0.0166016,0
23330,0.685547,-0.705566,0.0185547,0
23350,0.68457,-0.706055,0.0224609,0
23370,0.660645,-0.703613,0.0375977,0
23390,0.666016,-0.704102,0.0317383,0
23410,0.692383,-0.683594,0.0180664,0
23430,0.6875,-0.694336,0.0195312,0
23450,0.679199,-0.697266,0.027832,0
23470,0.67627,-0.706055,0.0361328,0
23490,0.676758,-0.687988,0.0366211,0
23510,0.69043,-0.692383,0.0249023,0
23530,0.699219,-0.688965,0.0200195,0
23550,0.688965,-0.696777,0.0244141,0
23570,0.679688,-0.681641,0.00634766,0
23590,0.683105,-0.687988,0.0239258,0
23610,0.71582,-0.67627,0.0268555,0
23630,0.692383,-0.689453,0.0166016,0
23650,0.665039,-0.681152,0.0161133,0
23670,0.679199,-0.674805,0.0263672,0
23690,0.712402,-0.661133,0.0327148,0
23710,0.736328,-0.657715,0.0239258,0
23730,0.742676,-0.660645,0.0185547,0
23750,0.73291,-0.67334,0.0302734,0
23770,0.716797,-0.669922,0.0317383,0
23790,0.720215,-0.65918,0.0224609,0
23810,0.736328,-0.639648,0.0175781,0
23830,0.76123,-0.634766,0.0224609,0
23850,0.755371,-0.640625,0.00488281,0
23870,0.727539,-0.641113,0.0126953,0
23890,0.725098,-0.644531,0.0209961,0
23910,0.74707,-0.628906,0.00537109,0
23930,0.753418,-0.616699,0.0112305,0
23950,0.751465,-0.613281,0.00244141,0
23970,0.761719,-0.614746,0,0
23990,0.772461,-0.614746,0.00830078,0
24010,0.755859,-0.614258,-0.00146484,0
24030,0.754395,-0.600586,-0.00439453,0
24050,0.769531,-0.60498,-0.000976562,0
24070,0.787109,-0.598633,0.00537109,0
24090,0.786133,-0.591797,0.00439453,0
24100,0.774902,-0.581055,0.000976562,0
24120,0.769043,-0.589355,0.00927734,0
24140,0.769531,-0.578125,0.0126953,0
24160,0.791992,-0.585449,-0.00341797,0
24180,0.795898,-0.563965,0.0102539,0
24200,0.808594,-0.566406,0.00634766,0
24220,0.805176,-0.562988,-0.00341797,0
24240,0.813477,-0.553711,0.00976562,0
24260,0.824707,-0.553223,0.00146484,0
24280,0.800781,-0.544434,0.00634766,0
24300,0.806152,-0.532715,0.00683594,0
24320,0.816895,-0.533203,0.0131836,0
24340,0.822754,-0.517578,-0.00341797,0
24360,0.846191,-0.516602,0.0200195,0
24380,0.848145,-0.519043,0.0249023,0
24400,0.80957,-0.518555,0.0219727,0
24420,0.815918,-0.510254,0.0244141,0
24440,0.822266,-0.510742,0.0283203,0
24460,0.829102,-0.501953,0.0224609,0
24480,0.828125,-0.505371,0.03125,0
24500,0.812988,-0.507812,0.03125,0
24520,0.823242,-0.499512,0.0395508,0
24540,0.826172,-0.48877,0.03125,0
24560,0.83252,-0.474609,0.0361328,0
24580,0.847656,-0.475586,0.0375977,0
24600,0.849121,-0.479004,0.050293,0
24620,0.837891,-0.474609,0.0512695,0
24640,0.821777,-0.458984,0.0571289,0
24660,0.830078,-0.464844,0.0561523,0
24680,0.842285,-0.458008,0.0551758,0
24700,0.85498,-0.460449,0.0556641,0
24720,0.856934,-0.460449,0.0693359,0
24740,0.851562,-0.459473,0.0703125,0
24760,0.872559,-0.444336,0.0693359,0
24780,0.854492,-0.448242,0.0751953,0
24800,0.854492,-0.445801,0.0820312,0
24820,0.859863,-0.445312,0.0805664,0
24840,0.853027,-0.444336,0.0854492,0
24860,0.848633,-0.435547,0.0854492,0
24880,0.853027,-0.432617,0.0981445,0
24900,0.849609,-0.43457,0.0991211,0
24920,0.853027,-0.439941,0.11377,0
24940,0.845703,-0.43457,0.114746,0
24960,0.861816,-0.427734,0.113281,0
24980,0.865723,-0.424316,0.101074,0
25000,0.870117,-0.430176,0.105469,0
25020,0.866211,-0.429688,0.108887,0
25040,0.868652,-0.435547,0.111816,0
25060,0.855957,-0.437988,0.134766,0
25080,0.847656,-0.433594,0.144043,0
25100,0.855469,-0.427246,0.141602,0
25120,0.844238,-0.409668,0.137207,0
25140,0.833984,-0.415527,0.15332,0
25160,0.835449,-0.429688,0.15625,0
25180,0.838867,-0.449219,0.159668,0
25200,0.819824,-0.444824,0.175781,0
25220,0.837402,-0.432129,0.176758,0
25240,0.864746,-0.441406,0.181641,0
25260,0.849609,-0.441406,0.188965,0
25280,0.825195,-0.45166,0.19873,0
25300,0.81543,-0.455078,0.200684,0
25310,0.813477,-0.452637,0.209961,0
25340,0.813965,-0.453125,0.231445,0
25360,0.797363,-0.453613,0.224121,0
25380,0.794922,-0.435547,0.227051,0
25400,0.802246,-0.445312,0.237793,0
25420,0.80127,-0.444336,0.246094,0
25440,0.812988,-0.459961,0.239746,0
25460,0.837891,-0.458496,0.222168,0
25500,0.806641,-0.490234,0.219238,0
25520,0.813965,-0.468262,0.214355,0
25540,0.811523,-0.47168,0.220215,0
25560,0.805176,-0.466797,0.237793,0
25580,0.785645,-0.480469,0.251953,0
25600,0.780273,-0.474121,0.23877,0
25620,0.790527,-0.479004,0.240234,0
25640,0.791504,-0.464844,0.256836,0
25660,0.782227,-0.473633,0.242676,0
25680,0.788574,-0.468262,0.22998,0
25700,0.784668,-0.468262,0.25,0
25720,0.776855,-0.484863,0.258789,0
25740,0.765625,-0.497559,0.260742,0
25760,0.777832,-0.499023,0.264648,0
25780,0.76709,-0.515625,0.251953,0
25800,0.766113,-0.503418,0.216797,0
25820,0.786621,-0.511719,0.262207,0
25840,0.792969,-0.500977,0.273438,0
25860,0.778809,-0.504883,0.290039,0
25880,0.787109,-0.50293,0.28125,0
25900,0.768066,-0.531738,0.272461,0
25920,0.73291,-0.544922,0.285156,0
25940,0.720215,-0.546387,0.291016,0
25960,0.742676,-0.527832,0.265625,0
25980,0.749512,-0.523438,0.26416,0
26000,0.722168,-0.529785,0.300293,0
26020,0.681641,-0.563477,0.278809,0
26040,0.690918,-0.563477,0.278809,0
26050,0.713867,-0.571289,0.285645,0
26070,0.696777,-0.557617,0.277344,0
26090,0.679199,-0.54834,0.28125,0
26110,0.6875,-0.530762,0.288574,0
26130,0.713379,-0.536621,0.290039,0
26150,0.719238,-0.555176,0.296875,0
26170,0.710938,-0.569824,0.302246,0
26190,0.713379,-0.575684,0.277344,0
26210,0.706543,-0.570801,0.275391,0
26230,0.694336,-0.58252,0.268555,0
26250,0.70459,-0.601562,0.287109,0
26270,0.719238,-0.597168,0.276855,0
26290,0.712891,-0.585449,0.271973,0
26310,0.683105,-0.59082,0.280273,0
26330,0.698242,-0.606445,0.29248,0
26350,0.702148,-0.617188,0.297363,0
26370,0.685059,-0.62207,0.286621,0
26390,0.647949,-0.615234,0.296875,0
26410,0.658203,-0.599121,0.294434,0
26430,0.675293,-0.587891,0.299316,0
26450,0.6875,-0.592773,0.300781,0
26470,0.671387,-0.608887,0.306152,0
26490,0.638672,-0.62793,0.297363,0
26510,0.626465,-0.640625,0.305176,0
26530,0.657227,-0.635742,0.305664,0
26550,0.672852,-0.621582,0.285645,0
26570,0.641113,-0.617188,0.294922,0
26590,0.609863,-0.630371,0.308105,0
26610,0.626953,-0.638184,0.317871,0
26630,0.619141,-0.649902,0.308105,0
26650,0.612305,-0.661133,0.295898,0
26670,0.612793,-0.665039,0.3125,0
26690,0.605957,-0.65332,0.317871,0
26710,0.601562,-0.654785,0.302246,0
26730,0.579102,-0.651855,0.314941,0
26750,0.587402,-0.658691,0.315918,0
26770,0.599121,-0.663574,0.321289,0
26790,0.600586,-0.666016,0.320312,0
26810,0.611328,-0.667969,0.311035,0
26830,0.62207,-0.684082,0.312012,0
26850,0.608398,-0.674805,0.307129,0
26870,0.585938,-0.681641,0.281738,0
26890,0.584473,-0.68457,0.263672,0
26910,0.610352,-0.700195,0.272461,0
26930,0.583008,-0.688477,0.296387,0
26950,0.562012,-0.681152,0.299316,0
26970,0.575684,-0.685059,0.299316,0
26990,0.569336,-0.697754,0.292969,0
27010,0.570312,-0.696289,0.30957,0
27030,0.585449,-0.691406,0.330078,0
27050,0.572266,-0.685059,0.314453,0
27070,0.553223,-0.697266,0.296875,0
27090,0.585449,-0.679199,0.300781,0
27110,0.57666,-0.708008,0.322266,0
27130,0.562012,-0.708984,0.318359,0
27150,0.578613,-0.707031,0.308105,0
27170,0.578613,-0.678711,0.294922,0
27190,0.571289,-0.681152,0.304199,0
27210,0.574219,-0.689941,0.316406,0
27230,0.572754,-0.69873,0.318848,0
27250,0.557617,-0.689941,0.310547,0
27270,0.564453,-0.694824,0.311523,0
27290,0.568359,-0.674316,0.301758,0
27310,0.565918,-0.689941,0.314941,0
27330,0.54834,-0.680176,0.317871,0
27350,0.54834,-0.681641,0.315918,0
27370,0.571777,-0.695801,0.306152,0
27390,0.570801,-0.717285,0.301758,0
27410,0.569336,-0.723145,0.307129,0
27430,0.581543,-0.713867,0.30127,0
27450,0.566406,-0.696777,0.287598,0
27470,0.576172,-0.705078,0.286133,0
27490,0.575684,-0.722168,0.291504,0
27530,0.559082,-0.72998,0.288574,0
27550,0.57959,-0.726562,0.294434,0
27570,0.568359,-0.712402,0.283203,0
27590,0.558105,-0.721191,0.273438,0
27610,0.569336,-0.725098,0.291992,0
27630,0.571289,-0.730957,0.277832,0
27650,0.572754,-0.73291,0.272949,0
27670,0.553223,-0.72168,0.267578,0
27690,0.568359,-0.728516,0.289062,0
27710,0.572266,-0.731445,0.269043,0
27730,0.55957,-0.730957,0.264648,0
27750,0.560059,-0.730469,0.265137,0
27770,0.568848,-0.728516,0.265137,0
27780,0.570801,-0.724609,0.259766,0
27800,0.553223,-0.725586,0.244141,0
27820,0.551758,-0.724609,0.254883,0
27840,0.552246,-0.735352,0.249023,0
27860,0.552734,-0.729004,0.238281,0
27880,0.561523,-0.729004,0.231445,0
27900,0.568359,-0.73291,0.241699,0
27920,0.56543,-0.743164,0.245117,0
27940,0.566406,-0.749023,0.222168,0
27960,0.562012,-0.757324,0.219238,0
27980,0.578125,-0.73877,0.220215,0
28000,0.575684,-0.747559,0.217285,0
28030,0.578125,-0.767578,0.213867,0
28050,0.560059,-0.760742,0.20166,0
28070,0.578613,-0.756348,0.208984,0
28080,0.57959,-0.767578,0.208496,0
28100,0.565918,-0.764648,0.186035,0
28120,0.574707,-0.766602,0.193359,0
28140,0.588379,-0.760254,0.202637,0
28160,0.573242,-0.755859,0.194336,0
28180,0.558594,-0.74707,0.17334,0
28200,0.56543,-0.757324,0.168457,0
28220,0.562988,-0.759766,0.158203,0
28240,0.558105,-0.75293,0.166992,0
28260,0.569336,-0.749023,0.170898,0
28280,0.593262,-0.749512,0.169434,0
28300,0.602539,-0.741211,0.164551,0
28320,0.602539,-0.742676,0.163574,0
28340,0.598633,-0.75,0.157227,0
28360,0.582031,-0.757812,0.13916,0
28380,0.579102,-0.743164,0.129395,0
28400,0.604004,-0.737305,0.142578,0
28420,0.622559,-0.73584,0.132812,0
28440,0.625977,-0.75,0.100586,0
28460,0.64209,-0.742676,0.106934,0
28480,0.627441,-0.757324,0.111328,0
28500,0.617676,-0.750977,0.114258,0
28520,0.629395,-0.74707,0.0947266,0
28540,0.617188,-0.743164,0.0913086,0
28560,0.610352,-0.746094,0.0883789,0
28580,0.62793,-0.733887,0.0898438,0
28600,0.623535,-0.732422,0.078125,0
28620,0.625977,-0.728027,0.0683594,0
28640,0.627441,-0.735352,0.0668945,0
28660,0.628906,-0.731445,0.0708008,0
28680,0.629883,-0.731934,0.0454102,0
28700,0.637695,-0.717773,0.0473633,0
28720,0.644043,-0.711426,0.0478516,0
28740,0.647949,-0.70459,0.0351562,0
28760,0.649902,-0.702637,0.0336914,0
28780,0.646973,-0.70166,0.0400391,0
28800,0.646973,-0.710449,0.0263672,0
28820,0.667969,-0.701172,0.0195312,0
28840,0.677734,-0.700684,-0.00195312,0
28860,0.70459,-0.691895,0.0166016,0
28880,0.718262,-0.674316,0.0102539,0
28900,0.708496,-0.683105,0.0146484,0
28920,0.701172,-0.688477,0,0
28940,0.711426,-0.681152,-0.0107422,0
28960,0.726074,-0.658691,-0.0229492,0
28980,0.720215,-0.64502,-0.0297852,0
29000,0.723145,-0.637207,-0.0322266,0
29020,0.740234,-0.628418,-0.027832,0
29040,0.752441,-0.633789,-0.0136719,0
29060,0.756348,-0.625977,-0.0532227,0
29080,0.776367,-0.614258,-0.0634766,0
29100,0.773926,-0.619141,-0.0498047,0
29120,0.757324,-0.614258,-0.0488281,0
29140,0.759766,-0.609863,-0.0634766,0
29160,0.792969,-0.603516,-0.0585938,0
29180,0.78418,-0.583008,-0.0595703,0
29200,0.78125,-0.571289,-0.0566406,0
29220,0.80127,-0.580566,-0.0693359,0
29240,0.810547,-0.577148,-0.0732422,0
29260,0.790527,-0.584473,-0.0644531,0
29280,0.772461,-0.570312,-0.0791016,0
29300,0.812988,-0.567383,-0.0751953,0
29320,0.812012,-0.544922,-0.059082,0
29340,0.787109,-0.541992,-0.0605469,0
29360,0.802246,-0.537109,-0.0585938,0
29380,0.818848,-0.544922,-0.0561523,0
29390,0.818848,-0.53125,-0.0512695,0
29410,0.807617,-0.538574,-0.0463867,0
29430,0.825684,-0.515137,-0.0541992,0
29450,0.851562,-0.52002,-0.0551758,0
29470,0.858887,-0.514648,-0.0639648,0
29490,0.822266,-0.529297,-0.0512695,0
29510,0.80957,-0.495605,-0.0551758,2001
29530,0.846191,-0.479492,-0.0634766,0
29550,0.878418,-0.473633,-0.065918,0
29570,0.89209,-0.496094,-0.0830078,0
29590,0.875,-0.493652,-0.0854492,0
29610,0.867188,-0.472656,-0.0668945,0
29630,0.866699,-0.455078,-0.0610352,0
29650,0.868652,-0.460938,-0.0742188,0
29670,0.87793,-0.469727,-0.0922852,0
29690,0.852539,-0.486816,-0.0708008,0
29710,0.825684,-0.460449,-0.090332,0
29730,0.833496,-0.464844,-0.0976562,0
29750,0.821289,-0.462891,-0.0922852,0
29770,0.802734,-0.474121,-0.0795898,0
29790,0.794922,-0.498047,-0.0688477,0
29810,0.771484,-0.499023,-0.0512695,0
29830,0.772461,-0.476562,-0.0581055,0
29850,0.768555,-0.487793,-0.046875,0
29870,0.762695,-0.499023,-0.050293,0
29890,0.741699,-0.519043,-0.0556641,0
29910,0.730469,-0.543457,-0.0424805,0
29930,0.731934,-0.55127,-0.034668,0
29950,0.743652,-0.532227,-0.00634766,0
29970,0.734863,-0.513672,0.00585938,0
29990,0.697754,-0.536621,-0.00292969,0
30010,0.685059,-0.574707,-0.00292969,0
30030,0.695312,-0.583984,0.0253906,0
30050,0.720703,-0.584473,0.0644531,0
30070,0.684082,-0.566895,0.097168,0
30090,0.664062,-0.571777,0.0698242,0
30110,0.693848,-0.599609,0.0991211,0
30130,0.695312,-0.615723,0.145996,0
30150,0.704102,-0.585938,0.151367,0
30170,0.686035,-0.582031,0.137695,0
30190,0.693359,-0.616699,0.18457,0
30210,0.688965,-0.658691,0.210938,0
30230,0.697266,-0.674316,0.202148,0
30250,0.713867,-0.657227,0.236328,0
30270,0.645996,-0.647949,0.238281,0
30290,0.633301,-0.709473,0.238281,0
30310,0.671387,-0.726074,0.235352,0
30330,0.655762,-0.686035,0.282227,0
30350,0.557617,-0.671387,0.336426,0
30370,0.541504,-0.705078,0.358887,0
30390,0.540039,-0.734863,0.301758,0
30410,0.587891,-0.744629,0.319336,0
30430,0.582031,-0.742188,0.354492,0
30450,0.526855,-0.706055,0.398438,0
30470,0.496582,-0.727539,0.401855,0
30490,0.496582,-0.730957,0.381836,0
30510,0.488281,-0.714844,0.42041,0
30530,0.440918,-0.658203,0.458008,0
30550,0.440918,-0.666016,0.462402,0
30570,0.470215,-0.65625,0.489746,0
30590,0.474609,-0.654297,0.532715,0
30610,0.430176,-0.617676,0.562988,0
30630,0.389648,-0.679199,0.482422,0
30650,0.45752,-0.726074,0.493652,0
30670,0.429688,-0.675781,0.577148,0
30690,0.351074,-0.615234,0.62207,0
30710,0.328125,-0.59668,0.601074,0
30730,0.402344,-0.668945,0.576172,0
30750,0.443359,-0.662598,0.671875,0
30770,0.362793,-0.624512,0.695801,0
30810,0.327148,-0.653809,0.619141,0
30830,0.35498,-0.648438,0.721191,0
30850,0.274414,-0.626953,0.733398,0
30870,0.208008,-0.586914,0.730469,0
30890,0.154297,-0.651367,0.672363,0
30910,0.237793,-0.68457,0.667969,0
30930,0.266602,-0.662109,0.716309,0
30950,0.229492,-0.655762,0.73877,0
30970,0.171387,-0.605469,0.768555,0
30990,0.133301,-0.649414,0.783203,0
31010,0.175293,-0.608887,0.828125,0
31030,0.18457,-0.612793,0.817383,0
31050,0.133301,-0.59082,0.791016,0
31070,0.10791,-0.543945,0.801758,0
31090,0.0947266,-0.443359,0.846191,0
31110,0.104004,-0.553711,0.777832,0
31130,0.0830078,-0.564941,0.785156,0
31150,0.0405273,-0.560547,0.785645,0
31170,0.0429688,-0.561035,0.773926,0
31190,0.034668,-0.532715,0.769043,0
31210,0.00585938,-0.490723,0.774902,0
31230,0.0185547,-0.484863,0.785645,0
31250,0.0141602,-0.507812,0.799805,0
31270,0.027832,-0.536621,0.760254,0
31290,0.00927734,-0.505859,0.75,0
31310,0.0126953,-0.49707,0.759766,0
31330,0.0253906,-0.500977,0.76416,0
31350,0.027832,-0.509766,0.762695,0
31370,0.0234375,-0.516113,0.757812,0
31380,0.0161133,-0.510742,0.771484,0
31400,0.0244141,-0.501953,0.771973,0
31420,0.0317383,-0.494629,0.793457,0
31440,0.0288086,-0.509766,0.788086,0
31460,0.0224609,-0.523438,0.777832,0
31480,0.0170898,-0.524902,0.787598,0
31500,0.0205078,-0.527832,0.786621,0
31520,0.0234375,-0.510742,0.791992,0
31540,0.027832,-0.506348,0.790039,0
31560,0.03125,-0.506836,0.782227,0
31580,0.0288086,-0.520996,0.783691,0
31600,0.0205078,-0.525391,0.774414,0
31620,0.0244141,-0.527832,0.783203,0
31640,0.0214844,-0.512695,0.780762,0
31660,0.0146484,-0.500977,0.778809,0
31680,0.0166016,-0.507812,0.783691,0
31700,0.00585938,-0.515137,0.785645,0
31720,0.0166016,-0.517578,0.777344,0
31740,0.0297852,-0.513672,0.767578,0
31760,0.0322266,-0.520996,0.764648,0
31780,0.0288086,-0.517578,0.772461,0
31800,0.0175781,-0.519043,0.766113,0
31820,0.0146484,-0.518066,0.797363,0
31840,0.0224609,-0.535645,0.768066,0
31860,0.019043,-0.508789,0.776367,0
31880,0.0375977,-0.523926,0.773926,0
31900,0.0449219,-0.518555,0.78125,0
31920,0.0419922,-0.507812,0.776367,0
31940,0.0405273,-0.499023,0.767578,0
31960,0.0371094,-0.51416,0.783203,0
31980,0.0493164,-0.516602,0.782227,0
32000,0.0429688,-0.530762,0.766602,0
32020,0.0449219,-0.527344,0.773926,0
32040,0.0336914,-0.52002,0.765137,0
32060,0.0351562,-0.510254,0.777344,0
32080,0.0322266,-0.519043,0.788574,0
32100,0.03125,-0.518066,0.767578,0
32120,0.03125,-0.516602,0.765137,0
32140,0.046875,-0.530273,0.757812,0
32160,0.0400391,-0.534668,0.77002,0
32180,0.0507812,-0.519531,0.782227,0
32200,0.0620117,-0.531738,0.801758,0
32220,0.102539,-0.549316,0.792969,0
32240,0.133789,-0.565918,0.768066,0
32260,0.148926,-0.55127,0.778809,0
32280,0.16748,-0.554199,0.814941,0
32300,0.161133,-0.549316,0.804199,0
32320,0.157227,-0.519043,0.777344,0
32340,0.130371,-0.521484,0.755859,0
32360,0.103516,-0.549316,0.727539,0
32380,0.0708008,-0.584473,0.759766,0
32400,0.0634766,-0.600586,0.755371,0
32420,0.0883789,-0.604004,0.735352,0
32440,0.140137,-0.615723,0.704102,0
32460,0.233887,-0.637207,0.685059,0
32480,0.317383,-0.600098,0.727539,0
32500,0.335449,-0.592285,0.699707,0
32520,0.312988,-0.630859,0.666016,0
32540,0.240234,-0.634766,0.706543,0
32560,0.177246,-0.654785,0.712402,0
32580,0.177246,-0.67041,0.683105,0
32600,0.189941,-0.654785,0.633301,0
32620,0.216797,-0.633301,0.619629,0
32640,0.23584,-0.638672,0.597656,0
32660,0.272461,-0.648438,0.577148,0
32680,0.294922,-0.634766,0.606445,0
32700,0.351074,-0.660645,0.594727,0
32720,0.276367,-0.646484,0.59375,0
32740,0.277832,-0.663086,0.608887,0
32760,0.30957,-0.660156,0.598145,0
32780,0.247559,-0.635254,0.594727,0
32800,0.22168,-0.618164,0.591797,0
32820,0.17627,-0.599121,0.586914,0
32840,0.137207,-0.600098,0.587402,0
32860,0.0830078,-0.605469,0.54541,0
32880,0.128906,-0.634277,0.526855,0
32900,0.230957,-0.666504,0.494141,0
32920,0.306641,-0.685059,0.515625,0
32940,0.378906,-0.707031,0.505371,0
32960,0.415527,-0.678711,0.523438,0
32980,0.456055,-0.696777,0.57959,0
33000,0.479004,-0.719727,0.572754,0
33020,0.474609,-0.73584,0.590332,0
33040,0.451172,-0.70752,0.58252,0
33060,0.457031,-0.713867,0.589844,0
33080,0.463379,-0.719727,0.591309,0
33100,0.458984,-0.719727,0.581543,0
33120,0.435547,-0.713379,0.575684,0
33140,0.430664,-0.70459,0.571777,0
33160,0.42041,-0.700195,0.547363,0
33180,0.401855,-0.689941,0.53418,0
33200,0.379883,-0.686523,0.520508,0
33220,0.363281,-0.659668,0.522949,0
33240,0.353516,-0.672363,0.504883,0
33260,0.328125,-0.695801,0.519043,0
33280,0.324707,-0.684082,0.497559,0
33300,0.330566,-0.675293,0.474609,0
33320,0.348633,-0.71582,0.478027,0
33340,0.331543,-0.714844,0.504395,0
33360,0.348145,-0.692871,0.442871,0
33370,0.36377,-0.729492,0.473145,0
33400,0.396484,-0.730957,0.430664,0
33430,0.398926,-0.731445,0.438477,0
33450,0.391602,-0.714844,0.41748,0
33460,0.406738,-0.729492,0.439941,0
33480,0.411621,-0.710449,0.397461,0
33490,0.396973,-0.725098,0.40332,0
33510,0.397949,-0.736816,0.396973,0
33530,0.416016,-0.731934,0.404297,0
33550,0.41748,-0.712402,0.399414,0
33570,0.407227,-0.717285,0.418457,0
33590,0.399902,-0.714355,0.414551,0
33610,0.40332,-0.71582,0.41748,0
33630,0.416504,-0.729004,0.430664,0
33650,0.436523,-0.745117,0.415527,0
33670,0.440918,-0.741699,0.422852,0
33690,0.445801,-0.747559,0.416504,0
33710,0.453125,-0.74707,0.401367,0
33730,0.46875,-0.753906,0.419434,0
33750,0.45459,-0.753906,0.427734,0
33770,0.455078,-0.742188,0.444824,0
33790,0.456543,-0.744141,0.426758,0
33810,0.436035,-0.73877,0.426758,0
33830,0.449219,-0.750488,0.419434,0
33850,0.421387,-0.750488,0.402344,0
33870,0.435059,-0.729004,0.415039,0
33890,0.438965,-0.737793,0.434082,0
33910,0.413574,-0.74707,0.413574,0
33930,0.402344,-0.745117,0.405762,0
33950,0.443848,-0.75,0.414551,0
33970,0.479004,-0.744141,0.389648,0
33990,0.457031,-0.750977,0.403809,0
34010,0.46582,-0.746094,0.379883,0
34030,0.489258,-0.736328,0.387695,0
34050,0.476074,-0.72168,0.40625,0
34070,0.469238,-0.702637,0.414062,0
34090,0.503418,-0.697266,0.408203,0
34110,0.516602,-0.708984,0.405762,0
34130,0.469727,-0.706055,0.413574,0
34150,0.431641,-0.708496,0.402344,0
34170,0.45166,-0.699707,0.411621,0
34190,0.446289,-0.683594,0.435059,0
34210,0.413574,-0.696289,0.402832,0
34230,0.408203,-0.700684,0.395996,0
34250,0.430664,-0.708984,0.40332,0
34270,0.42627,-0.700195,0.416504,0
34290,0.425293,-0.746582,0.416016,0
34310,0.429688,-0.764648,0.375977,0
34320,0.470215,-0.74707,0.400391,0
34340,0.474609,-0.72998,0.410645,0
34360,0.511719,-0.729492,0.41748,0
34380,0.467773,-0.711426,0.425293,0
34400,0.446777,-0.734375,0.449219,0
34420,0.472168,-0.75293,0.427734,0
34440,0.483398,-0.740234,0.408691,0
34460,0.455566,-0.694336,0.438477,0
34480,0.434082,-0.720703,0.393066,0
34500,0.439941,-0.697754,0.401367,0
34520,0.445801,-0.709473,0.415039,0
34540,0.451172,-0.711426,0.426758,0
34560,0.445312,-0.696777,0.433594,0
34580,0.449219,-0.717773,0.424316,0
34600,0.477539,-0.710938,0.436523,0
34620,0.472168,-0.706055,0.417969,0
34640,0.458008,-0.716309,0.435059,0
34660,0.462402,-0.707031,0.432129,0
34680,0.463867,-0.702637,0.428223,0
34700,0.458008,-0.705078,0.419922,0
34720,0.462891,-0.726562,0.429688,0
34730,0.467773,-0.714355,0.421387,0
34750,0.45459,-0.716797,0.40918,0
34770,0.418945,-0.705566,0.413574,0
34790,0.437012,-0.733887,0.432129,0
34810,0.434082,-0.72168,0.415039,0
34830,0.408691,-0.708496,0.447754,0
34850,0.396484,-0.726074,0.431641,0
34870,0.424805,-0.730957,0.428711,2000
34890,0.429688,-0.666992,0.429199,0
34910,0.421387,-0.720215,0.445312,0
34930,0.408691,-0.74707,0.436035,0
34950,0.480957,-0.751465,0.452148,0
34970,0.465332,-0.753906,0.439941,0
34990,0.487793,-0.736816,0.432617,0
35010,0.479492,-0.736816,0.416504,0
35030,0.474121,-0.749512,0.421387,0
35050,0.443359,-0.75,0.428223,0
35070,0.401367,-0.739746,0.432617,0
35090,0.376953,-0.734375,0.416016,0
35110,0.399902,-0.744629,0.423828,0
35130,0.390137,-0.722656,0.436523,0
35150,0.365723,-0.70752,0.429199,0
35170,0.344727,-0.708496,0.424316,0
35190,0.350098,-0.729492,0.442383,0
35210,0.337891,-0.746094,0.441895,0
35230,0.341309,-0.763672,0.444824,0
35250,0.375,-0.767578,0.44043,0
35270,0.398438,-0.765625,0.445801,0
35290,0.408691,-0.763184,0.419434,0
35310,0.376953,-0.756348,0.417969,0
35330,0.370605,-0.78125,0.418457,0
35350,0.377441,-0.767578,0.419434,0
35370,0.383301,-0.73877,0.430176,0
35390,0.378906,-0.757812,0.423828,0
35410,0.355957,-0.754395,0.42627,0
35430,0.364746,-0.743164,0.429199,0
35440,0.430664,-0.75,0.437012,0
35460,0.418945,-0.760742,0.408203,0
35480,0.401855,-0.753906,0.399902,0
35500,0.425293,-0.74707,0.416504,0
35540,0.456543,-0.762695,0.393066,0
35560,0.422852,-0.756348,0.37793,0
35580,0.408691,-0.757324,0.394531,0
35600,0.436035,-0.753906,0.410156,0
35620,0.442871,-0.759766,0.384766,0
35640,0.435547,-0.751465,0.357422,0
35660,0.455566,-0.760742,0.378418,0
35680,0.48877,-0.766113,0.394043,0
35700,0.46875,-0.761719,0.36377,0
35720,0.446777,-0.754883,0.364258,0
35740,0.442383,-0.760254,0.359375,0
35760,0.460938,-0.75293,0.357422,0
35780,0.45752,-0.744629,0.371582,0
35800,0.462402,-0.742188,0.369141,0
35820,0.490234,-0.759277,0.356445,0
35840,0.482422,-0.752441,0.352539,0
35860,0.469727,-0.751953,0.358887,0
35880,0.468262,-0.750977,0.361816,0
35900,0.500488,-0.747559,0.337891,0
35920,0.492188,-0.738281,0.347168,0
35940,0.479004,-0.734375,0.329102,0
35960,0.492188,-0.733887,0.342285,0
35980,0.493652,-0.741699,0.345703,0
36000,0.494629,-0.734375,0.322754,0
36020,0.498047,-0.737305,0.32666,0
36040,0.518555,-0.740234,0.311523,0
36080,0.54248,-0.72998,0.313965,0
36100,0.539551,-0.724609,0.327637,0
36120,0.537109,-0.726562,0.324707,0
36140,0.544434,-0.731934,0.307129,0
36160,0.560547,-0.743164,0.308105,0
36180,0.569824,-0.731445,0.303711,0
36200,0.578613,-0.724121,0.305664,0
36220,0.586426,-0.712891,0.298828,0
36240,0.585449,-0.714355,0.289551,0
36260,0.588379,-0.711426,0.304688,0
36280,0.580078,-0.710938,0.310059,0
36300,0.567383,-0.702637,0.297363,0
36320,0.573242,-0.694336,0.29248,0
36340,0.583984,-0.691406,0.304199,0
36360,0.55957,-0.693359,0.306641,0
36380,0.541504,-0.693359,0.311035,0
36400,0.547852,-0.682617,0.325195,0
36420,0.555664,-0.678223,0.330566,0
36440,0.568848,-0.686523,0.331055,0
36460,0.58252,-0.690918,0.328613,0
36480,0.591797,-0.685059,0.330566,0
36500,0.580078,-0.680176,0.337402,0
36520,0.567871,-0.679688,0.338379,0
36530,0.572266,-0.674316,0.349609,0
36560,0.567871,-0.669434,0.354004,0
36570,0.569824,-0.666992,0.344238,0
36590,0.564453,-0.67334,0.34375,0
36610,0.583984,-0.67041,0.362793,0
36630,0.574707,-0.665039,0.374512,0
36650,0.582031,-0.65625,0.366211,0
36670,0.564941,-0.660645,0.370605,0
36690,0.570312,-0.668945,0.356445,0
36710,0.57959,-0.668457,0.367188,0
36730,0.580078,-0.672852,0.373535,0
36750,0.575195,-0.678223,0.391602,0
36770,0.580566,-0.660645,0.345215,0
36790,0.591309,-0.658203,0.350586,0
36810,0.591309,-0.661621,0.349609,0
36830,0.590332,-0.670898,0.34668,0
36850,0.601074,-0.670898,0.350586,0
36870,0.600586,-0.65918,0.361328,0
36890,0.608887,-0.644531,0.359375,0
36910,0.616699,-0.652832,0.355469,0
36930,0.614258,-0.636719,0.363281,0
36950,0.609863,-0.631836,0.367188,0
36970,0.623535,-0.616211,0.358887,0
36990,0.626953,-0.621094,0.360352,0
37010,0.627441,-0.615234,0.362305,0
37030,0.626465,-0.614258,0.364746,0
37050,0.634277,-0.615723,0.355469,0
37070,0.637695,-0.607422,0.367188,0
37090,0.645508,-0.593262,0.367188,0
37110,0.63623,-0.592285,0.368652,0
37130,0.627441,-0.604004,0.359375,0
37150,0.625977,-0.602051,0.362793,0
37170,0.629883,-0.593262,0.372559,0
37190,0.634766,-0.594238,0.372559,0
37210,0.637207,-0.585938,0.353516,0
37230,0.654297,-0.604492,0.351074,0
37250,0.641113,-0.587402,0.37793,0
37270,0.634766,-0.589355,0.368652,0
37290,0.638184,-0.592773,0.370117,0
37310,0.630859,-0.595215,0.371582,0
37330,0.640625,-0.594238,0.37207,0
37350,0.638184,-0.588379,0.361816,0
37370,0.644531,-0.601074,0.369629,0
37390,0.640137,-0.612793,0.375977,0
37410,0.625977,-0.611328,0.371094,0
37430,0.627441,-0.601074,0.376953,0
37450,0.643555,-0.599609,0.374023,0
37470,0.628418,-0.605469,0.37793,0
37490,0.619629,-0.616211,0.373047,0
37510,0.613281,-0.606934,0.394531,0
37530,0.606445,-0.603027,0.391602,0
37550,0.630371,-0.59668,0.394531,0
37570,0.633301,-0.604004,0.400391,0
37590,0.620605,-0.608398,0.39209,0
37610,0.63623,-0.625,0.380371,0
37630,0.638672,-0.614258,0.391602,0
37650,0.62207,-0.616699,0.392578,0
37670,0.630859,-0.610352,0.398926,0
37690,0.633301,-0.612793,0.391113,0
37710,0.637695,-0.608887,0.388672,0
37730,0.621582,-0.617188,0.38623,0
37750,0.602539,-0.606934,0.391602,0
37770,0.599121,-0.610352,0.397949,0
37790,0.605469,-0.606445,0.392578,0
37810,0.612793,-0.616211,0.379395,0
37830,0.597168,-0.618652,0.392578,0
37850,0.599121,-0.614258,0.398438,0
37870,0.599121,-0.607422,0.398926,0
37890,0.57666,-0.611328,0.394043,0
37910,0.562012,-0.613281,0.391602,0
37930,0.566406,-0.623535,0.413574,0
37950,0.575195,-0.614258,0.418457,0
37970,0.591797,-0.616211,0.40332,0
37990,0.587891,-0.617676,0.411133,0
38010,0.570312,-0.635742,0.421387,0
38030,0.560059,-0.624512,0.429688,0
38050,0.584961,-0.624512,0.413086,0
38070,0.594238,-0.612305,0.414062,0
38090,0.589355,-0.628906,0.403809,0
38110,0.573242,-0.631348,0.414062,0
38130,0.554199,-0.644531,0.420898,0
38150,0.557129,-0.636719,0.423828,0
38170,0.578613,-0.643555,0.424316,0
38190,0.593262,-0.632812,0.414551,0
38210,0.580566,-0.625,0.408691,0
38230,0.567383,-0.629883,0.411621,0
38250,0.569336,-0.644043,0.414551,0
38270,0.580566,-0.634766,0.397461,0
38290,0.582031,-0.637695,0.400391,0
38310,0.572754,-0.640625,0.399902,0
38330,0.555664,-0.647461,0.410156,0
38350,0.523926,-0.649902,0.417969,0
38370,0.537109,-0.657715,0.418945,0
38390,0.560059,-0.664062,0.411133,0
38410,0.569824,-0.669434,0.399902,0
38430,0.544434,-0.671387,0.426758,0
38450,0.532715,-0.674316,0.43457,0
38470,0.538086,-0.681641,0.425781,0
38490,0.525879,-0.685059,0.425781,0
38510,0.503906,-0.69043,0.429688,0
38530,0.504395,-0.688477,0.421387,0
38550,0.519043,-0.688477,0.409668,0
38570,0.51123,-0.691406,0.413086,0
38590,0.454102,-0.689453,0.416016,0
38610,0.439453,-0.691406,0.420898,0
38630,0.465332,-0.687988,0.424316,0
38650,0.486328,-0.691406,0.40332,0
38670,0.463867,-0.697754,0.403809,0
38690,0.452148,-0.708496,0.414551,0
38710,0.449219,-0.73291,0.404785,0
38730,0.456543,-0.728516,0.40625,0
38750,0.442383,-0.730469,0.40332,0
38780,0.431641,-0.754395,0.410645,0
38800,0.420898,-0.753418,0.39209,0
38820,0.436035,-0.765625,0.395508,0
38840,0.411133,-0.761719,0.395996,0
38860,0.375,-0.769043,0.39502,0
38880,0.401367,-0.77002,0.397949,0
38900,0.408203,-0.774414,0.39209,0
38920,0.399414,-0.769531,0.391113,0
38940,0.384766,-0.76709,0.401367,0
38960,0.383789,-0.758301,0.398926,0
38980,0.39209,-0.783203,0.388184,0
39000,0.39502,-0.777344,0.378906,0
39020,0.393555,-0.786621,0.382324,0
39040,0.387207,-0.774902,0.399414,0
39060,0.392578,-0.779785,0.395996,0
39080,0.40918,-0.774902,0.397461,0
39100,0.40625,-0.768555,0.383301,0
39120,0.375488,-0.769043,0.382324,0
39140,0.382324,-0.782227,0.381348,0
39160,0.408691,-0.780273,0.391113,0
39180,0.395996,-0.763672,0.376953,0
39200,0.38916,-0.76123,0.384766,0
39220,0.394531,-0.77002,0.395996,0
39240,0.399902,-0.777344,0.408203,0
39260,0.392578,-0.780762,0.387695,0
39280,0.405762,-0.779297,0.380371,0
39300,0.403809,-0.778809,0.387207,0
39320,0.411621,-0.77002,0.383301,0
39340,0.40332,-0.784668,0.392578,0
39360,0.393066,-0.779297,0.388184,0
39380,0.382812,-0.785645,0.391113,0
39400,0.390625,-0.786621,0.401367,0
39420,0.395996,-0.788086,0.404297,0
39440,0.40918,-0.787598,0.397461,0
39460,0.395508,-0.794434,0.395996,0
39480,0.390137,-0.797363,0.39209,0
39500,0.409668,-0.795898,0.385254,0
39520,0.404785,-0.79248,0.370117,0
39540,0.377441,-0.79541,0.369629,0
39560,0.367676,-0.797852,0.39502,0
39580,0.358887,-0.794434,0.398438,0
39600,0.350098,-0.796387,0.367676,0
39620,0.373535,-0.799316,0.367676,0
39640,0.359375,-0.791016,0.362305,0
39660,0.32959,-0.802246,0.341309,0
39680,0.343262,-0.797852,0.336914,0
39700,0.366211,-0.816406,0.359863,0
39720,0.350098,-0.825684,0.334961,0
39740,0.350586,-0.836426,0.336426,0
39760,0.375,-0.833496,0.333008,0
39780,0.378418,-0.829102,0.341309,0
39800,0.358398,-0.831543,0.330078,0
39820,0.337891,-0.834473,0.329102,0
39840,0.310059,-0.830078,0.311035,0
39860,0.32373,-0.824219,0.320801,0
39880,0.371094,-0.836426,0.343262,0
39900,0.375,-0.822754,0.345215,0
39920,0.33252,-0.837402,0.321777,0
39940,0.344727,-0.849609,0.321289,0
39960,0.360352,-0.856445,0.316406,0
39980,0.333984,-0.848145,0.310059,0
40000,0.320312,-0.839355,0.312988,0
40010,0.336426,-0.830078,0.322754,0
40030,0.349609,-0.844727,0.32666,0
40050,0.318359,-0.833008,0.311523,0
40070,0.331055,-0.838867,0.308105,0
40090,0.342285,-0.827637,0.307617,0
40110,0.339355,-0.842285,0.307617,0
40130,0.341797,-0.849121,0.292969,0
40150,0.356445,-0.852539,0.292969,0
40170,0.342773,-0.840332,0.290527,0
40190,0.329102,-0.847656,0.280273,0
40210,0.359863,-0.84375,0.275879,0
40230,0.337402,-0.849121,0.275879,0
40250,0.35791,-0.85498,0.272461,0
40270,0.346191,-0.850586,0.276855,0
40290,0.335938,-0.852051,0.275391,0
40310,0.365723,-0.869629,0.270996,0
40330,0.374023,-0.867188,0.269043,0
40350,0.356445,-0.858887,0.276367,0
40370,0.36084,-0.851562,0.271973,0
40390,0.360352,-0.859375,0.256836,0
40410,0.35498,-0.862793,0.244141,0
40430,0.366699,-0.878906,0.228516,0
40450,0.375,-0.869141,0.228516,0
40470,0.388672,-0.860352,0.228027,0
40490,0.385742,-0.850586,0.234863,0
40510,0.364746,-0.868164,0.221191,0
40530,0.372559,-0.877441,0.217773,0
40550,0.390137,-0.875,0.198242,0
40570,0.39502,-0.847656,0.204102,0
40590,0.383301,-0.847656,0.195801,0
40610,0.398926,-0.847656,0.1875,0
40630,0.399902,-0.851562,0.197754,0
40650,0.387207,-0.860352,0.1875,0
40670,0.400391,-0.880859,0.184082,0
40690,0.429199,-0.87207,0.181152,0
40710,0.4375,-0.862793,0.186035,0
40730,0.425781,-0.85791,0.162598,0
40750,0.413086,-0.86377,0.163086,0
40770,0.42041,-0.855957,0.181641,0
40790,0.416016,-0.847168,0.168945,0
40810,0.425293,-0.849609,0.140137,0
40830,0.44873,-0.848633,0.134766,0
40850,0.469727,-0.842773,0.157227,0
40870,0.462402,-0.845703,0.145508,0
40890,0.463867,-0.848633,0.119141,0
40910,0.500488,-0.839844,0.137207,0
40930,0.514648,-0.831543,0.147461,0
40950,0.507812,-0.825684,0.129883,0
40970,0.49707,-0.827637,0.114258,0
40990,0.512207,-0.820801,0.122559,0
41010,0.513672,-0.814453,0.109863,0
41030,0.503418,-0.812988,0.107422,0
41050,0.495117,-0.805176,0.0957031,0
41070,0.51123,-0.805664,0.123535,0
41090,0.515625,-0.807617,0.11377,0
41110,0.52832,-0.806641,0.0913086,0
41130,0.527832,-0.823242,0.0737305,0
41150,0.56543,-0.816895,0.0996094,0
41170,0.55957,-0.808594,0.105957,0
41190,0.566895,-0.806152,0.0986328,0
41210,0.566406,-0.794434,0.0703125,0
41230,0.588379,-0.800293,0.101074,0
41250,0.583496,-0.795898,0.111328,0
41270,0.577148,-0.793457,0.108398,0
41290,0.606445,-0.788574,0.0820312,0
41310,0.608398,-0.782227,0.0986328,0
41330,0.603516,-0.772461,0.0957031,0
41350,0.585449,-0.77002,0.0810547,0
41370,0.567871,-0.780273,0.0927734,0
41390,0.604004,-0.779785,0.0878906,0
41410,0.618164,-0.765137,0.078125,0
41430,0.60791,-0.752441,0.0683594,0
41450,0.599121,-0.771484,0.0649414,0
41470,0.608398,-0.755859,0.0947266,0
41490,0.612793,-0.740723,0.10498,0
41510,0.623047,-0.739258,0.065918,0
41530,0.643555,-0.754395,0.074707,0
41550,0.644043,-0.746582,0.0878906,0
41570,0.656738,-0.743164,0.0751953,0
41590,0.668945,-0.72998,0.0712891,0
41610,0.662598,-0.731934,0.0668945,0
41630,0.65625,-0.729004,0.0756836,0
41650,0.652832,-0.719727,0.0834961,0
41670,0.666016,-0.712402,0.0786133,0
41690,0.662109,-0.70752,0.0776367,0
41710,0.656738,-0.697266,0.0693359,0
41730,0.662598,-0.70459,0.0561523,0
41750,0.67041,-0.693848,0.0581055,0
41770,0.667969,-0.693359,0.065918,0
41790,0.672852,-0.687988,0.0683594,0
41810,0.675293,-0.690918,0.0683594,0
41830,0.693848,-0.692871,0.0478516,0
41850,0.693359,-0.696289,0.0522461,0
41870,0.717773,-0.684082,0.0581055,0
41890,0.722168,-0.679688,0.0615234,0
41910,0.717773,-0.674805,0.0483398,0
41930,0.703125,-0.680664,0.0644531,0
41950,0.697266,-0.672852,0.065918,0
41970,0.706055,-0.672363,0.0546875,0
41990,0.72998,-0.666016,0.0444336,0
42000,0.721191,-0.666504,0.043457,0
42020,0.730469,-0.660156,0.0571289,0
42040,0.719727,-0.655273,0.0488281,0
42060,0.73877,-0.654785,0.0458984,0
42080,0.72168,-0.657227,0.059082,0
42100,0.724609,-0.655762,0.0664062,0
42120,0.729004,-0.636719,0.050293,0
42140,0.737793,-0.631836,0.0541992,0
42160,0.725586,-0.634766,0.046875,0
42180,0.709473,-0.634766,0.0605469,0
42200,0.742676,-0.626953,0.0595703,0
42220,0.762695,-0.624023,0.0571289,0
42240,0.731445,-0.607422,0.0600586,0
42260,0.734375,-0.604004,0.0605469,0
42280,0.767578,-0.609375,0.0654297,0
42300,0.756348,-0.601074,0.0615234,0
42320,0.759277,-0.594727,0.0649414,0
42340,0.749512,-0.597656,0.0678711,0
42360,0.771484,-0.600098,0.0693359,0
42380,0.767578,-0.586426,0.0800781,0
42400,0.761719,-0.57666,0.0751953,0
42420,0.775391,-0.57373,0.0673828,0
42440,0.779297,-0.57959,0.0678711,0
42460,0.777832,-0.571777,0.0722656,0
42480,0.777832,-0.554688,0.0805664,0
42500,0.772461,-0.555664,0.0839844,0
42520,0.789551,-0.568848,0.0869141,0
42540,0.786133,-0.566406,0.0913086,0
42560,0.775391,-0.557617,0.0893555,0
42580,0.793457,-0.558105,0.0830078,0
42600,0.808594,-0.551758,0.0805664,0
42620,0.784668,-0.554199,0.0888672,0
42640,0.779785,-0.540039,0.0932617,0
42660,0.770996,-0.543945,0.0991211,0
42680,0.799805,-0.537109,0.102051,0
42700,0.787109,-0.537109,0.106934,0
42720,0.79248,-0.526855,0.107422,0
42730,0.809082,-0.539551,0.103516,0
42750,0.805176,-0.535156,0.119141,0
42770,0.805176,-0.531738,0.128906,0
42790,0.824219,-0.521484,0.118164,0
42810,0.817383,-0.526855,0.108887,0
42830,0.830078,-0.523438,0.119141,0
42850,0.812012,-0.535156,0.129883,0
42870,0.775879,-0.518066,0.143555,0
42890,0.786621,-0.52002,0.142578,0
42910,0.805176,-0.514648,0.142578,0
42930,0.803223,-0.524414,0.14209,0
42950,0.804199,-0.524414,0.141602,0
42970,0.776855,-0.522461,0.149902,0
42990,0.798828,-0.516602,0.154297,0
43010,0.791016,-0.525391,0.155762,0
43030,0.780762,-0.515137,0.155762,0
43050,0.805664,-0.520996,0.164551,0
43070,0.802246,-0.518555,0.182617,0
43090,0.783691,-0.512695,0.174316,0
43110,0.792969,-0.502441,0.171875,0
43130,0.824219,-0.506348,0.183594,0
43150,0.8125,-0.512207,0.202148,0
43170,0.779785,-0.51709,0.208008,0
43190,0.788574,-0.504395,0.206543,0
43210,0.817383,-0.513184,0.194336,0
43230,0.817383,-0.515137,0.204102,0
43250,0.785156,-0.521484,0.210449,0
43270,0.78125,-0.52002,0.222168,0
43290,0.797363,-0.519531,0.233887,0
43310,0.774414,-0.513672,0.215332,0
43330,0.763672,-0.527344,0.230957,0
43350,0.782227,-0.520996,0.242676,0
43370,0.771973,-0.537109,0.25,0
43390,0.736816,-0.523926,0.243164,0
43410,0.756836,-0.516113,0.245605,0
43430,0.763184,-0.504883,0.242188,0
43450,0.761719,-0.514648,0.229004,0
43470,0.733887,-0.531738,0.237793,0
43490,0.752441,-0.540527,0.254395,0
43510,0.748047,-0.52832,0.252441,0
43530,0.730957,-0.53418,0.247559,0
43550,0.743652,-0.526367,0.240234,0
43570,0.755371,-0.541016,0.257812,0
43590,0.730957,-0.540039,0.265625,0
43610,0.72168,-0.537109,0.263672,0
43630,0.73877,-0.542969,0.262207,0
43650,0.748047,-0.551758,0.274414,0
43670,0.738281,-0.564453,0.276367,0
43690,0.740234,-0.556641,0.274902,0
43710,0.742676,-0.555176,0.265137,0
43730,0.723633,-0.560059,0.260254,0
43750,0.712891,-0.563477,0.273926,0
43770,0.721191,-0.560059,0.281738,0
43790,0.724609,-0.558105,0.282227,0
43810,0.733398,-0.555176,0.284668,0
43830,0.693848,-0.562988,0.288574,0
43850,0.677246,-0.563965,0.305664,0
43870,0.695312,-0.553711,0.293457,0
43890,0.722656,-0.546875,0.279297,0
43910,0.740234,-0.566895,0.288086,0
43930,0.702637,-0.586426,0.301758,0
43950,0.663574,-0.586914,0.305176,0
43970,0.687988,-0.57666,0.301758,0
43990,0.70752,-0.577637,0.290527,0
44020,0.668457,-0.611328,0.297363,0
44040,0.680176,-0.602051,0.30957,0
44060,0.697754,-0.595215,0.301758,0
44070,0.647461,-0.605469,0.310547,0
44090,0.658203,-0.611816,0.316406,0
44110,0.687012,-0.616211,0.309082,0
44150,0.678711,-0.633301,0.317871,0
44170,0.701172,-0.617188,0.308594,0
44190,0.696289,-0.628906,0.311523,0
44210,0.655762,-0.639648,0.32373,0
44230,0.633301,-0.651855,0.33252,0
44250,0.633301,-0.638184,0.325684,0
44270,0.642578,-0.64502,0.307617,0
44290,0.639648,-0.652832,0.305176,0
44310,0.60498,-0.649414,0.32959,0
44330,0.586426,-0.63916,0.316406,0
44350,0.619141,-0.643555,0.312988,0
44370,0.62793,-0.657715,0.314941,0
44390,0.581055,-0.682617,0.303223,0
44410,0.580566,-0.689453,0.29248,0
44430,0.617676,-0.689941,0.311035,0
44450,0.623535,-0.692383,0.317871,0
44470,0.585938,-0.703613,0.312012,0
44490,0.576172,-0.699707,0.308105,0
44510,0.578125,-0.702148,0.300781,0
44530,0.562988,-0.698242,0.312012,0
44550,0.531738,-0.708496,0.319336,0
44570,0.539062,-0.704102,0.317383,0
44590,0.530762,-0.722656,0.306152,0
44610,0.510742,-0.727539,0.311035,0
44630,0.506348,-0.733398,0.305176,0
44650,0.507324,-0.725586,0.303223,0
44670,0.504883,-0.717773,0.29248,0
44690,0.536621,-0.730957,0.286133,0
44710,0.567383,-0.731934,0.288574,0
44730,0.536133,-0.774414,0.250488,0
44750,0.548828,-0.803711,0.237793,0
44770,0.588379,-0.797852,0.290527,0
44790,0.521484,-0.737305,0.273926,0
44810,0.410156,-0.725586,0.262695,0
44830,0.408203,-0.71582,0.26123,0
44850,0.460938,-0.733398,0.266602,0
44870,0.453125,-0.765625,0.254395,0
44890,0.484863,-0.78418,0.237793,0
44910,0.541504,-0.780762,0.21875,0
44930,0.539551,-0.786621,0.227051,0
44950,0.523438,-0.800781,0.237305,0
44970,0.53125,-0.831055,0.234863,0
44990,0.519043,-0.819824,0.221191,0
45010,0.51709,-0.816406,0.226074,0
45030,0.506836,-0.806152,0.218262,0
45050,0.474121,-0.794922,0.204102,0
45070,0.499512,-0.797852,0.185547,0
45090,0.510254,-0.793945,0.205566,0
45110,0.496582,-0.789062,0.219238,0
45130,0.469238,-0.803711,0.192383,0
45150,0.483887,-0.800781,0.179688,0
45170,0.466797,-0.81543,0.168457,0
45190,0.47168,-0.811523,0.175293,0
45210,0.485352,-0.825684,0.180176,0
45230,0.479492,-0.816895,0.182617,0
45250,0.473145,-0.83252,0.175293,0
45270,0.478516,-0.823242,0.180664,0
45290,0.485352,-0.839355,0.167969,0
45310,0.500977,-0.824707,0.177734,0
45320,0.453613,-0.825195,0.186035,0
45340,0.466309,-0.825684,0.167969,0
45360,0.478027,-0.82959,0.159668,0
45380,0.458984,-0.827148,0.160156,0
45400,0.475098,-0.82666,0.162598,0
45420,0.489258,-0.836426,0.166504,0
45440,0.477539,-0.840332,0.160645,0
45460,0.478516,-0.846191,0.155762,0
45480,0.493164,-0.847168,0.148926,0
45500,0.47998,-0.832031,0.143066,0
45520,0.453125,-0.834961,0.143066,0
45540,0.468262,-0.835938,0.143066,0
45560,0.474609,-0.842285,0.131836,0
45580,0.466797,-0.841797,0.147461,0
45600,0.461914,-0.844238,0.145996,0
45620,0.456543,-0.853027,0.12793,0
45640,0.448242,-0.858398,0.114746,0
45670,0.443848,-0.850098,0.116211,0
45690,0.460938,-0.845215,0.0986328,0
45710,0.471191,-0.86377,0.0961914,0
45730,0.454102,-0.87207,0.101074,0
45750,0.45166,-0.867188,0.0927734,0
45770,0.469727,-0.868652,0.0917969,0
45780,0.462402,-0.852539,0.0849609,0
45790,0.469238,-0.85498,0.101562,0
45810,0.45166,-0.864746,0.0825195,0
45830,0.441895,-0.875,0.0869141,0
45850,0.468262,-0.867188,0.0795898,0
45870,0.463379,-0.850098,0.0634766,0
45890,0.45459,-0.848145,0.0727539,0
45910,0.458984,-0.855957,0.0683594,0
45930,0.456055,-0.870605,0.0771484,0
45950,0.459961,-0.859375,0.0595703,0
45970,0.46582,-0.858887,0.065918,0
45990,0.474121,-0.859375,0.0727539,0
46010,0.466309,-0.849609,0.0522461,0
46030,0.460938,-0.862793,0.0322266,0
46050,0.473145,-0.862793,0.0288086,0
46070,0.481934,-0.847656,0.0415039,0
46090,0.479004,-0.853027,0.0336914,0
46110,0.463867,-0.864258,0.0102539,0
46130,0.478516,-0.851074,0.0166016,0
46150,0.495117,-0.850098,0.00732422,0
46170,0.504883,-0.836426,0.00732422,0
46190,0.51709,-0.839844,0.00830078,0
46210,0.526367,-0.851562,-0.00634766,0
46230,0.527344,-0.873047,-0.0107422,0
46250,0.532715,-0.862305,-0.0341797,0
46270,0.538574,-0.84668,-0.0229492,0
46290,0.5625,-0.834473,-0.0297852,0
46310,0.554688,-0.830566,-0.0458984,0
46330,0.533203,-0.825684,-0.0405273,0
46350,0.523438,-0.826172,-0.0366211,0
46370,0.552246,-0.820801,-0.0302734,0
46390,0.572754,-0.822266,-0.050293,0
46410,0.564453,-0.804199,-0.0566406,0
46430,0.550781,-0.816406,-0.0654297,0
46450,0.556641,-0.816406,-0.0620117,0
46470,0.568359,-0.805664,-0.0722656,0
46490,0.587402,-0.790527,-0.0864258,0
46510,0.60498,-0.799805,-0.0864258,0
46530,0.592773,-0.790039,-0.0830078,0
46550,0.57959,-0.80127,-0.0795898,0
46570,0.597656,-0.788574,-0.0922852,0
46590,0.620117,-0.782715,-0.108887,0
46610,0.623535,-0.760742,-0.11377,0
46630,0.60498,-0.770508,-0.11084,0
46640,0.602051,-0.779785,-0.109375,0
46670,0.608398,-0.785156,-0.101562,0
46690,0.612793,-0.76709,-0.126953,0
46710,0.615234,-0.763184,-0.135254,0
46730,0.625977,-0.763184,-0.128418,0
46750,0.607422,-0.759766,-0.123535,0
46770,0.615723,-0.763184,-0.124512,0
46790,0.644531,-0.754883,-0.143066,0
46810,0.63916,-0.753906,-0.126465,0
46830,0.619629,-0.757812,-0.133301,0
46850,0.630859,-0.753418,-0.146484,0
46870,0.658691,-0.742676,-0.132812,0
46890,0.660156,-0.710449,-0.123535,0
46910,0.64502,-0.719238,-0.140137,0
46930,0.652832,-0.714355,-0.125,0
46950,0.665527,-0.72168,-0.130371,0
46970,0.654785,-0.719727,-0.15332,0
46990,0.666504,-0.723145,-0.138184,0
47010,0.693848,-0.69873,-0.121094,0
47030,0.699219,-0.691895,-0.120117,0
47050,0.724121,-0.708984,-0.157227,0
47070,0.702637,-0.72998,-0.131836,0
47090,0.669434,-0.723145,-0.119141,0
47110,0.677734,-0.70166,-0.124512,0
47130,0.702148,-0.688477,-0.14209,0
47150,0.715332,-0.694824,-0.126465,0
47170,0.711426,-0.696777,-0.111328,0
47190,0.71582,-0.671875,-0.126465,0
47210,0.721191,-0.681641,-0.129395,0
47230,0.729004,-0.66748,-0.120605,0
47250,0.722168,-0.671875,-0.116211,0
47270,0.729004,-0.65918,-0.147461,0
47280,0.747559,-0.656738,-0.144043,0
47300,0.736816,-0.649414,-0.141602,0
47320,0.735352,-0.658691,-0.15332,0
47340,0.727051,-0.641602,-0.148926,0
47360,0.740234,-0.631348,-0.145508,0
47380,0.762695,-0.630859,-0.145508,0
47400,0.769531,-0.63623,-0.174805,0
47420,0.762695,-0.622559,-0.169434,0
47440,0.766113,-0.617188,-0.161133,0
47460,0.781738,-0.604492,-0.162598,0
47480,0.782715,-0.615234,-0.16748,0
47500,0.75,-0.61084,-0.181152,0
47520,0.76123,-0.601562,-0.171875,0
47540,0.791016,-0.579102,-0.171387,0
47560,0.793945,-0.577148,-0.183594,0
47580,0.768555,-0.583984,-0.196777,0
47600,0.770508,-0.59668,-0.186523,0
47620,0.761719,-0.568848,-0.183594,0
47640,0.777344,-0.571777,-0.193848,0
47660,0.787598,-0.569824,-0.192383,0
47680,0.783691,-0.581543,-0.195312,0
47700,0.78125,-0.569336,-0.195801,0
47720,0.797852,-0.553223,-0.189941,0
47740,0.790527,-0.548828,-0.187988,0
47760,0.798828,-0.559082,-0.178223,0
47780,0.79248,-0.5625,-0.177734,0
47800,0.795898,-0.537109,-0.17041,0
47820,0.81543,-0.522949,-0.180664,0
47840,0.832031,-0.541016,-0.177246,0
47860,0.810547,-0.534668,-0.165527,0
47880,0.811523,-0.518555,-0.174805,0
47900,0.837891,-0.508301,-0.161133,0
47920,0.849609,-0.506836,-0.167969,0
47940,0.851074,-0.510254,-0.166992,0
47960,0.849121,-0.493164,-0.155273,0
47980,0.852539,-0.481445,-0.146973,0
48000,0.861328,-0.481934,-0.146973,0
48020,0.863281,-0.486816,-0.148438,0
48040,0.841797,-0.466797,-0.145508,0
48060,0.848145,-0.447266,-0.13916,0
48080,0.840332,-0.456055,-0.13916,0
48100,0.855469,-0.458984,-0.132324,0
48120,0.86084,-0.463867,-0.129395,0
48140,0.845215,-0.443359,-0.12207,0
48160,0.867188,-0.458496,-0.124512,0
48180,0.871582,-0.459961,-0.118164,0
48200,0.865234,-0.447754,-0.117676,0
48220,0.861328,-0.431152,-0.112305,0
48240,0.878418,-0.439453,-0.108887,0
48260,0.88623,-0.438965,-0.0908203,0
48280,0.874023,-0.426758,-0.0839844,0
48300,0.876465,-0.418945,-0.0869141,0
48320,0.887207,-0.408691,-0.0830078,0
48340,0.895508,-0.412109,-0.0615234,0
48360,0.888672,-0.415039,-0.0864258,0
48380,0.887695,-0.412109,-0.0615234,0
48400,0.884766,-0.414062,-0.0541992,0
48420,0.873535,-0.411133,-0.043457,0
48440,0.873047,-0.410645,-0.0429688,0
48460,0.886719,-0.404297,-0.0444336,0
48480,0.892578,-0.415039,-0.0302734,0
48500,0.868164,-0.411621,-0.0141602,0
48520,0.877441,-0.407227,-0.0151367,0
48540,0.879395,-0.394043,-0.019043,0
48560,0.88623,-0.401855,-0.0195312,0
48580,0.876465,-0.414551,0.00683594,0
48600,0.858887,-0.40332,0.00976562,0
48620,0.874023,-0.400879,-0.000488281,0
48640,0.905762,-0.398438,-0.00244141,0
48660,0.912109,-0.418457,0.0180664,0
48680,0.871094,-0.428223,0.0473633,0
48700,0.858398,-0.421875,0.0595703,0
48720,0.872559,-0.404297,0.0493164,0
48740,0.90332,-0.401855,0.0424805,0
48770,0.891113,-0.440918,0.0751953,0
48790,0.863281,-0.427734,0.100098,0
48810,0.885742,-0.42041,0.0961914,0
48830,0.904297,-0.416504,0.0888672,0
48850,0.910645,-0.428711,0.0849609,0
48870,0.850586,-0.440918,0.11084,0
48890,0.830078,-0.451172,0.122559,0
48910,0.855469,-0.447266,0.124023,0
48930,0.871582,-0.440918,0.114746,0
48950,0.860352,-0.436523,0.130371,0
48970,0.841797,-0.448242,0.150391,0
48990,0.838379,-0.450195,0.145996,0
49010,0.838379,-0.465332,0.13623,0
49030,0.858398,-0.472168,0.143066,0
49050,0.848145,-0.486328,0.158691,0
49070,0.83252,-0.484375,0.151367,0
49090,0.820312,-0.493652,0.154297,0
49110,0.829102,-0.502441,0.166016,0
49130,0.841797,-0.510254,0.15332,0
49150,0.837891,-0.499023,0.17041,0
49170,0.82959,-0.502441,0.150879,0
49190,0.810059,-0.518066,0.166504,0
49210,0.788574,-0.527832,0.170898,0
49230,0.801758,-0.525879,0.173828,0
49250,0.791992,-0.527344,0.187012,0
49270,0.761719,-0.510254,0.185547,0
49290,0.763184,-0.539551,0.19873,0
49310,0.786133,-0.535645,0.203613,0
49330,0.779785,-0.54248,0.193848,0
49350,0.742188,-0.549316,0.200195,0
49370,0.753418,-0.562012,0.210449,0
49390,0.79541,-0.566406,0.208984,0
49410,0.795898,-0.569336,0.178223,0
49430,0.755859,-0.579102,0.210449,0
49450,0.71875,-0.595703,0.222656,0
49470,0.723633,-0.585938,0.23291,0
49490,0.733887,-0.606934,0.206055,0
49510,0.700684,-0.607422,0.229004,0
49530,0.69043,-0.607422,0.241699,0
49550,0.693848,-0.59668,0.230957,0
49570,0.711426,-0.618164,0.216797,0
49590,0.679199,-0.631836,0.215332,0
49610,0.632324,-0.655273,0.228516,0
49630,0.621094,-0.643066,0.241699,0
49650,0.664062,-0.623535,0.246582,0
49670,0.673828,-0.618164,0.220215,0
49690,0.605469,-0.644043,0.237305,0
49710,0.591797,-0.675781,0.255371,0
49730,0.614746,-0.681152,0.244141,0
49750,0.640137,-0.688477,0.21875,0
49770,0.62207,-0.683105,0.210449,0
49790,0.617188,-0.674805,0.213867,0
49810,0.62207,-0.678711,0.234375,0
49830,0.592773,-0.705566,0.21582,0
49850,0.578125,-0.703613,0.22168,0
49870,0.5625,-0.705078,0.226074,0
49890,0.587402,-0.695312,0.246582,0
49910,0.592773,-0.695801,0.223633,0
49930,0.578613,-0.70752,0.204102,0
49950,0.580078,-0.735352,0.192383,0
49970,0.588867,-0.731934,0.219238,0
49990,0.589844,-0.738281,0.192383,0
50010,0.603027,-0.757324,0.180664,0
50030,0.599609,-0.757324,0.181152,0
50050,0.567383,-0.763672,0.179199,0
50070,0.564941,-0.774902,0.186035,0
50090,0.569336,-0.776855,0.195312,0
50110,0.56543,-0.786621,0.184082,0
50130,0.570312,-0.78125,0.164551,0
50150,0.559082,-0.780762,0.166504,0
50170,0.546387,-0.786621,0.15625,0
50190,0.572266,-0.805176,0.163574,0
50210,0.549805,-0.773438,0.14502,0
50230,0.511719,-0.775879,0.121094,0
50250,0.513672,-0.78125,0.126953,0
50280,0.510254,-0.789551,0.122559,0
50290,0.541504,-0.790039,0.110352,0
50320,0.51123,-0.816406,0.146973,0
50340,0.509277,-0.827148,0.152832,0
50350,0.490723,-0.807129,0.109375,0
50370,0.494141,-0.80957,0.0898438,0
50390,0.521973,-0.813477,0.09375,0
50410,0.486816,-0.825684,0.0996094,0
50430,0.50293,-0.839844,0.0893555,0
50450,0.511719,-0.835449,0.111816,0
50470,0.489746,-0.851562,0.100586,0
50490,0.479492,-0.863281,0.0776367,0
50510,0.481445,-0.859375,0.090332,0
50530,0.486328,-0.849121,0.103516,0
50550,0.477051,-0.836914,0.0844727,0
50570,0.509766,-0.852051,0.0771484,0
50590,0.509766,-0.837402,0.0668945,0
50610,0.49707,-0.853027,0.074707,0
50630,0.489746,-0.837402,0.0771484,0
50640,0.489258,-0.839844,0.0786133,0
50660,0.503418,-0.824219,0.0800781,0
50680,0.480469,-0.840332,0.0644531,0
50700,0.497559,-0.84668,0.0698242,0
50720,0.501465,-0.848633,0.0849609,0
50740,0.513672,-0.828613,0.0620117,0
50760,0.510254,-0.80127,0.0571289,0
50780,0.479004,-0.814941,0.0356445,0
50800,0.484375,-0.836914,0.0400391,0
50820,0.505371,-0.86377,0.0566406,0
50840,0.512695,-0.837402,0.0541992,0
50860,0.498535,-0.839844,0.0351562,0
50880,0.512207,-0.845703,0.0117188,0
50900,0.505859,-0.874512,0.0166016,0
50920,0.53125,-0.859375,0.0336914,0
50940,0.509277,-0.837402,0.0151367,0
50960,0.504395,-0.85791,0.00439453,0
50980,0.508789,-0.865723,-0.00195312,0
51000,0.503418,-0.854492,0.0185547,0
51020,0.508301,-0.845215,0.0170898,0
51040,0.516113,-0.848633,0.00341797,0
51060,0.525879,-0.863281,-0.0166016,0
51080,0.515625,-0.836914,-0.0180664,0
51100,0.506836,-0.831055,-0.019043,0
51120,0.512207,-0.825195,-0.0239258,0
51140,0.507324,-0.835938,-0.0317383,0
51160,0.51123,-0.839844,-0.0385742,0
51180,0.505859,-0.837891,-0.0527344,0
51200,0.516113,-0.824707,-0.0478516,0
51220,0.504883,-0.830078,-0.0527344,0
51240,0.506836,-0.837891,-0.0693359,0
51260,0.516113,-0.845703,-0.0576172,0
51280,0.508301,-0.822754,-0.0737305,0
51300,0.505859,-0.827637,-0.0776367,0
51320,0.523926,-0.831055,-0.0722656,0
51340,0.527832,-0.861328,-0.0522461,0
51360,0.516602,-0.861328,-0.0673828,0
51380,0.544434,-0.847656,-0.0947266,0
51400,0.56543,-0.833496,-0.0966797,0
51420,0.548828,-0.82959,-0.100098,0
51440,0.510742,-0.847656,-0.0908203,0
51460,0.506836,-0.835938,-0.101562,0
51480,0.538086,-0.818848,-0.101074,0
51500,0.579102,-0.802734,-0.118164,0
51520,0.569336,-0.789062,-0.109375,0
51540,0.558105,-0.813965,-0.125488,0
51560,0.560547,-0.808594,-0.117676,0
51580,0.536621,-0.814453,-0.109375,0
51600,0.531738,-0.781738,-0.0942383,0
51620,0.600098,-0.788574,-0.10498,0
51640,0.642578,-0.780273,-0.135742,0
51660,0.608398,-0.791016,-0.129395,0
51680,0.561035,-0.794434,-0.14209,0
51700,0.536133,-0.817871,-0.135742,0
51720,0.584961,-0.777832,-0.115723,0
51740,0.64209,-0.748535,-0.141113,0
51760,0.645996,-0.749023,-0.149414,0
51780,0.618652,-0.778809,-0.149902,0
51800,0.599121,-0.80127,-0.14502,0
51820,0.584961,-0.789062,-0.14209,0
51840,0.61084,-0.760254,-0.155273,0
51860,0.668945,-0.749023,-0.171875,0
51880,0.669922,-0.744629,-0.158691,0
51900,0.637207,-0.755859,-0.161133,0
51920,0.635742,-0.745605,-0.172852,0
51940,0.674316,-0.734375,-0.17334,0
51960,0.69873,-0.72998,-0.17041,0
51980,0.698242,-0.717285,-0.1875,0
52000,0.689941,-0.702637,-0.178711,0
52020,0.671387,-0.708496,-0.178223,0
52040,0.662598,-0.702148,-0.202148,0
52060,0.682617,-0.692383,-0.183105,0
52080,0.716797,-0.677246,-0.189453,0
52100,0.710449,-0.657715,-0.189941,0
52120,0.715332,-0.640625,-0.178711,0
52140,0.70752,-0.643555,-0.169922,0
52160,0.715332,-0.650879,-0.196777,0
52180,0.75,-0.629883,-0.182617,0
52200,0.757812,-0.617676,-0.179688,0
52220,0.762695,-0.623047,-0.182129,0
52240,0.778809,-0.611328,-0.19043,0
52260,0.772461,-0.601562,-0.188965,0
52280,0.768555,-0.594727,-0.170898,0
52300,0.796387,-0.577148,-0.182617,0
52320,0.816895,-0.5625,-0.189453,0
52340,0.816406,-0.547363,-0.194336,0
52360,0.800293,-0.580078,-0.169922,0
52380,0.79834,-0.569336,-0.145996,0
52400,0.822266,-0.525391,-0.149902,2001
52420,0.875,-0.488281,-0.169434,0
52440,0.858398,-0.491211,-0.174316,0
52460,0.834473,-0.503418,-0.165527,0
52480,0.82666,-0.512695,-0.158691,0
52500,0.843262,-0.498535,-0.159668,0
52520,0.828125,-0.461914,-0.151855,0
52540,0.81543,-0.458984,-0.14209,0
52560,0.838867,-0.44873,-0.182129,0
52570,0.767578,-0.430664,-0.152832,0
52590,0.75,-0.440918,-0.142578,0
52600,0.778809,-0.445801,-0.155762,0
52620,0.798828,-0.422852,-0.137695,0
52640,0.739258,-0.438477,-0.124023,0
52660,0.71582,-0.456543,-0.121582,0
52680,0.743164,-0.476562,-0.133301,0
52700,0.787109,-0.480957,-0.137695,0
52720,0.790527,-0.5,-0.111816,0
52740,0.779297,-0.525879,-0.114746,0
52760,0.780273,-0.542969,-0.0927734,0
52780,0.779297,-0.512695,-0.0390625,0
52800,0.758789,-0.512695,-0.0415039,0
52820,0.707031,-0.53418,-0.0244141,0
52840,0.682617,-0.562988,0.00195312,0
52860,0.708496,-0.558105,-0.00634766,0
52880,0.731445,-0.563477,0.034668,0
52900,0.749512,-0.571289,0.0522461,0
52920,0.731445,-0.553711,0.0463867,0
52940,0.686035,-0.574707,0.0620117,0
52960,0.73291,-0.623047,0.0576172,0
52980,0.788574,-0.631348,0.0693359,0
53000,0.806641,-0.579102,0.0976562,0
53020,0.760254,-0.583496,0.0922852,0
53040,0.766602,-0.67627,0.0830078,0
53060,0.79834,-0.727539,0.131836,0
53080,0.758301,-0.703613,0.11377,0
53100,0.655273,-0.661621,0.0893555,0
53120,0.619629,-0.71875,0.0966797,0
53140,0.668457,-0.778809,0.140625,0
53160,0.671387,-0.795898,0.129395,0
53180,0.630859,-0.812988,0.0917969,0
53200,0.622559,-0.852539,0.105957,0
53220,0.609863,-0.882324,0.170898,0
53240,0.553223,-0.893066,0.190918,0
53260,0.536133,-0.92334,0.176758,0
53280,0.54541,-0.924805,0.211426,0
53300,0.529297,-0.895996,0.200195,0
53320,0.505859,-0.874512,0.194824,0
53340,0.431152,-0.908691,0.116211,0
53360,0.342285,-0.946777,0.165039,0
53380,0.368652,-0.996582,0.171875,0
53400,0.396973,-1.00342,0.151367,0
53420,0.33252,-0.990234,0.181641,0
53440,0.263672,-0.94043,0.171875,0
53460,0.275879,-0.967285,0.175293,0
53480,0.289551,-0.974121,0.155273,0
53500,0.255371,-0.991699,0.150391,0
53520,0.213867,-0.992676,0.169922,0
53540,0.223633,-0.973633,0.184082,0
53560,0.251465,-0.936523,0.200684,0
53580,0.260254,-0.924805,0.183594,0
53600,0.223633,-0.9375,0.179199,0
53620,0.188965,-0.963867,0.202637,0
53640,0.20459,-0.965332,0.205078,0
53660,0.23291,-0.954102,0.209473,0
53680,0.246094,-0.935547,0.182617,0
53700,0.250977,-0.939453,0.20752,0
53720,0.222168,-0.933105,0.217285,0
53740,0.214355,-0.929688,0.225586,0
53760,0.22998,-0.929199,0.227539,0
53780,0.236328,-0.927246,0.227539,0
53800,0.220703,-0.92041,0.222656,0
53820,0.230957,-0.941895,0.229492,0
53840,0.219238,-0.930176,0.240234,0
53860,0.199219,-0.918945,0.244141,0
53880,0.217773,-0.904297,0.242188,0
53900,0.245117,-0.918945,0.241211,2000
53920,0.257812,-0.922852,0.242188,0
53940,0.254883,-0.934082,0.243164,0
53960,0.254883,-0.905273,0.241699,0
53980,0.258301,-0.904785,0.25293,0
54000,0.255371,-0.90332,0.246094,0
54020,0.240723,-0.908203,0.250977,0
54040,0.261719,-0.920898,0.252441,0
54060,0.258789,-0.930664,0.240234,0
54080,0.244629,-0.933105,0.241211,0
54100,0.233887,-0.927734,0.240723,0
54120,0.241211,-0.919434,0.238281,0
54140,0.230957,-0.900879,0.247559,0
54160,0.214844,-0.896484,0.254395,0
54180,0.216797,-0.910645,0.231934,0
54200,0.245117,-0.924805,0.222168,0
54220,0.234375,-0.913086,0.227539,0
54240,0.216797,-0.907715,0.235352,0
54260,0.21582,-0.92627,0.230469,0
54280,0.231934,-0.91748,0.235352,0
54300,0.234375,-0.913574,0.238281,0
54320,0.224121,-0.908691,0.250977,0
54340,0.225098,-0.92041,0.236328,0
54360,0.227051,-0.932129,0.228027,0
54380,0.246582,-0.922363,0.234375,0
54400,0.269531,-0.90332,0.244141,0
54420,0.265625,-0.903809,0.239258,0
54440,0.251953,-0.904785,0.231934,0
54460,0.251953,-0.907715,0.24707,0
54480,0.276367,-0.900879,0.240234,0
54500,0.277344,-0.895508,0.231934,0
54520,0.263184,-0.904297,0.219238,0
54540,0.28418,-0.904297,0.239746,0
54560,0.290039,-0.899902,0.243652,0
54580,0.283203,-0.890625,0.231934,0
54600,0.286133,-0.897461,0.220215,0
54620,0.301758,-0.899414,0.230957,0
54640,0.29834,-0.902344,0.236328,0
54660,0.298828,-0.913086,0.224609,0
54680,0.29834,-0.900879,0.22168,0
54700,0.30957,-0.895996,0.226562,0
54720,0.325684,-0.897461,0.211914,0
54740,0.333008,-0.894043,0.222656,0
54760,0.331543,-0.893066,0.23291,0
54780,0.328613,-0.89502,0.216797,0
54800,0.327637,-0.904785,0.212402,0
54820,0.334473,-0.894531,0.20752,0
54840,0.329102,-0.883789,0.233887,0
54860,0.342773,-0.875977,0.22168,0
54880,0.36377,-0.880859,0.223633,0
54900,0.365234,-0.89209,0.215332,0
54920,0.347656,-0.907227,0.224609,0
54940,0.329102,-0.903809,0.221191,0
54960,0.334473,-0.899902,0.213867,0
54980,0.356445,-0.881348,0.217773,0
55000,0.369141,-0.876465,0.209961,0
55020,0.37207,-0.871094,0.221191,0
55040,0.37793,-0.884766,0.217285,0
55060,0.381836,-0.867676,0.212891,0
55080,0.369141,-0.878906,0.210938,0
55100,0.374512,-0.878418,0.20752,0
55120,0.376465,-0.881836,0.208984,0
55140,0.388184,-0.861816,0.20459,0
55160,0.385254,-0.870605,0.208008,0
55180,0.386719,-0.87207,0.202148,0
55200,0.388672,-0.881348,0.203613,0
55220,0.39502,-0.859375,0.200684,0
55240,0.400879,-0.861328,0.19873,0
55260,0.386719,-0.857422,0.206055,0
55280,0.402344,-0.86377,0.201172,0
55300,0.418457,-0.855957,0.202148,0
55320,0.412109,-0.853027,0.203125,0
55340,0.407715,-0.850098,0.205566,0
55360,0.419434,-0.847656,0.208984,0
55380,0.425293,-0.851562,0.203125,0
55400,0.439941,-0.854004,0.203125,0
55420,0.416016,-0.84668,0.208496,0
55440,0.42627,-0.854004,0.192871,0
55460,0.439941,-0.858398,0.194824,0
55480,0.427246,-0.858887,0.195801,0
55500,0.42627,-0.856934,0.203613,0
55520,0.421875,-0.842773,0.209961,0
55540,0.429688,-0.84375,0.20752,0
55560,0.442871,-0.844238,0.187988,0
55580,0.437012,-0.844238,0.193359,0
55600,0.444824,-0.847656,0.20166,0
55620,0.455078,-0.841309,0.206543,0
55640,0.441406,-0.837891,0.206543,0
55660,0.459961,-0.840332,0.210938,0
55680,0.466309,-0.835938,0.196777,0
55700,0.45459,-0.838379,0.199707,0
55720,0.457031,-0.835449,0.210938,0
55740,0.462402,-0.828125,0.217773,0
55760,0.47168,-0.830078,0.222168,0
55780,0.477051,-0.809082,0.202637,0
55800,0.46875,-0.825684,0.208008,0
55820,0.46875,-0.82666,0.211426,0
55840,0.481445,-0.819824,0.213867,0
55860,0.488281,-0.820312,0.206543,0
55880,0.482422,-0.815918,0.206055,0
55900,0.480957,-0.811035,0.209961,0
55920,0.484375,-0.813477,0.213867,0
55940,0.487793,-0.806641,0.226074,0
55960,0.494629,-0.797363,0.224609,0
55980,0.50293,-0.803711,0.217773,0
56000,0.495117,-0.796387,0.211426,0
56040,0.501465,-0.796875,0.230469,0
56060,0.498047,-0.799805,0.233398,0
56080,0.507324,-0.793945,0.228027,0
56100,0.515625,-0.783203,0.230469,0
56120,0.518555,-0.789062,0.229492,0
56140,0.523926,-0.789551,0.231445,0
56160,0.520508,-0.786133,0.236328,0
56180,0.513184,-0.767578,0.234375,0
56200,0.516113,-0.772461,0.233887,0
56220,0.51709,-0.782227,0.251953,0
56240,0.510254,-0.774414,0.24707,0
56260,0.512207,-0.774902,0.234863,0
56280,0.514648,-0.78125,0.229492,0
56300,0.528809,-0.780273,0.241699,0
56320,0.53418,-0.770996,0.244629,0
56340,0.525391,-0.756836,0.242188,0
56360,0.524414,-0.766113,0.244629,0
56380,0.530273,-0.769531,0.253418,0
56400,0.532715,-0.768066,0.254883,0
56420,0.532715,-0.756348,0.245117,0
56440,0.546387,-0.762207,0.251465,0
56460,0.543457,-0.763672,0.266113,0
56480,0.544922,-0.754395,0.268066,0
56500,0.546387,-0.752441,0.259766,0
56520,0.542969,-0.75293,0.25293,0
56540,0.549316,-0.760254,0.266602,0
56560,0.54248,-0.755859,0.26709,0
56580,0.542969,-0.749512,0.26709,0
56600,0.548828,-0.762695,0.274414,0
56620,0.556641,-0.752441,0.279297,0
56640,0.54541,-0.743652,0.276855,0
56660,0.561035,-0.739258,0.276855,0
56680,0.56543,-0.746582,0.271973,0
56700,0.56543,-0.744629,0.271973,0
56720,0.544434,-0.745117,0.283203,0
56740,0.546875,-0.731445,0.29541,0
56760,0.550293,-0.731445,0.288086,0
56780,0.563477,-0.731934,0.283691,0
56800,0.553711,-0.729492,0.280762,0
56820,0.553711,-0.729492,0.286621,0
56840,0.543457,-0.726074,0.289551,0
56860,0.544922,-0.724609,0.306152,0
56880,0.543945,-0.72998,0.310547,0
56900,0.564941,-0.727051,0.305664,0
56920,0.558105,-0.726074,0.308594,0
56940,0.542969,-0.73877,0.308594,0
56960,0.544434,-0.736816,0.3125,0
56980,0.5625,-0.735352,0.324707,0
57000,0.565918,-0.719238,0.319824,0
57020,0.55957,-0.728516,0.325195,0
57040,0.525391,-0.727051,0.332031,0
57060,0.529785,-0.731445,0.327637,0
57080,0.551758,-0.723145,0.327148,0
57100,0.552246,-0.726562,0.329102,0
57120,0.539551,-0.723633,0.335449,0
57140,0.540527,-0.729004,0.333984,0
57160,0.54541,-0.730957,0.338379,0
57180,0.541504,-0.722656,0.335449,0
57200,0.539551,-0.711426,0.326172,0
57220,0.542969,-0.714844,0.335449,0
57240,0.527832,-0.721191,0.343262,0
57260,0.512695,-0.717285,0.349121,0
57280,0.53125,-0.725098,0.358398,0
57300,0.52832,-0.736328,0.342773,0
57320,0.52002,-0.722168,0.350586,0
57340,0.49707,-0.737305,0.348633,0
57360,0.498535,-0.731934,0.354492,0
57380,0.507812,-0.729492,0.366699,0
57400,0.516602,-0.724609,0.35498,0
57420,0.522461,-0.730469,0.343262,0
57440,0.495605,-0.726562,0.35791,0
57460,0.472656,-0.731934,0.378906,0
57480,0.492676,-0.730957,0.371094,0
57500,0.518066,-0.725586,0.359375,0
57520,0.520996,-0.734375,0.354492,0
57540,0.487305,-0.74707,0.365723,0
57560,0.484863,-0.749023,0.366699,0
57580,0.496094,-0.751465,0.35791,0
57600,0.513184,-0.739258,0.353516,0
57620,0.486816,-0.745117,0.35791,0
57640,0.430664,-0.755371,0.369629,0
57660,0.441406,-0.771484,0.367188,0
57680,0.467285,-0.743652,0.37207,0
57700,0.481934,-0.745117,0.356445,0
57720,0.466309,-0.749512,0.36084,0
57740,0.42627,-0.760742,0.377441,0
57760,0.435547,-0.764648,0.374512,0
57780,0.444824,-0.765137,0.373535,0
57800,0.439941,-0.76123,0.37207,0
57820,0.430664,-0.765625,0.369629,0
57840,0.425781,-0.774902,0.374512,0
57860,0.421875,-0.775391,0.370117,0
57880,0.401367,-0.777832,0.371094,0
57900,0.375977,-0.782715,0.388672,0
57920,0.391113,-0.783691,0.368164,0
57940,0.407227,-0.78418,0.375488,0
57960,0.390625,-0.782227,0.371582,0
57980,0.388672,-0.793457,0.376953,0
58000,0.394531,-0.806641,0.373047,0
58010,0.383301,-0.822754,0.373535,0
58030,0.380859,-0.814453,0.378906,0
58050,0.396973,-0.810059,0.368164,0
58070,0.379883,-0.791504,0.359375,0
58090,0.354004,-0.808594,0.350098,0
58110,0.356445,-0.813477,0.362305,0
58130,0.368164,-0.814941,0.367676,0
58150,0.365723,-0.804688,0.351562,0
58170,0.339844,-0.807129,0.353516,0
58190,0.342285,-0.8125,0.361816,0
58210,0.352051,-0.81543,0.355957,0
58230,0.354004,-0.816895,0.344238,0
58250,0.350586,-0.820801,0.352051,0
58270,0.333984,-0.82666,0.359375,0
58290,0.33252,-0.824219,0.358887,0
58310,0.341797,-0.834961,0.348145,0
58330,0.332031,-0.843262,0.349121,0
58350,0.315918,-0.844727,0.35498,0
58370,0.293945,-0.839355,0.352051,0
58390,0.29834,-0.838379,0.342285,0
58410,0.295898,-0.830566,0.356445,0
58430,0.282227,-0.82373,0.358887,0
58450,0.274902,-0.838379,0.373535,0
58460,0.269531,-0.846191,0.362793,0
58480,0.268555,-0.856445,0.358398,0
58500,0.273926,-0.85791,0.355469,0
58520,0.280273,-0.847168,0.354004,0
58540,0.287109,-0.851074,0.355957,0
58560,0.297852,-0.854004,0.330566,0
58580,0.311035,-0.868164,0.342773,0
58600,0.29541,-0.853027,0.348145,0
58620,0.27002,-0.852051,0.338379,0
58640,0.265625,-0.849609,0.331543,0
58660,0.289551,-0.847656,0.33252,0
58680,0.27002,-0.836914,0.336914,0
58700,0.25,-0.838867,0.324219,0
58720,0.268066,-0.848633,0.330566,0
58740,0.268066,-0.852051,0.324219,0
58760,0.266113,-0.850586,0.320312,0
58780,0.265625,-0.870605,0.31543,0
58800,0.280273,-0.866211,0.318848,0
58820,0.279785,-0.871094,0.330566,0
58840,0.275879,-0.867676,0.324219,0
58860,0.302734,-0.86377,0.30957,0
58880,0.320312,-0.858887,0.307129,0
58900,0.291992,-0.874023,0.326172,0
58920,0.272949,-0.879883,0.314941,0
58940,0.302734,-0.891602,0.306152,0
58960,0.319336,-0.865723,0.303711,0
58980,0.302246,-0.867188,0.300781,0
59000,0.291992,-0.869141,0.289062,0
59020,0.324707,-0.889648,0.29834,0
59040,0.32373,-0.880371,0.300293,0
59060,0.310547,-0.879395,0.312988,0
59080,0.304199,-0.868652,0.297363,0
59100,0.327637,-0.87793,0.291992,0
59120,0.301758,-0.866211,0.285645,0
59140,0.273438,-0.881348,0.290527,0
59160,0.296387,-0.878906,0.29248,0
59180,0.319336,-0.882324,0.285645,0
59200,0.300781,-0.875488,0.267578,0
59220,0.28125,-0.876953,0.272461,0
59240,0.303223,-0.89209,0.26416,0
59260,0.320312,-0.881348,0.259277,0
59280,0.296875,-0.879395,0.255371,0
59300,0.285645,-0.879395,0.265137,0
59320,0.297363,-0.885254,0.269043,0
59340,0.305664,-0.885254,0.244629,0
59360,0.311035,-0.876953,0.238281,0
59380,0.30127,-0.882324,0.245117,0
59400,0.306641,-0.891602,0.243652,0
59420,0.306152,-0.898926,0.22998,0
59440,0.302734,-0.90332,0.229004,0
59460,0.307617,-0.897949,0.229492,0
59480,0.299805,-0.895508,0.24707,0
59500,0.289551,-0.881836,0.226562,0
59520,0.295898,-0.899414,0.221191,0
59540,0.313477,-0.908203,0.233887,0
59560,0.34082,-0.90918,0.255859,0
59580,0.344727,-0.896484,0.222656,0
59600,0.331055,-0.907227,0.208008,0
59620,0.307129,-0.913574,0.205078,0
59640,0.298828,-0.919922,0.214355,0
59660,0.309082,-0.913574,0.213379,0
59680,0.305664,-0.896484,0.199219,0
59700,0.282227,-0.882812,0.182617,0
59720,0.312988,-0.898438,0.194824,0
59740,0.309082,-0.902344,0.179688,0
59760,0.29248,-0.910645,0.171387,0
59780,0.289551,-0.90332,0.165527,0
59800,0.305664,-0.894531,0.18457,0
59820,0.295898,-0.888184,0.162109,0
59840,0.282715,-0.902344,0.132324,0
59860,0.29834,-0.900391,0.150391,0
59880,0.309082,-0.895996,0.169922,0
59900,0.314941,-0.910645,0.163574,0
59920,0.325684,-0.918457,0.146484,0
59940,0.325195,-0.912109,0.137207,0
59960,0.328125,-0.918457,0.141602,0
59980,0.345703,-0.915039,0.133301,0
60000,0.352051,-0.919434,0.121094,0
60020,0.363281,-0.912598,0.137207,0
60040,0.360352,-0.907227,0.137695,0
60060,0.337891,-0.917969,0.109863,0
60080,0.349609,-0.921875,0.111816,0
60100,0.376465,-0.902344,0.103027,0
60120,0.370605,-0.88623,0.0913086,0
60140,0.368164,-0.891602,0.0859375,0
60160,0.372559,-0.891113,0.0908203,0
60180,0.385742,-0.889648,0.101562,0
60200,0.392578,-0.899414,0.0888672,0
60220,0.379395,-0.904785,0.0766602,0
60240,0.394043,-0.908203,0.0786133,0
60260,0.415527,-0.888184,0.0683594,0
60280,0.395508,-0.879395,0.0620117,0
60300,0.376953,-0.880371,0.0595703,0
60320,0.383789,-0.88916,0.065918,0
60340,0.411621,-0.888672,0.0639648,0
60360,0.402344,-0.891602,0.0410156,0
60380,0.391113,-0.890137,0.0488281,0
60400,0.40625,-0.893555,0.0620117,0
60420,0.398438,-0.887695,0.0610352,0
60440,0.387207,-0.898926,0.0498047,0
60460,0.402344,-0.898926,0.0698242,0
60480,0.423828,-0.900391,0.078125,0
60500,0.435059,-0.89209,0.0498047,0
60520,0.443848,-0.894043,0.0571289,0
60540,0.452148,-0.868164,0.0683594,0
60560,0.421387,-0.847168,0.0703125,0
60580,0.411133,-0.871582,0.0756836,0
60600,0.44873,-0.882812,0.0874023,0
60620,0.46582,-0.86377,0.0810547,0
60640,0.455566,-0.862793,0.0463867,0
60660,0.459473,-0.86084,0.0571289,0
60680,0.494629,-0.866699,0.0854492,0
60700,0.491699,-0.865723,0.0844727,0
60720,0.487305,-0.860352,0.0795898,0
60740,0.529297,-0.852539,0.0756836,0
60760,0.552246,-0.848633,0.0795898,0
60780,0.539551,-0.84082,0.0776367,0
60800,0.516602,-0.845215,0.0742188,0
60820,0.53125,-0.838867,0.078125,0
60840,0.530762,-0.825684,0.0957031,0
60860,0.513672,-0.829102,0.0844727,0
60880,0.53125,-0.828613,0.0688477,0
60900,0.541992,-0.830566,0.0786133,0
60920,0.52832,-0.820312,0.0683594,0
60940,0.527832,-0.82373,0.0756836,0
60960,0.552246,-0.822266,0.0771484,0
60980,0.552734,-0.820312,0.0810547,0
61000,0.54834,-0.815918,0.0595703,0
61020,0.540039,-0.818848,0.0429688,0
61040,0.557617,-0.806641,0.0629883,0
61060,0.569336,-0.806641,0.0688477,0
61080,0.5625,-0.794434,0.065918,0
61100,0.557129,-0.796875,0.0595703,0
61120,0.581055,-0.788086,0.0556641,0
61140,0.583496,-0.788574,0.0605469,0
61160,0.57666,-0.783691,0.0541992,0
61180,0.585449,-0.780273,0.0532227,0
61200,0.587891,-0.770508,0.0620117,0
61220,0.602051,-0.771973,0.0683594,0
61240,0.609375,-0.760254,0.0483398,0
61260,0.610352,-0.770996,0.0405273,0
61280,0.628418,-0.766113,0.0532227,0
61300,0.613281,-0.75293,0.0605469,0
61320,0.605957,-0.751465,0.0444336,0
61340,0.630859,-0.753906,0.0380859,0
61360,0.634277,-0.742676,0.0507812,0
61380,0.645508,-0.745605,0.0551758,0
61400,0.625977,-0.739746,0.0625,0
61410,0.634277,-0.738281,0.0463867,0
61430,0.648438,-0.723633,0.0322266,0
61450,0.669922,-0.733887,0.0380859,0
61470,0.660645,-0.737305,0.0512695,0
61490,0.629883,-0.737305,0.0605469,0
61510,0.649414,-0.723145,0.0566406,0
61530,0.65918,-0.720703,0.0478516,0
61550,0.651855,-0.716797,0.0566406,0
61570,0.645996,-0.71582,0.0629883,0
61590,0.668945,-0.71875,0.0473633,0
61610,0.682129,-0.707031,0.0478516,0
61630,0.658203,-0.711426,0.0415039,0
61650,0.684082,-0.721191,0.043457,0
61670,0.687012,-0.708008,0.0517578,0
61690,0.689453,-0.695312,0.0537109,0
61710,0.682617,-0.689453,0.0512695,0
61730,0.693848,-0.692871,0.0566406,0
61750,0.699219,-0.683594,0.0600586,0
61770,0.70752,-0.678711,0.0546875,0
61790,0.695312,-0.678711,0.0576172,0
61810,0.709473,-0.668457,0.065918,0
61830,0.709473,-0.665039,0.0683594,0
61850,0.720703,-0.666992,0.0634766,0
61870,0.725098,-0.674805,0.0712891,0
61890,0.710449,-0.666016,0.0751953,0
61910,0.719727,-0.660156,0.074707,0
61930,0.725586,-0.652344,0.0703125,0
61950,0.716797,-0.647949,0.0693359,0
61970,0.729492,-0.634766,0.0800781,0
61990,0.735352,-0.624023,0.0800781,0
62010,0.734375,-0.635254,0.090332,0
62030,0.726074,-0.617676,0.0952148,0
62050,0.73291,-0.61084,0.0922852,0
62070,0.744629,-0.614258,0.0898438,0
62090,0.753418,-0.612793,0.0981445,0
62110,0.737793,-0.616211,0.0981445,0
62130,0.733398,-0.60791,0.0957031,0
62150,0.729004,-0.603027,0.100098,0
62170,0.748047,-0.59668,0.104492,0
62190,0.747559,-0.600586,0.109863,0
62210,0.748535,-0.599609,0.10498,0
62230,0.755371,-0.597168,0.119141,0
62250,0.767578,-0.595215,0.12207,0
62270,0.776855,-0.592285,0.114258,0
62290,0.783691,-0.592285,0.114258,0
62310,0.771484,-0.603027,0.116211,0
62330,0.780273,-0.595215,0.12207,0
62350,0.775879,-0.592773,0.117676,0
62370,0.767578,-0.583008,0.128418,0
62390,0.775391,-0.586426,0.131348,0
62410,0.771973,-0.589355,0.137207,0
62430,0.752441,-0.594727,0.147949,0
62450,0.766602,-0.580566,0.151367,0
62470,0.75,-0.593262,0.159668,0
62490,0.719238,-0.599121,0.161133,0
62510,0.726074,-0.608398,0.163574,0
62530,0.734863,-0.602539,0.166992,0
62550,0.740234,-0.593262,0.151855,0
62570,0.762207,-0.595215,0.158203,0
62590,0.772461,-0.608887,0.17334,0
62610,0.736816,-0.608398,0.18457,0
62630,0.719727,-0.612793,0.177734,0
62650,0.73291,-0.604004,0.17334,0
62670,0.744141,-0.59668,0.163086,0
62690,0.755371,-0.600586,0.164062,0
62710,0.706055,-0.611816,0.166016,0
62730,0.710449,-0.606934,0.175293,0
62750,0.719727,-0.602051,0.189453,0
62770,0.724121,-0.598633,0.188477,0
62790,0.730957,-0.618652,0.186523,0
62810,0.747559,-0.615234,0.188965,0
62830,0.714355,-0.618164,0.190918,0
62850,0.720703,-0.616211,0.194336,0
62870,0.731445,-0.620605,0.191895,0
62890,0.723145,-0.626953,0.202148,0
62910,0.707031,-0.646484,0.212402,0
62930,0.697266,-0.638184,0.219727,0
62950,0.70752,-0.625977,0.200195,0
62970,0.719238,-0.623047,0.195312,0
62990,0.716309,-0.629883,0.214355,0
63010,0.683594,-0.645996,0.220703,0
63030,0.690918,-0.646973,0.203613,0
63050,0.697266,-0.640625,0.197754,0
63070,0.685059,-0.642578,0.194824,0
63080,0.65625,-0.651367,0.209473,0
63100,0.656738,-0.649414,0.216797,0
63120,0.676758,-0.644043,0.200195,0
63140,0.678223,-0.649414,0.19873,0
63160,0.644531,-0.664062,0.202637,0
63180,0.641602,-0.681641,0.222168,0
63200,0.654297,-0.674805,0.220215,0
63220,0.683594,-0.664551,0.204102,0
63240,0.678223,-0.667969,0.214844,0
63260,0.641113,-0.686523,0.227051,0
63280,0.62207,-0.707031,0.233887,0
63300,0.65625,-0.69043,0.212891,0
63320,0.666016,-0.690918,0.212402,0
63340,0.638184,-0.690918,0.210938,0
63350,0.60791,-0.702148,0.225098,0
63360,0.638184,-0.697754,0.222168,0
63380,0.632812,-0.706055,0.210449,0
63400,0.590332,-0.708496,0.223145,0
63420,0.586914,-0.726074,0.21875,0
63440,0.618164,-0.731934,0.229004,0
63460,0.617188,-0.71875,0.219238,0
63480,0.597168,-0.729004,0.217773,0
63500,0.576172,-0.73584,0.213379,0
63520,0.583984,-0.746582,0.230469,0
63540,0.602539,-0.746582,0.202637,0
63560,0.607422,-0.755859,0.200684,0
63580,0.589355,-0.746582,0.214355,0
63600,0.534668,-0.755371,0.213867,0
63620,0.529785,-0.773438,0.210449,0
63640,0.578613,-0.776855,0.214355,0
63660,0.575684,-0.757324,0.211426,0
63680,0.539551,-0.753418,0.206055,0
63700,0.510742,-0.760254,0.209961,0
63720,0.51123,-0.781738,0.20752,0
63740,0.52832,-0.788086,0.20459,0
63760,0.515625,-0.782715,0.201172,0
63780,0.505371,-0.786621,0.202637,0
63800,0.506348,-0.799805,0.186523,0
63820,0.505859,-0.800781,0.194336,0
63840,0.508301,-0.797852,0.194824,0
63860,0.486816,-0.786133,0.187988,0
63880,0.479004,-0.807129,0.163574,0
63900,0.48877,-0.808105,0.187012,0
63920,0.487793,-0.80957,0.193848,0
63940,0.472656,-0.805176,0.181152,0
63960,0.458984,-0.814941,0.158691,0
63980,0.482422,-0.835938,0.16748,0
64000,0.491699,-0.828125,0.183105,0
64020,0.489746,-0.823242,0.177734,0
64040,0.463867,-0.821777,0.165527,0
64060,0.456543,-0.806152,0.167969,0
64080,0.467773,-0.825684,0.160645,0
64100,0.483887,-0.838379,0.166016,0
64120,0.47168,-0.839844,0.15625,0
64140,0.461914,-0.842773,0.158203,0
64160,0.451172,-0.847168,0.170898,0
64180,0.484375,-0.849121,0.17041,0
64200,0.466309,-0.851562,0.16748,0
64220,0.429199,-0.848633,0.154785,0
64240,0.451172,-0.838867,0.150879,0
64260,0.461914,-0.848145,0.159668,0
64280,0.480957,-0.849609,0.159668,0
64300,0.452148,-0.861328,0.168457,0
64320,0.43457,-0.854492,0.15918,0
64340,0.443359,-0.861816,0.153809,0
64360,0.467773,-0.853516,0.146484,0
64380,0.45459,-0.849121,0.148438,0
64400,0.422363,-0.85498,0.137207,0
64420,0.437988,-0.858398,0.149902,0
64440,0.447754,-0.845215,0.138672,0
64460,0.448242,-0.862793,0.13916,0
64480,0.449707,-0.862305,0.138184,0
64500,0.446289,-0.867676,0.129883,0
64520,0.443848,-0.866699,0.128906,0
64540,0.452148,-0.846191,0.139648,0
64560,0.435059,-0.853516,0.145996,0
64580,0.419922,-0.862305,0.140625,0
64600,0.435059,-0.854492,0.129883,0
64620,0.442871,-0.853027,0.129395,0
64640,0.427734,-0.849121,0.115234,0
64660,0.433594,-0.854492,0.112305,0
64680,0.438965,-0.867676,0.118164,0
64700,0.421875,-0.877441,0.120117,0
64720,0.445312,-0.873535,0.105957,0
64740,0.455566,-0.873535,0.120117,0
64760,0.426758,-0.863281,0.125488,0
64780,0.412109,-0.867676,0.127441,0
64800,0.442871,-0.883301,0.120605,0
64820,0.444336,-0.885254,0.131348,0
64840,0.436523,-0.895508,0.140625,0
64860,0.396973,-0.898926,0.104004,0
64880,0.411133,-0.873535,0.0927734,0
64900,0.444336,-0.871094,0.0927734,0
64920,0.428711,-0.86377,0.101074,0
64940,0.429199,-0.880859,0.104492,0
64960,0.448242,-0.881836,0.106934,0
64980,0.446289,-0.887695,0.101074,0
65000,0.443359,-0.881836,0.106934,0
65020,0.44043,-0.87793,0.104492,0
65040,0.445801,-0.851074,0.0908203,0
65060,0.444824,-0.852539,0.0761719,0
65080,0.438965,-0.859863,0.0820312,0
65100,0.435547,-0.872559,0.0771484,0
65120,0.436523,-0.876465,0.0600586,0
65140,0.441406,-0.875,0.0629883,0
65160,0.427734,-0.867188,0.0605469,0
65180,0.435059,-0.871582,0.0581055,0
65200,0.435547,-0.876465,0.0458984,0
65220,0.439941,-0.890137,0.0478516,0
65240,0.445312,-0.888184,0.0517578,0
65260,0.45459,-0.891113,0.0493164,0
65280,0.44043,-0.883301,0.046875,0
65300,0.423828,-0.896484,0.0576172,0
65320,0.421875,-0.887695,0.0332031,0
65340,0.415527,-0.880859,0.0263672,0
65360,0.428223,-0.880859,0.0268555,0
65380,0.440918,-0.88623,0.0371094,0
65400,0.439453,-0.891602,0.0297852,0
65420,0.437012,-0.885742,0.0185547,0
65440,0.437012,-0.891602,0.0244141,0
65460,0.442383,-0.895508,0.0224609,0
65480,0.445801,-0.894043,0.0195312,0
65500,0.458008,-0.881836,0.00976562,0
65520,0.466309,-0.882324,0,0
65540,0.445312,-0.888672,0.000976562,0
65560,0.436523,-0.891113,-0.00195312,0
65580,0.455566,-0.878906,-0.00585938,0
65600,0.470703,-0.861816,-0.00585938,0
65620,0.46582,-0.85498,-0.00976562,0
65640,0.472168,-0.859375,-0.0268555,0
65660,0.466309,-0.859375,-0.0209961,0
65680,0.483887,-0.861328,-0.0170898,0
65700,0.508301,-0.860352,-0.012207,0
65720,0.490234,-0.868164,-0.0229492,0
65740,0.467285,-0.859863,-0.034668,0
65760,0.487793,-0.853027,-0.0463867,0
65780,0.531738,-0.840332,-0.0454102,0
65800,0.523926,-0.833496,-0.0522461,0
65820,0.487793,-0.850098,-0.0375977,0
65840,0.490723,-0.861816,-0.0424805,0
65860,0.5,-0.86377,-0.0463867,0
65880,0.508789,-0.831055,-0.0532227,0
65900,0.531738,-0.82666,-0.0620117,0
65920,0.529297,-0.836426,-0.0712891,0
65940,0.51416,-0.834961,-0.0639648,0
65960,0.495605,-0.850586,-0.0625,0
65980,0.494141,-0.845215,-0.065918,0
66000,0.529785,-0.833496,-0.0805664,0
66020,0.56543,-0.81543,-0.081543,0
66040,0.583008,-0.820312,-0.0893555,0
66060,0.560059,-0.823242,-0.0839844,0
66080,0.530762,-0.828613,-0.0849609,0
66100,0.551758,-0.822266,-0.0893555,0
66120,0.589355,-0.802246,-0.103516,0
66140,0.606445,-0.783203,-0.101562,0
66160,0.593262,-0.788574,-0.120605,0
66180,0.57959,-0.797363,-0.107422,0
66200,0.585938,-0.805176,-0.105469,0
66220,0.57959,-0.784668,-0.100098,0
66240,0.594727,-0.774414,-0.124512,0
66260,0.634277,-0.755859,-0.124023,0
66280,0.638184,-0.758789,-0.129883,0
66300,0.590332,-0.771484,-0.106934,0
66320,0.574707,-0.772949,-0.111816,0
66340,0.614746,-0.757324,-0.109375,0
66360,0.644531,-0.747559,-0.114746,0
66380,0.640137,-0.746582,-0.119141,0
66400,0.641602,-0.753418,-0.128418,0
66420,0.647461,-0.755859,-0.120605,0
66440,0.67041,-0.745117,-0.125977,0
66460,0.693359,-0.749023,-0.124023,0
66480,0.689453,-0.754883,-0.113281,0
66500,0.684082,-0.739258,-0.113281,0
66520,0.681641,-0.730469,-0.110352,0
66540,0.697754,-0.720703,-0.11377,0
66560,0.701172,-0.707031,-0.125,0
66580,0.676758,-0.714355,-0.132324,0
66600,0.678223,-0.710938,-0.125,0
66620,0.705078,-0.712891,-0.117188,0
66640,0.700195,-0.699707,-0.125488,0
66660,0.686523,-0.691895,-0.131836,0
66680,0.69873,-0.680664,-0.131348,0
66700,0.709473,-0.690918,-0.146484,0
66720,0.710449,-0.696289,-0.143555,0
66740,0.687988,-0.698242,-0.134766,0
66760,0.691895,-0.686035,-0.151855,0
66780,0.708984,-0.67041,-0.147949,0
66790,0.730469,-0.671875,-0.150879,0
66810,0.712402,-0.677246,-0.149902,0
66830,0.70166,-0.67334,-0.145508,0
66850,0.69873,-0.663574,-0.135742,0
66870,0.731445,-0.651855,-0.154785,0
66890,0.715332,-0.665527,-0.162109,0
66910,0.691406,-0.669922,-0.161621,0
66930,0.710449,-0.649414,-0.144531,0
66950,0.741699,-0.631836,-0.150391,0
66970,0.738281,-0.644043,-0.154785,0
66990,0.744141,-0.657227,-0.140137,0
67010,0.759766,-0.651367,-0.141602,0
