Timestamp, Acceleration x, Acceleration y, Acceleration z, Marker
20,-0.238281,-0.864746,0.48584,0
50,-0.238281,-0.866699,0.485352,0
70,-0.234863,-0.868652,0.486816,0
90,-0.237305,-0.86377,0.488281,0
110,-0.237305,-0.865234,0.481445,0
130,-0.23584,-0.862305,0.48291,0
150,-0.236816,-0.862793,0.480957,0
170,-0.235352,-0.862305,0.484375,0
170,-0.236328,-0.865234,0.490234,0
210,-0.235352,-0.861328,0.484863,0
230,-0.237793,-0.861328,0.484375,0
250,-0.236328,-0.86377,0.486328,0
270,-0.234863,-0.864746,0.48584,0
290,-0.236328,-0.861328,0.48291,0
310,-0.236816,-0.868164,0.494141,0
330,-0.234375,-0.861816,0.495605,0
350,-0.233887,-0.86377,0.489258,0
370,-0.231445,-0.862793,0.491699,0
390,-0.23291,-0.86377,0.489746,0
410,-0.233398,-0.858887,0.493164,0
430,-0.237305,-0.85791,0.491211,0
450,-0.242188,-0.851074,0.488281,0
470,-0.240234,-0.857422,0.494629,0
490,-0.232422,-0.867676,0.489746,0
510,-0.230469,-0.865234,0.487793,0
530,-0.230469,-0.862793,0.493164,0
550,-0.233887,-0.862793,0.491211,0
570,-0.230469,-0.858398,0.496582,0
590,-0.234863,-0.859375,0.493652,0
610,-0.231445,-0.85791,0.495605,0
630,-0.232422,-0.85791,0.491699,0
650,-0.231445,-0.863281,0.498535,0
670,-0.234375,-0.857422,0.497559,0
690,-0.237793,-0.859863,0.491211,0
710,-0.238281,-0.855957,0.492188,0
730,-0.240723,-0.859375,0.491699,0
750,-0.232422,-0.864258,0.499023,0
770,-0.22998,-0.859863,0.494629,0
790,-0.234375,-0.859375,0.498535,0
810,-0.231934,-0.858887,0.501953,0
830,-0.22998,-0.859863,0.500488,0
850,-0.23291,-0.85791,0.501953,0
870,-0.231445,-0.859375,0.500977,0
890,-0.232422,-0.855469,0.501953,0
910,-0.232422,-0.856934,0.498047,0
930,-0.232422,-0.856445,0.499023,0
950,-0.230957,-0.853516,0.499023,0
970,-0.235352,-0.85498,0.496582,0
990,-0.22998,-0.857422,0.500977,0
1010,-0.229492,-0.855957,0.499023,0
1030,-0.231445,-0.854492,0.50293,0
1050,-0.232422,-0.85498,0.506836,0
1070,-0.233887,-0.853516,0.502441,0
1090,-0.233398,-0.853027,0.504395,0
1110,-0.235352,-0.859375,0.509766,0
1130,-0.240723,-0.853027,0.504395,0
1150,-0.238281,-0.85791,0.506348,0
1170,-0.236816,-0.853516,0.506836,0
1190,-0.233398,-0.855957,0.497559,0
1210,-0.223633,-0.862305,0.489258,0
1230,-0.223145,-0.859375,0.482422,0
1250,-0.225586,-0.861328,0.496094,0
1270,-0.227051,-0.859863,0.500977,0
1290,-0.227051,-0.858887,0.500488,0
1310,-0.235352,-0.857422,0.501465,0
1330,-0.237793,-0.855469,0.50293,0
1350,-0.238281,-0.851074,0.495605,0
1370,-0.236816,-0.861816,0.48877,0
1390,-0.237305,-0.851562,0.493652,0
1410,-0.235352,-0.856934,0.498047,0
1430,-0.236816,-0.858398,0.494141,0
1450,-0.230957,-0.861328,0.5,0
1470,-0.227539,-0.853516,0.506836,0
1490,-0.227051,-0.857422,0.507812,0
1510,-0.226562,-0.854492,0.508789,0
1530,-0.221191,-0.851562,0.519043,0
1550,-0.223633,-0.84375,0.525391,0
1570,-0.226074,-0.836426,0.536133,0
1590,-0.22998,-0.835449,0.541016,0
1610,-0.235352,-0.836914,0.538086,0
1630,-0.231934,-0.829102,0.538574,0
1650,-0.236328,-0.828613,0.539551,0
1670,-0.236816,-0.834473,0.536621,0
1690,-0.234375,-0.836426,0.533203,0
1710,-0.235352,-0.836426,0.530273,0
1730,-0.233887,-0.839844,0.525879,0
1750,-0.23291,-0.845703,0.52002,0
1770,-0.22998,-0.84375,0.520996,0
1790,-0.229004,-0.849609,0.51416,0
1810,-0.228027,-0.85498,0.510742,0
1830,-0.230957,-0.853516,0.507812,0
1850,-0.229004,-0.853516,0.503906,0
1870,-0.230469,-0.851562,0.509766,0
1890,-0.228027,-0.855469,0.496582,0
1910,-0.23291,-0.861328,0.5,0
1930,-0.233398,-0.85498,0.499023,0
1950,-0.23291,-0.855469,0.494629,0
1970,-0.233887,-0.86377,0.495605,0
1990,-0.236328,-0.855469,0.49707,0
2010,-0.237793,-0.862305,0.492188,0
2030,-0.242676,-0.861816,0.497559,0
2050,-0.241699,-0.859863,0.493164,0
2070,-0.237305,-0.861328,0.48877,0
2090,-0.238281,-0.861816,0.492188,0
2100,-0.240234,-0.856934,0.492188,0
2120,-0.236816,-0.860352,0.491211,0
2140,-0.244629,-0.856445,0.495117,0
2160,-0.243164,-0.860352,0.486816,0
2180,-0.237305,-0.862793,0.495117,0
2200,-0.238281,-0.859375,0.497559,0
2220,-0.233398,-0.861328,0.491699,0
2240,-0.236328,-0.858398,0.491211,0
2260,-0.23584,-0.858398,0.499023,0
2280,-0.240723,-0.859375,0.48877,0
2300,-0.240723,-0.85498,0.495605,0
2320,-0.240723,-0.853516,0.493164,0
2340,-0.238281,-0.85791,0.496582,0
2360,-0.236328,-0.864258,0.493164,0
2380,-0.23584,-0.864746,0.495605,0
2400,-0.239258,-0.860352,0.48877,0
2420,-0.245605,-0.855957,0.492188,0
2440,-0.247559,-0.855469,0.492188,0
2460,-0.249512,-0.854492,0.493164,0
2480,-0.250977,-0.85498,0.489746,0
2500,-0.247559,-0.856934,0.491211,0
2520,-0.247559,-0.85791,0.496582,0
2540,-0.243164,-0.858398,0.497559,0
2560,-0.238281,-0.858887,0.498535,0
2580,-0.244141,-0.857422,0.496094,0
2600,-0.242188,-0.859375,0.503418,0
2620,-0.242676,-0.858887,0.493652,0
2640,-0.249512,-0.856934,0.491699,0
2660,-0.249023,-0.852051,0.496094,0
2680,-0.248047,-0.862793,0.487305,0
2700,-0.239746,-0.866699,0.483887,0
2720,-0.248535,-0.866211,0.480957,0
2740,-0.248535,-0.862793,0.487793,0
2760,-0.249023,-0.85791,0.488281,0
2780,-0.245605,-0.852539,0.487793,0
2800,-0.245117,-0.858887,0.485352,0
2820,-0.248047,-0.862305,0.48291,0
2840,-0.247559,-0.859863,0.481934,0
2860,-0.246094,-0.860352,0.483887,0
2880,-0.246094,-0.86377,0.481445,0
2900,-0.245117,-0.866699,0.482422,0
2920,-0.246094,-0.866211,0.489258,0
2940,-0.246094,-0.859863,0.483398,0
2960,-0.244629,-0.859375,0.486328,0
2980,-0.247559,-0.858398,0.483398,0
3000,-0.248047,-0.86084,0.487305,0
3020,-0.250977,-0.85498,0.487793,0
3040,-0.248047,-0.862305,0.482422,0
3060,-0.248047,-0.866211,0.481934,0
3080,-0.251953,-0.866699,0.477539,0
3100,-0.253418,-0.866699,0.481934,0
3120,-0.246582,-0.86084,0.481445,0
3140,-0.246094,-0.864746,0.480957,0
3160,-0.253418,-0.86084,0.489746,0
3180,-0.248535,-0.858887,0.488281,0
3200,-0.243652,-0.86084,0.486816,0
3220,-0.247559,-0.863281,0.479492,0
3240,-0.248047,-0.865723,0.484375,0
3260,-0.248047,-0.865234,0.480957,0
3280,-0.249512,-0.866211,0.480469,0
3300,-0.249512,-0.866211,0.485352,0
3320,-0.249023,-0.864258,0.478516,0
3340,-0.24707,-0.864258,0.477539,0
3360,-0.24707,-0.862305,0.481445,0
3380,-0.249512,-0.861816,0.479004,0
3400,-0.245117,-0.870117,0.475586,0
3420,-0.248047,-0.867188,0.473633,0
3440,-0.248535,-0.869629,0.479004,0
3460,-0.243164,-0.866699,0.47168,0
3480,-0.24707,-0.867676,0.476074,0
3500,-0.246582,-0.865234,0.477051,0
3520,-0.249023,-0.865723,0.470215,0
3540,-0.243164,-0.866699,0.476562,0
3560,-0.246582,-0.866699,0.481445,0
3580,-0.244141,-0.864746,0.48291,0
3600,-0.242188,-0.868652,0.476562,0
3620,-0.24707,-0.864746,0.476562,0
3640,-0.245117,-0.86377,0.47998,0
3660,-0.245605,-0.865234,0.475098,0
3680,-0.244629,-0.864258,0.484863,0
3700,-0.244629,-0.857422,0.47998,0
3720,-0.247559,-0.863281,0.479004,0
3740,-0.248535,-0.865723,0.488281,0
3760,-0.246582,-0.86377,0.492188,0
3780,-0.249023,-0.864258,0.487305,0
3800,-0.243652,-0.86084,0.483398,0
3820,-0.249023,-0.859375,0.478516,0
3840,-0.244141,-0.858887,0.481934,0
3860,-0.247559,-0.86084,0.486816,0
3880,-0.248047,-0.860352,0.483887,0
3900,-0.24707,-0.859375,0.481445,0
3920,-0.244629,-0.862305,0.480957,0
3940,-0.239746,-0.858887,0.480957,0
3960,-0.23877,-0.877441,0.470703,0
3980,-0.245605,-0.868652,0.483887,0
4000,-0.240723,-0.848633,0.488281,0
4020,-0.243652,-0.85791,0.483398,0
4040,-0.247559,-0.865234,0.487305,0
4060,-0.246582,-0.857422,0.486816,0
4080,-0.250977,-0.865234,0.487305,0
4100,-0.248047,-0.868652,0.490723,0
4120,-0.247559,-0.859863,0.480957,0
4140,-0.25,-0.858398,0.48291,0
4160,-0.249023,-0.861816,0.485352,0
4180,-0.242676,-0.864746,0.48584,0
4200,-0.243652,-0.859863,0.483887,0
4220,-0.249023,-0.862793,0.486328,0
4240,-0.242188,-0.865723,0.484863,0
4260,-0.240723,-0.863281,0.491699,0
4280,-0.245117,-0.863281,0.483887,0
4300,-0.242188,-0.860352,0.494141,0
4320,-0.237305,-0.859375,0.490234,0
4340,-0.241699,-0.859863,0.490723,0
4360,-0.236816,-0.861328,0.485352,0
4380,-0.246094,-0.860352,0.490723,0
4400,-0.244141,-0.86084,0.48877,0
4420,-0.24707,-0.861328,0.484375,0
4440,-0.244141,-0.861328,0.486816,0
4460,-0.240723,-0.861328,0.481445,0
4480,-0.242676,-0.860352,0.485352,0
4500,-0.241211,-0.861328,0.495605,0
4520,-0.238281,-0.856934,0.493164,0
4540,-0.238281,-0.861328,0.48584,0
4560,-0.239746,-0.856934,0.494141,0
4580,-0.23877,-0.85791,0.494141,0
4600,-0.23584,-0.860352,0.492188,0
4620,-0.240234,-0.857422,0.500488,0
4640,-0.239258,-0.855957,0.499512,0
4660,-0.244629,-0.854004,0.506348,0
4680,-0.240234,-0.85498,0.501465,0
4700,-0.23584,-0.850098,0.497559,0
4720,-0.235352,-0.851562,0.499512,0
4740,-0.23877,-0.85498,0.506348,0
4760,-0.241699,-0.851562,0.504395,0
4780,-0.239258,-0.853027,0.50293,0
4800,-0.23877,-0.851074,0.501465,0
4820,-0.231445,-0.854004,0.500977,0
4840,-0.231934,-0.854492,0.503418,0
4860,-0.231445,-0.851562,0.503906,0
4880,-0.235352,-0.856934,0.510742,0
4900,-0.233887,-0.854492,0.516113,0
4920,-0.232422,-0.848145,0.501465,0
4940,-0.23291,-0.849609,0.510742,0
4960,-0.225586,-0.85498,0.509277,0
4980,-0.233398,-0.857422,0.504395,0
5000,-0.229492,-0.849609,0.501953,0
5020,-0.231934,-0.855957,0.508789,0
5040,-0.230957,-0.853516,0.510742,0
5060,-0.22998,-0.85498,0.507324,0
5080,-0.233887,-0.853027,0.505859,0
5100,-0.236328,-0.84668,0.510254,0
5120,-0.235352,-0.851562,0.506348,0
5130,-0.231934,-0.853516,0.512207,0
5150,-0.232422,-0.853027,0.507812,0
5170,-0.230957,-0.854004,0.508789,0
5190,-0.22998,-0.850098,0.503906,0
5210,-0.232422,-0.855957,0.509766,0
5230,-0.234375,-0.852051,0.514648,0
5250,-0.231445,-0.852539,0.505371,0
5270,-0.229004,-0.851074,0.507812,0
5290,-0.23291,-0.845703,0.504883,0
5310,-0.228027,-0.852539,0.508301,0
5330,-0.232422,-0.854004,0.500977,0
5350,-0.233398,-0.848633,0.504883,0
5370,-0.233398,-0.853516,0.504883,0
5390,-0.22998,-0.85498,0.509766,0
5410,-0.227051,-0.852539,0.503906,0
5430,-0.23291,-0.854004,0.50293,0
5450,-0.233398,-0.851074,0.505859,0
5470,-0.232422,-0.852539,0.499512,0
5490,-0.231445,-0.852539,0.502441,0
5510,-0.234375,-0.857422,0.504395,0
5530,-0.231934,-0.858887,0.505859,0
5550,-0.237793,-0.861816,0.509277,0
5570,-0.23291,-0.854004,0.505859,0
5590,-0.231445,-0.853516,0.505859,0
5610,-0.231934,-0.854492,0.503418,0
5630,-0.23291,-0.856934,0.501465,0
5650,-0.237793,-0.855957,0.50293,0
5670,-0.238281,-0.854004,0.5,0
5690,-0.233398,-0.853516,0.496582,0
5710,-0.229492,-0.86084,0.500488,0
5730,-0.230469,-0.861816,0.499512,0
5750,-0.224609,-0.860352,0.49707,0
5770,-0.220703,-0.856934,0.505371,0
5790,-0.228027,-0.858398,0.508301,0
5810,-0.234375,-0.851562,0.506836,0
5830,-0.235352,-0.851074,0.500977,0
5850,-0.231445,-0.854492,0.500488,0
5870,-0.237305,-0.859375,0.506836,0
5890,-0.233887,-0.854492,0.495117,0
5910,-0.237793,-0.852539,0.494141,0
5930,-0.233398,-0.855469,0.49707,0
5950,-0.234375,-0.854492,0.495605,0
5970,-0.232422,-0.859863,0.500488,0
5990,-0.224121,-0.859863,0.500977,0
6010,-0.228027,-0.858398,0.498535,0
6030,-0.222168,-0.857422,0.502441,0
6050,-0.226074,-0.859375,0.503418,0
6070,-0.229004,-0.855957,0.513184,0
6090,-0.228027,-0.847656,0.508789,0
6110,-0.232422,-0.849121,0.507812,0
6130,-0.232422,-0.847168,0.509277,0
6150,-0.231934,-0.846191,0.514648,0
6170,-0.23291,-0.846191,0.51709,0
6190,-0.236816,-0.843262,0.520996,0
6210,-0.23291,-0.842285,0.525391,0
6230,-0.231445,-0.843262,0.525391,0
6250,-0.231445,-0.840332,0.520996,0
6270,-0.228027,-0.833984,0.526367,0
6290,-0.219727,-0.840332,0.523926,0
6310,-0.222168,-0.844727,0.523438,0
6330,-0.220215,-0.843262,0.535645,0
6350,-0.216797,-0.841797,0.540039,0
6370,-0.217285,-0.839844,0.540039,0
6390,-0.214355,-0.833496,0.543457,0
6410,-0.219238,-0.827637,0.544434,0
6430,-0.228516,-0.827148,0.542969,0
6450,-0.231934,-0.82373,0.545898,0
6470,-0.234863,-0.82959,0.544922,0
6490,-0.23291,-0.829102,0.540039,0
6510,-0.229492,-0.82959,0.536621,0
6530,-0.226074,-0.831055,0.533691,0
6550,-0.225098,-0.831055,0.538574,0
6570,-0.224121,-0.839844,0.538086,0
6590,-0.227539,-0.834961,0.52832,0
6610,-0.219727,-0.838379,0.525879,0
6630,-0.220703,-0.842285,0.527832,0
6650,-0.220703,-0.844727,0.524902,0
6670,-0.218262,-0.84668,0.516602,0
6690,-0.222168,-0.842773,0.520996,0
6710,-0.224121,-0.844727,0.516113,0
6730,-0.224609,-0.839844,0.524414,0
6750,-0.228516,-0.842285,0.522461,0
6770,-0.227539,-0.842285,0.522461,0
6790,-0.22998,-0.843262,0.527832,0
6810,-0.227051,-0.84375,0.523438,0
6830,-0.224609,-0.841309,0.521484,0
6850,-0.231445,-0.842285,0.520996,0
6870,-0.226562,-0.839355,0.526855,0
6890,-0.231934,-0.845215,0.526367,0
6910,-0.229004,-0.839844,0.520996,0
6930,-0.230957,-0.843262,0.520508,0
6950,-0.232422,-0.842285,0.522949,0
6970,-0.22998,-0.848633,0.518066,0
6990,-0.227051,-0.848145,0.520996,0
7010,-0.225586,-0.84375,0.518066,0
7030,-0.230469,-0.847656,0.52002,0
7050,-0.227051,-0.844727,0.521484,0
7070,-0.231445,-0.842773,0.51123,0
7090,-0.232422,-0.845215,0.515137,0
7110,-0.231445,-0.84668,0.520996,0
7130,-0.22998,-0.84375,0.510742,0
7150,-0.230957,-0.851074,0.512695,0
7170,-0.229492,-0.846191,0.518066,0
7190,-0.230469,-0.848633,0.513672,0
7210,-0.231934,-0.850098,0.515137,0
7230,-0.231445,-0.843262,0.507324,0
7250,-0.229004,-0.852539,0.510742,0
7270,-0.232422,-0.850586,0.505859,0
7290,-0.233887,-0.849609,0.502441,0
7310,-0.230957,-0.850586,0.506348,0
7330,-0.23877,-0.845703,0.511719,0
7350,-0.232422,-0.849121,0.507812,0
7370,-0.231445,-0.871094,0.500488,0
7390,-0.232422,-0.853516,0.502441,0
7410,-0.225586,-0.854492,0.5,0
7430,-0.236816,-0.854004,0.510742,0
7450,-0.231934,-0.847656,0.509277,0
7470,-0.23584,-0.848145,0.50293,0
7490,-0.237305,-0.848633,0.50293,0
7510,-0.233398,-0.851074,0.498047,0
7530,-0.233887,-0.85791,0.5,0
7550,-0.233398,-0.863281,0.493652,0
7570,-0.23291,-0.86084,0.498535,0
7590,-0.238281,-0.858887,0.500977,0
7610,-0.234375,-0.850586,0.501953,0
7630,-0.232422,-0.852051,0.50293,0
7650,-0.234375,-0.851074,0.497559,0
7670,-0.232422,-0.855469,0.500977,0
7690,-0.23877,-0.855469,0.498047,0
7710,-0.240234,-0.85791,0.5,0
7730,-0.237305,-0.856934,0.493652,0
7750,-0.238281,-0.861328,0.496582,0
7770,-0.240723,-0.857422,0.49707,0
7790,-0.241211,-0.859863,0.5,0
7810,-0.23877,-0.852539,0.507324,0
7830,-0.237305,-0.854004,0.506836,0
7850,-0.23584,-0.85498,0.496582,0
7870,-0.236328,-0.857422,0.496582,0
7890,-0.233887,-0.85498,0.501465,0
7910,-0.237305,-0.855957,0.497559,0
7930,-0.234375,-0.854004,0.500488,0
7950,-0.234375,-0.858887,0.493652,0
7970,-0.237793,-0.856934,0.5,0
7990,-0.239258,-0.854004,0.50293,0
8010,-0.234375,-0.851562,0.501465,0
8030,-0.237793,-0.851074,0.497559,0
8050,-0.240234,-0.852051,0.505371,0
8070,-0.236328,-0.85498,0.501465,0
8090,-0.23584,-0.852539,0.500488,0
8110,-0.233398,-0.856445,0.500977,0
8130,-0.233398,-0.852051,0.503906,0
8150,-0.231934,-0.858887,0.503906,0
8170,-0.231934,-0.848145,0.500488,0
8190,-0.23584,-0.853516,0.504395,0
8210,-0.238281,-0.856445,0.515137,0
8230,-0.23291,-0.849121,0.508301,0
8250,-0.231934,-0.851074,0.506348,0
8270,-0.231934,-0.854492,0.5,0
8290,-0.22998,-0.854004,0.512207,0
8310,-0.23584,-0.847656,0.509766,0
8320,-0.234863,-0.847656,0.503418,0
8340,-0.234375,-0.856445,0.504883,0
8360,-0.22998,-0.853027,0.512207,0
8380,-0.228516,-0.851562,0.508789,0
8400,-0.225098,-0.853027,0.511719,0
8420,-0.231445,-0.853516,0.509277,0
8440,-0.230957,-0.844727,0.508789,0
8460,-0.231934,-0.852051,0.513672,0
8480,-0.228516,-0.848633,0.51123,0
8500,-0.230957,-0.847168,0.511719,0
8520,-0.232422,-0.852051,0.504883,0
8540,-0.228027,-0.853516,0.512695,0
8560,-0.229492,-0.845703,0.509277,0
8580,-0.23291,-0.850586,0.515137,0
8600,-0.228027,-0.850098,0.515625,0
8620,-0.226562,-0.848145,0.514648,0
8640,-0.229004,-0.852051,0.51416,0
8660,-0.229004,-0.850098,0.51123,0
8680,-0.230469,-0.850098,0.515137,0
8700,-0.230469,-0.848633,0.509277,0
8720,-0.226562,-0.850586,0.516113,0
8740,-0.229492,-0.850586,0.509277,0
8760,-0.229492,-0.848633,0.519043,0
8780,-0.238281,-0.845703,0.513672,0
8800,-0.240234,-0.848633,0.51709,0
8820,-0.239258,-0.853027,0.498535,0
8840,-0.245117,-0.864258,0.482422,0
8860,-0.230957,-0.87793,0.492676,0
8880,-0.233398,-0.879883,0.508301,0
8900,-0.241699,-0.861328,0.523438,0
8920,-0.209473,-0.836426,0.526855,0
8940,-0.227051,-0.830078,0.526367,0
8960,-0.260742,-0.825684,0.52832,0
8980,-0.284668,-0.809082,0.54248,0
9000,-0.297852,-0.851074,0.560547,0
9020,-0.359375,-0.95459,0.540039,0
9040,-0.379395,-0.841309,0.498535,0
9060,-0.415527,-0.77002,0.569336,0
9080,-0.416016,-0.78418,0.606934,0
9100,-0.297363,-0.764648,0.673828,0
9120,-0.271484,-0.77832,0.637695,0
9140,-0.194824,-0.778809,0.67041,0
9160,-0.195801,-0.902832,0.67041,0
9180,-0.046875,-0.963867,0.714355,0
9200,0.0766602,-0.95752,0.706055,0
9220,-0.146973,-0.945312,0.663086,0
9240,-0.150391,-0.904297,0.656738,0
9260,-0.0585938,-0.889648,0.594238,0
9280,0.345215,-0.990723,0.786133,0
9300,0.25,-0.904297,0.65918,0
9320,0.252441,-0.867188,0.634277,0
9340,0.350098,-0.845215,0.620605,0
9360,0.41748,-0.793457,0.602539,0
9380,0.472168,-0.749512,0.603516,0
9400,0.527344,-0.720215,0.576172,0
9410,0.55127,-0.717285,0.540527,0
9430,0.575684,-0.709961,0.523926,0
9460,0.665527,-0.574707,0.449707,0
9480,0.696289,-0.576172,0.410645,0
9500,0.73291,-0.541016,0.385254,0
9520,0.767578,-0.489746,0.359863,0
9540,0.78125,-0.49707,0.325195,0
9560,0.818359,-0.473633,0.302734,0
9580,0.808594,-0.422852,0.301758,0
9620,0.89209,-0.249512,0.114258,0
9630,0.921387,-0.204102,0.0751953,0
9650,0.982422,-0.109375,-0.0126953,0
9680,0.983398,-0.0991211,-0.0219727,0
9700,0.989258,-0.0991211,-0.0234375,0
9740,0.98877,-0.09375,-0.0200195,0
9760,0.993652,-0.0957031,-0.0219727,0
9800,0.999512,-0.0942383,-0.0288086,0
9820,0.993164,-0.0883789,-0.0239258,0
9880,1.01318,-0.0864258,-0.0415039,0
9910,0.986328,-0.0727539,-0.050293,0
9950,0.996582,-0.0703125,-0.0532227,0
9970,0.993164,-0.0644531,-0.0805664,0
9990,1.00049,-0.0717773,-0.0708008,0
10010,1.00879,-0.0717773,-0.0717773,0
10040,1.00635,-0.0629883,-0.0888672,0
10060,1.00928,-0.0600586,-0.0927734,0
10080,1.00977,-0.0595703,-0.0888672,0
10100,1.00537,-0.0561523,-0.0942383,0
10120,1.00537,-0.0561523,-0.0966797,0
10150,0.987305,-0.0498047,-0.0776367,0
10170,0.987793,-0.0449219,-0.106445,0
10190,1.00244,-0.0444336,-0.129883,0
10210,0.996094,-0.0517578,-0.119629,0
10230,0.98584,-0.0449219,-0.105469,0
10250,0.996094,-0.0493164,-0.105957,0
10270,0.993652,-0.050293,-0.109863,0
10290,0.989258,-0.0390625,-0.109375,0
10330,0.987793,-0.0512695,-0.114746,0
10350,0.992188,-0.0458984,-0.125,0
10370,1.00293,-0.0605469,-0.130371,0
10390,1,-0.0576172,-0.124023,0
10410,0.999023,-0.0541992,-0.117676,0
10430,1.00537,-0.0512695,-0.114746,0
10450,1.00635,-0.0595703,-0.119629,0
10470,1.00146,-0.0507812,-0.116699,0
10490,1.01172,-0.0522461,-0.126953,0
10510,1.00635,-0.0561523,-0.12207,0
10530,1.00244,-0.0478516,-0.121582,0
10550,1.00098,-0.0571289,-0.119629,0
10570,1.00195,-0.0551758,-0.125977,0
10590,1.00293,-0.050293,-0.124512,0
10610,1.00244,-0.0551758,-0.117188,0
10630,1.00977,-0.0541992,-0.125488,0
10650,1.01367,-0.0493164,-0.13623,0
10670,1.00342,-0.0483398,-0.127441,0
10690,0.999512,-0.0566406,-0.117188,0
10710,1.00439,-0.0566406,-0.122559,0
10730,1.00244,-0.0522461,-0.131348,0
10750,0.998535,-0.0517578,-0.128418,0
10770,1.00488,-0.0561523,-0.121582,0
10790,1.00439,-0.0551758,-0.126953,0
10810,1.00537,-0.0527344,-0.13916,0
10830,0.99707,-0.0507812,-0.126465,0
10850,0.999512,-0.0537109,-0.120117,0
10870,1.00537,-0.0532227,-0.127441,0
10890,1.00146,-0.0473633,-0.141113,0
10920,1.00293,-0.0551758,-0.125977,0
10940,0.996094,-0.0493164,-0.122559,0
10950,0.999512,-0.0532227,-0.125,0
10960,1.00488,-0.0493164,-0.137207,0
10980,1.00977,-0.0512695,-0.129395,0
11000,1.00732,-0.0527344,-0.126953,0
11020,1.01465,-0.0478516,-0.130859,0
11040,1.021,-0.0532227,-0.134277,0
11060,1.00781,-0.0498047,-0.135742,0
11080,1.0127,-0.0527344,-0.138184,0
11100,1.00977,-0.0493164,-0.133301,0
11120,1.01611,-0.0488281,-0.125488,0
11140,1.01025,-0.0551758,-0.14502,0
11160,0.970215,-0.0458984,-0.155273,0
11180,0.977051,-0.0610352,-0.169922,0
11200,0.987305,-0.0527344,-0.13623,0
11220,0.958008,-0.0424805,-0.132812,0
11240,0.976562,-0.0439453,-0.106934,0
11260,1.00146,-0.046875,-0.117676,0
11280,0.991211,-0.0131836,-0.137207,0
11300,0.991211,-0.0253906,-0.130371,0
11320,1.04297,-0.0498047,-0.142578,0
11340,1.03174,-0.0390625,-0.181641,0
11360,1.01465,-0.0405273,-0.172363,0
11380,1.02539,-0.0605469,-0.151367,0
11400,1.02246,-0.0673828,-0.160645,0
11420,1.00342,-0.0561523,-0.152832,0
11440,1.01074,-0.0537109,-0.144531,0
11460,0.996094,-0.0581055,-0.140625,0
11480,1.00439,-0.059082,-0.145996,0
11500,1.00488,-0.0527344,-0.160645,0
11520,0.99707,-0.0507812,-0.174805,0
11540,1.00293,-0.0507812,-0.17334,0
11560,1.00977,-0.0498047,-0.167969,0
11580,1.02344,-0.0517578,-0.174805,0
11600,1.00928,-0.0483398,-0.172852,0
11620,1.0166,-0.0585938,-0.167969,0
11640,1.01172,-0.059082,-0.164062,0
11660,1.00439,-0.0541992,-0.173828,0
11680,1.00244,-0.0512695,-0.17041,0
11700,1.00488,-0.050293,-0.180664,0
11720,0.997559,-0.0473633,-0.181641,0
11740,0.987305,-0.050293,-0.177734,0
11770,1.00049,-0.0556641,-0.191406,0
11800,0.998047,-0.0449219,-0.194824,0
11820,1.00439,-0.0478516,-0.195801,0
11840,1.00195,-0.050293,-0.205566,0
11860,0.996094,-0.0512695,-0.205566,0
11880,0.991211,-0.043457,-0.212891,0
11900,0.989258,-0.0390625,-0.208008,0
11910,0.985352,-0.0288086,-0.208496,0
11930,0.989258,-0.0288086,-0.209961,0
11950,0.98584,-0.027832,-0.211914,0
11970,0.979492,-0.0170898,-0.214844,0
12000,0.979004,-0.0131836,-0.224121,0
12020,0.981445,-0.00634766,-0.221191,0
12040,0.981445,-0.0112305,-0.22168,0
12050,0.981445,-0.00976562,-0.227051,0
12070,0.979492,-0.0102539,-0.237793,0
12090,0.980469,-0.00439453,-0.227051,0
12110,0.985352,-0.00927734,-0.222168,0
12130,0.979004,-0.00439453,-0.231445,0
12150,0.980469,-0.000488281,-0.237793,0
12160,0.982422,-0.00146484,-0.241699,0
12190,0.984863,-0.00488281,-0.239258,0
12210,0.982422,-0.00488281,-0.248047,0
12220,0.985352,-0.00732422,-0.26123,0
12240,0.974609,0,-0.248047,0
12260,0.981934,-0.00146484,-0.25293,0
12280,0.964844,0.00292969,-0.246094,0
12300,0.970703,-0.000488281,-0.250977,0
12320,0.97168,0.00634766,-0.254883,0
12330,0.960449,0.00683594,-0.251465,0
12350,0.972168,0.00878906,-0.254883,0
12370,0.97168,0.015625,-0.261719,0
12390,0.966309,0.0131836,-0.262695,0
12410,0.970215,0.0107422,-0.260742,0
12430,0.974609,0.0136719,-0.263184,0
12450,0.974609,0.00732422,-0.269043,0
12480,0.978027,0.0131836,-0.261719,0
12500,0.978516,0.00585938,-0.263184,0
12520,0.976074,0.0112305,-0.269043,0
12540,0.975586,0.012207,-0.266113,0
12560,0.973145,0.00732422,-0.276855,0
12580,0.974121,0.0107422,-0.264648,0
12600,0.974121,0.0107422,-0.269043,0
12620,0.972168,0.015625,-0.270996,0
12630,0.969238,0.0249023,-0.271484,0
12640,0.969727,0.019043,-0.276855,0
12660,0.969238,0.019043,-0.274902,0
12680,0.977539,0.0117188,-0.276855,0
12700,0.967285,0.0078125,-0.281738,0
12720,0.952148,0.0268555,-0.267578,0
12720,0.968262,0.0317383,-0.240723,0
12740,0.962891,0.0327148,-0.239258,0
12760,0.953613,0.0390625,-0.271973,0
12780,0.947754,0.0380859,-0.263672,0
12800,0.942871,0.0605469,-0.229492,0
12820,0.925781,0.0620117,-0.179688,0
12840,0.882812,0.0703125,-0.160156,0
12860,0.811523,0.0888672,-0.0981445,0
12880,0.752441,0.0820312,-0.0288086,0
12900,0.743164,0.0708008,-0.0322266,0
12930,0.744141,-0.0273438,-0.130371,0
12950,0.755859,-0.0795898,-0.138672,0
12970,0.726562,-0.214355,-0.116699,0
13000,0.731934,-0.491211,-0.109863,0
13010,0.756348,-0.586914,0.0703125,0
13040,0.730469,-0.811035,0.0327148,0
13060,0.70459,-0.765625,0.106445,0
13080,0.680176,-0.819336,0.237305,0
13100,0.680664,-1.24023,0.20166,0
13140,0.859863,-1.08398,0.205566,0
13170,0.605469,-0.967773,0.386719,0
13200,0.518066,-0.607422,0.360352,0
13220,0.523438,-0.569336,0.380859,0
13240,0.651367,-0.658203,0.341309,0
13260,0.584473,-0.724121,0.23291,0
13280,0.383789,-0.70166,0.300293,0
13300,0.0913086,-0.3125,0.632324,0
13320,-0.143066,-0.769531,0.313965,0
13340,0.0839844,-0.995117,0.255371,0
13360,0.70459,-0.904785,0.140625,0
13380,0.799805,-0.808594,0.406738,0
13400,0.567383,-0.987305,0.470215,0
13420,0.401855,-0.851562,0.211914,0
13440,0.380859,-0.661133,0.270508,0
13460,0.625488,-0.628418,0.306641,0
13480,0.741211,-0.588379,0.282715,0
13500,0.590332,-0.598633,0.333984,0
13520,0.462402,-0.669434,0.34668,0
13540,0.535156,-0.750488,0.317871,0
13560,0.604492,-0.666016,0.406738,0
13580,0.692383,-0.646973,0.438965,0
13600,0.776855,-0.765137,0.290527,0
13620,0.751953,-0.80957,0.183105,0
13640,0.671387,-0.774902,0.217285,0
13650,0.651855,-0.684082,0.279785,0
13670,0.714355,-0.663086,0.300781,0
13690,0.757812,-0.668457,0.365723,0
13710,0.805664,-0.722656,0.335449,0
13730,0.846191,-0.760254,0.316895,0
13750,0.785645,-0.790527,0.277344,0
13770,0.716797,-0.848145,0.237793,0
13790,0.687988,-0.827148,0.182617,0
13810,0.662109,-0.787598,0.132812,0
13830,0.640137,-0.717285,0.104492,0
13850,0.496582,-0.708984,0.218262,0
13870,0.335938,-0.651855,0.326172,0
13890,0.375488,-0.567871,0.227051,0
13910,0.48291,-0.476074,0.286133,0
13930,0.564941,-0.526367,0.361328,0
13950,0.503418,-0.543457,0.33252,0
13970,0.408203,-0.428711,0.358398,0
13990,0.421387,-0.446777,0.504883,0
14010,0.5625,-0.491699,0.527832,0
14030,0.611328,-0.495605,0.42334,0
14050,0.564453,-0.436523,0.492188,0
14070,0.682129,-0.429688,0.65332,0
14090,0.730469,-0.457031,0.588379,0
14110,0.59668,-0.47998,0.463379,0
14120,0.568359,-0.513184,0.542969,0
14140,0.728516,-0.57666,0.648438,0
14170,0.686523,-0.733887,0.605957,0
14190,0.770508,-0.672363,0.643555,0
14210,0.763184,-0.604492,0.635254,0
14230,0.677734,-0.561035,0.591797,0
14250,0.558105,-0.580078,0.565918,0
14270,0.369629,-0.643066,0.588867,0
14280,0.289551,-1.05811,0.555664,0
14300,0.25,-0.969727,0.633789,0
14320,0.266602,-0.880859,0.646973,0
14340,0.339844,-0.796875,0.641602,0
14360,0.260742,-0.750977,0.675293,0
14380,0.116699,-0.755859,0.737793,0
14400,0.115234,-0.844727,0.776855,0
14420,0.13916,-0.913574,0.76123,0
14440,0.160156,-0.943848,0.713867,0
14460,0.139648,-0.951172,0.691895,0
14480,0.144531,-0.90332,0.70166,0
14500,0.154297,-0.822754,0.725586,0
14520,0.115723,-0.774902,0.70459,0
14540,0.108887,-0.783203,0.771484,0
14560,0.163574,-0.834961,0.73877,0
14580,0.211914,-0.89502,0.700684,0
14600,0.237305,-0.909668,0.683594,0
14620,0.194336,-0.845703,0.683594,0
14640,0.19873,-0.760742,0.737305,0
14660,0.26709,-0.712891,0.693359,0
14680,0.303711,-0.72998,0.682617,0
14700,0.280273,-0.754883,0.694336,0
14720,0.251465,-0.783203,0.661133,0
14740,0.224609,-0.852051,0.700684,0
14760,0.170898,-0.835938,0.702148,0
14780,0.163086,-0.756348,0.739746,0
14800,0.222168,-0.682129,0.67041,0
14840,0.0717773,-0.700684,0.687012,0
14850,0.0703125,-0.720215,0.602539,0
14870,0.0322266,-0.73291,0.610352,0
14890,-0.0668945,-0.689941,0.574707,0
14910,-0.189453,-0.616211,0.547852,0
14930,-0.26416,-0.538086,0.55127,0
14950,-0.375,-0.457031,0.560059,0
14970,-0.490723,-0.400391,0.510254,0
14990,-0.55957,-0.401367,0.580078,0
15010,-0.527832,-0.47168,0.512695,0
15030,-0.501465,-0.556641,0.401367,0
15050,-0.721191,-1.11816,0.496094,0
15070,-1.53857,-1.41553,1.75537,0
15120,-0.158691,-0.380859,0.360352,0
15140,-0.229004,-0.437988,0.32373,0
15160,-0.440918,-0.646484,0.532227,0
15180,-0.485352,-0.802734,0.682129,0
15200,-0.347168,-0.895508,0.77002,0
15220,-0.338379,-0.778809,0.689453,0
15240,-0.297852,-0.609863,0.69873,0
15260,-0.20166,-0.559082,0.708496,0
15260,-0.165039,-0.581543,0.700684,0
15260,-0.178711,-0.653809,0.70459,0
15280,-0.157227,-0.760742,0.714355,0
15300,-0.132812,-0.829102,0.663574,0
15340,-0.162109,-0.735352,0.619629,0
15360,-0.174316,-0.752441,0.620117,0
15380,-0.201172,-0.780273,0.637695,0
15400,-0.220703,-0.774414,0.652344,0
15420,-0.231445,-0.757812,0.656738,0
15440,-0.226074,-0.749512,0.64209,0
15460,-0.206055,-0.736328,0.655273,0
15480,-0.21875,-0.728516,0.650391,0
15500,-0.227051,-0.746094,0.619629,0
15520,-0.216309,-0.753418,0.653809,0
15540,-0.255371,-0.655762,0.663086,0
15560,-0.287109,-0.653809,0.668457,0
15580,-0.287598,-0.714844,0.691406,0
15600,-0.249512,-0.785156,0.652344,0
15620,-0.197266,-0.848633,0.63916,0
15640,-0.15332,-0.903809,0.574219,0
15660,-0.130371,-0.866211,0.514648,0
15680,-0.0957031,-0.859375,0.524902,0
15700,-0.132812,-0.902832,0.569336,0
15720,-0.223633,-0.807617,0.568848,0
15740,-0.263184,-0.780762,0.572754,0
15760,-0.305664,-0.663574,0.678711,0
15780,-0.414551,-0.459961,0.666504,0
15800,-0.416992,-0.460449,0.728027,0
15860,-0.120117,-0.950195,0.460449,0
15880,-0.132812,-0.850098,0.57666,0
15900,-0.140137,-0.865723,0.588867,0
15920,-0.18457,-0.870117,0.563477,0
15940,-0.23291,-0.838867,0.544434,0
15960,-0.266113,-0.859863,0.558105,0
15980,-0.334473,-0.72168,0.666016,0
16000,-0.450195,-0.496582,0.671387,0
16020,-0.394043,-0.443359,0.742676,0
16040,-0.257812,-0.587402,0.685547,0
16060,-0.117188,-0.819336,0.634277,0
16080,-0.131836,-1.02881,0.568848,0
16110,-0.275879,-1.01855,0.636719,0
16150,-0.237793,-0.906738,0.58252,0
16170,-0.294922,-0.82959,0.646973,0
16190,-0.330078,-0.929688,0.759277,0
16210,-0.228516,-1.01758,0.774414,0
16230,-0.114258,-1.01562,0.782715,0
16250,-0.0214844,-0.998535,0.762207,0
16270,0.0869141,-0.956055,0.688965,0
16290,0.152832,-0.93457,0.651367,0
16310,0.211426,-0.935059,0.613281,0
16330,0.26709,-0.952148,0.556152,0
16350,0.289062,-0.932129,0.532227,0
16370,0.297852,-0.913574,0.509766,0
16390,0.313477,-0.883301,0.473633,0
16410,0.310547,-0.844727,0.44043,0
16430,0.29541,-0.820801,0.404785,0
16450,0.304199,-0.792969,0.369141,0
16470,0.310547,-0.780273,0.325684,0
16490,0.273438,-0.777832,0.309082,0
16510,0.151367,-0.709961,0.266113,0
16530,0.133301,-0.706055,0.240234,0
16550,0.0986328,-0.768066,0.248535,0
16580,0.158691,-0.90918,0.225586,0
16600,0.149902,-0.910156,0.263184,0
16620,0.135254,-0.874512,0.27002,0
16640,0.15332,-0.873047,0.233887,0
16660,0.187988,-0.908203,0.23291,0
16680,0.198242,-0.976562,0.265137,0
16700,0.186035,-1.0127,0.289062,0
16720,0.206055,-1.03516,0.268066,0
16740,0.225098,-1.01172,0.254395,0
16760,0.239258,-0.982422,0.245605,0
16780,0.268066,-0.972168,0.259277,2000
16800,0.244629,-0.966797,0.246582,0
16820,0.228027,-0.960449,0.221191,0
16840,0.210938,-0.949219,0.207031,0
16860,0.181152,-0.983398,0.179199,0
16880,0.11084,-0.974121,0.197754,0
16900,0.0766602,-0.950684,0.211426,0
16920,0.0991211,-0.924316,0.213867,0
16940,0.138672,-0.915039,0.224121,0
16960,0.15625,-0.924316,0.21582,0
16980,0.143555,-0.936523,0.180664,0
17000,0.128906,-0.952148,0.219727,0
17020,0.174316,-0.943848,0.272949,0
17040,0.226074,-0.966797,0.227539,0
17060,0.239258,-0.955566,0.180176,0
17080,0.226074,-0.920898,0.198242,0
17100,0.254395,-0.927734,0.259277,0
17120,0.349121,-0.949219,0.291504,0
17140,0.404785,-0.962402,0.209961,0
17170,0.406738,-0.985352,0.26709,0
17190,0.417969,-0.945801,0.249512,0
17210,0.381348,-0.922852,0.225586,0
17230,0.503418,-0.871582,0.254883,0
17250,0.646973,-0.914062,0.257812,0
17270,0.594727,-0.919922,0.220215,0
17290,0.515625,-0.878418,0.217773,0
17310,0.594238,-0.821289,0.26416,0
17330,0.709961,-0.840332,0.269043,0
17350,0.695801,-0.864746,0.212402,0
17370,0.626953,-0.84668,0.211426,0
17390,0.67627,-0.841797,0.274414,0
17410,0.755371,-0.840332,0.272461,0
17430,0.766602,-0.859863,0.238281,0
17450,0.747559,-0.821289,0.254883,0
17470,0.746094,-0.816406,0.269043,0
17490,0.782715,-0.787598,0.260254,0
17510,0.764648,-0.802246,0.27002,0
17530,0.705566,-0.810547,0.291992,0
17550,0.684082,-0.803223,0.331543,0
17570,0.700195,-0.803711,0.340332,0
17590,0.705566,-0.793457,0.317871,0
17610,0.658691,-0.779785,0.371582,0
17630,0.617188,-0.797852,0.40332,0
17650,0.614258,-0.79541,0.407715,0
17670,0.570801,-0.779785,0.387695,0
17690,0.510742,-0.805176,0.401855,0
17710,0.512207,-0.822266,0.446289,0
17730,0.524414,-0.784668,0.457031,0
17750,0.483887,-0.773926,0.453125,0
17770,0.440918,-0.776855,0.438965,0
17790,0.444824,-0.813477,0.466309,0
17810,0.396484,-0.818359,0.486816,0
17830,0.339355,-0.82373,0.479492,0
17850,0.315918,-0.799316,0.472168,0
17870,0.321777,-0.8125,0.460449,0
17890,0.287109,-0.807129,0.471191,0
17910,0.248047,-0.814453,0.509766,0
17930,0.27002,-0.850586,0.492188,0
17960,0.211914,-0.901855,0.491211,0
17980,0.252441,-0.921387,0.453613,0
18000,0.257812,-0.922363,0.396973,0
18020,0.21582,-0.923828,0.389648,0
18040,0.172363,-0.908203,0.410156,0
18060,0.102539,-0.913574,0.355957,0
18080,0.0385742,-0.949707,0.276367,0
18100,0.0317383,-0.978027,0.28418,0
18120,0.043457,-0.972168,0.254395,0
18140,0.0332031,-0.95166,0.195801,0
18160,0.0463867,-0.942383,0.188477,0
18180,0.0581055,-0.958496,0.172363,0
18200,0.0698242,-0.976562,0.131348,0
18220,0.0810547,-1.00293,0.125,0
18240,0.100586,-1.00098,0.123047,0
18260,0.148438,-0.992676,0.105469,0
18280,0.187012,-0.973145,0.0942383,0
18300,0.211914,-0.994629,0.0786133,0
18320,0.225586,-0.991211,0.0561523,0
18340,0.255371,-0.978516,0.0537109,0
18360,0.381348,-0.930664,0.0209961,0
18380,0.430176,-0.919922,-0.0141602,0
18400,0.456543,-0.933594,-0.0078125,0
18420,0.46875,-0.913574,0.0166016,0
18440,0.488281,-0.902832,-0.00488281,0
18460,0.557617,-0.868164,0.00488281,0
18480,0.655762,-0.838379,0.0214844,0
18500,0.672852,-0.89502,0,0
18510,0.604492,-0.888672,-0.015625,0
18530,0.537598,-0.833984,0.0253906,0
18550,0.624512,-0.818359,0.0952148,0
18570,0.750977,-0.811035,0.0727539,0
18590,0.751953,-0.80957,0.0327148,0
18610,0.683105,-0.762695,0.0664062,0
18630,0.76709,-0.740723,0.104492,0
18650,0.853516,-0.773438,0.0883789,0
18670,0.813965,-0.778809,0.0825195,0
18690,0.77832,-0.756348,0.123535,0
18700,0.831543,-0.762207,0.112793,0
18730,0.922363,-0.759277,0.128906,0
18750,0.981445,-0.715332,0.172363,0
18770,1.04688,-0.723145,0.169922,0
18790,1.02783,-0.748535,0.205566,0
18810,0.951172,-0.76123,0.262207,0
18830,0.897461,-0.787109,0.277832,0
18850,0.793457,-0.735352,0.336426,0
18870,0.742676,-0.71875,0.395996,0
18890,0.685059,-0.70752,0.396973,0
18910,0.657715,-0.705078,0.366699,0
18930,0.60498,-0.75293,0.373047,0
18950,0.517578,-0.799316,0.410156,0
18970,0.513184,-0.753906,0.458008,0
18990,0.606445,-0.689453,0.46582,0
19010,0.60791,-0.729004,0.535156,0
19030,0.417969,-0.743164,0.498535,0
19050,0.213379,-0.904785,0.478516,0
19070,0.182617,-0.923828,0.39502,0
19090,0.183105,-0.868652,0.391602,0
19110,0.165039,-0.824707,0.404785,0
19130,0.114258,-0.843262,0.371582,0
19150,0.0610352,-0.888672,0.311523,0
19170,0.0859375,-0.917969,0.29834,0
19190,0.137207,-0.89502,0.266602,0
19210,0.120117,-0.898438,0.173828,0
19230,0.112305,-0.937012,0.150391,0
19260,0.35791,-0.983398,-0.191895,0
19270,0.427734,-0.925293,-0.219727,0
19280,0.415039,-0.873047,-0.23877,0
19300,0.352051,-0.89209,-0.237793,0
19320,0.374023,-0.865234,-0.250977,0
19340,0.43457,-0.797363,-0.261719,0
19360,0.397949,-0.75293,-0.292969,0
19380,0.326172,-0.77832,-0.297852,0
19400,0.324707,-0.831055,-0.25293,0
19420,0.442383,-0.784668,-0.162598,0
19440,0.568359,-0.789062,-0.138184,0
19460,0.662109,-0.788086,-0.138672,0
19480,0.835938,-0.706543,-0.11377,0
19500,0.972656,-0.721191,-0.136719,0
19520,0.958496,-0.730957,-0.166504,0
19540,0.907715,-0.654297,-0.149414,0
19560,0.974609,-0.591309,-0.152832,0
19580,1.05518,-0.57373,-0.213379,0
19600,1.06006,-0.54248,-0.255859,0
19620,1.06787,-0.519531,-0.186523,0
19640,1.06152,-0.530273,-0.150391,0
19660,1.02979,-0.572754,-0.14502,0
19680,1.01465,-0.575684,-0.11377,0
19700,1.07422,-0.527344,-0.0537109,0
19720,1.13281,-0.500977,-0.0249023,0
19740,1.13916,-0.490234,0.0361328,0
19760,1.14258,-0.496582,0.109375,0
19780,1.14941,-0.530273,0.164062,0
19800,1.10791,-0.516113,0.193848,0
19820,0.991699,-0.550293,0.267578,0
19840,0.898926,-0.627441,0.387207,0
19860,0.799316,-0.681641,0.407715,0
19880,0.767578,-0.62793,0.381836,0
19900,0.72168,-0.571289,0.452148,0
19920,0.602539,-0.658203,0.520996,0
19940,0.516113,-0.672363,0.464355,0
19960,0.517578,-0.645508,0.467773,0
19980,0.502441,-0.649902,0.446777,0
20000,0.408203,-0.75,0.438965,0
20020,0.371094,-0.766113,0.460938,0
20040,0.362305,-0.785645,0.418457,0
20060,0.357422,-0.76709,0.348633,0
20080,0.395996,-0.815918,0.36377,0
20100,0.363281,-0.807617,0.32666,0
20120,0.295898,-0.895996,0.239746,0
20140,0.217773,-0.904297,0.146973,0
20160,0.188965,-0.887207,0.121094,0
20180,0.191895,-0.944824,0.0888672,0
20200,0.22998,-1.00488,0.000488281,0
20220,0.23291,-1.07959,-0.0458984,0
20240,0.229004,-1.11768,-0.0273438,0
20260,0.291504,-1.10938,-0.0283203,0
20280,0.346191,-1.07324,-0.101562,0
20300,0.341309,-1.03271,-0.142578,0
20320,0.324219,-1.00684,-0.161133,0
20360,0.436035,-0.942871,-0.155762,0
20380,0.479004,-0.905273,-0.213379,0
20400,0.463379,-0.916992,-0.223633,0
20420,0.465332,-0.9375,-0.247559,0
20440,0.502441,-0.933105,-0.290039,0
20460,0.486328,-0.888184,-0.310059,0
20480,0.460449,-0.806641,-0.334961,0
20500,0.473145,-0.766602,-0.318848,0
20520,0.486328,-0.725586,-0.268066,0
20540,0.476074,-0.720215,-0.268555,0
20560,0.499023,-0.683594,-0.268555,0
20580,0.561035,-0.656738,-0.206543,0
20600,0.651367,-0.649902,-0.232422,0
20620,0.669434,-0.687988,-0.285156,0
20640,0.672852,-0.71875,-0.290527,0
20660,0.755371,-0.744629,-0.254395,0
20680,0.807617,-0.76416,-0.26709,0
20700,0.779785,-0.743652,-0.339844,0
20720,0.797363,-0.705078,-0.310547,0
20740,0.89209,-0.661133,-0.268555,0
20760,0.938477,-0.654785,-0.311035,0
20780,0.903809,-0.710938,-0.353516,0
20800,0.830078,-0.70166,-0.236328,0
20820,0.845703,-0.671387,-0.218262,2001
20840,0.87207,-0.671875,-0.230957,0
20860,0.806152,-0.680664,-0.224121,0
20880,0.73877,-0.666504,-0.15918,0
20900,0.683105,-0.64502,-0.116699,0
20920,0.653809,-0.629883,-0.15625,0
20940,0.623047,-0.587402,-0.162109,0
20960,0.592285,-0.582031,-0.165039,0
20980,0.543945,-0.578613,-0.134766,0
21000,0.452148,-0.539062,-0.12207,0
21020,0.46582,-0.549805,-0.178711,0
21040,0.481934,-0.534668,-0.158203,0
21060,0.505859,-0.592773,-0.118652,0
21080,0.557129,-0.567871,-0.0253906,0
21100,0.601074,-0.528809,-0.0986328,0
21120,0.615234,-0.568848,-0.125488,0
21140,0.707031,-0.572266,-0.0908203,0
21160,0.836914,-0.594238,-0.0981445,0
21180,0.810547,-0.704102,-0.105957,0
21200,0.718262,-0.783203,-0.175293,0
21220,0.765137,-0.802734,-0.133301,0
21240,0.774902,-0.855957,-0.0893555,0
21260,0.694336,-0.951172,-0.120605,0
21280,0.688477,-0.949219,-0.0957031,0
21300,0.680176,-0.978516,-0.0214844,0
21320,0.612793,-1.06836,-0.0458984,0
21340,0.584961,-1.1084,-0.0756836,0
21360,0.567871,-1.08301,0.0249023,0
21380,0.509766,-1.11523,0.00537109,0
21400,0.464355,-1.13379,-0.0419922,0
21420,0.447266,-1.12646,-0.0209961,0
21440,0.415039,-1.12158,0.0273438,0
21460,0.350586,-1.13623,-0.0078125,0
21480,0.31543,-1.14795,-0.0449219,0
21500,0.32373,-1.10449,-0.019043,0
21520,0.333496,-1.07324,-0.0078125,0
21540,0.319824,-1.09424,-0.0288086,0
21560,0.286133,-1.05762,0.00439453,0
21580,0.230469,-1.05176,-0.00683594,0
21600,0.224121,-1.08398,-0.0786133,0
21620,0.227051,-1.05371,-0.0336914,2000
21640,0.149902,-0.946777,-0.0249023,0
21660,0.0732422,-0.869629,-0.0102539,0
21680,0.0922852,-0.872559,-0.03125,0
21700,0.129395,-0.960938,0.0258789,0
21720,0.158203,-1.06689,0.0454102,0
21740,0.166992,-1.0957,0.0209961,0
21760,0.152832,-1.08252,-0.0439453,0
21780,0.110352,-0.993652,-0.0258789,0
21800,0.0898438,-0.938477,0.0205078,0
21820,0.150879,-0.977051,-0.00390625,0
21840,0.223633,-0.990723,-0.0078125,0
21860,0.211914,-0.977539,0.019043,0
21880,0.227539,-0.988281,0.0571289,0
21900,0.327637,-0.996094,0.0541992,0
21920,0.423828,-0.98877,0.0292969,0
21940,0.42627,-0.913086,0.0288086,0
21960,0.390137,-0.866699,0.015625,0
21980,0.410156,-0.882812,0.0219727,0
22000,0.531738,-0.938477,0.0297852,0
22020,0.617188,-0.986816,0.0429688,0
22040,0.589844,-0.95752,0.0405273,0
22060,0.539551,-0.894531,0.0209961,0
22080,0.631348,-0.868652,0.0131836,0
22100,0.771973,-0.864258,-0.00390625,0
22120,0.774902,-0.847168,-0.0185547,0
22140,0.771484,-0.787598,-0.0136719,0
22160,0.810059,-0.814453,-0.0234375,0
22180,0.842285,-0.79541,-0.0229492,0
22200,0.865234,-0.790527,0.00292969,0
22220,0.874023,-0.789062,0.034668,0
22240,0.871582,-0.769531,0.0395508,0
22250,0.854492,-0.727539,0.0356445,0
22270,0.807129,-0.713867,0.0478516,0
22290,0.785156,-0.708008,0.0966797,0
22310,0.790039,-0.717773,0.13623,0
22330,0.802734,-0.737305,0.193359,0
22350,0.842773,-0.729004,0.196289,0
22370,0.835938,-0.743164,0.190918,0
22390,0.819336,-0.739746,0.246582,0
22410,0.825684,-0.701172,0.29248,0
22430,0.818848,-0.707031,0.295898,0
22450,0.734863,-0.749023,0.304688,0
22470,0.700195,-0.759277,0.355957,0
22490,0.743652,-0.778809,0.34668,0
22510,0.753418,-0.829102,0.352051,0
22530,0.683105,-0.814453,0.428223,0
22550,0.615234,-0.822266,0.481445,0
22570,0.584961,-0.812012,0.465332,0
22590,0.539062,-0.80957,0.399902,0
22610,0.458008,-0.853516,0.442871,0
22630,0.400391,-0.876465,0.504395,0
22650,0.374023,-0.853027,0.458496,0
22670,0.303711,-0.796387,0.45166,0
22690,0.210938,-0.804688,0.52832,0
22710,0.182617,-0.831543,0.509277,0
22730,0.209961,-0.853516,0.468262,0
22750,0.259277,-0.833984,0.524902,0
22770,0.263184,-0.830078,0.471191,0
22790,0.210449,-0.832031,0.358398,0
22810,0.171387,-0.814941,0.421875,0
22830,0.180176,-0.837402,0.404297,0
22850,0.179688,-0.879395,0.291016,0
22870,0.202148,-0.875,0.280762,0
22890,0.255859,-0.877441,0.319336,0
22910,0.278809,-0.931641,0.296875,0
22930,0.236328,-0.970215,0.242188,0
22950,0.26709,-0.925781,0.21582,0
22960,0.223145,-0.967773,0.114258,0
22970,0.211426,-0.992188,0.133789,0
22990,0.25293,-0.992676,0.13916,0
23010,0.296875,-0.973633,0.0888672,0
23030,0.248047,-0.976562,0.0600586,0
23050,0.262695,-0.961426,0.0693359,0
23070,0.3125,-0.947266,0.0732422,0
23090,0.386719,-0.92627,0.0517578,0
23110,0.445801,-0.913574,0.00292969,0
23130,0.492676,-0.875,-0.0419922,0
23150,0.529297,-0.833984,0.015625,0
23170,0.561035,-0.807129,0.0805664,0
23190,0.580078,-0.77832,0.0883789,0
23210,0.665527,-0.769531,0.0854492,0
23230,0.791504,-0.740723,0.0273438,0
23250,0.82373,-0.72998,-0.0117188,0
23270,0.780762,-0.714355,0.0136719,0
23290,0.808594,-0.677246,0.0327148,0
23310,0.895996,-0.645508,-0.00341797,0
23330,0.916016,-0.645996,-0.0512695,0
23350,0.859375,-0.595215,-0.0463867,0
23370,0.908203,-0.592285,-0.00292969,0
23390,1.04834,-0.611816,-0.0268555,0
23440,1.02686,-0.475586,0.0112305,0
23460,1.04395,-0.492188,0.0336914,0
23480,1.12354,-0.499023,0.0239258,0
23500,1.05518,-0.485352,0.103027,0
23520,0.982422,-0.495117,0.0986328,0
23540,0.952148,-0.548828,0.124023,0
23560,0.949219,-0.566895,0.193359,0
23580,0.946777,-0.496094,0.237793,0
23600,0.949219,-0.477539,0.172363,0
23620,0.961914,-0.558105,0.200195,0
23640,0.884766,-0.644531,0.378906,0
23660,0.739746,-0.741211,0.475586,0
23680,0.716797,-0.720215,0.378906,0
23700,0.75,-0.664551,0.343262,0
23720,0.708496,-0.671387,0.445801,0
23740,0.55127,-0.688965,0.536621,0
23760,0.446289,-0.674316,0.469238,0
23780,0.484375,-0.660645,0.464355,0
23800,0.478027,-0.709961,0.521973,0
23820,0.387207,-0.797852,0.51416,0
23840,0.348145,-0.815918,0.480957,0
23860,0.359863,-0.771973,0.492188,0
23880,0.361328,-0.741211,0.413574,0
23900,0.340332,-0.744629,0.402832,0
23920,0.315918,-0.766113,0.425293,0
23940,0.322754,-0.819824,0.345215,0
23960,0.336426,-0.864258,0.289062,0
23990,0.397461,-0.896484,0.180176,0
24010,0.420898,-0.977539,-0.150391,0
24030,0.445312,-0.941406,-0.159668,0
24050,0.48584,-0.88916,-0.157715,0
24070,0.505859,-0.859863,-0.192383,0
24090,0.458008,-0.836914,-0.195312,0
24110,0.443848,-0.828125,-0.170898,0
24130,0.524414,-0.794922,-0.182129,0
24150,0.619141,-0.79834,-0.194824,0
24170,0.644043,-0.742676,-0.165527,0
24190,0.708008,-0.705566,-0.197266,0
24210,0.802734,-0.693848,-0.256348,0
24230,0.769531,-0.662598,-0.237305,0
24250,0.695312,-0.655273,-0.166016,0
24270,0.765137,-0.599121,-0.136719,0
24280,0.914551,-0.494141,-0.203125,0
24300,0.848633,-0.410156,-0.116699,0
24320,0.935547,-0.348633,-0.0961914,0
24330,1.1167,-0.339844,-0.191406,0
24340,1.18018,-0.330566,-0.225586,0
24370,1.13184,-0.412598,-0.0844727,0
24410,1.21289,-0.371582,-0.046875,0
24430,1.1875,-0.359375,0.0488281,0
24450,1.12939,-0.362305,0.0644531,0
24470,1.11377,-0.36084,0.108887,0
24490,1.12451,-0.36377,0.18457,0
24510,1.07617,-0.394531,0.270508,0
24530,1.04297,-0.399902,0.332031,0
24550,0.805176,-0.575684,0.450684,0
24560,0.727539,-0.623535,0.501953,0
24590,0.581055,-0.648438,0.405273,0
24610,0.444336,-0.702148,0.396484,0
24630,0.402344,-0.672363,0.410156,0
24650,0.38623,-0.706543,0.328613,0
24670,0.374023,-0.683594,0.267578,0
24690,0.312988,-0.728516,0.27832,0
24710,0.273438,-0.801758,0.31543,0
24730,0.339844,-0.803223,0.32666,0
24750,0.441406,-0.812988,0.227539,0
24770,0.454102,-0.880859,0.0947266,0
24790,0.441406,-0.863281,0.0410156,0
24810,0.436523,-0.915527,0.0107422,0
24830,0.466309,-0.990723,-0.0644531,0
24850,0.496582,-0.967285,-0.151367,0
24870,0.506348,-0.925293,-0.21875,0
24890,0.525391,-0.887207,-0.219727,0
24900,0.542969,-0.875,-0.203125,0
24920,0.54541,-0.894531,-0.23584,0
24940,0.589844,-0.879883,-0.214355,0
24960,0.674316,-0.821289,-0.22168,0
24980,0.700684,-0.800293,-0.266113,0
25000,0.640625,-0.767578,-0.28125,0
25020,0.616211,-0.721191,-0.246582,0
25040,0.672852,-0.736816,-0.249512,0
25060,0.720703,-0.720703,-0.288086,0
25080,0.733398,-0.676758,-0.306152,0
25100,0.719238,-0.629395,-0.287109,0
25120,0.732422,-0.613281,-0.268066,0
25140,0.797363,-0.599121,-0.255371,0
25160,0.884277,-0.591797,-0.254883,0
25180,0.92041,-0.603027,-0.229004,0
25200,0.901367,-0.599121,-0.184082,0
25220,0.897949,-0.621582,-0.185547,0
25240,0.901855,-0.579102,-0.217285,2001
25260,0.824219,-0.499023,-0.224121,0
25280,0.742188,-0.456055,-0.172852,0
25300,0.679688,-0.437988,-0.144531,0
25320,0.643555,-0.44873,-0.153809,0
25340,0.629395,-0.48291,-0.192383,0
25360,0.578125,-0.517578,-0.199219,0
25380,0.580078,-0.561523,-0.260254,0
25400,0.608398,-0.609863,-0.154785,0
25420,0.553711,-0.598145,-0.177734,0
25440,0.486328,-0.538574,-0.196289,0
25460,0.505859,-0.48291,-0.106445,0
25480,0.617188,-0.505371,-0.104492,0
25500,0.632324,-0.559082,-0.18457,0
25520,0.565918,-0.574219,-0.191406,0
25540,0.629883,-0.575195,-0.106445,0
25560,0.767578,-0.649902,-0.0756836,0
25580,0.77002,-0.712402,-0.137207,0
25600,0.684082,-0.749512,-0.161133,0
25620,0.775879,-0.774902,-0.0776367,0
25640,0.900879,-0.828613,-0.0239258,0
25660,0.880371,-0.938965,-0.0556641,0
25680,0.79834,-1.00342,-0.112793,0
25700,0.800781,-0.973145,-0.0551758,0
25720,0.773926,-1.00879,0.0478516,0
25740,0.694824,-1.08887,0.0493164,0
25760,0.633301,-1.10498,0.0493164,0
25780,0.596191,-1.04053,0.0942383,0
25800,0.54834,-1.03613,0.0756836,0
25820,0.474121,-1.09521,0.0766602,0
25840,0.405762,-1.11523,0.143066,0
25860,0.344727,-1.13916,0.138672,0
25880,0.324707,-1.14697,0.143555,0
25900,0.326172,-1.13379,0.13916,0
25920,0.328613,-1.07275,0.147949,0
25940,0.341797,-1.05078,0.118652,0
25960,0.331055,-1.03271,0.0893555,0
25980,0.316406,-1.03125,0.0727539,0
26000,0.303223,-1.03809,0.0600586,0
26020,0.266113,-1.07715,0.078125,0
26040,0.19873,-1.1001,0.0634766,0
26060,0.166992,-1.08643,0.0493164,0
26080,0.123535,-0.994629,0.0288086,2000
26100,0.0581055,-0.951172,0.0234375,0
26120,0.0478516,-0.921387,0.0664062,0
26140,0.0180664,-0.928711,0.0722656,0
26160,0.0336914,-0.944336,0.146484,0
26180,0.132812,-0.981934,0.15918,0
26200,0.210938,-1.01514,0.0981445,0
26220,0.194336,-1,0.0639648,0
26240,0.152344,-0.975586,0.0673828,0
26260,0.166992,-0.95166,0.111816,0
26280,0.243164,-0.950684,0.129395,0
26300,0.302734,-0.953613,0.0756836,0
26320,0.271484,-0.927734,0.0419922,0
26340,0.254395,-0.915039,0.0400391,0
26360,0.351562,-0.936035,0.0761719,0
26380,0.433594,-0.965332,0.0820312,0
26400,0.433105,-0.962402,0.0488281,0
26420,0.412598,-0.922852,0.0556641,0
26440,0.455078,-0.897461,0.108887,0
26460,0.544434,-0.887695,0.127441,0
26480,0.588867,-0.892578,0.0678711,0
26500,0.594238,-0.900391,0.0195312,0
26520,0.689453,-0.893555,0.0224609,0
26540,0.760254,-0.949707,0.0229492,0
26560,0.664062,-0.917969,0.0219727,0
26580,0.590332,-0.875488,0.0102539,0
26600,0.734863,-0.876465,0.0375977,0
26620,0.746582,-0.882812,0.0639648,0
26640,0.592773,-0.814941,0.034668,0
26660,0.58252,-0.781738,0.0444336,0
26680,0.693848,-0.766602,0.0947266,0
26700,0.754883,-0.788086,0.100586,0
26720,0.762207,-0.778809,0.0537109,0
26740,0.802246,-0.748047,0.0327148,0
26760,0.828613,-0.75293,0.0620117,0
26780,0.824219,-0.755859,0.0800781,0
26800,0.845215,-0.730957,0.090332,0
26820,0.862305,-0.75,0.0874023,0
26840,0.850098,-0.771484,0.114746,0
26860,0.830078,-0.755859,0.161133,0
26880,0.788574,-0.759766,0.181152,0
26900,0.778809,-0.76416,0.17334,0
26920,0.766602,-0.76416,0.201172,0
26940,0.760254,-0.768066,0.245605,0
26960,0.778809,-0.805664,0.279785,0
26980,0.75293,-0.787598,0.310547,0
27000,0.671387,-0.803711,0.349609,0
27020,0.64209,-0.765137,0.343262,0
27030,0.641602,-0.765625,0.373047,0
27050,0.634766,-0.807129,0.445312,0
27070,0.575195,-0.837891,0.428711,0
27090,0.544434,-0.827148,0.417969,0
27110,0.564941,-0.796387,0.489258,0
27130,0.539551,-0.834473,0.531738,0
27150,0.478516,-0.795898,0.47998,0
27170,0.458496,-0.758301,0.466309,0
27190,0.394531,-0.8125,0.503418,0
27210,0.234863,-0.887207,0.512207,0
27230,0.191895,-0.873047,0.521973,0
27270,0.271973,-0.80957,0.470703,0
27290,0.254395,-0.78125,0.487793,0
27310,0.186523,-0.899414,0.40332,0
27350,0.233887,-0.901855,0.373535,0
27380,0.143555,-0.87793,0.314941,0
27400,0.090332,-0.913086,0.312012,0
27420,0.0898438,-0.971191,0.241699,0
27430,0.103516,-0.960449,0.223633,0
27470,0.130371,-0.958984,0.166992,0
27490,0.139648,-0.965332,0.138672,0
27510,0.164062,-0.995117,0.105469,0
27530,0.193848,-1.00977,0.115723,0
27550,0.218262,-1.02051,0.0908203,0
27570,0.225098,-1.0166,0.0219727,0
27590,0.239746,-1.01514,-0.0166016,0
27610,0.287109,-1.01318,0.00927734,0
27630,0.337402,-1.03906,0.0283203,0
27650,0.396973,-1.0459,-0.0170898,0
27670,0.428223,-1.00781,-0.0458984,0
27690,0.450195,-0.983398,-0.0546875,0
27710,0.45752,-0.949219,-0.0751953,0
27730,0.427734,-0.93457,-0.115234,0
27750,0.395996,-0.916504,-0.128418,0
27770,0.40918,-0.887695,-0.0800781,0
27790,0.458496,-0.891113,-0.0541992,0
27810,0.502441,-0.885742,-0.09375,0
27820,0.467285,-0.841797,-0.143066,0
27840,0.439453,-0.775391,-0.114258,0
27860,0.48584,-0.737305,-0.0961914,0
27880,0.52002,-0.760742,-0.103516,0
27900,0.52002,-0.766113,-0.133301,0
27920,0.54248,-0.776855,-0.126953,0
27940,0.612793,-0.758789,-0.125977,0
27960,0.668457,-0.753418,-0.161621,0
27980,0.625,-0.780762,-0.144531,0
28000,0.657715,-0.753418,-0.0874023,0
28020,0.822266,-0.71582,-0.102051,0
28040,0.84375,-0.727051,-0.153809,0
28060,0.749512,-0.6875,-0.163086,0
28080,0.786621,-0.652344,-0.111328,0
28100,0.92334,-0.643066,-0.0922852,0
28120,0.923828,-0.662109,-0.13623,0
28130,0.852051,-0.64209,-0.126953,0
28150,0.897461,-0.635742,-0.0537109,0
28170,0.979004,-0.64502,-0.0581055,0
28180,0.903809,-0.588867,-0.0639648,0
28200,0.969238,-0.595703,0.00292969,0
28210,0.969727,-0.582031,0.00195312,0
28250,1.08936,-0.628906,0.116211,0
28270,1.05469,-0.619629,0.0908203,0
28290,0.9375,-0.59082,0.180664,0
28310,0.90625,-0.616211,0.203125,0
28330,0.868164,-0.6875,0.240234,0
28350,0.867676,-0.666504,0.300781,0
28370,0.861328,-0.637695,0.285645,0
28390,0.824707,-0.59375,0.26123,0
28410,0.772949,-0.592285,0.305176,0
28430,0.71875,-0.665039,0.396484,0
28450,0.634766,-0.732422,0.411133,0
28470,0.591797,-0.68457,0.359863,0
28490,0.60791,-0.588379,0.39502,0
28510,0.579102,-0.643066,0.405762,0
28530,0.538086,-0.791992,0.380371,0
28550,0.557617,-0.80957,0.461426,0
28570,0.547852,-0.800781,0.475586,0
28590,0.494629,-0.807617,0.418457,0
28610,0.46582,-0.775391,0.33252,0
28630,0.459961,-0.765625,0.29834,0
28650,0.414062,-0.82666,0.27002,0
28670,0.381836,-0.875488,0.270508,0
28690,0.381348,-0.914551,0.262695,0
28710,0.37793,-0.942871,0.196289,0
28730,0.385742,-0.93457,0.159668,0
28750,0.412109,-0.90332,0.16748,0
28770,0.439453,-0.872559,0.157227,0
28790,0.413086,-0.89209,0.0966797,0
28810,0.388672,-0.918945,0.0595703,0
28830,0.425293,-0.922363,0.0483398,0
28870,0.307617,-0.902344,-0.170898,0
28890,0.243652,-0.900391,-0.223633,0
28930,0.480469,-0.883301,-0.215332,0
28950,0.495117,-0.865234,-0.209473,0
28970,0.486328,-0.854004,-0.231445,0
28990,0.513672,-0.815918,-0.277832,0
29010,0.567871,-0.751465,-0.271484,0
29030,0.581543,-0.728516,-0.262207,0
29050,0.584473,-0.739258,-0.253418,0
29070,0.64502,-0.774414,-0.299805,0
29090,0.704102,-0.745605,-0.310547,0
29110,0.72168,-0.687012,-0.271484,0
29130,0.691895,-0.648438,-0.239258,0
29150,0.745117,-0.66748,-0.26416,0
29170,0.842285,-0.666016,-0.294434,0
29190,0.856934,-0.614746,-0.301758,0
29210,0.791992,-0.562988,-0.288574,0
29230,0.844238,-0.56543,-0.244141,0
29250,0.957031,-0.557617,-0.224609,0
29270,0.97168,-0.555664,-0.254883,0
29290,0.916504,-0.518555,-0.242676,0
29310,0.931641,-0.483887,-0.177734,0
29330,0.984375,-0.475098,-0.140137,0
29350,1.0332,-0.452148,-0.00927734,0
29370,1.07861,-0.427246,-0.0205078,0
29380,1.11719,-0.413574,0.0410156,0
29400,1.10986,-0.453125,0.108887,0
29420,1.10059,-0.521973,0.128906,0
29430,1.08105,-0.53418,0.145508,0
29450,1.05225,-0.530273,0.156738,0
29470,1.06836,-0.498047,0.189453,0
29490,1.06299,-0.499023,0.191895,0
29510,1.02734,-0.547363,0.227539,0
29530,0.987305,-0.520996,0.286621,0
29550,0.975098,-0.512207,0.288574,0
29570,0.93457,-0.53125,0.261719,0
29590,0.858887,-0.568359,0.322754,0
29610,0.787598,-0.611816,0.383789,0
29630,0.762207,-0.653809,0.348145,0
29650,0.71875,-0.644043,0.308105,0
29670,0.662109,-0.614258,0.323242,0
29690,0.595215,-0.621582,0.324707,0
29710,0.55127,-0.65332,0.266113,0
29730,0.54248,-0.674805,0.212891,0
29750,0.516113,-0.688477,0.216797,0
29770,0.435059,-0.701172,0.213379,0
29790,0.382812,-0.742676,0.193848,0
29810,0.421387,-0.734863,0.161621,0
29830,0.470703,-0.737305,0.132324,0
29850,0.490723,-0.740723,0.104004,0
29870,0.50293,-0.736816,0.0639648,0
29890,0.557129,-0.749512,0.0400391,0
29910,0.615234,-0.79834,0.0239258,0
29930,0.633789,-0.864746,-0.00488281,0
29950,0.647461,-0.894531,-0.0263672,0
29970,0.647949,-0.894043,-0.0527344,0
29990,0.661133,-0.850098,-0.0390625,0
30010,0.652344,-0.849121,-0.10791,0
30030,0.628906,-0.835938,-0.151367,0
30050,0.648438,-0.793945,-0.178223,0
30070,0.661133,-0.802734,-0.169434,0
30090,0.631348,-0.821777,-0.26123,0
30110,0.643066,-0.768066,-0.295898,0
30120,0.663574,-0.73291,-0.29541,0
30140,0.662598,-0.699707,-0.317383,0
30160,0.662598,-0.66748,-0.34082,0
30180,0.650879,-0.628906,-0.338379,0
30200,0.646484,-0.59668,-0.312012,0
30220,0.657227,-0.565918,-0.3125,0
30240,0.672363,-0.554199,-0.330078,0
30260,0.677734,-0.55127,-0.341797,0
30280,0.758789,-0.573242,-0.339355,0
30290,0.845215,-0.590332,-0.29248,0
30310,0.877441,-0.609863,-0.283203,0
30330,0.922363,-0.618164,-0.313477,0
30350,0.957031,-0.57959,-0.306641,0
30370,0.913086,-0.583008,-0.28125,0
30390,0.915527,-0.631348,-0.256836,0
30410,0.946289,-0.628418,-0.265137,0
30430,0.885742,-0.632324,-0.294922,2001
30450,0.82373,-0.585449,-0.257324,0
30470,0.811035,-0.53418,-0.220215,0
30490,0.812012,-0.491211,-0.208496,0
30510,0.785645,-0.524902,-0.219727,0
30530,0.770508,-0.55957,-0.197754,0
30550,0.765137,-0.60498,-0.190918,0
30570,0.764648,-0.652832,-0.211914,0
30590,0.746094,-0.633301,-0.202148,0
30610,0.703125,-0.557129,-0.216797,0
30630,0.689453,-0.518555,-0.245117,0
30640,0.652344,-0.527344,-0.259277,0
30660,0.61084,-0.56543,-0.275879,0
30680,0.527832,-0.584473,-0.292969,0
30700,0.429688,-0.563477,-0.203613,0
30720,0.334473,-0.523926,-0.10498,0
30740,0.365234,-0.511719,-0.10498,0
30760,0.503418,-0.52002,-0.171875,0
30780,0.637207,-0.553223,-0.19873,0
30800,0.734863,-0.599121,-0.154785,0
30820,0.766602,-0.656738,-0.10791,0
30840,0.762695,-0.674316,-0.133301,0
30860,0.798828,-0.666016,-0.144043,0
30880,0.815918,-0.666504,-0.137207,0
30900,0.786621,-0.785156,-0.157227,0
30920,0.773926,-0.875488,-0.10791,0
30940,0.777344,-0.913086,-0.0522461,0
30960,0.775391,-0.961914,-0.0654297,0
30980,0.731934,-0.996094,-0.0307617,0
31000,0.70459,-0.994141,0.0463867,0
31020,0.649902,-1.00488,0.0488281,0
31040,0.601562,-1.06934,0.046875,0
31070,0.567383,-1.12891,0.0473633,0
31090,0.540039,-1.12988,0.0693359,0
31110,0.466309,-1.13135,0.0727539,0
31130,0.402344,-1.13916,0.0439453,0
31150,0.373535,-1.12158,0.046875,0
31170,0.353027,-1.08496,0.0454102,0
31190,0.321777,-1.02539,0.0947266,0
31210,0.26416,-1.00977,0.101074,0
31230,0.253418,-1.02441,0.0693359,0
31250,0.299316,-1.04395,0.0585938,0
31270,0.30957,-1.05322,0.090332,0
31290,0.269531,-1.0542,0.133301,0
31310,0.27002,-1.05859,0.108887,0
31330,0.303223,-1.01807,0.081543,0
31350,0.265137,-1.01025,0.0620117,2000
31370,0.207031,-0.990234,0.0654297,0
31390,0.16748,-1.01904,0.0839844,0
31410,0.134277,-1.04248,0.090332,0
31430,0.121582,-0.986328,0.110352,0
31450,0.121582,-0.913086,0.128906,0
31470,0.119629,-0.88916,0.0927734,0
31490,0.123535,-0.898926,0.0678711,0
31510,0.154297,-0.918457,0.123535,0
31530,0.200684,-0.929688,0.163086,0
31550,0.244629,-0.940918,0.0991211,0
31570,0.272461,-0.922363,0.0805664,0
31590,0.358887,-0.903809,0.12793,0
31610,0.45166,-0.904297,0.103516,0
31630,0.436035,-0.913086,0.0375977,0
31650,0.428711,-0.888184,0.0751953,0
31670,0.479004,-0.868164,0.14502,0
31690,0.566895,-0.88916,0.208984,0
31710,0.617188,-0.927734,0.0859375,0
31730,0.634766,-0.915039,0.0507812,0
31750,0.694336,-0.897461,0.108398,0
31770,0.754883,-0.883301,0.115723,0
31790,0.734375,-0.879395,0.0820312,0
31810,0.746582,-0.813965,0.102539,0
31830,0.762207,-0.812988,0.118164,0
31850,0.756348,-0.816895,0.111816,0
31870,0.765137,-0.818359,0.109863,0
31890,0.782715,-0.799805,0.131836,0
31910,0.782227,-0.783203,0.150879,0
31930,0.762695,-0.804199,0.165039,0
31950,0.769531,-0.803711,0.193359,0
31970,0.795898,-0.806152,0.195801,0
31990,0.827148,-0.811035,0.192383,0
32010,0.846191,-0.815918,0.209961,0
32030,0.813477,-0.800781,0.245117,0
32050,0.774902,-0.790527,0.264648,0
32070,0.759277,-0.787598,0.272461,0
32090,0.76123,-0.791504,0.289551,0
32110,0.743652,-0.782715,0.325195,0
32130,0.686523,-0.772461,0.395996,0
32150,0.672363,-0.77002,0.430664,0
32170,0.677734,-0.787598,0.388184,0
32190,0.692871,-0.770508,0.400391,0
32210,0.72168,-0.729004,0.467773,0
32230,0.711426,-0.720703,0.486816,0
32250,0.619141,-0.783691,0.449219,0
32270,0.480469,-0.821777,0.460938,0
32290,0.331055,-0.83252,0.535156,0
32310,0.213379,-0.814941,0.57373,0
32330,0.151367,-0.854492,0.520996,0
32350,0.140625,-0.869141,0.507324,0
32370,0.109375,-0.867676,0.528809,0
32390,0.0654297,-0.847656,0.59668,0
32410,0.0737305,-0.848145,0.658203,0
32430,0.109863,-0.865723,0.639648,0
32450,0.0712891,-0.918945,0.49707,0
32470,0.0405273,-0.891113,0.41748,0
32490,0.0258789,-0.890137,0.389648,0
32510,-0.0219727,-0.885254,0.308105,0
32530,-0.0229492,-0.874023,0.224609,0
32550,-0.0229492,-0.907715,0.206543,0
32570,0.000976562,-0.959473,0.169434,0
32590,0.059082,-1.03369,0.0932617,0
32610,0.0776367,-1.03613,0.0463867,0
32630,0.128906,-1.00293,0.0200195,0
32680,0.324707,-0.994141,0.019043,0
32700,0.371094,-1.00049,0.0117188,0
32720,0.40625,-0.988281,0.00732422,0
32740,0.469238,-0.950195,-0.0131836,0
32760,0.478516,-0.948242,-0.0473633,0
32780,0.438965,-0.919434,-0.0517578,0
32800,0.432617,-0.875,-0.0361328,0
32820,0.490234,-0.864258,-0.0488281,0
32840,0.507324,-0.845703,-0.0625,0
32860,0.475098,-0.821777,-0.0742188,0
32880,0.460938,-0.790527,-0.09375,0
32900,0.575195,-0.751953,-0.114746,0
32920,0.679688,-0.754395,-0.124512,0
32940,0.638184,-0.78418,-0.0874023,0
32960,0.589355,-0.744629,-0.0366211,0
32980,0.67627,-0.718262,-0.0610352,0
33000,0.780762,-0.71582,-0.127441,0
33020,0.769043,-0.655273,-0.10498,0
33040,0.80957,-0.606445,-0.0283203,0
33060,0.960449,-0.657227,-0.0493164,0
33080,1.02588,-0.70459,-0.100586,0
33100,0.97168,-0.681152,-0.0600586,0
33120,1.00342,-0.616211,0.00488281,0
33140,1.06982,-0.666504,-0.00439453,0
33160,1.07471,-0.733887,-0.0258789,0
33180,1.04883,-0.6875,0.00537109,0
33220,1.00684,-0.684082,0.131836,0
33240,0.955566,-0.63916,0.184082,0
33260,0.92627,-0.601074,0.218262,0
33280,0.914551,-0.602539,0.231445,0
33300,0.882324,-0.599609,0.280273,0
33340,0.782715,-0.677734,0.371582,0
33360,0.724609,-0.62793,0.383301,0
33380,0.664551,-0.619629,0.356934,0
33400,0.598145,-0.630371,0.363281,0
33420,0.533691,-0.63916,0.419434,0
33440,0.485352,-0.697754,0.484863,0
33460,0.475098,-0.800781,0.456543,0
33480,0.49707,-0.836914,0.443848,0
33500,0.473633,-0.82666,0.48584,0
33520,0.421875,-0.826172,0.512695,0
33540,0.410156,-0.814453,0.464355,0
33550,0.398438,-0.786621,0.465332,0
33570,0.35498,-0.811523,0.404297,0
33590,0.317383,-0.864746,0.375,0
33610,0.317871,-0.898926,0.389648,0
33630,0.324707,-0.885742,0.272949,0
33650,0.291016,-0.911133,0.208984,0
33670,0.277832,-0.893555,0.197266,0
33680,0.277832,-0.868652,0.181641,0
33690,0.244141,-0.915039,0.0849609,0
33710,0.244141,-0.936523,-0.0942383,0
33740,0.324707,-0.911621,-0.147461,0
33750,0.365723,-0.927246,-0.164551,0
33770,0.407227,-0.915527,-0.187012,0
33790,0.45166,-0.905273,-0.202637,0
33810,0.459961,-0.89209,-0.211426,0
33830,0.473145,-0.870117,-0.233887,0
33850,0.576172,-0.802246,-0.263184,0
33870,0.56543,-0.773926,-0.256836,0
33890,0.54541,-0.761719,-0.248047,0
33910,0.567871,-0.727539,-0.251465,0
33920,0.635742,-0.70459,-0.293945,0
33930,0.661621,-0.700684,-0.276855,0
33950,0.646484,-0.635742,-0.240723,0
33970,0.721191,-0.638672,-0.188477,0
33980,0.92041,-0.629395,-0.25,0
34000,1.03369,-0.627441,-0.289062,0
34020,0.973633,-0.587402,-0.279297,0
34030,1.13428,-0.500977,-0.236816,0
34050,1.05908,-0.429688,-0.25293,0
34070,1.01123,-0.380371,-0.204102,0
34090,1.07617,-0.411621,-0.165527,0
34100,1.07422,-0.463379,-0.163086,0
34120,1.15723,-0.456543,0.000488281,0
34150,1.08594,-0.57959,0.205078,0
34170,1.07666,-0.566406,0.216309,0
34190,1.0332,-0.552734,0.225098,0
34210,0.940918,-0.549805,0.274902,0
34240,0.559082,-0.724121,0.334473,0
34260,0.524902,-0.749512,0.380371,0
34280,0.455566,-0.737305,0.400879,0
34300,0.384277,-0.744629,0.329102,0
34320,0.369141,-0.735352,0.211426,0
34340,0.390625,-0.762695,0.195312,0
34360,0.368164,-0.799805,0.217285,0
34380,0.330566,-0.80127,0.179199,0
34400,0.368164,-0.821289,0.118164,0
34420,0.459473,-0.869141,0.0170898,0
34440,0.541992,-0.899902,-0.0141602,0
34460,0.557617,-0.932617,-0.0859375,0
34480,0.583008,-0.943359,-0.156738,0
34500,0.603516,-0.891113,-0.20166,0
34510,0.560547,-0.894531,-0.219238,0
34540,0.455566,-0.902344,-0.279785,0
34560,0.449707,-0.833984,-0.299805,0
34580,0.428711,-0.790527,-0.314453,0
34600,0.421875,-0.763672,-0.294922,0
34620,0.465332,-0.749023,-0.286621,0
34630,0.525879,-0.760742,-0.307129,0
34640,0.563477,-0.757324,-0.303223,0
34670,0.655273,-0.744141,-0.304688,0
34710,0.735352,-0.712891,-0.288574,0
34720,0.741699,-0.691895,-0.27002,0
34740,0.783203,-0.674805,-0.270996,0
34760,0.836426,-0.633789,-0.263672,0
34780,0.868164,-0.638184,-0.235352,0
34800,0.846191,-0.647461,-0.210449,0
34820,0.796387,-0.644531,-0.194824,2001
34840,0.796387,-0.650391,-0.177246,0
34860,0.786621,-0.643066,-0.176758,0
34880,0.760742,-0.605469,-0.226562,0
34900,0.75,-0.58252,-0.252441,0
34920,0.750977,-0.521484,-0.213867,0
34940,0.711914,-0.411133,-0.197754,0
34960,0.645508,-0.44873,-0.209473,0
34980,0.616699,-0.547363,-0.194336,0
35000,0.575195,-0.583984,-0.182129,0
35020,0.574219,-0.583008,-0.251465,0
35040,0.564941,-0.541992,-0.205078,0
35060,0.498535,-0.514648,-0.185059,0
35080,0.427734,-0.491699,-0.165527,0
35100,0.40918,-0.519531,-0.185059,0
35120,0.421387,-0.495117,-0.178223,0
35140,0.508301,-0.526855,-0.190918,0
35160,0.661621,-0.572266,-0.180664,0
35180,0.795898,-0.616211,-0.199707,0
35200,0.796875,-0.683594,-0.159668,0
35220,0.711426,-0.749512,-0.113281,0
35240,0.738281,-0.854004,-0.0786133,0
35260,0.835449,-0.963379,-0.101074,0
35280,0.864258,-1.021,-0.0795898,0
35300,0.800293,-1.09375,-0.0498047,0
35330,0.761719,-1.12158,-0.0180664,0
35340,0.713867,-1.14111,0.0219727,0
35360,0.630371,-1.17432,0.0170898,0
35370,0.573242,-1.15918,0.027832,0
35390,0.507812,-1.14795,0.0737305,0
35410,0.438965,-1.17236,0.0952148,0
35430,0.395508,-1.14014,0.0947266,0
35450,0.360352,-1.08643,0.0927734,0
35470,0.314941,-1.06494,0.0698242,0
35490,0.286621,-1.04492,0.0722656,0
35510,0.312988,-1.00244,0.0986328,0
35530,0.369629,-1.0459,0.0771484,0
35550,0.369629,-1.05176,0.00341797,0
35570,0.348145,-0.96582,0.0302734,0
35590,0.289062,-1.01172,-0.0488281,0
35610,0.242676,-1.07422,-0.0175781,0
35630,0.126465,-0.925293,0.027832,0
35650,-0.000488281,-0.851562,0.107422,0
35670,0.0161133,-0.844727,0.100586,0
35690,0.15918,-0.902832,0.0766602,0
35710,0.267578,-0.998047,0.078125,0
35730,0.258789,-1.07324,0.0834961,0
35750,0.202148,-1.06006,0.0673828,0
35770,0.190918,-0.98877,0.0668945,0
35790,0.213379,-0.947754,0.0498047,0
35810,0.221191,-0.955078,0.0283203,0
35830,0.237305,-0.958984,0.0419922,0
35850,0.259766,-0.953613,0.0527344,0
35870,0.279297,-0.974121,0.027832,0
35890,0.316895,-0.955566,-0.00244141,0
35910,0.379395,-0.914551,0.0297852,0
35930,0.524902,-0.888184,0.0517578,0
35950,0.635742,-0.918457,-0.00292969,0
35970,0.621582,-0.953125,-0.0419922,0
35990,0.529297,-0.931641,-0.0634766,0
36010,0.472656,-0.914062,-0.0532227,0
36030,0.443848,-0.929199,0.00634766,0
36050,0.476562,-0.925781,0.0683594,0
36070,0.541504,-0.919922,0.0766602,0
36090,0.57959,-0.918457,0.0209961,0
36110,0.592773,-0.902344,0.0698242,0
36130,0.699219,-0.871582,0.179199,0
36150,0.847168,-0.925293,0.129395,0
36170,0.887695,-0.935547,0.0546875,0
36180,0.78125,-0.827148,0.065918,0
36200,0.705078,-0.757812,0.121094,0
36220,0.804199,-0.787598,0.137207,0
36240,0.865234,-0.855469,0.200684,0
36260,0.775879,-0.888184,0.182617,0
36280,0.73877,-0.850098,0.179199,0
36300,0.788574,-0.787109,0.233398,0
36320,0.807617,-0.71875,0.178711,0
36340,0.814453,-0.754395,0.0214844,0
36360,0.793457,-0.687988,0.14209,0
36380,0.746582,-0.730957,0.173828,0
36400,0.75,-0.729492,0.173828,0
36420,0.734863,-0.729492,0.157227,0
36440,0.705566,-0.783691,0.141602,0
36460,0.708984,-0.865234,0.111328,0
36480,0.665039,-0.89502,0.131836,0
36500,0.59082,-0.887207,0.165527,0
36520,0.528809,-0.879395,0.159668,0
36540,0.458496,-0.881836,0.117676,0
36560,0.402832,-0.892578,0.108398,0
36580,0.35791,-0.948242,0.134766,0
36600,0.287598,-1.01074,0.104492,0
36620,0.195312,-1.01318,0.0849609,0
36640,0.143066,-0.984863,0.0952148,0
36660,0.121094,-0.946289,0.0913086,0
36680,0.108398,-0.984863,0.078125,0
36700,0.0693359,-1.01758,0.0888672,0
36720,0.0517578,-1.01367,0.149414,0
36740,0.0566406,-0.998047,0.125,0
36760,0.0507812,-1,0.0644531,2000
36780,0.0234375,-0.955078,0.0498047,0
36800,0.00732422,-0.932129,0.0888672,0
36820,-0.012207,-0.959473,0.113281,0
36840,0.0175781,-0.963867,0.074707,0
36860,0.0932617,-1.00781,0.0830078,0
36880,0.146973,-1.00635,0.104492,0
36880,0.178711,-0.984863,0.0991211,0
36900,0.223145,-0.938965,0.0620117,0
36920,0.275879,-0.913574,0.0947266,0
36940,0.363281,-0.968262,0.124512,0
36960,0.466309,-0.989746,0.0854492,0
36980,0.506348,-0.980469,0.0410156,0
37000,0.472656,-0.935059,0.0576172,0
37020,0.526367,-0.847168,0.143555,0
37040,0.666016,-0.855957,0.160645,0
37060,0.725586,-0.886719,0.065918,0
37080,0.629883,-0.804688,0.0234375,0
37100,0.564453,-0.756348,0.065918,0
37120,0.71582,-0.794434,0.132812,0
37140,0.90625,-0.897949,0.124023,0
37160,0.852539,-0.90332,0.0717773,0
37180,0.768066,-0.795898,0.0839844,0
37200,0.858887,-0.755371,0.0898438,0
37220,0.975098,-0.802734,0.0615234,0
37240,0.960449,-0.79541,0.0957031,0
37260,0.865723,-0.77832,0.171875,0
37280,0.858398,-0.765625,0.185547,0
37300,0.909668,-0.754395,0.133789,0
37320,0.921387,-0.719727,0.148926,0
37340,0.908203,-0.689453,0.25293,0
37360,0.875977,-0.716797,0.347168,0
37380,0.839355,-0.713379,0.324219,0
37400,0.814941,-0.706543,0.290039,0
37420,0.847656,-0.682617,0.338379,0
37440,0.840332,-0.649902,0.445801,0
37460,0.838379,-0.629883,0.513672,0
37480,0.830566,-0.660645,0.490234,0
37520,0.666504,-0.677734,0.612305,0
37540,0.614746,-0.710449,0.656738,0
37560,0.623535,-0.720703,0.535156,0
37580,0.527832,-0.671875,0.51123,0
37600,0.403809,-0.741699,0.576172,0
37620,0.321777,-0.807129,0.587891,0
37640,0.255371,-0.790039,0.539062,0
37660,0.236816,-0.76709,0.521973,0
37680,0.194824,-0.769531,0.507812,0
37720,-0.0371094,-0.891602,0.509766,0
37740,0.0185547,-0.826172,0.469238,0
37760,0.129883,-0.789551,0.413086,0
37780,0.140137,-0.766602,0.358887,0
37800,0.130371,-0.804199,0.316406,0
37820,0.209473,-0.867676,0.280273,0
37840,0.297363,-0.930664,0.242188,0
37860,0.292969,-0.970215,0.175293,0
37880,0.310059,-0.971191,0.107422,0
37900,0.337402,-0.957031,0.0385742,0
37920,0.33252,-0.956543,0.0410156,0
37940,0.313477,-1.00049,0.0581055,0
37960,0.321289,-0.96875,-0.0214844,0
37980,0.362305,-0.945312,-0.113281,0
38000,0.416992,-0.911133,-0.0805664,0
38020,0.444824,-0.87793,-0.0209961,0
38040,0.487305,-0.919434,-0.0673828,0
38060,0.531738,-0.936035,-0.127441,0
38080,0.575684,-0.871094,-0.114258,0
38100,0.600586,-0.83252,-0.090332,0
38110,0.630859,-0.800293,-0.0800781,0
38130,0.653809,-0.791504,-0.124512,0
38150,0.665039,-0.764648,-0.15625,0
38170,0.664551,-0.697266,-0.115234,0
38190,0.702637,-0.655273,-0.0688477,0
38210,0.777832,-0.665039,-0.0957031,0
38230,0.786621,-0.661621,-0.138184,0
38250,0.770996,-0.601562,-0.106934,0
38270,0.833984,-0.521484,-0.0302734,0
38290,0.971191,-0.555664,-0.0556641,0
38310,0.977539,-0.585449,-0.122559,0
38330,0.961914,-0.481934,-0.0917969,0
38350,1.08887,-0.478027,-0.0361328,0
38380,1.12402,-0.538086,-0.0458984,0
38400,1.12695,-0.500977,-0.0117188,0
38420,1.14014,-0.509766,0.000976562,0
38450,1.04297,-0.53125,0.211426,0
38460,1.01025,-0.525391,0.25293,0
38480,0.980469,-0.530762,0.326172,0
38500,0.944336,-0.547852,0.385742,0
38520,0.92041,-0.519531,0.420898,0
38540,0.869629,-0.524414,0.400391,0
38560,0.810547,-0.584473,0.435059,0
38580,0.68457,-0.609863,0.563965,0
38600,0.571289,-0.607422,0.600098,0
38620,0.500488,-0.576172,0.519531,0
38640,0.431641,-0.589844,0.524414,0
38660,0.390137,-0.686035,0.603027,0
38680,0.38916,-0.677734,0.585449,0
38720,0.422852,-0.632812,0.473633,0
38740,0.376465,-0.728516,0.44873,0
38760,0.317871,-0.794434,0.444336,0
38780,0.297852,-0.842773,0.397461,0
38800,0.349609,-0.837891,0.274902,0
38840,0.356934,-0.910645,0.13623,0
38860,0.32959,-0.932129,0.0825195,0
38880,0.376953,-0.90918,0.0209961,0
38900,0.415039,-0.896973,-0.0556641,0
38920,0.393555,-0.92627,-0.108887,0
38940,0.353516,-0.927734,-0.165527,0
38960,0.373535,-0.916504,-0.214844,0
38980,0.428711,-0.885742,-0.194336,0
39000,0.466797,-0.880859,-0.208496,0
39020,0.508301,-0.877441,-0.241699,0
39040,0.555664,-0.850586,-0.245117,0
39060,0.610352,-0.800781,-0.250977,0
39080,0.666992,-0.778809,-0.283691,0
39090,0.658691,-0.754883,-0.288574,0
39110,0.631348,-0.710449,-0.246094,0
39130,0.644531,-0.656738,-0.234375,0
39150,0.696289,-0.636719,-0.238281,0
39180,1.03809,-0.365723,-0.191895,0
39210,1.13818,-0.30957,-0.155273,0
39230,1.12061,-0.271973,-0.118652,0
39250,1.13428,-0.265137,0.0180664,0
39270,1.146,-0.306152,0.000976562,0
39290,1.09863,-0.302734,0.0283203,0
39330,1.12646,-0.230469,0.0957031,0
39340,1.1416,-0.270996,0.115234,0
39360,1.11963,-0.459473,0.369629,0
39380,1.05518,-0.481445,0.361816,0
39410,0.888184,-0.481445,0.378418,0
39430,0.765625,-0.617676,0.420898,0
39450,0.68457,-0.666992,0.419434,0
39480,0.703125,-0.629395,0.375488,0
39510,0.621094,-0.785156,0.259766,0
39530,0.678711,-0.80957,0.224609,0
39550,0.671875,-0.791504,0.146973,0
39570,0.615234,-0.760742,0.0834961,0
39590,0.560059,-0.773926,0.0517578,0
39610,0.533691,-0.811523,0.0161133,0
39630,0.497559,-0.839844,-0.0195312,0
39650,0.431641,-0.86084,-0.0742188,0
39670,0.430176,-0.833496,-0.113281,0
39690,0.467773,-0.814941,-0.134277,0
39710,0.473633,-0.851074,-0.163574,0
39730,0.442871,-0.853027,-0.20459,0
39750,0.436035,-0.838379,-0.213379,0
39770,0.448242,-0.816406,-0.214355,0
39790,0.44873,-0.803711,-0.200195,0
39810,0.483398,-0.779785,-0.214844,0
39830,0.527344,-0.740234,-0.233398,0
39850,0.553711,-0.72168,-0.222656,0
39880,0.712891,-0.727539,-0.226074,0
39900,0.784668,-0.697266,-0.256348,0
39920,0.850098,-0.645508,-0.251953,0
39940,0.888184,-0.625,-0.249023,0
39960,0.894531,-0.620117,-0.273926,0
39980,0.901367,-0.570801,-0.231934,0
40000,0.887207,-0.540527,-0.23584,0
40020,0.885742,-0.568359,-0.275879,0
40040,0.860352,-0.563965,-0.251953,0
40060,0.857422,-0.529785,-0.180176,2001
40080,0.851562,-0.492676,-0.189453,0
40110,0.800781,-0.455078,-0.247559,0
40130,0.808105,-0.47168,-0.262207,0
40150,0.802246,-0.510254,-0.238281,0
40170,0.770508,-0.508789,-0.236816,0
40190,0.720703,-0.447754,-0.226074,0
40210,0.714844,-0.427246,-0.241211,0
40230,0.726074,-0.481934,-0.229004,0
40250,0.710938,-0.523438,-0.236328,0
40270,0.710938,-0.592773,-0.242188,0
40290,0.650391,-0.597168,-0.222168,0
40310,0.537598,-0.539062,-0.205078,0
40330,0.411621,-0.489258,-0.209473,0
40350,0.348145,-0.436035,-0.124023,0
40370,0.390137,-0.470215,-0.105469,0
40390,0.497559,-0.499023,-0.172852,0
40400,0.549316,-0.53125,-0.194824,0
40420,0.61084,-0.583984,-0.149902,0
40440,0.760742,-0.657227,-0.154785,0
40450,0.854004,-0.726562,-0.164062,0
40470,0.916016,-0.75293,-0.11377,0
40490,1.03418,-0.820312,-0.122559,0
40510,0.992188,-0.916992,-0.0854492,0
40530,0.851074,-0.983398,-0.0761719,0
40550,0.823242,-1.06055,-0.0600586,0
40570,0.840332,-1.11084,-0.0131836,0
40590,0.739746,-1.12305,0.0141602,0
40610,0.613281,-1.12793,0.0380859,0
40630,0.586914,-1.10742,0.0727539,0
40650,0.584473,-1.10547,0.0839844,0
40670,0.504395,-1.13232,0.0966797,0
40690,0.40918,-1.14355,0.0981445,0
40710,0.354004,-1.14746,0.144531,0
40730,0.339844,-1.125,0.14209,0
40750,0.341309,-1.07617,0.104492,0
40770,0.330566,-1.0459,0.0986328,0
40790,0.352539,-1.02051,0.114746,0
40810,0.369629,-1.04541,0.104004,0
40830,0.378906,-1.05518,0.112305,0
40850,0.397461,-1.03174,0.103516,0
40870,0.350586,-1.00293,0.0717773,0
40890,0.265625,-0.958496,0.0786133,0
40910,0.203613,-0.917969,0.0756836,2000
40930,0.178711,-0.920898,0.0454102,0
40950,0.140625,-0.917969,0.0307617,0
40970,0.0507812,-0.949707,0.0512695,0
40990,-0.00976562,-0.931152,0.0493164,0
41010,0.0112305,-0.916992,0.0678711,0
41030,0.101562,-0.935547,0.0864258,0
41050,0.160645,-0.971191,0.0893555,0
41070,0.144531,-0.97998,0.0664062,0
41090,0.119141,-0.920898,0.0205078,0
41110,0.125977,-0.868652,0.0249023,0
41130,0.181152,-0.872559,0.137207,0
41150,0.268066,-0.96875,0.219727,0
41170,0.335449,-1.01758,0.162598,0
41190,0.345703,-0.941406,0.0644531,0
41210,0.388184,-0.85498,0.065918,0
41230,0.47998,-0.83252,0.081543,0
41250,0.547852,-0.937988,0.0625,0
41270,0.541504,-0.979492,0.0688477,0
41290,0.515137,-0.950684,0.123535,0
41310,0.66748,-0.922363,0.127441,0
41330,0.802246,-0.94873,0.0551758,0
41350,0.77002,-0.897949,0.0253906,0
41370,0.703613,-0.835938,0.0405273,0
41390,0.865234,-0.845215,0.0175781,0
41410,0.941406,-0.871094,-0.00585938,0
41430,0.86377,-0.830078,0.0244141,0
41450,0.82373,-0.791992,0.0336914,0
41470,0.887207,-0.787598,0.0234375,0
41490,0.964355,-0.746582,0.03125,0
41510,0.969238,-0.717773,0.0673828,0
41530,0.903809,-0.744629,0.155762,0
41550,0.808594,-0.824219,0.247559,0
41570,0.745117,-0.899414,0.270508,0
41590,0.748535,-0.881836,0.284668,0
41610,0.800293,-0.804688,0.276855,0
41630,0.827148,-0.735352,0.281738,0
41650,0.799805,-0.724121,0.309082,0
41670,0.733887,-0.742188,0.396484,0
41690,0.671875,-0.774902,0.498047,0
41710,0.640625,-0.810059,0.463867,0
41730,0.651367,-0.806152,0.466309,0
41750,0.632324,-0.774902,0.552734,0
41770,0.503906,-0.855957,0.611816,0
41790,0.361816,-0.847168,0.624512,0
41810,0.300293,-0.737305,0.646484,0
41830,0.317383,-0.663574,0.625,0
41850,0.291992,-0.655762,0.556152,0
41870,0.224609,-0.70752,0.599609,0
41890,0.192871,-0.798828,0.640137,0
41930,0.226074,-0.897949,0.50293,0
41950,0.243164,-0.873535,0.472168,0
41970,0.203613,-0.858887,0.453125,0
41990,0.134766,-0.854492,0.371094,0
42010,0.123047,-0.876953,0.324707,0
42030,0.0825195,-0.935547,0.0961914,0
42050,0.0380859,-0.938477,0.00976562,0
42060,-0.0253906,-0.954102,-0.00634766,0
42060,0.00683594,-0.890137,0.0209961,0
42090,0.26123,-0.871094,0.0478516,0
42110,0.347656,-0.891113,-0.0146484,0
42130,0.373535,-0.941895,-0.0200195,0
42150,0.408691,-0.967285,-0.0131836,0
42170,0.455078,-0.955078,-0.00537109,0
42190,0.501465,-0.904785,-0.0102539,0
42210,0.521484,-0.837402,-0.0419922,0
42230,0.54541,-0.783203,-0.0551758,0
42250,0.625977,-0.775391,-0.0512695,0
42270,0.71875,-0.72168,-0.0727539,0
42290,0.759277,-0.732422,-0.0629883,0
42310,0.777832,-0.729004,-0.0151367,0
42330,0.842773,-0.69043,-0.00585938,0
42350,0.969727,-0.713379,-0.0620117,0
42370,1.08301,-0.706055,-0.0874023,0
42390,1.09912,-0.625,-0.0512695,0
42410,1.08691,-0.545898,-0.019043,0
42430,1.11621,-0.53418,-0.0209961,0
42440,1.16064,-0.525391,-0.0415039,0
42460,1.14355,-0.486816,-0.0292969,0
42480,1.10986,-0.461426,0.043457,0
42500,1.11035,-0.469727,0.0795898,0
42530,1.08496,-0.464355,0.0952148,0
42550,1.07861,-0.44043,0.172852,0
42570,1.07227,-0.473633,0.23877,0
42590,1.04492,-0.513184,0.274902,0
42610,1.00049,-0.541992,0.306641,0
42630,0.981934,-0.557129,0.397461,0
42650,0.940918,-0.60791,0.492676,0
42670,0.877441,-0.592285,0.443359,0
42690,0.817383,-0.515137,0.415039,0
42710,0.723145,-0.519531,0.533203,0
42730,0.602539,-0.588867,0.582031,0
42750,0.484375,-0.637207,0.521484,0
42770,0.418457,-0.680664,0.535645,0
42790,0.34375,-0.78418,0.561035,0
42810,0.211426,-0.834473,0.550293,0
42830,0.124023,-0.785645,0.510254,0
42850,0.138672,-0.769043,0.460449,0
42870,0.172852,-0.796387,0.432617,0
42890,0.229492,-0.812988,0.385742,0
42910,0.300293,-0.838867,0.306641,0
42930,0.34668,-0.914551,0.207031,0
42950,0.322754,-0.988281,0.182129,0
42970,0.314941,-1.00732,0.12793,0
42990,0.384766,-0.996094,0.0078125,0
43010,0.419434,-0.961914,-0.09375,0
43030,0.365234,-0.952637,-0.130371,0
43050,0.319336,-0.96875,-0.142578,0
43070,0.322266,-0.963379,-0.192871,0
43090,0.331055,-0.915039,-0.22168,0
43110,0.352539,-0.881348,-0.225098,0
43130,0.406738,-0.858887,-0.212891,0
43150,0.459961,-0.822266,-0.205566,0
43170,0.50293,-0.791992,-0.21875,0
43180,0.560547,-0.773438,-0.248047,0
43200,0.601562,-0.733398,-0.231934,0
43210,0.640625,-0.641113,-0.226074,0
43230,0.71582,-0.598145,-0.244141,0
43250,0.771484,-0.549316,-0.208496,0
43270,0.791016,-0.564941,-0.161133,0
43290,0.848145,-0.57373,-0.213867,0
43300,0.980957,-0.523926,-0.229004,0
43330,1.01758,-0.46875,-0.174316,0
43370,1.11572,-0.357422,-0.0825195,0
43390,1.15625,-0.352051,0.0366211,0
43410,1.16895,-0.365723,0.0678711,0
43430,1.24512,-0.297852,0.117188,0
43470,1.02881,-0.38916,0.283691,0
43480,0.850586,-0.572754,0.376465,0
43500,0.704102,-0.405762,0.493652,0
43520,0.520508,-0.51416,0.572754,0
43540,0.472656,-0.621582,0.580078,0
43560,0.48584,-0.647949,0.483398,0
43580,0.47998,-0.589355,0.398438,0
43600,0.365234,-0.657715,0.352539,0
43620,0.290527,-0.761719,0.343262,0
43640,0.378906,-0.781738,0.314453,0
43660,0.491211,-0.739746,0.260742,0
43680,0.51123,-0.756836,0.190918,0
43700,0.51123,-0.789062,0.13623,0
43720,0.521484,-0.902832,0.0737305,0
43740,0.520996,-0.969238,-0.00341797,0
43760,0.584961,-0.95752,-0.0537109,0
43780,0.668945,-0.942383,-0.126465,0
43800,0.689453,-0.910645,-0.191895,0
43820,0.685059,-0.839355,-0.193848,0
43840,0.668457,-0.827637,-0.194824,0
43860,0.649414,-0.852539,-0.241211,0
43880,0.637207,-0.838379,-0.265625,0
43900,0.625,-0.803711,-0.255859,0
43920,0.616699,-0.739258,-0.280273,0
43940,0.608887,-0.657227,-0.307129,0
43960,0.612305,-0.639648,-0.291016,0
43980,0.630371,-0.615234,-0.26416,0
44000,0.656738,-0.630859,-0.29248,0
44020,0.685547,-0.62207,-0.286133,0
44040,0.73584,-0.595215,-0.257324,0
44060,0.770508,-0.627441,-0.24707,0
44080,0.783691,-0.609863,-0.278809,0
44100,0.811035,-0.595215,-0.254395,0
44120,0.838379,-0.600098,-0.202637,0
44120,0.831543,-0.600586,-0.205078,0
44170,0.833496,-0.561035,-0.168457,0
44230,0.722656,-0.510742,-0.154297,0
44250,0.672852,-0.554199,-0.223633,0
44270,0.65625,-0.578125,-0.177246,0
44290,0.617188,-0.614258,-0.159668,0
44310,0.586426,-0.59082,-0.164062,0
44330,0.577637,-0.516602,-0.134277,0
44350,0.629883,-0.46875,-0.112305,0
44370,0.661621,-0.494141,-0.158203,0
44390,0.608398,-0.533691,-0.189941,0
44410,0.695312,-0.555664,-0.17334,0
44430,0.823242,-0.619141,-0.0942383,0
44450,0.85791,-0.802734,-0.158691,0
44470,1.03711,-0.895508,-0.183594,0
44490,1.32129,-0.860352,-0.146484,0
44510,1.35986,-0.928711,-0.145508,0
44530,1.14893,-0.941895,-0.15918,0
44550,0.986328,-1.03174,-0.0581055,0
44570,0.886719,-0.97998,-0.0664062,0
44590,0.814941,-0.875977,-0.0878906,0
44610,0.787598,-0.819336,-0.090332,0
44620,0.788574,-0.786621,-0.090332,0
44640,0.778809,-0.772949,-0.0854492,0
44660,0.752441,-0.748535,-0.0634766,0
44690,0.69043,-0.666504,-0.145996,0
44710,0.705566,-0.592285,-0.13916,0
44730,0.701172,-0.530273,-0.161133,0
44750,0.686523,-0.506836,-0.22998,2001
44770,0.670898,-0.459961,-0.243652,0
44790,0.638184,-0.458008,-0.214844,0
44810,0.566406,-0.503418,-0.25,0
44830,0.535156,-0.489746,-0.288086,0
44850,0.568359,-0.385742,-0.270996,0
44870,0.59375,-0.34375,-0.259277,0
44890,0.60791,-0.381348,-0.259277,0
44910,0.600586,-0.428711,-0.264648,0
44930,0.633301,-0.448242,-0.231934,0
44950,0.658691,-0.451172,-0.203613,0
44970,0.606934,-0.464844,-0.202637,0
44990,0.541016,-0.447754,-0.196289,0
45010,0.493652,-0.437012,-0.183105,0
45030,0.458984,-0.45459,-0.141602,0
45050,0.456055,-0.487793,-0.114746,0
45070,0.569824,-0.508301,-0.0864258,0
45090,0.708984,-0.544922,-0.115723,0
45110,0.721191,-0.605957,-0.128906,0
45130,0.691406,-0.661133,-0.0952148,0
45150,0.818848,-0.731934,-0.0693359,0
45170,0.967285,-0.796875,-0.0849609,0
45190,0.958496,-0.874023,-0.103516,0
45210,0.895508,-0.917969,-0.0825195,0
45230,0.897461,-0.924805,-0.0722656,0
45250,0.889648,-0.952637,-0.0332031,0
45270,0.798828,-1.03271,0.0170898,0
45290,0.672363,-1.10547,-0.00292969,0
45310,0.646484,-1.13135,0.00195312,0
45330,0.658203,-1.12061,0.0488281,0
45350,0.60791,-1.13428,0.0786133,0
45370,0.503418,-1.16113,0.0776367,0
45410,0.384766,-1.12061,0.130859,0
45430,0.36084,-1.10547,0.118164,0
45450,0.312012,-1.08936,0.0810547,0
45470,0.244141,-1.07031,0.0922852,0
45490,0.196289,-1.0293,0.122559,0
45510,0.194336,-1.00781,0.122559,0
45530,0.202637,-1.03711,0.0996094,0
45550,0.177246,-1.0293,0.074707,0
45570,0.11377,-1.01074,0.0698242,2000
45590,0.081543,-0.987305,0.0771484,0
45610,0.0976562,-0.980957,0.0615234,0
45630,0.107422,-0.984863,0.0834961,0
45650,0.124023,-0.952637,0.0454102,0
45670,0.157227,-0.941895,-0.0078125,0
45690,0.187988,-0.942383,-0.0439453,0
45710,0.185059,-0.947266,-0.0302734,0
45730,0.155273,-0.971191,-0.0239258,0
45750,0.143066,-0.972656,-0.0136719,0
45770,0.171875,-0.941406,0.0288086,0
45790,0.203613,-0.914062,0.0751953,0
45810,0.256348,-0.871094,0.0913086,0
45830,0.322754,-0.881836,0.0610352,0
45850,0.413086,-0.966309,0.0483398,0
45870,0.457031,-1.05371,0.0610352,0
45890,0.415039,-1.09863,0.115234,0
45910,0.425293,-1.05029,0.108887,0
45930,0.558105,-0.953125,0.0800781,0
45950,0.646973,-0.932129,0.046875,0
45970,0.62207,-0.904785,0.0351562,0
45990,0.611816,-0.876465,0.0830078,0
46010,0.708984,-0.915527,0.117676,0
46030,0.774414,-0.97998,0.0961914,0
46050,0.750977,-0.980957,0.0673828,0
46070,0.794922,-0.960449,0.0893555,0
46090,0.866211,-0.9375,0.102051,0
46110,0.90332,-0.932129,0.11084,0
46130,0.882812,-0.890625,0.123047,0
46150,0.837891,-0.831055,0.142578,0
46170,0.816406,-0.816406,0.180664,0
46190,0.82666,-0.816406,0.220215,0
46210,0.817383,-0.830566,0.241699,0
46230,0.774902,-0.798828,0.306641,0
46250,0.730469,-0.768555,0.35791,0
46270,0.728027,-0.784668,0.392578,0
46290,0.71875,-0.743652,0.470703,0
46310,0.664062,-0.69873,0.493164,0
46330,0.599609,-0.719727,0.476562,0
46350,0.558594,-0.730469,0.487305,0
46370,0.511719,-0.769043,0.602051,0
46390,0.40625,-0.822266,0.630371,0
46410,0.306152,-0.786133,0.600098,0
46430,0.265625,-0.742676,0.572754,0
46450,0.212402,-0.781738,0.596191,0
46470,0.206543,-0.873535,0.672852,0
46490,0.237793,-0.837891,0.629395,0
46510,0.192871,-0.818359,0.555176,0
46530,0.0825195,-0.759766,0.505371,0
46550,0.00683594,-0.768066,0.512207,0
46570,-0.00195312,-0.814941,0.469238,0
46590,0.0732422,-0.844238,0.456055,0
46610,0.128418,-0.831055,0.436523,0
46630,0.122559,-0.82373,0.380859,0
46650,0.161621,-0.859863,0.318848,0
46670,0.199707,-0.885742,0.297363,0
46690,0.189941,-0.899902,0.246094,0
46710,0.208984,-0.928711,0.199219,0
46730,0.279785,-0.931152,0.16748,0
46750,0.323242,-0.92627,0.103027,0
46770,0.304688,-0.956055,0.0493164,0
46790,0.263184,-0.948242,-0.0146484,0
46810,0.267578,-0.936523,-0.065918,0
46830,0.311035,-0.954102,-0.0849609,0
46850,0.33252,-0.990723,-0.0888672,0
46870,0.37207,-0.969238,-0.0986328,0
46890,0.431152,-0.926758,-0.120605,0
46910,0.479492,-0.890625,-0.10498,0
46930,0.491699,-0.887695,-0.0683594,0
46950,0.525391,-0.84668,-0.0615234,0
46970,0.625,-0.780273,-0.0771484,0
46990,0.740723,-0.711914,-0.09375,0
47010,0.73877,-0.665039,-0.0595703,0
47030,0.760254,-0.620117,-0.0317383,0
47050,0.813965,-0.557617,-0.0483398,0
47070,0.89502,-0.538574,-0.0546875,0
47090,0.958008,-0.537598,-0.0541992,0
47110,1.01953,-0.554688,-0.0253906,0
47140,1.06201,-0.529785,-0.0605469,0
47160,1.06543,-0.479492,-0.0551758,0
47180,1.12793,-0.442383,0.0107422,0
47200,1.1333,-0.43457,0.0327148,0
47240,1.10742,-0.415527,0.211914,0
47260,1.0874,-0.432129,0.30127,0
47280,1.04492,-0.463867,0.342285,0
47300,1.01221,-0.471191,0.346191,0
47320,1.03809,-0.469238,0.419922,0
47340,1.06592,-0.45459,0.462891,0
47360,1.104,-0.458984,0.474609,0
47380,1.08691,-0.467773,0.493652,0
47400,1.01074,-0.48291,0.532227,0
47420,0.934082,-0.569336,0.555664,0
47440,0.858398,-0.628418,0.587402,0
47460,0.758301,-0.581543,0.605469,0
47480,0.687012,-0.553711,0.590332,0
47500,0.605469,-0.59082,0.578125,0
47520,0.522461,-0.605957,0.584961,0
47540,0.385742,-0.600586,0.583496,0
47560,0.32373,-0.5625,0.618652,0
47580,0.293945,-0.563477,0.561035,0
47600,0.213867,-0.599121,0.445312,0
47630,0.119629,-0.614258,0.42627,0
47650,0.169434,-0.611328,0.343262,0
47670,0.170898,-0.674316,0.222656,0
47690,0.187012,-0.712402,0.229004,0
47710,0.260254,-0.782227,0.262207,0
47730,0.304199,-0.853516,0.179688,0
47750,0.487305,-0.984863,0.034668,0
47780,0.529297,-0.95166,-0.081543,0
47800,0.585938,-0.94043,-0.0683594,0
47820,0.583496,-0.92627,-0.0981445,0
47840,0.57373,-0.872559,-0.155762,0
47860,0.568359,-0.818359,-0.165039,0
47880,0.571289,-0.790039,-0.162598,0
47900,0.59082,-0.771973,-0.181152,0
47920,0.547363,-0.766113,-0.199219,0
47940,0.541504,-0.672363,-0.177246,0
47960,0.624023,-0.654785,-0.129395,0
47980,0.69873,-0.649414,-0.131836,0
48000,0.699707,-0.619141,-0.147461,0
48020,0.725098,-0.534668,-0.0996094,0
48040,0.850098,-0.536621,-0.111328,0
48060,0.952148,-0.549316,-0.15625,0
48080,0.946777,-0.546875,-0.146484,0
48080,1.00195,-0.498047,-0.104492,0
48120,1.10498,-0.373535,-0.0561523,0
48140,1.19678,-0.428711,-0.0649414,0
48190,1.20947,-0.413086,0.00195312,0
48200,1.19434,-0.387207,0.0244141,0
48220,1.18604,-0.37207,0.133301,0
48240,1.15771,-0.409668,0.214355,0
48250,1.08154,-0.40625,0.236816,0
48250,1.04883,-0.358398,0.253418,0
48270,1.02441,-0.358398,0.376953,0
48290,0.947266,-0.365723,0.529297,0
48300,0.867188,-0.362305,0.557617,0
48320,0.873047,-0.320312,0.504395,0
48340,0.867676,-0.367676,0.57373,0
48360,0.772461,-0.528809,0.638672,0
48380,0.484863,-0.537598,0.446777,0
48400,0.516113,-0.519531,0.388184,0
48420,0.502441,-0.553711,0.358398,0
48440,0.424805,-0.62207,0.254883,0
48460,0.378906,-0.680664,0.172852,0
48480,0.407227,-0.776855,0.158203,0
48500,0.444336,-0.819336,0.0864258,0
48520,0.442383,-0.803711,-0.0268555,0
48540,0.418457,-0.79834,-0.00488281,0
48560,0.470703,-0.837891,0.0136719,0
48580,0.527832,-0.849609,-0.043457,0
48600,0.501953,-0.84082,-0.0942383,0
48620,0.479004,-0.853027,-0.12207,0
48640,0.527344,-0.88916,-0.101562,0
48660,0.605469,-0.887695,-0.120117,0
48680,0.629395,-0.834961,-0.185059,0
48700,0.615234,-0.806152,-0.189941,0
48720,0.629883,-0.797852,-0.163086,0
48740,0.688477,-0.791504,-0.158691,0
48760,0.738281,-0.773438,-0.214355,0
48780,0.745117,-0.760254,-0.246582,0
48800,0.724609,-0.737793,-0.249023,0
48820,0.75293,-0.711914,-0.234863,0
48840,0.77832,-0.666016,-0.234863,0
48860,0.778809,-0.653809,-0.234863,0
48880,0.759277,-0.646973,-0.262207,0
48920,0.793457,-0.580078,-0.222168,0
48940,0.804688,-0.555176,-0.24707,0
48960,0.821777,-0.561035,-0.257812,0
48980,0.837402,-0.54248,-0.229492,0
49000,0.863281,-0.577637,-0.228516,2001
49020,0.831055,-0.627441,-0.176758,0
49040,0.849609,-0.612793,-0.195801,0
49060,0.858887,-0.550781,-0.250488,0
49080,0.836914,-0.537109,-0.249023,0
49100,0.816895,-0.484863,-0.201172,0
49120,0.791016,-0.470215,-0.224609,0
49140,0.745117,-0.491211,-0.21582,0
49160,0.709473,-0.523438,-0.224609,0
49180,0.709473,-0.557129,-0.233398,0
49200,0.675781,-0.540039,-0.184082,0
49230,0.513184,-0.507324,-0.157715,0
49250,0.478027,-0.448242,-0.0883789,0
49270,0.51123,-0.430664,-0.081543,0
49280,0.511719,-0.447266,-0.14502,0
49300,0.510254,-0.472656,-0.160156,0
49320,0.59375,-0.495117,-0.100586,0
49340,0.694824,-0.507812,-0.0527344,0
49360,0.712891,-0.576172,-0.111328,0
49380,0.724121,-0.651367,-0.152344,0
49400,0.851562,-0.693359,-0.0522461,0
49420,0.91748,-0.813965,-0.0175781,0
49440,0.889648,-0.943848,-0.0507812,0
49460,0.897461,-0.978516,-0.0839844,0
49480,0.976562,-0.921387,-0.00292969,0
49500,0.92627,-0.95459,0.0546875,0
49520,0.817871,-1.04248,0.0410156,0
49540,0.787598,-1.03662,0.0932617,0
49560,0.739258,-1.0083,0.121094,0
49580,0.654297,-1.03418,0.103516,0
49600,0.596191,-1.06934,0.127441,0
49620,0.54541,-1.08203,0.169434,0
49640,0.439453,-1.08203,0.199707,0
49660,0.348633,-1.08643,0.220215,0
49680,0.333496,-1.05762,0.23877,0
49700,0.339844,-1.01953,0.21582,0
49720,0.32959,-1.04248,0.241699,0
49740,0.333496,-1.04492,0.259766,0
49760,0.381836,-1.01123,0.238281,0
49780,0.407715,-1.00293,0.178711,0
49800,0.380859,-0.958008,0.142578,0
49820,0.334473,-0.973633,0.112305,0
49840,0.253418,-0.991211,0.155273,0
49860,0.157227,-0.992676,0.164551,0
49880,0.0961914,-0.98291,0.124512,2000
49900,0.0654297,-0.916016,0.151367,0
49920,0.0737305,-0.90918,0.162598,0
49940,0.160645,-0.901855,0.187988,0
49960,0.223145,-0.945312,0.149414,0
49980,0.203125,-0.981445,0.152832,0
50000,0.177734,-0.982422,0.172852,0
50020,0.210938,-0.922852,0.182617,0
50060,0.361816,-0.883789,0.150879,0
50060,0.339355,-0.893066,0.160156,0
50080,0.359863,-0.871582,0.190918,0
50100,0.503906,-0.847168,0.182129,0
50120,0.587891,-0.864746,0.147461,0
50140,0.550293,-0.893555,0.0957031,0
50160,0.602051,-0.927734,0.111816,0
50180,0.799805,-0.958496,0.145996,0
50200,0.908203,-1.01172,0.105469,0
50220,0.759277,-0.875,0.126953,0
50240,0.574219,-0.720703,0.133789,0
50260,0.572754,-0.745117,0.129395,0
50280,0.693848,-0.802734,0.169922,0
50300,0.740234,-0.833984,0.211426,0
50320,0.693848,-0.833984,0.204102,0
50340,0.741699,-0.777344,0.180664,0
50360,0.82959,-0.712891,0.199707,0
50380,0.819824,-0.716797,0.210938,0
50400,0.757324,-0.716797,0.189941,0
50420,0.739746,-0.706055,0.21875,0
50460,0.881836,-0.692383,0.300781,0
50470,0.892578,-0.749512,0.280762,0
50490,0.85791,-0.78418,0.319824,0
50510,0.820312,-0.79541,0.402344,0
50530,0.795898,-0.774902,0.435547,0
50550,0.779297,-0.720215,0.403809,0
50570,0.797363,-0.637207,0.434082,0
50590,0.800293,-0.622559,0.517578,0
50610,0.712402,-0.675293,0.525879,0
50630,0.671387,-0.678711,0.568359,0
50650,0.652832,-0.65918,0.619141,0
50670,0.641602,-0.655273,0.618164,0
50690,0.563477,-0.668945,0.594238,0
50710,0.483398,-0.677734,0.625977,0
50730,0.473145,-0.671875,0.638184,0
50750,0.459473,-0.699219,0.594238,0
50770,0.371094,-0.71875,0.583008,0
50790,0.258789,-0.717285,0.603516,0
50810,0.206543,-0.752441,0.5625,0
50830,0.233887,-0.74707,0.525391,0
50850,0.233398,-0.717285,0.508301,0
50870,0.145508,-0.761719,0.47168,0
50890,0.0576172,-0.823242,0.483398,0
50910,0.0737305,-0.849609,0.46582,0
50930,0.117188,-0.889648,0.432617,0
50950,0.135254,-0.885742,0.418457,0
50970,0.186523,-0.853027,0.415527,0
50990,0.209473,-0.869629,0.371582,0
51010,0.20166,-0.915039,0.337891,0
51030,0.237793,-0.942383,0.315918,0
51050,0.40625,-0.904785,0.0776367,0
51070,0.360352,-0.920898,0.0512695,0
51090,0.360352,-0.916992,0.0673828,0
51110,0.406738,-0.955566,0.0581055,0
51130,0.42041,-0.969727,-0.00146484,0
51150,0.373535,-0.931641,-0.0644531,0
51170,0.351562,-0.891602,-0.0927734,0
51190,0.368164,-0.85498,-0.0708008,0
51210,0.411133,-0.836914,-0.0258789,0
51230,0.442871,-0.832031,-0.0415039,0
51250,0.433105,-0.833984,-0.0678711,0
51270,0.48291,-0.832031,-0.0126953,0
51290,0.67041,-0.789062,-0.0429688,0
51310,0.688477,-0.789551,-0.0395508,0
51330,0.631836,-0.835449,-0.0385742,0
51350,0.679688,-0.729004,0.0517578,0
51370,0.959473,-0.754395,-0.0229492,0
51390,0.852051,-0.730469,-0.0317383,0
51410,0.79541,-0.642578,0.0292969,0
51430,0.964844,-0.648926,0.0654297,0
51450,1.09473,-0.684082,0.0649414,0
51470,0.995605,-0.664062,0.0478516,0
51490,0.943359,-0.571777,0.124023,0
51510,1.05469,-0.57373,0.208496,0
51530,1.1084,-0.611816,0.183594,0
51550,1.05615,-0.570801,0.150879,0
51570,1.00537,-0.501465,0.155762,0
51590,1.0249,-0.505859,0.189453,0
51610,1.02246,-0.518555,0.233398,0
51620,0.922363,-0.559082,0.353027,0
51630,0.902344,-0.585449,0.367676,0
51650,0.911133,-0.55127,0.370117,0
51670,0.931152,-0.52002,0.414551,0
51690,0.921387,-0.495117,0.463379,0
51710,0.86084,-0.493652,0.48877,0
51730,0.782227,-0.508789,0.501953,0
51750,0.724609,-0.571289,0.560059,0
51770,0.630859,-0.594238,0.598633,0
51790,0.544434,-0.544434,0.543457,0
51810,0.55127,-0.541992,0.457031,0
51830,0.536621,-0.59082,0.51416,0
51850,0.438965,-0.701172,0.594727,0
51870,0.413574,-0.806152,0.623535,0
51890,0.402832,-0.896973,0.574219,0
51910,0.352539,-0.888672,0.528809,0
51930,0.314453,-0.80957,0.52832,0
51950,0.274902,-0.787109,0.472168,0
51970,0.296387,-0.788086,0.416016,0
51990,0.300293,-0.729492,0.371582,0
52010,0.239258,-0.702148,0.387695,0
52030,0.146973,-0.743164,0.325684,0
52050,0.132324,-0.85791,0.225586,0
52070,0.233398,-0.910645,0.170898,0
52090,0.269531,-0.931152,0.151367,0
52110,0.236816,-0.953613,0.0639648,0
52110,0.404785,-0.939453,-0.0678711,0
52130,0.401855,-0.97168,-0.154785,0
52150,0.425781,-0.971191,-0.136719,0
52160,0.581055,-0.884277,-0.13623,0
52180,0.610352,-0.86084,-0.196777,0
52200,0.607422,-0.833008,-0.205566,0
52220,0.617188,-0.800293,-0.200684,0
52240,0.629883,-0.746582,-0.218262,0
52260,0.651367,-0.708496,-0.213379,0
52280,0.693848,-0.667969,-0.199219,0
52300,0.736816,-0.630371,-0.227539,0
52320,0.71875,-0.565918,-0.239746,0
52340,0.714844,-0.512207,-0.216797,0
52360,0.798828,-0.499512,-0.179688,0
52380,0.865234,-0.486328,-0.213867,0
52400,0.871582,-0.424805,-0.225586,0
52420,0.927734,-0.376465,-0.147949,0
52440,1.02344,-0.405762,-0.149902,0
52460,1.02979,-0.415039,-0.175781,0
52480,0.991699,-0.34668,-0.135742,0
52500,1.04053,-0.306152,-0.0712891,0
52510,1.12207,-0.344727,-0.0698242,0
52530,1.14307,-0.31543,-0.0239258,0
52540,1.19482,-0.291016,0.0947266,0
52560,1.2915,-0.385254,0.135254,0
52610,0.95752,-0.450684,0.451172,0
52620,0.93457,-0.496582,0.500977,0
52640,0.877441,-0.559082,0.47168,0
52660,0.843262,-0.568848,0.630371,0
52680,0.707031,-0.549805,0.660156,0
52700,0.589355,-0.55127,0.560547,0
52720,0.53125,-0.54248,0.496094,0
52740,0.453125,-0.588867,0.493164,0
52760,0.315918,-0.609863,0.479004,0
52780,0.227539,-0.55957,0.383301,0
52800,0.259277,-0.57666,0.336914,0
52820,0.287109,-0.663574,0.237305,0
52840,0.285645,-0.831543,0.131836,0
52860,0.310059,-0.874512,0.137207,0
52880,0.341309,-0.828125,0.123047,0
52900,0.354004,-0.845703,0.0351562,0
52920,0.40625,-0.836914,-0.0644531,0
52940,0.501953,-0.827148,-0.0800781,0
52960,0.548828,-0.865234,-0.0561523,0
52980,0.569824,-0.916992,-0.0795898,0
52990,0.583496,-0.896484,-0.140137,0
53010,0.585938,-0.896484,-0.201172,0
53030,0.604004,-0.887695,-0.20459,0
53050,0.616211,-0.868164,-0.221191,0
53060,0.65918,-0.817871,-0.244141,0
53090,0.695801,-0.71582,-0.305664,0
53110,0.69043,-0.703613,-0.327637,0
53130,0.713867,-0.674316,-0.371094,0
53150,0.719727,-0.631836,-0.372559,0
53170,0.71582,-0.574707,-0.36377,0
53190,0.722656,-0.564453,-0.36084,0
53200,0.70752,-0.557129,-0.365234,0
53210,0.692871,-0.539551,-0.367188,0
53230,0.692871,-0.538086,-0.379395,0
53250,0.727051,-0.540039,-0.367188,0
53260,0.757324,-0.495117,-0.321777,0
53280,0.828613,-0.482422,-0.333984,0
53300,0.868164,-0.603516,-0.406738,0
53320,0.878418,-0.718262,-0.317383,0
53340,0.911621,-0.643555,-0.248535,0
53360,0.895508,-0.548828,-0.26416,0
53380,0.81543,-0.468262,-0.26416,0
53400,0.773438,-0.48291,-0.187988,0
53420,0.782227,-0.531738,-0.208984,0
53440,0.843262,-0.624512,-0.237305,0
53460,0.856445,-0.705078,-0.189453,2001
53480,0.808105,-0.709961,-0.169922,0
53500,0.805176,-0.663574,-0.205078,0
53520,0.821289,-0.630859,-0.275391,0
53540,0.777344,-0.622559,-0.250977,0
53560,0.73877,-0.628906,-0.261719,0
53580,0.826172,-0.65625,-0.30957,0
53600,0.850098,-0.637207,-0.270508,0
53620,0.806152,-0.588379,-0.276855,0
53640,0.776855,-0.552734,-0.291504,0
53660,0.745117,-0.562012,-0.287109,0
53680,0.722168,-0.576172,-0.27832,0
53700,0.69043,-0.566895,-0.271973,0
53720,0.648438,-0.564453,-0.261719,0
53740,0.594238,-0.569824,-0.239258,0
53760,0.516602,-0.543945,-0.256348,0
53780,0.470215,-0.471191,-0.172852,0
53800,0.447266,-0.424805,-0.0849609,0
53820,0.487793,-0.481445,-0.126953,0
53840,0.589844,-0.491211,-0.209961,0
53860,0.643066,-0.444336,-0.197754,0
53880,0.655762,-0.484863,-0.129395,0
53900,0.678711,-0.579102,-0.209473,0
53920,0.786621,-0.653809,-0.290039,0
53940,0.84082,-0.694336,-0.228027,0
53960,0.783691,-0.766113,-0.206543,0
53980,0.773438,-0.85498,-0.242676,0
54000,0.830566,-0.879883,-0.243164,0
54020,0.807617,-0.902832,-0.190918,0
54040,0.718262,-0.990723,-0.159668,0
54060,0.643555,-1.05811,-0.135742,0
54080,0.629883,-1.04688,-0.078125,0
54100,0.587891,-1.08789,-0.0732422,0
54120,0.498047,-1.18457,-0.0683594,0
54140,0.433105,-1.1958,-0.0356445,0
54160,0.384277,-1.19922,-0.0131836,0
54180,0.300781,-1.23877,-0.00878906,0
54200,0.237793,-1.25391,-0.00634766,0
54220,0.189941,-1.19336,0.00732422,0
54240,0.166016,-1.13232,0.0307617,0
54260,0.164062,-1.08594,0.0405273,0
54280,0.193359,-1.06104,0.046875,0
54300,0.240234,-1.02881,0.0600586,0
54320,0.217285,-1.03662,0.0429688,2000
54340,0.179199,-1.02979,0.0405273,0
54360,0.149902,-1.00244,0.0249023,0
54380,0.143066,-0.994141,0.0297852,0
54400,0.119141,-1.00635,-0.00830078,0
54420,0.11377,-0.962891,0.0244141,0
54440,0.146484,-0.910156,0.0556641,0
54460,0.179199,-0.908203,0.0234375,0
54480,0.178711,-0.922363,-0.0126953,0
54500,0.180176,-0.917969,0.0102539,0
54520,0.204102,-0.895996,0.0244141,0
54540,0.233887,-0.855957,0.00732422,0
54560,0.273926,-0.843262,0.0161133,0
54580,0.338379,-0.89209,0.0527344,0
54600,0.388184,-0.958008,0.0581055,0
54620,0.375,-0.955078,0.0507812,0
54640,0.401855,-0.928711,0.0478516,0
54660,0.562988,-0.921875,0.0351562,0
54680,0.671387,-0.975586,0.046875,0
54700,0.584473,-0.956055,0.0410156,0
54720,0.506836,-0.893066,0.0766602,0
54740,0.562012,-0.910645,0.144043,0
54760,0.69873,-0.96875,0.132324,0
54780,0.727539,-0.999512,0.0844727,0
54800,0.682617,-0.941406,0.122559,0
54820,0.724121,-0.902344,0.197754,0
54840,0.776855,-0.884766,0.19043,0
54860,0.765137,-0.858398,0.136719,0
54880,0.77832,-0.796875,0.149414,0
54900,0.79834,-0.776367,0.191895,0
54920,0.789551,-0.794434,0.225586,0
54940,0.750977,-0.786621,0.251953,0
54960,0.740723,-0.75293,0.264648,0
54980,0.788086,-0.742188,0.26709,0
55000,0.820801,-0.741211,0.250977,0
55020,0.824707,-0.750488,0.279785,0
55040,0.817871,-0.703125,0.312012,0
55060,0.78418,-0.680176,0.347656,0
55080,0.76123,-0.686035,0.35791,0
55100,0.758789,-0.685547,0.411133,0
55120,0.752441,-0.700195,0.458984,0
55140,0.714844,-0.712402,0.478516,0
55160,0.686035,-0.71582,0.479492,0
55180,0.637207,-0.71582,0.479004,0
55200,0.58252,-0.75293,0.541504,0
55220,0.50293,-0.766602,0.609863,0
55240,0.471191,-0.731445,0.587891,0
55260,0.461914,-0.715332,0.542969,0
55280,0.412109,-0.750977,0.539551,0
55300,0.345215,-0.788574,0.617188,0
55320,0.306152,-0.807617,0.613281,0
55340,0.299805,-0.823242,0.538574,0
55360,0.312012,-0.813477,0.516602,0
55380,0.340332,-0.813477,0.54541,0
55400,0.331543,-0.817383,0.546875,0
55420,0.27002,-0.845703,0.5,0
55440,0.22998,-0.881348,0.509277,0
55460,0.191895,-0.899414,0.501953,0
55480,0.161133,-0.892578,0.464844,0
55500,0.135254,-0.869141,0.414062,0
55520,0.109375,-0.877441,0.413574,0
55540,0.0786133,-0.896973,0.402832,0
55560,0.0239258,-0.934082,0.34082,0
55580,0.00244141,-0.924316,0.296875,0
55600,0.0327148,-0.901855,0.313965,0
55620,0.0537109,-0.90332,0.296875,0
55630,0.0800781,-0.905273,0.20752,0
55650,0.129883,-0.924316,0.212402,0
55670,0.148438,-0.975098,0.1875,0
55690,0.144531,-0.996582,0.146973,0
55710,0.20459,-0.969238,0.130371,0
55730,0.270996,-0.980957,0.13916,0
55750,0.312988,-1.00781,0.108398,0
55770,0.339844,-0.999023,0.0712891,0
55790,0.345215,-0.995117,0.0234375,0
55810,0.351074,-1.00049,0.0102539,0
55830,0.358887,-0.992188,0.0234375,0
55850,0.37207,-0.942871,-0.0219727,0
55870,0.408203,-0.873047,-0.0541992,0
55890,0.416992,-0.81543,-0.0561523,0
55910,0.444336,-0.810059,-0.0488281,0
55930,0.491211,-0.833984,-0.0224609,0
55950,0.536621,-0.851562,-0.0302734,0
55970,0.546875,-0.856445,-0.0112305,0
55990,0.61084,-0.875488,0.00683594,0
56010,0.714844,-0.845215,-0.000976562,0
56030,0.72998,-0.782227,-0.0493164,0
56050,0.675781,-0.716797,-0.0302734,0
56070,0.723633,-0.691895,0.00244141,0
56090,0.889648,-0.757812,-0.0224609,0
56110,0.912598,-0.752441,-0.059082,0
56130,0.787598,-0.703613,-0.0639648,0
56150,0.748047,-0.657227,-0.0478516,0
56170,0.889648,-0.663086,-0.0283203,0
56190,0.977051,-0.691895,-0.0234375,0
56210,0.952637,-0.683594,-0.019043,0
56230,0.916016,-0.626953,0.00976562,0
56250,0.935059,-0.623535,0.0483398,0
56260,0.977539,-0.62207,0.0551758,0
56280,0.97168,-0.596191,0.043457,0
56300,0.946289,-0.566895,0.0615234,0
56320,0.937012,-0.577637,0.116211,0
56340,0.949707,-0.621094,0.170898,0
56360,0.929688,-0.65625,0.195801,0
56380,0.891113,-0.638672,0.174805,0
56400,0.869141,-0.600586,0.189453,0
56430,0.877441,-0.708496,0.313965,0
56450,0.928711,-0.629395,0.313477,0
56470,0.972656,-0.55127,0.246094,0
56490,0.888184,-0.527832,0.284668,0
56510,0.726074,-0.584961,0.384277,0
56530,0.680664,-0.70459,0.471191,0
56550,0.699707,-0.80957,0.492676,0
56570,0.672852,-0.811035,0.45166,0
56590,0.638672,-0.722168,0.411133,0
56610,0.610352,-0.658203,0.430176,0
56630,0.53125,-0.666016,0.428711,0
56650,0.449707,-0.751953,0.419434,0
56670,0.396973,-0.83252,0.454102,0
56690,0.355957,-0.87207,0.448242,0
56710,0.365234,-0.868164,0.372559,0
56730,0.35791,-0.834961,0.335938,0
56750,0.332031,-0.789062,0.345703,0
56790,0.248535,-0.808594,0.240723,0
56850,0.314453,-0.895508,0.0668945,0
56870,0.395508,-0.902832,0.0537109,0
56890,0.354004,-0.968262,0.0717773,0
56910,0.266602,-1.0415,0.0712891,0
56930,0.281738,-0.976074,0.0498047,0
56970,0.428711,-1.00684,-0.160645,0
56990,0.393066,-1.00488,-0.150391,0
57010,0.42041,-0.959961,-0.170898,0
57030,0.469238,-0.898438,-0.207031,0
57050,0.483398,-0.872559,-0.240723,0
57060,0.466309,-0.853516,-0.241699,0
57080,0.450684,-0.852051,-0.211426,0
57100,0.480957,-0.836426,-0.20166,0
57120,0.527832,-0.800293,-0.222656,0
57140,0.54248,-0.757812,-0.270996,0
57160,0.568359,-0.711426,-0.250488,0
57180,0.621582,-0.710449,-0.204102,0
57200,0.680664,-0.746582,-0.206543,0
57220,0.687012,-0.722656,-0.261719,0
57240,0.716309,-0.671875,-0.230469,0
57260,0.781738,-0.64502,-0.194824,0
57280,0.827148,-0.680176,-0.20752,0
57300,0.84375,-0.645508,-0.240234,0
57320,0.886719,-0.570801,-0.216309,0
57340,0.911621,-0.564941,-0.194824,0
57350,0.855469,-0.57373,-0.187012,0
57370,0.80127,-0.541016,-0.158691,0
57390,0.896484,-0.483887,-0.128906,0
57410,1.04541,-0.461426,-0.115723,0
57450,1.16943,-0.54834,0.0673828,0
57480,1.15918,-0.422852,0.112305,0
57510,1.03076,-0.458984,0.182129,0
57530,0.983887,-0.535645,0.287109,0
57550,0.972168,-0.5625,0.334473,0
57570,0.985352,-0.523438,0.314941,0
57590,0.958984,-0.462402,0.307129,0
57610,0.826172,-0.45166,0.400879,0
57630,0.696777,-0.550293,0.461914,0
57650,0.680664,-0.62207,0.428711,0
57670,0.688477,-0.615234,0.433105,0
57690,0.630859,-0.584961,0.430176,0
57710,0.550781,-0.578613,0.413574,0
57730,0.473145,-0.60791,0.365234,0
57750,0.437012,-0.668945,0.372559,0
57770,0.437012,-0.709473,0.375488,0
57790,0.447754,-0.764648,0.303711,0
57810,0.452637,-0.798828,0.29541,0
57830,0.453613,-0.823242,0.304199,0
57850,0.414551,-0.863281,0.229492,0
57870,0.424805,-0.84082,0.151367,0
57890,0.487305,-0.796387,0.131348,0
57910,0.466309,-0.814453,0.0820312,0
57930,0.416504,-0.879395,0.0336914,0
57950,0.380859,-0.928711,-0.0112305,0
57970,0.42334,-0.916992,-0.0415039,0
57990,0.470703,-0.892578,-0.0952148,0
58010,0.459473,-0.897949,-0.142578,0
58030,0.425293,-0.924316,-0.153809,0
58050,0.4375,-0.878906,-0.127441,0
58070,0.498047,-0.854004,-0.164551,0
58090,0.541016,-0.873535,-0.220703,0
58110,0.596191,-0.883789,-0.226562,0
58130,0.608887,-0.835449,-0.229004,0
58150,0.597168,-0.810547,-0.262207,0
58170,0.61084,-0.790039,-0.266113,0
58190,0.68457,-0.75,-0.270508,0
58210,0.730469,-0.725586,-0.317871,0
58220,0.698242,-0.738281,-0.350586,0
58240,0.661621,-0.727051,-0.328125,0
58260,0.700684,-0.663574,-0.323242,0
58260,0.683594,-0.633301,-0.336914,0
58280,0.677734,-0.621094,-0.318848,0
58300,0.712402,-0.630859,-0.304688,0
58320,0.772461,-0.635254,-0.245605,0
58340,0.854004,-0.650391,-0.302734,0
58360,0.907227,-0.655762,-0.424805,0
58380,0.869629,-0.584961,-0.36084,0
58400,0.823242,-0.516113,-0.256836,0
58420,0.822754,-0.516602,-0.285645,2001
58440,0.86084,-0.528809,-0.349609,0
58460,0.858887,-0.558105,-0.297852,0
58480,0.849609,-0.602539,-0.241211,0
58500,0.797363,-0.55957,-0.161133,0
58520,0.776855,-0.523926,-0.187988,0
58540,0.775391,-0.473145,-0.265625,0
58560,0.762207,-0.472656,-0.243652,0
58580,0.708984,-0.462891,-0.163574,0
58600,0.702148,-0.452637,-0.193848,0
58620,0.723145,-0.445801,-0.25,0
58640,0.666016,-0.475586,-0.266602,0
58660,0.594727,-0.499512,-0.219727,0
58680,0.558105,-0.493652,-0.134277,0
58700,0.54248,-0.473633,-0.104004,0
58720,0.500977,-0.482422,-0.138184,0
58740,0.463379,-0.477539,-0.179688,0
58760,0.515625,-0.479004,-0.13623,0
58780,0.584473,-0.48584,-0.0800781,0
58810,0.780762,-0.576172,-0.135254,0
58830,0.885254,-0.640625,-0.0610352,0
58850,0.89209,-0.759277,-0.0654297,0
58870,0.844727,-0.858398,-0.0922852,0
58890,0.892578,-0.876465,-0.102539,0
58910,0.968262,-0.922852,-0.0439453,0
58930,0.950195,-1.0376,-0.0395508,0
58960,0.771973,-1.06445,0.0444336,0
58980,0.694336,-1.10547,0.0551758,0
59000,0.594238,-1.11475,0.113281,0
59020,0.493164,-1.09912,0.12793,0
59040,0.40625,-1.12256,0.150879,0
59060,0.356934,-1.13428,0.146973,0
59080,0.341797,-1.06982,0.155273,0
59100,0.333984,-1.02539,0.171875,0
59120,0.307129,-1.00928,0.153809,0
59140,0.281738,-1.00684,0.156738,0
59160,0.29541,-0.984375,0.193359,0
59180,0.302734,-1.00732,0.194336,0
59200,0.270996,-1.01465,0.137207,0
59220,0.255859,-1.00049,0.111328,0
59230,0.236328,-0.967285,0.149902,0
59250,0.227539,-0.99707,0.14209,2000
59270,0.217773,-1.0166,0.0825195,0
59290,0.21875,-0.990723,0.0810547,0
59310,0.161621,-0.989258,0.12793,0
59330,0.15918,-0.964844,0.160645,0
59350,0.179688,-0.967285,0.165527,0
59370,0.187012,-0.949219,0.149414,0
59390,0.187988,-0.934082,0.121582,0
59410,0.1875,-0.928711,0.134277,0
59430,0.23584,-0.915039,0.184082,0
59450,0.312012,-0.9375,0.144531,0
59470,0.336914,-0.95752,0.117676,0
59490,0.354004,-0.969727,0.131836,0
59510,0.433594,-0.983398,0.143066,0
59530,0.493164,-0.999023,0.0874023,0
59550,0.448242,-0.971191,0.0844727,0
59570,0.43457,-0.947266,0.11377,0
59590,0.511719,-0.942383,0.107422,0
59610,0.511719,-0.900391,0.116211,0
59630,0.475098,-0.88916,0.18457,0
59650,0.519043,-0.847168,0.224609,0
59670,0.599121,-0.873535,0.171387,0
59690,0.614746,-0.879395,0.145508,0
59710,0.611328,-0.82666,0.184082,0
59730,0.724609,-0.789551,0.200684,0
59750,0.787598,-0.809082,0.141602,0
59770,0.729004,-0.773438,0.0996094,0
59790,0.751953,-0.757812,0.143555,0
59810,0.822754,-0.794922,0.140625,0
59830,0.853027,-0.800781,0.125,0
59850,0.819336,-0.765625,0.126465,0
59870,0.789551,-0.748535,0.143555,0
59890,0.807617,-0.728027,0.159668,0
59910,0.835938,-0.718262,0.138184,0
59930,0.858887,-0.724609,0.129395,0
59950,0.84082,-0.748047,0.158203,0
59970,0.812012,-0.812988,0.241699,0
59990,0.793457,-0.818848,0.266113,0
60010,0.783691,-0.757812,0.232422,0
60030,0.773438,-0.693848,0.214844,0
60050,0.753418,-0.691895,0.27002,0
60070,0.733887,-0.756348,0.329102,0
60090,0.713379,-0.830566,0.356934,0
60110,0.706543,-0.834473,0.350098,0
60150,0.652832,-0.847168,0.410645,0
60190,0.561523,-0.773438,0.45459,0
60210,0.56543,-0.78418,0.448242,0
60230,0.544922,-0.820312,0.473633,0
60250,0.48291,-0.864258,0.54834,0
60270,0.403809,-0.826172,0.56543,0
60290,0.380371,-0.839844,0.480957,0
60310,0.362305,-0.867676,0.438965,0
60330,0.304199,-0.875488,0.518555,0
60350,0.263184,-0.843262,0.535156,0
60370,0.213867,-0.804199,0.464844,0
60390,0.206543,-0.796875,0.444336,0
60410,0.210938,-0.781738,0.480957,0
60430,0.17334,-0.815918,0.455078,0
60450,0.148438,-0.836914,0.408203,0
60470,0.166992,-0.828613,0.391602,0
60490,0.183105,-0.834961,0.386719,0
60510,0.168457,-0.858398,0.354492,0
60530,0.151855,-0.879395,0.287598,0
60550,0.163086,-0.886719,0.272949,0
60570,0.188965,-0.913574,0.277832,0
60590,0.20752,-0.939453,0.258789,0
60610,0.208984,-0.933105,0.214355,0
60630,0.190918,-0.94043,0.191895,0
60650,0.20752,-0.966797,0.177734,0
60670,0.217285,-0.977539,0.128906,0
60690,0.22168,-1.00586,0.0893555,0
60690,0.332031,-0.966797,0.0703125,0
60710,0.421875,-0.942383,0.059082,0
60730,0.434082,-0.966309,0.0751953,0
60750,0.418945,-0.978027,0.0605469,0
60770,0.455566,-0.931641,-0.00537109,0
60790,0.519043,-0.885742,-0.0341797,0
60810,0.550781,-0.859375,-0.0239258,0
60830,0.54541,-0.854492,-0.0302734,0
60850,0.52832,-0.83252,-0.0649414,0
60870,0.532227,-0.830566,-0.0961914,0
60890,0.541016,-0.802734,-0.0917969,0
60910,0.562988,-0.775879,-0.0634766,0
60930,0.611816,-0.79541,-0.0537109,0
60950,0.628906,-0.791504,-0.121094,0
60970,0.609863,-0.77002,-0.15332,0
60990,0.605957,-0.733887,-0.0913086,0
61010,0.717285,-0.724121,-0.0258789,0
61030,0.922852,-0.764648,-0.0693359,0
61050,0.930176,-0.751465,-0.148438,0
61070,0.780273,-0.66748,-0.16748,0
61120,0.944336,-0.689453,-0.110352,0
61150,0.802246,-0.649902,-0.137695,0
61170,0.810059,-0.583008,-0.0742188,0
61190,0.960449,-0.583984,-0.0380859,0
61210,1.03564,-0.616211,-0.0600586,0
61230,0.965332,-0.595215,-0.0854492,0
61250,0.898438,-0.544434,-0.0405273,0
61260,1.02441,-0.555664,0.0390625,0
61280,1.01758,-0.569336,0.0620117,0
61300,0.952637,-0.602539,0.163086,0
61320,0.907227,-0.572266,0.222168,0
61340,0.874023,-0.58252,0.273926,0
61360,0.87793,-0.59668,0.294434,0
61380,0.893555,-0.577148,0.27832,0
61400,0.885742,-0.603516,0.30957,0
61410,0.838379,-0.646973,0.352051,0
61430,0.782715,-0.673828,0.42627,0
61450,0.778809,-0.647949,0.389648,0
61470,0.769043,-0.643555,0.375,0
61490,0.688965,-0.682617,0.438965,0
61510,0.609375,-0.710449,0.470703,0
61530,0.619629,-0.69873,0.462402,0
61550,0.62793,-0.705078,0.432617,0
61570,0.58252,-0.708008,0.411621,0
61590,0.546387,-0.712891,0.448242,0
61610,0.526367,-0.736328,0.478516,0
61630,0.454102,-0.76123,0.402344,0
61650,0.371094,-0.773926,0.349121,0
61670,0.354004,-0.797852,0.395996,0
61690,0.334473,-0.831055,0.379395,0
61710,0.299316,-0.867676,0.331543,0
61730,0.32959,-0.842285,0.330566,0
61750,0.305176,-0.861816,0.293945,0
61770,0.283691,-0.867188,0.251465,0
61790,0.294434,-0.85498,0.244141,0
61810,0.309082,-0.884766,0.21875,0
61880,0.312012,-1.00244,-0.0454102,0
61900,0.279297,-1.00391,-0.0854492,0
61920,0.31543,-0.996582,-0.115234,0
61940,0.384766,-0.969727,-0.146484,0
61960,0.397949,-0.969238,-0.166992,0
61980,0.378418,-0.984863,-0.159668,0
62000,0.40918,-0.968262,-0.168945,0
62020,0.477051,-0.94873,-0.182129,0
62040,0.496094,-0.91748,-0.200684,0
62050,0.451172,-0.870605,-0.23584,0
62060,0.440918,-0.818359,-0.23584,0
62080,0.496094,-0.744629,-0.194336,0
62100,0.571777,-0.736328,-0.200195,0
62120,0.574219,-0.758301,-0.242188,0
62140,0.542969,-0.720703,-0.238281,0
62160,0.635742,-0.681152,-0.158691,0
62180,0.78125,-0.675781,-0.134766,0
62200,0.790527,-0.696289,-0.211426,0
62220,0.761719,-0.621094,-0.242676,0
62240,0.847168,-0.574707,-0.171387,0
62260,0.947754,-0.588379,-0.165039,0
62280,0.950195,-0.592773,-0.230957,0
62300,0.906738,-0.51709,-0.187988,0
62320,0.984863,-0.483887,-0.090332,0
62340,1.09424,-0.492676,-0.106934,0
62370,0.966797,-0.442871,-0.13916,0
62430,1.00244,-0.433594,0.249512,0
62450,0.946289,-0.476562,0.354004,0
62470,0.952148,-0.496094,0.395996,0
62490,1.00732,-0.501465,0.286621,0
62510,1.02734,-0.55127,0.300293,0
62530,0.93457,-0.608887,0.416504,0
62550,0.861328,-0.676758,0.464355,0
62560,0.791504,-0.70459,0.370117,0
62580,0.713867,-0.70166,0.302246,0
62600,0.636719,-0.706543,0.35791,0
62620,0.541016,-0.754883,0.388184,0
62640,0.499512,-0.758301,0.335938,0
62660,0.487305,-0.765137,0.218262,0
62680,0.430664,-0.759766,0.197266,0
62700,0.365234,-0.796875,0.204102,0
62720,0.359375,-0.825684,0.191406,0
62740,0.362793,-0.836914,0.0893555,0
62760,0.32666,-0.845215,-0.000976562,0
62780,0.32666,-0.849609,-0.0141602,0
62800,0.320801,-0.834961,-0.0322266,0
62820,0.309082,-0.881348,-0.0644531,0
62840,0.351074,-0.885742,-0.132324,0
62860,0.452148,-0.900391,-0.155762,0
62880,0.490723,-0.928223,-0.182129,0
62910,0.51123,-0.908203,-0.222656,0
62940,0.578613,-0.840332,-0.290039,0
62960,0.631836,-0.791992,-0.282715,0
62970,0.633301,-0.767578,-0.276367,0
62990,0.589355,-0.789062,-0.273438,0
63000,0.571777,-0.76709,-0.291992,0
63020,0.614258,-0.711914,-0.255859,0
63030,0.699707,-0.679688,-0.250977,0
63050,0.727051,-0.65625,-0.263672,0
63070,0.779297,-0.626465,-0.236816,0
63090,0.811523,-0.638184,-0.218262,0
63110,0.808105,-0.668945,-0.228027,0
63130,0.842773,-0.643555,-0.236328,0
63150,0.894531,-0.61084,-0.245117,0
63170,0.894043,-0.621582,-0.235352,0
63190,0.854004,-0.629395,-0.216797,2001
63210,0.824219,-0.604492,-0.206543,0
63230,0.803223,-0.592773,-0.21582,0
63250,0.798828,-0.593262,-0.234863,0
63270,0.799316,-0.569824,-0.227051,0
63290,0.77832,-0.544434,-0.203613,0
63310,0.738281,-0.532715,-0.211914,0
63330,0.708496,-0.509277,-0.23584,0
63350,0.695801,-0.525879,-0.202148,0
63370,0.67627,-0.529297,-0.166016,0
63390,0.625977,-0.512695,-0.170898,0
63410,0.571289,-0.5,-0.199707,0
63430,0.509277,-0.491699,-0.168945,0
63450,0.471191,-0.481445,-0.118652,0
63470,0.473633,-0.456055,-0.101074,0
63490,0.481445,-0.444336,-0.146973,0
63510,0.494629,-0.437988,-0.155273,0
63530,0.557129,-0.461426,-0.0859375,0
63550,0.623047,-0.512695,-0.0327148,0
63570,0.648438,-0.603027,-0.0390625,0
63590,0.672363,-0.63623,-0.0107422,0
63610,0.742676,-0.680664,0.0551758,0
63620,0.805176,-0.782227,0.0517578,0
63640,0.845215,-0.856934,-0.0117188,0
63660,0.911133,-0.88916,0.0170898,0
63680,0.885742,-0.928711,0.126465,0
63700,0.766113,-0.974121,0.172852,0
63720,0.654297,-1.00391,0.178223,0
63740,0.573242,-0.994141,0.204102,0
63760,0.502441,-0.929199,0.26416,0
63780,0.427246,-0.852539,0.337891,0
63800,0.369629,-0.830078,0.318359,0
63820,0.336914,-0.870117,0.300781,0
63840,0.371094,-0.87793,0.357422,0
63850,0.438965,-0.937988,0.445312,0
63870,0.390625,-0.985352,0.349121,0
63890,0.359863,-0.939453,0.397949,0
63910,0.289062,-0.909668,0.500977,0
63930,0.216797,-0.931641,0.516602,0
63950,0.130371,-0.990723,0.5,0
63960,0.0410156,-0.973145,0.558105,0
63960,0.0639648,-1.01367,0.758789,0
63980,-0.0439453,-0.998535,0.65332,0
64000,-0.290527,-0.907227,0.651855,0
64020,-0.291016,-0.850098,0.791504,0
64040,-0.191406,-0.799805,0.830078,0
64060,-0.224609,-0.890625,0.887695,0
64080,-0.556641,-1.06934,1.52148,0
64100,-0.397461,-0.0585938,1.37549,0
64120,0.0673828,-0.157715,0.899414,0
64140,-0.0712891,-0.428223,0.681641,0
64160,-0.314453,-0.605469,0.574707,0
64180,-0.441895,-0.710449,0.659668,0
64200,-0.396484,-0.689941,0.663086,0
64220,-0.366211,-0.611328,0.683105,0
64240,-0.403809,-0.533203,0.753906,0
64260,-0.406738,-0.513672,0.841309,0
64280,-0.282715,-0.49707,0.821289,0
64300,-0.163086,-0.57373,0.78125,0
64320,-0.145508,-0.597656,0.777344,0
64360,-0.212891,-0.602051,0.820312,0
64380,-0.214844,-0.575195,0.788086,0
64400,-0.225586,-0.554688,0.771973,0
64420,-0.240723,-0.558594,0.780762,0
64440,-0.243164,-0.572266,0.77832,0
64460,-0.236328,-0.591309,0.77832,0
64480,-0.248047,-0.586426,0.782227,0
64500,-0.250977,-0.583496,0.781738,0
64520,-0.270996,-0.56543,0.770508,0
64540,-0.26123,-0.571289,0.77002,0
64560,-0.290039,-0.54834,0.754883,0
64580,-0.272949,-0.577637,0.770996,0
64600,-0.275391,-0.574219,0.770996,0
64620,-0.256348,-0.585938,0.773926,0
64640,-0.255371,-0.575684,0.773438,0
64660,-0.241699,-0.57959,0.783203,0
64680,-0.250488,-0.580566,0.785645,0
64700,-0.246094,-0.57373,0.779297,0
64720,-0.247559,-0.569336,0.770996,0
64740,-0.251465,-0.583008,0.775879,0
64760,-0.250488,-0.583008,0.76709,0
64780,-0.253906,-0.587402,0.773926,0
64800,-0.251465,-0.583496,0.765137,0
64820,-0.259277,-0.57373,0.771484,0
64840,-0.258789,-0.569336,0.771973,0
64860,-0.257812,-0.569824,0.772461,0
64880,-0.258301,-0.580078,0.77002,0
64900,-0.264648,-0.57373,0.773926,0
64910,-0.258301,-0.566895,0.777344,0
64930,-0.257324,-0.575195,0.772949,0
64950,-0.258301,-0.571289,0.78125,0
64970,-0.256836,-0.574219,0.776855,0
64990,-0.257324,-0.574707,0.77832,0
65010,-0.251465,-0.569824,0.774902,0
65030,-0.25293,-0.567383,0.777832,0
65050,-0.244629,-0.57373,0.777832,0
65070,-0.247559,-0.568359,0.774902,0
65090,-0.24707,-0.569336,0.780762,0
65110,-0.247559,-0.569336,0.776855,0
65130,-0.246094,-0.562988,0.78125,0
65150,-0.248535,-0.569824,0.780762,0
65170,-0.246582,-0.568359,0.783691,0
65200,-0.247559,-0.569824,0.774902,0
65220,-0.249023,-0.566895,0.782227,0
65240,-0.250488,-0.566895,0.785156,0
65260,-0.247559,-0.563477,0.780273,0
65280,-0.25293,-0.564941,0.770996,0
65300,-0.249512,-0.569824,0.781738,0
65320,-0.251953,-0.569824,0.779785,0
65340,-0.253418,-0.568359,0.782227,0
65360,-0.250977,-0.569336,0.783691,0
65380,-0.25,-0.564453,0.782227,0
65400,-0.249023,-0.566406,0.780273,0
65420,-0.249023,-0.564941,0.780762,0
65440,-0.249512,-0.572754,0.783691,0
65460,-0.249023,-0.566406,0.782227,0
65480,-0.253906,-0.568359,0.780762,0
65500,-0.251465,-0.569336,0.782715,0
65520,-0.250977,-0.566406,0.783203,0
65540,-0.248047,-0.565918,0.777344,0
65560,-0.250977,-0.572754,0.780762,0
65580,-0.245117,-0.56543,0.78418,0
65600,-0.242188,-0.567871,0.782715,0
65620,-0.248535,-0.567871,0.787109,0
65640,-0.246094,-0.564941,0.788086,0
65660,-0.250488,-0.564941,0.78125,0
65680,-0.248535,-0.568848,0.780273,0
65700,-0.251465,-0.567871,0.782227,0
65710,-0.252441,-0.562012,0.78125,0
65730,-0.24707,-0.56543,0.78125,0
65750,-0.251465,-0.567383,0.785645,0
65770,-0.255859,-0.568848,0.779785,0
65790,-0.253906,-0.566895,0.775391,0
65810,-0.250488,-0.569824,0.779785,0
65830,-0.245117,-0.566406,0.778809,0
65850,-0.25,-0.562988,0.777344,0
65870,-0.248535,-0.562012,0.779785,0
65890,-0.245605,-0.571777,0.778809,0
65910,-0.250977,-0.566406,0.780762,0
65930,-0.247559,-0.55957,0.778809,0
65950,-0.24707,-0.567871,0.782715,0
65970,-0.246582,-0.56543,0.785156,0
65990,-0.247559,-0.565918,0.787598,0
66010,-0.248047,-0.564453,0.77832,0
66030,-0.25,-0.568359,0.771484,0
66050,-0.249512,-0.566895,0.786621,0
66070,-0.251953,-0.571289,0.774902,0
66090,-0.252441,-0.566895,0.786133,0
66100,-0.25,-0.561523,0.787598,0
66130,-0.246094,-0.561523,0.780273,0
66150,-0.251465,-0.567871,0.777344,0
66170,-0.250977,-0.573242,0.783203,0
66190,-0.248047,-0.567383,0.783203,0
66210,-0.253906,-0.564453,0.779297,0
66230,-0.257324,-0.562988,0.785156,0
66250,-0.249023,-0.55957,0.786133,0
66270,-0.251465,-0.566406,0.779297,0
66290,-0.246582,-0.566406,0.775391,0
66310,-0.246582,-0.566895,0.777344,0
66330,-0.247559,-0.563477,0.785156,0
66350,-0.248535,-0.562988,0.782715,0
66370,-0.246582,-0.562012,0.78418,0
66390,-0.25293,-0.56543,0.782227,0
66410,-0.250977,-0.564453,0.777832,0
66430,-0.253906,-0.564453,0.78418,0
66450,-0.251953,-0.562012,0.784668,0
66470,-0.254395,-0.564453,0.777344,0
66490,-0.253418,-0.563477,0.782227,0
66510,-0.25,-0.56543,0.784668,0
66530,-0.253906,-0.562012,0.779297,0
66550,-0.250977,-0.565918,0.780273,0
66570,-0.251465,-0.563965,0.775391,0
66590,-0.252441,-0.568848,0.78125,0
66610,-0.250488,-0.573242,0.777832,0
66630,-0.249512,-0.560059,0.780762,0
66650,-0.248535,-0.558594,0.780762,0
66670,-0.25,-0.563477,0.780273,0
66690,-0.251465,-0.5625,0.786133,0
66710,-0.247559,-0.5625,0.782227,0
66730,-0.248535,-0.564941,0.783691,0
66750,-0.251465,-0.561035,0.782227,0
66770,-0.249023,-0.563965,0.779297,0
66790,-0.247559,-0.567871,0.782715,0
66810,-0.250488,-0.569336,0.780762,0
66830,-0.250488,-0.571777,0.782227,0
66850,-0.25,-0.561523,0.773438,0
