Timestamp, Acceleration x, Acceleration y, Acceleration z, Marker
20,0.415527,-0.842285,0.352539,0
50,0.420898,-0.842285,0.361816,0
60,0.415039,-0.842285,0.362793,0
80,0.42041,-0.841797,0.361328,0
100,0.416504,-0.826172,0.362793,0
120,0.416016,-0.813965,0.355957,0
140,0.407227,-0.794922,0.351562,0
150,0.39209,-0.78125,0.347656,0
150,0.384766,-0.779785,0.354004,0
190,0.389648,-0.785156,0.367188,0
210,0.390137,-0.789062,0.371582,0
230,0.394043,-0.789062,0.362793,0
250,0.386719,-0.777832,0.359375,0
270,0.381836,-0.776367,0.36377,0
290,0.399414,-0.771973,0.368164,0
310,0.410645,-0.780762,0.368652,0
330,0.406738,-0.795898,0.35498,0
350,0.40625,-0.796875,0.343262,0
370,0.406738,-0.794922,0.34668,0
390,0.413574,-0.79541,0.341797,0
410,0.422852,-0.793457,0.345215,0
430,0.406738,-0.784668,0.32959,0
450,0.413574,-0.785156,0.318848,0
470,0.418457,-0.780273,0.330078,0
490,0.40625,-0.779297,0.325684,0
510,0.394531,-0.775879,0.318359,0
530,0.384277,-0.767578,0.317383,0
550,0.396973,-0.766602,0.312988,0
570,0.419434,-0.772949,0.330566,0
590,0.40332,-0.769043,0.330078,0
610,0.375,-0.785156,0.324219,0
630,0.34668,-0.760254,0.32666,0
650,0.320801,-0.768066,0.315918,0
670,0.339355,-0.755859,0.33252,0
690,0.342285,-0.775879,0.35791,0
710,0.282715,-0.791016,0.333984,0
730,0.257812,-0.786621,0.282715,0
750,0.348633,-0.79248,0.3125,0
770,0.450195,-0.828125,0.34082,0
790,0.489258,-0.875,0.325195,0
810,0.459473,-0.858887,0.305664,0
830,0.472168,-0.893555,0.283691,0
850,0.541992,-0.947754,0.280273,0
870,0.587891,-0.984863,0.284668,0
890,0.557617,-0.984375,0.276367,0
910,0.492676,-0.940918,0.276855,0
930,0.425293,-0.896484,0.259766,0
950,0.425293,-0.874512,0.267578,0
970,0.440918,-0.853516,0.293945,0
990,0.434082,-0.855469,0.280273,0
1010,0.387207,-0.824707,0.262695,0
1030,0.375,-0.763184,0.28125,0
1050,0.370117,-0.749512,0.28125,0
1070,0.363281,-0.748047,0.287598,0
1090,0.353027,-0.73584,0.285156,0
1110,0.345215,-0.734863,0.277832,0
1130,0.384277,-0.750488,0.291504,0
1150,0.435059,-0.761719,0.302246,0
1170,0.50293,-0.777344,0.277344,0
1190,0.511719,-0.777344,0.239746,0
1210,0.516602,-0.785645,0.216309,0
1230,0.521484,-0.804688,0.194824,0
1250,0.518555,-0.813477,0.201172,0
1270,0.510254,-0.811035,0.225098,0
1290,0.503906,-0.810059,0.225098,0
1310,0.508301,-0.818359,0.220703,0
1330,0.515625,-0.787598,0.230957,0
1350,0.521973,-0.76416,0.236328,0
1370,0.524902,-0.751465,0.233887,0
1390,0.535156,-0.750977,0.246094,0
1410,0.535645,-0.762207,0.272949,0
1430,0.522949,-0.754883,0.268066,0
1450,0.510742,-0.741211,0.25293,0
1470,0.534668,-0.760254,0.265625,0
1490,0.569824,-0.774902,0.282715,0
1510,0.562988,-0.784668,0.260254,0
1530,0.561523,-0.778809,0.25,0
1550,0.569824,-0.784668,0.252441,0
1570,0.571289,-0.797852,0.243164,0
1590,0.571777,-0.789062,0.240723,0
1610,0.587402,-0.792969,0.237793,0
1630,0.591797,-0.790039,0.225098,0
1650,0.571777,-0.790039,0.212891,0
1670,0.554688,-0.771973,0.227539,0
1690,0.557617,-0.76416,0.250488,0
1710,0.5625,-0.762207,0.271484,0
1730,0.546387,-0.748535,0.252441,0
1750,0.508301,-0.742676,0.22998,0
1770,0.490723,-0.725586,0.237793,0
1790,0.481934,-0.753906,0.260254,0
1810,0.459473,-0.742676,0.267578,0
1830,0.446289,-0.745117,0.243164,0
1850,0.468262,-0.756348,0.248047,0
1870,0.47998,-0.763184,0.260254,0
1890,0.474121,-0.76709,0.240723,0
1910,0.481934,-0.777344,0.222168,0
1930,0.501465,-0.774414,0.24707,0
1950,0.499023,-0.773438,0.257324,0
1970,0.493164,-0.773926,0.231445,0
1990,0.498047,-0.787109,0.232422,0
2010,0.493652,-0.773926,0.233887,0
2030,0.48584,-0.779785,0.259277,0
2050,0.490234,-0.793457,0.257812,0
2070,0.490723,-0.79248,0.255371,0
2090,0.486816,-0.797852,0.259277,0
2110,0.48291,-0.775391,0.270508,0
2130,0.474121,-0.78418,0.26123,0
2150,0.474121,-0.774902,0.265137,0
2170,0.473145,-0.776855,0.255859,0
2190,0.492188,-0.779785,0.266113,0
2210,0.49707,-0.782227,0.273438,0
2230,0.502441,-0.780273,0.272461,0
2260,0.506348,-0.791504,0.27002,0
2280,0.508301,-0.79541,0.285645,0
2300,0.495605,-0.78418,0.272461,0
2320,0.502441,-0.803223,0.266602,0
2340,0.493164,-0.796387,0.282227,0
2360,0.488281,-0.802246,0.285645,0
2380,0.478516,-0.789551,0.26709,0
2400,0.470703,-0.789551,0.263672,0
2420,0.467285,-0.78418,0.279785,0
2440,0.470703,-0.788086,0.291504,0
2460,0.45752,-0.782715,0.283691,0
2480,0.447266,-0.786621,0.275391,0
2500,0.453613,-0.785645,0.27002,0
2520,0.443848,-0.771973,0.274902,0
2540,0.443848,-0.769531,0.270996,0
2560,0.427246,-0.76709,0.27002,0
2580,0.416016,-0.757324,0.257812,0
2600,0.397461,-0.759277,0.273926,0
2620,0.387207,-0.746094,0.317383,0
2630,0.380371,-0.736328,0.336426,0
2650,0.37207,-0.717285,0.355469,0
2670,0.38623,-0.701172,0.395996,0
2690,0.415527,-0.725098,0.388184,0
2710,0.456055,-0.742188,0.351562,0
2730,0.479004,-0.76416,0.363281,0
2750,0.432617,-0.758301,0.396484,0
2770,0.339355,-0.75293,0.412109,0
2790,0.254395,-0.733398,0.427734,0
2810,0.188965,-0.763672,0.484375,0
2830,0.154297,-0.80127,0.494629,0
2850,0.148438,-0.80957,0.476562,0
2870,0.114258,-0.905273,0.487305,0
2890,0.135254,-0.953613,0.459473,0
2910,0.17334,-0.97998,0.463867,0
2930,0.210938,-1.05762,0.468262,0
2950,0.260254,-1.04053,0.432617,0
2970,0.310059,-1.10107,0.456543,0
2990,0.381836,-1.07471,0.495117,0
3010,0.526855,-1.0708,0.473633,0
3030,0.619629,-1.05273,0.438477,0
3050,0.583496,-1.06982,0.46875,0
3070,0.476074,-1.11719,0.438965,0
3090,0.354492,-0.993164,0.412109,0
3110,0.293457,-0.991211,0.452148,0
3130,0.307129,-0.911133,0.420898,0
3150,0.270996,-0.902344,0.399414,0
3170,0.237305,-0.828613,0.350586,0
3190,0.131348,-0.757812,0.307129,0
3210,0.0253906,-0.679688,0.291016,0
3230,0.0161133,-0.677246,0.353516,0
3250,-0.0395508,-0.743164,0.317871,0
3270,-0.0473633,-0.803223,0.143555,0
3290,-0.0908203,-0.75293,0.228516,0
3310,-0.148438,-0.764648,0.317383,0
3330,-0.0551758,-0.816895,0.226562,0
3350,0.0595703,-0.814941,0.166504,0
3370,0.100586,-0.834473,0.211426,0
3390,0.074707,-0.860352,0.229492,0
3410,0.13623,-0.869629,0.207031,0
3430,0.209961,-0.898926,0.176758,0
3450,0.286621,-0.874023,0.236816,0
3470,0.33252,-0.899902,0.355957,0
3490,0.398926,-0.992676,0.344727,0
3510,0.551758,-1.07422,0.248535,0
3530,0.624512,-1.00586,0.255859,0
3550,0.655762,-0.889648,0.317871,0
3570,0.622559,-0.848633,0.385254,0
3590,0.48584,-0.911621,0.349609,0
3610,0.44873,-1.0166,0.268555,0
3630,0.425293,-1.0918,0.229492,0
3650,0.314941,-1.05615,0.211914,0
3670,0.16748,-0.949219,0.181641,0
3690,0.0761719,-0.869629,0.131348,0
3710,0.0654297,-0.856445,0.114258,0
3730,0.0273438,-0.875,0.0756836,0
3750,-0.00732422,-0.880859,0.0546875,0
3770,-0.0556641,-0.947754,0.0561523,0
3790,-0.0756836,-0.936523,0.106934,0
3810,-0.0854492,-0.940918,0.0664062,0
3840,0.120117,-0.94043,0.11084,0
3860,0.235352,-0.952148,0.15625,0
3890,0.375977,-0.981934,0.12207,0
3910,0.329102,-1.00342,0.172852,0
3920,0.290527,-0.952637,0.166992,0
3940,0.258301,-0.925293,0.144043,0
3960,0.244629,-0.9375,0.146973,0
3980,0.193848,-0.833496,0.162109,0
4000,0.147949,-0.717773,0.169922,0
4020,0.0874023,-0.655762,0.192383,0
4040,0.321289,-1.01221,0.143066,0
4060,0.39209,-1.08398,0.282715,0
4080,0.284668,-0.92627,0.325195,0
4100,0.184082,-0.806641,0.317871,0
4120,0.19043,-0.858398,0.277344,0
4140,0.299316,-0.916016,0.241211,0
4160,0.347168,-0.955566,0.224609,0
4180,0.312012,-0.964355,0.244141,0
4200,0.272949,-0.975098,0.261719,0
4220,0.248047,-0.937012,0.286133,0
4240,0.231934,-0.908203,0.301758,0
4260,0.192383,-0.892578,0.324219,0
4280,0.183594,-0.896484,0.337402,0
4300,0.217773,-0.900391,0.305176,0
4320,0.243164,-0.876953,0.280762,0
4340,0.242676,-0.88916,0.268066,0
4360,0.23291,-0.92627,0.263672,0
4380,0.236328,-0.932129,0.290527,0
4400,0.241211,-0.931152,0.297852,0
4420,0.262207,-0.890137,0.302246,0
4440,0.274414,-0.850098,0.288574,0
4460,0.260254,-0.847168,0.268555,0
4480,0.225586,-0.864746,0.265625,0
4500,0.208008,-0.882812,0.26123,0
4520,0.212402,-0.869141,0.251953,0
4540,0.226562,-0.87207,0.259277,0
4560,0.240723,-0.879883,0.272461,0
4570,0.247559,-0.887207,0.280762,0
4590,0.246094,-0.90918,0.278809,0
4610,0.246094,-0.920898,0.273438,0
4630,0.26123,-0.91748,0.266113,0
4650,0.255371,-0.914062,0.253906,0
4670,0.250977,-0.918457,0.257324,0
4690,0.26123,-0.919434,0.260254,0
4710,0.263672,-0.919922,0.255371,0
4730,0.255859,-0.925781,0.241211,0
4750,0.263184,-0.912598,0.249512,0
4770,0.269043,-0.916504,0.248535,0
4790,0.26709,-0.910156,0.243652,0
4810,0.260254,-0.908691,0.250977,0
4830,0.243652,-0.908691,0.250977,0
4850,0.24707,-0.907227,0.241699,0
4870,0.25,-0.916504,0.253906,0
4890,0.245605,-0.906738,0.250488,0
4910,0.24707,-0.906738,0.24707,0
4930,0.237305,-0.902344,0.248047,0
4950,0.238281,-0.90332,0.237793,0
4970,0.237305,-0.910645,0.243164,0
4990,0.231934,-0.906738,0.247559,0
5010,0.239258,-0.910156,0.257324,0
5030,0.240723,-0.899414,0.256348,0
5050,0.237793,-0.894043,0.240723,0
5070,0.224609,-0.890137,0.241699,0
5090,0.227051,-0.894043,0.254395,0
5110,0.212402,-0.907227,0.270996,0
5130,0.212891,-0.904785,0.262207,0
5150,0.237305,-0.900391,0.248047,0
5170,0.240234,-0.899902,0.264648,0
5200,0.23877,-0.905273,0.26416,0
5220,0.23877,-0.911621,0.268066,0
5240,0.248535,-0.92334,0.26709,0
5260,0.254883,-0.931152,0.274902,0
5280,0.258789,-0.929688,0.251953,0
5300,0.265625,-0.932617,0.256348,0
5320,0.256348,-0.92627,0.253906,0
5340,0.246094,-0.936035,0.255371,0
5360,0.246094,-0.931641,0.268555,0
5380,0.242188,-0.910645,0.243652,0
5400,0.239258,-0.915527,0.251465,0
5420,0.226074,-0.920898,0.249512,0
5440,0.211426,-0.908203,0.255859,0
5460,0.206543,-0.90625,0.25293,0
5490,0.19873,-0.915527,0.241211,0
5510,0.208008,-0.90332,0.241699,0
5530,0.203125,-0.906738,0.233887,0
5550,0.195312,-0.914551,0.249512,0
5570,0.19043,-0.916016,0.239258,0
5590,0.199219,-0.932129,0.238281,0
5610,0.208008,-0.92041,0.233398,0
5630,0.200684,-0.914062,0.243164,0
5650,0.199707,-0.919434,0.245117,0
5670,0.192383,-0.923828,0.245605,0
5690,0.20166,-0.939453,0.23291,0
5710,0.198242,-0.930664,0.246094,0
5730,0.196289,-0.931641,0.246582,0
5750,0.194336,-0.934082,0.224609,0
5770,0.194336,-0.924805,0.23291,0
5790,0.178223,-0.930664,0.238281,0
5810,0.188965,-0.9375,0.232422,0
5830,0.174805,-0.931641,0.224609,0
5850,0.173828,-0.920898,0.230957,0
5870,0.179199,-0.92041,0.212891,0
5890,0.172852,-0.9375,0.21875,0
5910,0.164062,-0.928711,0.219238,0
5930,0.16748,-0.927734,0.230957,0
5950,0.147461,-0.939453,0.23877,0
5970,0.134766,-0.936523,0.243164,0
5990,0.151855,-0.943359,0.226074,0
6030,0.130371,-0.942871,0.25,0
6050,0.144043,-0.945801,0.254883,0
6070,0.15918,-0.94873,0.262207,0
6090,0.163574,-0.969727,0.262695,0
6110,0.166016,-0.949219,0.255371,0
6130,0.163574,-0.939453,0.248535,0
6150,0.151367,-0.935547,0.263672,0
6170,0.153809,-0.939941,0.262695,0
6190,0.156738,-0.945801,0.255859,0
6210,0.166016,-0.930176,0.251953,0
6230,0.161621,-0.927246,0.255859,0
6250,0.160156,-0.928223,0.246582,0
6270,0.158203,-0.924805,0.251953,0
6290,0.160645,-0.938965,0.240234,0
6310,0.166504,-0.922363,0.243164,0
6330,0.164551,-0.925781,0.248535,0
6340,0.178223,-0.927246,0.248535,0
6360,0.188477,-0.929688,0.236816,0
6380,0.188477,-0.937012,0.228516,0
6400,0.184082,-0.935547,0.227051,0
6420,0.187012,-0.932617,0.225586,0
6440,0.190918,-0.944336,0.219238,0
6460,0.198242,-0.939453,0.214844,0
6480,0.196777,-0.943848,0.203125,0
6500,0.200684,-0.941895,0.202148,0
6520,0.191406,-0.940918,0.205566,0
6540,0.188965,-0.949219,0.204102,0
6560,0.200684,-0.938965,0.206543,0
6580,0.181152,-0.939941,0.206055,0
6600,0.168945,-0.927246,0.210449,0
6620,0.177246,-0.934082,0.209961,0
6640,0.180664,-0.938477,0.210449,0
6660,0.178223,-0.928223,0.197266,0
6680,0.173828,-0.92627,0.216309,0
6700,0.166504,-0.923828,0.216797,0
6720,0.17041,-0.933594,0.208984,0
6740,0.17334,-0.925293,0.221191,0
6760,0.171875,-0.935059,0.217773,0
6780,0.16748,-0.939941,0.206055,0
6800,0.166992,-0.939941,0.190918,0
6820,0.158203,-0.949219,0.212402,0
6840,0.163574,-0.941406,0.216309,0
6860,0.160156,-0.943359,0.206055,0
6880,0.162109,-0.927246,0.203613,0
6900,0.149902,-0.919434,0.224609,0
6920,0.122559,-0.936523,0.241211,0
6940,0.126953,-0.933105,0.230957,0
6960,0.12207,-0.941895,0.241211,0
6980,0.120605,-0.939941,0.216309,0
7000,0.13916,-0.931152,0.229004,0
7020,0.147461,-0.921387,0.241699,0
7040,0.121582,-0.943359,0.229492,0
7060,0.112305,-0.955566,0.236328,0
7080,0.116211,-0.983398,0.266113,0
7100,0.121582,-0.974609,0.250977,0
7120,0.123535,-0.972656,0.231445,0
7140,0.119141,-0.979492,0.237305,0
7160,0.118164,-0.977051,0.23291,0
7180,0.126953,-0.973633,0.235352,0
7200,0.121094,-0.977051,0.240234,0
7220,0.119629,-0.961426,0.248047,0
7240,0.121094,-0.942383,0.242188,0
7260,0.123535,-0.930664,0.23584,0
7280,0.120117,-0.919922,0.23584,0
7300,0.119629,-0.934082,0.236328,0
7320,0.125977,-0.929688,0.23877,0
7340,0.115723,-0.932617,0.237793,0
7360,0.104492,-0.927246,0.244141,0
7380,0.117676,-0.929199,0.250977,0
7410,0.105469,-0.941895,0.230957,0
7430,0.0864258,-0.953613,0.246094,0
7450,0.0786133,-0.942871,0.259766,0
7470,0.0883789,-0.955566,0.26416,0
7490,0.09375,-0.973633,0.263184,0
7510,0.112305,-0.979492,0.226562,0
7530,0.11084,-1.01855,0.207031,0
7550,0.109375,-1.02588,0.227051,0
7570,0.0947266,-1.02637,0.236328,0
7590,0.0703125,-1.0127,0.249512,0
7610,0.0830078,-0.953125,0.245605,0
7630,0.0957031,-0.788574,0.243164,0
7650,0.107422,-0.773438,0.191895,0
7670,0.0522461,-0.866211,0.209961,0
7690,0.0351562,-0.875977,0.241211,0
7710,-0.00439453,-0.897461,0.239258,0
7730,-0.0263672,-0.947754,0.217773,0
7750,-0.00830078,-0.987305,0.195312,0
7770,0.0214844,-0.932617,0.208496,0
7790,0.0239258,-0.888672,0.220215,0
7810,-0.0185547,-0.870605,0.203125,0
7830,-0.00634766,-0.910645,0.248047,0
7850,-0.0229492,-0.900391,0.292969,0
7860,-0.0170898,-0.903809,0.27002,0
7880,0.00537109,-0.926758,0.290039,0
7900,0.0102539,-0.933594,0.319824,0
7920,-0.00732422,-0.92334,0.318359,0
7940,0.0483398,-0.954102,0.444336,0
7960,0.0390625,-0.916504,0.398926,0
7980,0.0385742,-0.904297,0.331055,0
8000,-0.00292969,-0.883789,0.385742,0
8020,-0.00732422,-0.933594,0.527344,0
8040,0.0161133,-0.919922,0.48877,0
8060,0.0727539,-0.92627,0.435547,0
8080,0.0478516,-0.918457,0.463867,0
8100,0.0263672,-0.925293,0.46875,0
8120,0.0541992,-0.910645,0.512207,0
8140,0.0629883,-0.892578,0.465332,0
8160,0.102051,-0.883301,0.441406,0
8180,0.097168,-0.867188,0.451172,0
8200,0.0820312,-0.872559,0.461914,0
8220,0.0947266,-0.869141,0.499512,0
8240,0.124512,-0.873047,0.465332,0
8260,0.168945,-0.855469,0.463867,0
8280,0.14502,-0.828125,0.445312,0
8300,0.140625,-0.828125,0.458008,0
8320,0.146484,-0.81543,0.476074,0
8340,0.157715,-0.8125,0.453613,0
8360,0.186523,-0.803223,0.455566,0
8380,0.184082,-0.793945,0.441406,0
8400,0.20752,-0.79248,0.443848,0
8420,0.226562,-0.806641,0.441895,0
8440,0.254883,-0.770996,0.439453,0
8460,0.250488,-0.765625,0.44043,0
8480,0.268066,-0.765625,0.457031,0
8500,0.273438,-0.764648,0.45459,0
8520,0.302246,-0.77002,0.447266,0
8540,0.314941,-0.781738,0.442383,0
8560,0.320312,-0.788574,0.435547,0
8580,0.314941,-0.793457,0.416016,0
8600,0.322266,-0.805176,0.429688,0
8620,0.327637,-0.812012,0.421387,0
8670,0.277344,-0.811035,0.404297,0
8690,0.293457,-0.812988,0.411133,0
8710,0.298828,-0.817871,0.412598,0
8730,0.289551,-0.817871,0.411133,0
8750,0.280273,-0.802734,0.408203,0
8770,0.280273,-0.80127,0.400391,0
8790,0.28418,-0.804688,0.399902,0
8810,0.299316,-0.817871,0.404785,0
8830,0.29248,-0.810547,0.412109,0
8850,0.288086,-0.810059,0.396484,0
8870,0.285156,-0.806641,0.399414,0
8890,0.299316,-0.817871,0.406738,0
8910,0.295898,-0.805664,0.413574,0
8940,0.294922,-0.814941,0.42041,0
8960,0.291504,-0.84375,0.417969,0
8980,0.285156,-0.827148,0.415039,0
9000,0.282715,-0.82373,0.417969,0
9020,0.276855,-0.820801,0.410645,0
9040,0.270508,-0.802734,0.398926,0
9060,0.279785,-0.817871,0.384766,0
9080,0.29248,-0.796875,0.37793,0
9100,0.279785,-0.840332,0.407715,0
9120,0.280762,-0.83252,0.410156,0
9140,0.283203,-0.821777,0.395996,0
9160,0.281738,-0.82666,0.391113,0
9180,0.286133,-0.819336,0.392578,0
9200,0.279785,-0.828613,0.39502,0
9220,0.265137,-0.790527,0.381348,0
9240,0.275879,-0.821777,0.398438,0
9260,0.271484,-0.802734,0.393555,0
9290,0.27002,-0.798828,0.397461,0
9330,0.257812,-0.80957,0.400391,0
9350,0.259277,-0.812012,0.396973,0
9370,0.236816,-0.805664,0.395508,0
9390,0.197266,-0.803711,0.40332,0
9410,0.196289,-0.793457,0.392578,0
9430,0.191895,-0.778809,0.407715,0
9450,0.208984,-0.798828,0.429199,0
9500,0.250488,-0.886719,0.435059,0
9520,0.269531,-0.936523,0.425781,0
9540,0.253418,-0.898438,0.422363,0
9560,0.202637,-0.832031,0.398438,0
9580,0.172363,-0.78418,0.436523,0
9600,0.155762,-0.778809,0.484375,0
9620,0.177734,-0.851562,0.476562,0
9640,0.199219,-0.902344,0.467285,0
9660,0.186035,-0.851074,0.457031,0
9680,0.160645,-0.796875,0.463379,0
9700,0.169922,-0.772461,0.494141,0
9720,0.177734,-0.811523,0.500977,0
9740,0.162598,-0.871094,0.487305,0
9750,0.145996,-0.910156,0.487305,0
9770,0.168457,-0.844727,0.45752,0
9790,0.154785,-0.808594,0.47168,0
9810,0.145508,-0.8125,0.478516,0
9830,0.135254,-0.810059,0.495117,0
9850,0.130859,-0.814941,0.494141,0
9870,0.138184,-0.825195,0.504883,0
9890,0.151367,-0.80957,0.483398,0
9910,0.166016,-0.809082,0.474121,0
9930,0.172363,-0.816406,0.461426,0
9950,0.189453,-0.836426,0.446777,0
9970,0.194824,-0.814941,0.435059,0
9990,0.191895,-0.799805,0.429199,0
10010,0.179688,-0.807617,0.445801,0
10030,0.182129,-0.824219,0.446289,0
10050,0.199219,-0.833496,0.443848,0
10070,0.217773,-0.836914,0.453125,0
10090,0.209473,-0.823242,0.454102,0
10110,0.216797,-0.805664,0.463379,0
10130,0.209961,-0.795898,0.462891,0
10150,0.203125,-0.799316,0.461914,0
10170,0.190918,-0.796387,0.459473,0
10190,0.178711,-0.79541,0.459473,0
10210,0.170898,-0.806152,0.458496,0
10230,0.163574,-0.807129,0.461914,0
10250,0.162109,-0.805664,0.466797,0
10270,0.15625,-0.787109,0.466797,0
10290,0.166016,-0.773926,0.466309,0
10310,0.166016,-0.787598,0.461914,0
10330,0.151367,-0.796875,0.475098,0
10350,0.15625,-0.790527,0.475586,0
10370,0.174316,-0.793457,0.486816,0
10390,0.169434,-0.785156,0.486328,0
10410,0.134766,-0.794922,0.48291,0
10430,0.115234,-0.791504,0.47998,0
10450,0.117676,-0.80127,0.493164,0
10470,0.0927734,-0.80957,0.479004,0
10490,0.0981445,-0.818848,0.480957,0
10510,0.0776367,-0.815918,0.451172,0
10530,0.110352,-0.840332,0.461426,0
10550,0.116699,-0.828613,0.51416,0
10570,0.105469,-0.793457,0.501953,0
10590,0.0576172,-0.791016,0.494141,0
10610,0.0292969,-0.789062,0.494629,0
10630,-0.00341797,-0.776367,0.495605,0
10650,-0.03125,-0.776367,0.49707,0
10670,-0.0869141,-0.77832,0.495117,0
10690,-0.116211,-0.773926,0.498047,0
10710,-0.169434,-0.769043,0.478516,0
10730,-0.157715,-0.754395,0.493164,0
10750,-0.214355,-0.753418,0.469238,0
10770,-0.219238,-0.772461,0.492188,0
10790,-0.253906,-0.752441,0.484375,0
10810,-0.338379,-0.694336,0.466797,0
10830,-0.347656,-0.856445,0.602051,0
10850,-0.449219,-0.830078,0.621094,0
10870,-0.436035,-1.07471,0.561523,0
10890,-0.348145,-0.998535,0.625977,0
10910,-0.313965,-0.840332,0.64209,0
10930,-0.293945,-0.677734,0.618652,0
10950,-0.327148,-0.649902,0.581543,0
10970,-0.349121,-0.660645,0.531738,0
10990,-0.339844,-0.693359,0.519043,0
11010,-0.340332,-0.736328,0.516602,0
11030,-0.349609,-0.750977,0.506836,0
11050,-0.36377,-0.762695,0.494141,0
11070,-0.356934,-0.781738,0.52832,0
11090,-0.353027,-0.778809,0.557617,0
11110,-0.351562,-0.734863,0.557617,0
11130,-0.344238,-0.727051,0.537109,0
11150,-0.347168,-0.731934,0.512695,0
11170,-0.35498,-0.768066,0.500977,0
11190,-0.357422,-0.78418,0.489746,0
11210,-0.35498,-0.783203,0.493652,0
11230,-0.347168,-0.777832,0.494141,0
11250,-0.343262,-0.780273,0.486328,0
11270,-0.353027,-0.787598,0.492676,0
11290,-0.349121,-0.792969,0.482422,0
11310,-0.338867,-0.808594,0.458984,0
11330,-0.339355,-0.820801,0.446289,0
11350,-0.333496,-0.825195,0.432129,0
11370,-0.331055,-0.835449,0.414551,0
11390,-0.325195,-0.842285,0.392578,0
11410,-0.335449,-0.839355,0.384277,0
11430,-0.354492,-0.83252,0.369629,0
11450,-0.35791,-0.844727,0.356445,0
11470,-0.380371,-0.85498,0.335938,0
11490,-0.391113,-0.857422,0.304199,0
11510,-0.394531,-0.867676,0.276367,0
11530,-0.389648,-0.863281,0.273438,0
11550,-0.386719,-0.877441,0.265137,0
11570,-0.390625,-0.879395,0.266113,0
11590,-0.383301,-0.869141,0.263672,0
11600,-0.36084,-0.873047,0.254883,0
11620,-0.364258,-0.868164,0.253418,0
11640,-0.361816,-0.878906,0.24707,0
11660,-0.366211,-0.875488,0.251465,0
11680,-0.373535,-0.880371,0.258301,0
11700,-0.382812,-0.877441,0.252441,0
11720,-0.384277,-0.881836,0.255859,0
11740,-0.390137,-0.883301,0.257812,0
11760,-0.390625,-0.875977,0.25293,0
11780,-0.39502,-0.874512,0.254883,0
11800,-0.395996,-0.867676,0.26416,0
11820,-0.399414,-0.871582,0.260742,0
11840,-0.400391,-0.872559,0.26709,0
11860,-0.399414,-0.870117,0.271484,0
11880,-0.398926,-0.867188,0.271973,0
11900,-0.420898,-0.85498,0.274902,0
11920,-0.38623,-0.870117,0.280762,0
11940,-0.40332,-0.871094,0.277832,0
11960,-0.399902,-0.866211,0.282227,0
11980,-0.40332,-0.867188,0.289062,0
12000,-0.39209,-0.863281,0.293457,0
12020,-0.385254,-0.873535,0.302246,0
12040,-0.405273,-0.865234,0.303223,0
12060,-0.407715,-0.872559,0.290039,0
12070,-0.410156,-0.870605,0.286133,0
12090,-0.414551,-0.870117,0.291504,0
12110,-0.412109,-0.862305,0.287109,0
12130,-0.416016,-0.859863,0.283203,0
12150,-0.411621,-0.867676,0.289551,0
12170,-0.410156,-0.858887,0.289551,0
12190,-0.401855,-0.865234,0.292969,0
12210,-0.401855,-0.861328,0.290527,0
12230,-0.397461,-0.862793,0.299805,0
12250,-0.397461,-0.868164,0.300781,0
12260,-0.394531,-0.859375,0.304688,0
12280,-0.397461,-0.86377,0.302246,0
12300,-0.397949,-0.86377,0.297852,0
12310,-0.401855,-0.86377,0.291504,0
12330,-0.400879,-0.864746,0.292969,0
12350,-0.398926,-0.862793,0.288574,0
12370,-0.404297,-0.858398,0.289062,0
12390,-0.402344,-0.859863,0.28418,0
12410,-0.399902,-0.866211,0.290527,0
12430,-0.400879,-0.861328,0.293457,0
12450,-0.400879,-0.862305,0.291504,0
12470,-0.396973,-0.865234,0.289551,0
12490,-0.391602,-0.864746,0.294922,0
12510,-0.395508,-0.873047,0.298828,0
12530,-0.390137,-0.861328,0.299805,0
12550,-0.387207,-0.864258,0.300781,0
12570,-0.382812,-0.85791,0.304199,0
12590,-0.384766,-0.85498,0.307617,0
12610,-0.376465,-0.853516,0.3125,0
12630,-0.381348,-0.857422,0.319824,0
12650,-0.391602,-0.865723,0.319824,0
12670,-0.387695,-0.853027,0.319824,0
12690,-0.399414,-0.84668,0.320801,0
12710,-0.404785,-0.844238,0.324707,0
12730,-0.404785,-0.845703,0.322266,0
12750,-0.407227,-0.860352,0.32959,0
12770,-0.40918,-0.845215,0.330078,0
12790,-0.415039,-0.852539,0.324707,0
12810,-0.416992,-0.847656,0.325684,0
12830,-0.416504,-0.844238,0.324219,0
12850,-0.415039,-0.848145,0.321777,0
12870,-0.41748,-0.845703,0.322754,0
12890,-0.415527,-0.849121,0.316895,0
12910,-0.415039,-0.842773,0.318359,0
12930,-0.408691,-0.849121,0.321777,0
12950,-0.40918,-0.842773,0.319336,0
12970,-0.410156,-0.848633,0.322754,0
12990,-0.409668,-0.847656,0.314453,0
13010,-0.412109,-0.84668,0.30957,0
13030,-0.408691,-0.852051,0.311035,0
13050,-0.40625,-0.848633,0.318848,0
13070,-0.409668,-0.84668,0.324707,0
13080,-0.413086,-0.851074,0.31543,0
13100,-0.408203,-0.851562,0.310059,0
13120,-0.411621,-0.852051,0.312988,0
13140,-0.406738,-0.84375,0.309082,0
13160,-0.406738,-0.849609,0.310547,0
13180,-0.403809,-0.853027,0.313477,0
13200,-0.405273,-0.851562,0.310547,0
13220,-0.407715,-0.845703,0.314941,0
13240,-0.402832,-0.838867,0.318359,0
13260,-0.402344,-0.843262,0.322754,0
13280,-0.393555,-0.850098,0.319336,0
13300,-0.400879,-0.862305,0.323242,0
13320,-0.400391,-0.852051,0.338867,0
13340,-0.400391,-0.82666,0.347656,0
13360,-0.392578,-0.836914,0.331543,0
13380,-0.396484,-0.838379,0.310547,0
13400,-0.413574,-0.846191,0.313965,0
13420,-0.38916,-0.85791,0.332031,0
13440,-0.406738,-0.862305,0.312988,0
13460,-0.405273,-0.859375,0.319336,0
13480,-0.398926,-0.855957,0.317383,0
13500,-0.398438,-0.851074,0.319336,0
13520,-0.394531,-0.82959,0.344238,0
13540,-0.375,-0.835449,0.340332,0
13560,-0.389648,-0.852051,0.344238,0
13580,-0.39502,-0.864746,0.331543,0
13600,-0.392578,-0.858887,0.327637,0
13620,-0.390137,-0.867676,0.314453,0
13640,-0.385742,-0.866211,0.324219,0
13660,-0.383789,-0.861328,0.325195,0
13680,-0.405273,-0.845703,0.34375,0
13700,-0.391602,-0.828125,0.334473,0
13720,-0.384766,-0.829102,0.318848,0
13740,-0.396973,-0.845703,0.316406,0
13760,-0.401855,-0.870605,0.321777,0
13780,-0.402832,-0.873047,0.322754,0
13800,-0.403809,-0.864746,0.333984,0
13820,-0.397461,-0.843262,0.334473,0
13840,-0.398438,-0.842285,0.324219,0
13860,-0.391113,-0.84375,0.314453,0
13880,-0.384766,-0.845215,0.318848,0
13900,-0.389648,-0.853516,0.323242,0
13920,-0.385254,-0.86084,0.329102,0
13940,-0.388184,-0.874512,0.319824,0
13960,-0.36084,-0.850098,0.348145,0
13980,-0.375488,-0.835449,0.342773,0
14000,-0.377441,-0.833496,0.355469,0
14020,-0.369141,-0.836426,0.345703,0
14040,-0.355469,-0.845215,0.336914,0
14060,-0.373047,-0.849121,0.326172,0
14080,-0.376465,-0.865723,0.323242,0
14100,-0.373535,-0.856445,0.338867,0
14120,-0.391113,-0.84082,0.343262,0
14140,-0.401855,-0.831543,0.335938,0
14160,-0.396973,-0.838867,0.327637,0
14180,-0.386719,-0.84375,0.325684,0
14200,-0.390137,-0.84375,0.331055,0
14220,-0.397461,-0.844727,0.320312,0
14240,-0.399902,-0.84375,0.330078,0
14260,-0.395508,-0.832031,0.342285,0
14280,-0.384277,-0.848145,0.344727,0
14300,-0.383789,-0.86377,0.362305,0
14320,-0.377441,-0.84082,0.35498,0
14340,-0.383789,-0.824219,0.356934,0
14360,-0.376953,-0.842285,0.365723,0
14380,-0.359375,-0.854004,0.372559,0
14400,-0.361328,-0.861328,0.388672,0
14420,-0.370117,-0.847168,0.375977,0
14440,-0.379395,-0.845703,0.378418,0
14460,-0.379883,-0.861328,0.365234,0
14480,-0.371094,-0.849609,0.382324,0
14500,-0.367188,-0.847656,0.384766,0
14520,-0.355957,-0.849609,0.386719,0
14540,-0.35791,-0.868652,0.396484,0
14560,-0.346191,-0.861816,0.408203,0
14580,-0.330566,-0.873047,0.398926,0
14600,-0.300293,-0.879883,0.39209,0
14620,-0.272949,-0.879883,0.393066,0
14640,-0.28418,-0.896484,0.419434,0
14660,-0.288574,-0.90625,0.425781,0
14680,-0.229004,-0.891602,0.388672,0
14700,-0.21582,-0.899902,0.407715,0
14720,-0.0991211,-0.811523,0.360352,0
14740,-0.110352,-0.87793,0.381348,0
14760,-0.148926,-1.01709,0.416504,0
14780,-0.121094,-0.897949,0.350098,0
14800,-0.00390625,-0.865234,0.33252,0
14820,0.015625,-0.812012,0.334473,0
14840,0.0458984,-0.837402,0.329102,0
14860,0.0766602,-0.84082,0.368652,0
14880,0.0839844,-0.862305,0.363281,0
14900,0.0981445,-0.862305,0.371094,0
14920,0.0947266,-0.860352,0.356445,0
14940,0.139648,-0.855469,0.344727,0
14960,0.118652,-0.883789,0.344238,0
14980,0.142578,-0.875977,0.348633,0
15000,0.146484,-0.881348,0.33252,0
15020,0.152832,-0.877441,0.331055,0
15040,0.172852,-0.884766,0.327637,0
15050,0.159668,-0.904785,0.293945,0
15070,0.178711,-0.88623,0.287109,0
15090,0.1875,-0.880371,0.310547,0
15110,0.193848,-0.871094,0.31543,0
15130,0.198242,-0.875,0.306152,0
15150,0.216309,-0.891113,0.29541,0
15170,0.231934,-0.910645,0.288574,0
15190,0.260742,-0.897461,0.268555,0
15210,0.269043,-0.895996,0.261719,0
15230,0.277832,-0.919922,0.257324,0
15250,0.265625,-0.90918,0.240723,0
15270,0.275391,-0.883301,0.254883,0
15290,0.290527,-0.882324,0.273438,0
15310,0.303711,-0.87793,0.285645,0
15330,0.307129,-0.877441,0.29834,0
15350,0.307617,-0.87207,0.290039,0
15370,0.310547,-0.839355,0.284668,0
15390,0.316895,-0.831543,0.300293,0
15410,0.319824,-0.850586,0.313965,0
15430,0.33252,-0.853027,0.284668,0
15450,0.344727,-0.84375,0.273438,0
15470,0.344238,-0.842773,0.264648,0
15490,0.340332,-0.841797,0.277832,0
15510,0.348145,-0.85791,0.279297,0
15530,0.353516,-0.874023,0.281738,0
15550,0.366699,-0.868164,0.282715,0
15570,0.375488,-0.849609,0.26709,0
15590,0.383789,-0.757324,0.245605,0
15610,0.380371,-0.833984,0.26709,0
15630,0.387207,-0.915527,0.282227,0
15650,0.377441,-0.849121,0.266602,0
15670,0.379395,-0.852539,0.256836,0
15690,0.38623,-0.859863,0.249023,0
15710,0.369141,-0.834473,0.252441,0
15730,0.369141,-0.837891,0.261719,0
15750,0.368164,-0.842773,0.250977,0
15770,0.370605,-0.861328,0.259766,0
15790,0.364258,-0.849121,0.259766,0
15810,0.365723,-0.864258,0.258301,0
15830,0.367188,-0.861328,0.262695,0
15850,0.373047,-0.859863,0.262207,0
15870,0.374512,-0.858887,0.257324,0
15890,0.374023,-0.857422,0.264648,0
15910,0.367676,-0.857422,0.273438,0
15930,0.36377,-0.858398,0.26709,0
15950,0.361816,-0.862793,0.266602,0
15970,0.362305,-0.856934,0.263184,0
15990,0.378906,-0.853516,0.267578,0
16010,0.380859,-0.851074,0.257324,0
16030,0.379395,-0.84375,0.260254,0
16050,0.377441,-0.842773,0.271484,0
16070,0.381836,-0.845215,0.274414,0
16090,0.380859,-0.855957,0.275391,0
16110,0.372559,-0.86084,0.28418,0
16130,0.361816,-0.860352,0.276855,0
16150,0.361816,-0.86377,0.279297,0
16170,0.355957,-0.865234,0.274902,0
16190,0.347656,-0.854004,0.272949,0
16210,0.358398,-0.862793,0.272461,0
16230,0.369629,-0.901855,0.290039,0
16250,0.35791,-0.85498,0.27002,0
16270,0.359375,-0.842285,0.266602,0
16290,0.367188,-0.875488,0.254883,0
16310,0.375488,-0.874512,0.25293,0
16330,0.383789,-0.854492,0.255859,0
16350,0.379883,-0.872559,0.253906,0
16370,0.392578,-0.864746,0.258301,0
16390,0.388672,-0.856934,0.24707,0
16410,0.387695,-0.874023,0.25,0
16430,0.398926,-0.875488,0.248535,0
16450,0.411621,-0.890137,0.258789,0
16470,0.376953,-0.861816,0.256348,0
16490,0.397461,-0.866211,0.261719,0
16510,0.385254,-0.854004,0.255371,0
16530,0.391113,-0.846191,0.269043,0
16550,0.380859,-0.823242,0.269531,0
16570,0.38916,-0.822754,0.246582,0
16590,0.391113,-0.82373,0.257812,0
16610,0.398438,-0.84082,0.261719,0
16630,0.391113,-0.842773,0.245117,0
16650,0.398926,-0.845703,0.248047,0
16670,0.387695,-0.834961,0.244629,0
16690,0.40332,-0.859863,0.25293,0
16710,0.391602,-0.859863,0.244629,0
16730,0.394043,-0.86084,0.243164,0
16750,0.392578,-0.852539,0.229492,0
16770,0.375488,-0.848633,0.221191,0
16790,0.382812,-0.844727,0.224121,0
16810,0.394043,-0.856934,0.26123,0
16830,0.390625,-0.859863,0.208984,0
16850,0.413086,-0.850098,0.171387,0
16870,0.417969,-0.833496,0.197266,0
16890,0.421387,-0.870605,0.227539,0
16910,0.40918,-0.868164,0.266602,0
16930,0.376953,-0.845703,0.23291,0
16950,0.377441,-0.836426,0.216797,0
16970,0.367188,-0.836426,0.233398,0
16990,0.348633,-0.840332,0.233887,0
17010,0.366699,-0.834473,0.222656,0
17030,0.388184,-0.827637,0.217773,0
17050,0.390137,-0.833984,0.219238,0
17070,0.396973,-0.83252,0.208008,0
17090,0.400391,-0.837402,0.191406,0
17110,0.407715,-0.849609,0.200684,0
17130,0.405762,-0.862793,0.208496,0
17150,0.404297,-0.874023,0.214844,0
17170,0.39502,-0.870117,0.203125,0
17190,0.405273,-0.882324,0.213867,0
17210,0.410645,-0.882812,0.224121,0
17230,0.398926,-0.882812,0.229492,0
17250,0.401367,-0.876465,0.221191,0
17270,0.393555,-0.87793,0.229004,0
17290,0.378418,-0.887207,0.243652,0
17310,0.372559,-0.879395,0.236328,0
17330,0.374512,-0.875977,0.241699,0
17350,0.382324,-0.865723,0.234863,0
17370,0.388184,-0.858887,0.239258,0
17390,0.394531,-0.854004,0.241699,0
17410,0.391113,-0.846191,0.236328,0
17430,0.370605,-0.838379,0.246582,0
17450,0.357422,-0.842285,0.255371,0
17470,0.334961,-0.845215,0.25,0
17490,0.317383,-0.833984,0.257812,0
17510,0.266113,-0.805176,0.274902,0
17530,0.256836,-0.813477,0.265137,0
17550,0.255371,-0.806152,0.243164,0
17570,0.337402,-0.811523,0.250488,0
17590,0.398438,-0.822754,0.241699,0
17610,0.407227,-0.853516,0.23291,0
17630,0.38623,-0.850586,0.230469,0
17650,0.375488,-0.87793,0.211914,0
17670,0.410645,-0.953125,0.194824,0
17690,0.383301,-0.946777,0.189453,0
17710,0.379395,-1.0127,0.206543,0
17730,0.376465,-0.993164,0.227539,0
17750,0.36084,-0.962402,0.22168,0
17770,0.360352,-0.949707,0.211426,0
17790,0.337891,-0.902832,0.229004,0
17810,0.327148,-0.90625,0.244141,0
17830,0.301758,-0.880371,0.243164,0
17850,0.286621,-0.904785,0.23877,0
17870,0.254883,-0.882812,0.241211,0
17890,0.245605,-0.892578,0.274902,0
17910,0.314453,-0.899902,0.357422,0
17930,0.352539,-0.898926,0.350586,0
17950,0.361328,-0.767578,0.270996,0
17970,0.349609,-0.841797,0.300293,0
17990,0.333008,-0.830566,0.294434,0
18010,0.338867,-0.830566,0.294434,0
18030,0.322266,-0.822754,0.285156,0
18050,0.310547,-0.834961,0.289062,0
18070,0.313477,-0.839844,0.290039,0
18090,0.302246,-0.849609,0.270996,0
18110,0.296875,-0.850098,0.268555,0
18130,0.291016,-0.850586,0.276855,0
18150,0.272949,-0.859863,0.271973,0
18170,0.273926,-0.839355,0.258301,0
18190,0.307129,-0.847656,0.258789,0
18210,0.342773,-0.872559,0.244629,0
18230,0.347168,-0.880859,0.211914,0
18250,0.354004,-0.895508,0.194824,0
18270,0.35791,-0.925293,0.191895,0
18290,0.331055,-0.924316,0.182617,0
18310,0.296875,-0.926758,0.188965,0
18330,0.28125,-0.961426,0.208008,0
18350,0.258301,-0.894043,0.194336,0
18370,0.222168,-0.971191,0.246094,0
18390,0.177246,-0.781738,0.220215,0
18410,0.197266,-0.939453,0.26709,0
18430,0.195801,-0.937988,0.288086,0
18440,0.202148,-0.921387,0.306641,0
18460,0.217285,-0.911621,0.313477,0
18480,0.237305,-0.901855,0.29834,0
18500,0.250488,-0.880371,0.30127,0
18520,0.255859,-0.877441,0.282227,0
18540,0.26416,-0.875,0.278809,0
18560,0.263184,-0.886719,0.270508,0
18580,0.265137,-0.900391,0.259277,0
18600,0.275391,-0.912109,0.262695,0
18620,0.270508,-0.88916,0.259766,0
18640,0.274902,-0.87207,0.249023,0
18660,0.276855,-0.878906,0.250977,0
18680,0.275879,-0.899414,0.239258,0
18700,0.278809,-0.908691,0.232422,0
18720,0.294922,-0.912109,0.221191,0
18740,0.296387,-0.90918,0.213379,0
18760,0.314941,-0.89209,0.20459,0
18780,0.338379,-0.891113,0.194336,0
18800,0.34375,-0.898926,0.195801,0
18820,0.34375,-0.875488,0.188477,0
18840,0.343262,-0.880371,0.197754,0
18860,0.334473,-0.876465,0.215332,0
18880,0.328125,-0.876465,0.227051,0
18900,0.330566,-0.873535,0.243164,0
18920,0.333496,-0.865723,0.230957,0
18940,0.32959,-0.866699,0.223633,0
18960,0.330566,-0.865723,0.22168,0
18980,0.333008,-0.884277,0.208984,0
19000,0.340332,-0.87793,0.21582,0
19020,0.336914,-0.885742,0.217773,0
19040,0.339355,-0.876465,0.210938,0
19060,0.353027,-0.88916,0.210449,0
19080,0.34668,-0.892578,0.218262,0
19100,0.345703,-0.89502,0.21875,0
19120,0.335938,-0.884766,0.202148,0
19140,0.350098,-0.90332,0.199219,0
19160,0.333008,-0.892578,0.226074,0
19180,0.308105,-0.891602,0.221191,0
19200,0.291992,-0.887207,0.226562,0
19220,0.29248,-0.942383,0.250977,0
19240,0.257812,-0.905273,0.239258,0
19260,0.248047,-0.911621,0.244141,0
19280,0.223633,-0.87207,0.251953,0
19300,0.229004,-0.904785,0.245117,0
19320,0.189453,-0.846191,0.248535,0
19340,0.243164,-0.904297,0.255371,0
19360,0.257812,-0.904785,0.252441,0
19380,0.279297,-0.912598,0.245117,0
19400,0.301758,-0.900879,0.240234,0
19420,0.300293,-0.900879,0.235352,0
19440,0.295898,-0.888672,0.241699,0
19460,0.289062,-0.875488,0.249023,0
19480,0.277344,-0.869629,0.25,0
19500,0.273438,-0.870117,0.258789,0
19520,0.280762,-0.879883,0.272461,0
19540,0.270508,-0.894043,0.269043,0
19560,0.291992,-0.897461,0.276367,0
19580,0.290527,-0.898926,0.283203,0
19600,0.271484,-0.896973,0.270996,0
19620,0.253906,-0.891602,0.277832,0
19640,0.249023,-0.894043,0.285156,0
19660,0.243652,-0.899902,0.273926,0
19680,0.250488,-0.888672,0.27002,0
19700,0.252441,-0.899414,0.28125,0
19720,0.249512,-0.891113,0.292969,0
19740,0.258789,-0.90625,0.289062,0
19760,0.23584,-0.874023,0.294922,0
19780,0.255859,-0.882812,0.283203,0
19800,0.257812,-0.892578,0.283203,0
19820,0.262695,-0.891113,0.294922,0
19840,0.259277,-0.887207,0.294922,0
19860,0.26416,-0.890137,0.291016,0
19880,0.259766,-0.901367,0.277344,0
19900,0.259766,-0.902344,0.282227,0
19920,0.261719,-0.904297,0.276367,0
19940,0.27002,-0.908691,0.272949,0
19960,0.277832,-0.902344,0.273438,0
19980,0.27832,-0.900391,0.272461,0
20000,0.283691,-0.895996,0.272461,0
20020,0.295898,-0.888184,0.264648,0
20040,0.293945,-0.88916,0.254883,0
20060,0.297852,-0.88916,0.253906,0
20080,0.291504,-0.891113,0.27002,0
20100,0.29541,-0.87207,0.272461,0
20120,0.291504,-0.875977,0.269043,0
20140,0.293945,-0.880371,0.271484,0
20160,0.298828,-0.883301,0.26416,0
20180,0.298828,-0.880371,0.265625,0
20200,0.293945,-0.879883,0.257812,0
20220,0.289062,-0.885254,0.273926,0
20240,0.283691,-0.886719,0.273438,0
20260,0.278809,-0.891602,0.276855,0
20280,0.283203,-0.891602,0.276367,0
20300,0.287109,-0.891113,0.26709,0
20320,0.286621,-0.891113,0.272461,0
20340,0.28418,-0.88623,0.266113,0
20360,0.274902,-0.893066,0.262695,0
20380,0.278809,-0.893066,0.26416,0
20400,0.288086,-0.902344,0.262207,0
20410,0.288086,-0.897949,0.265625,0
20430,0.291504,-0.890625,0.260742,0
20450,0.28125,-0.88916,0.265137,0
20470,0.275879,-0.879395,0.276367,0
20490,0.275879,-0.883301,0.271973,0
20510,0.272949,-0.891602,0.272949,0
20530,0.271973,-0.888184,0.290039,0
20540,0.271484,-0.892578,0.280273,0
20560,0.273438,-0.882324,0.275879,0
20580,0.272461,-0.891602,0.285156,0
20600,0.285156,-0.891602,0.286621,0
20620,0.283691,-0.891113,0.282227,0
20640,0.27002,-0.873535,0.271484,0
20660,0.276367,-0.877441,0.288574,0
20680,0.29248,-0.892578,0.280762,0
20700,0.282715,-0.876465,0.285645,0
20720,0.282227,-0.888184,0.279297,0
20740,0.291992,-0.887207,0.287598,0
20760,0.310059,-0.883789,0.268555,0
20780,0.305176,-0.893555,0.255371,0
20800,0.301758,-0.873047,0.26709,0
20820,0.286621,-0.881836,0.287109,0
20840,0.300781,-0.887207,0.276367,0
20860,0.342285,-0.875488,0.271973,0
20880,0.317383,-0.873047,0.262695,0
20900,0.313477,-0.867676,0.257812,0
20920,0.310059,-0.870117,0.257812,0
20940,0.302246,-0.872559,0.25293,0
20960,0.296875,-0.87793,0.260742,0
20990,0.272461,-0.886719,0.279297,0
21010,0.366211,-0.888184,0.268066,0
21030,0.252441,-0.865723,0.260742,0
21050,0.305176,-0.878906,0.273438,0
21070,0.311523,-0.893555,0.270996,0
21090,0.301758,-0.871582,0.289062,0
21110,0.31543,-0.868164,0.284668,0
21130,0.318359,-0.880859,0.268066,0
21150,0.298828,-0.874023,0.271484,0
21170,0.311523,-0.890137,0.275879,0
21190,0.30957,-0.882324,0.28125,0
21210,0.312988,-0.880371,0.294922,0
21230,0.315918,-0.884766,0.278809,0
21250,0.312012,-0.882324,0.275879,0
21270,0.308594,-0.870117,0.289062,0
21290,0.289062,-0.882812,0.294922,0
21310,0.288086,-0.884766,0.294434,0
21330,0.289551,-0.892578,0.293457,0
21350,0.281738,-0.899414,0.292969,0
21370,0.277832,-0.890137,0.294922,0
21390,0.274902,-0.867676,0.307129,0
21410,0.288574,-0.868164,0.301758,0
21430,0.3125,-0.875977,0.279785,0
21450,0.30957,-0.87207,0.274902,0
21470,0.306641,-0.873535,0.283691,0
21490,0.319824,-0.879395,0.266113,0
21510,0.331055,-0.867188,0.269531,0
21530,0.319824,-0.864746,0.261719,0
21550,0.328125,-0.857422,0.272949,0
21570,0.329102,-0.861328,0.280762,0
21590,0.32666,-0.869141,0.267578,0
21610,0.32959,-0.86084,0.273926,0
21630,0.32666,-0.866699,0.290039,0
21650,0.332031,-0.858398,0.270996,0
21670,0.28125,-0.875977,0.197754,0
21690,0.741699,-0.895508,0.183594,0
21710,0.0107422,-0.856934,0.402832,0
21730,0.688965,-0.828125,0.606934,0
21750,0.891113,-0.838379,0.567871,0
21770,0.936523,-0.834473,0.509277,0
21790,0.893555,-0.860352,0.407715,0
21810,0.757812,-0.883789,0.263672,0
21830,0.200684,-0.856934,0.407227,0
21850,0.335449,-0.899414,0.306152,0
21870,0.293457,-0.89209,0.300293,0
21890,0.290527,-0.912109,0.310059,0
21910,0.29248,-0.932129,0.311035,0
21930,0.256348,-0.85498,0.285645,0
21950,0.043457,-0.887695,0.204102,0
21970,0.45752,-0.873047,0.61377,0
21990,-0.0463867,-0.901855,0.0708008,0
22000,0.217285,-0.885254,0.352539,0
22020,0.296387,-0.889648,0.30127,0
22040,0.273926,-0.884277,0.292969,0
22060,0.27832,-0.887207,0.286133,0
22080,0.287598,-0.893066,0.27832,0
22100,0.293945,-0.897461,0.27832,2000
22120,0.290527,-0.898438,0.276367,0
22140,0.290527,-0.904297,0.285645,0
22160,0.279785,-0.907715,0.295898,0
22180,0.277832,-0.936035,0.273926,0
22200,0.292969,-0.945312,0.265625,0
22220,0.285156,-0.918945,0.271973,0
22240,0.285645,-0.905762,0.26709,0
22260,0.279785,-0.898926,0.250977,0
22280,0.27832,-0.90625,0.244629,0
22300,0.264648,-0.914062,0.241211,0
22320,0.28418,-0.936523,0.209961,0
22340,0.289551,-0.934082,0.20459,0
22360,0.289551,-0.928223,0.20459,0
22380,0.284668,-0.935059,0.200195,0
22400,0.289551,-0.946777,0.191895,0
22420,0.286621,-0.931152,0.202637,0
22440,0.285156,-0.918457,0.19873,0
22460,0.287109,-0.896484,0.196289,0
22480,0.297852,-0.887695,0.188965,0
22500,0.304688,-0.885254,0.191895,0
22520,0.324707,-0.89502,0.189453,0
22540,0.308105,-0.878418,0.211426,0
22560,0.301758,-0.851074,0.219238,0
22580,0.285645,-0.858887,0.231934,0
22600,0.284668,-0.853516,0.22168,0
22640,0.305664,-0.859375,0.184082,0
22660,0.327148,-0.879395,0.187012,0
22700,0.337891,-0.892578,0.166016,0
22720,0.330566,-0.895508,0.162109,0
22740,0.339355,-0.904785,0.170898,0
22760,0.343262,-0.911621,0.174316,0
22780,0.349121,-0.912109,0.157227,0
22800,0.360352,-0.912109,0.152832,0
22820,0.353027,-0.893066,0.15332,0
22840,0.333496,-0.894531,0.175781,0
22860,0.33252,-0.894043,0.171387,0
22880,0.325195,-0.907227,0.177246,0
22900,0.322266,-0.919434,0.174805,0
22920,0.328613,-0.921875,0.167969,0
22940,0.319824,-0.911621,0.166016,0
22940,0.308594,-0.905273,0.174805,0
22950,0.309082,-0.90332,0.171875,0
22970,0.306641,-0.899414,0.184082,0
22990,0.304688,-0.909668,0.178711,0
23010,0.308594,-0.906738,0.182617,0
23030,0.305176,-0.907227,0.187988,0
23050,0.312012,-0.905273,0.185547,0
23070,0.316406,-0.901855,0.187988,0
23090,0.322266,-0.907715,0.179199,0
23110,0.324707,-0.898926,0.19043,0
23130,0.32666,-0.902832,0.184082,0
23150,0.334961,-0.901367,0.193359,0
23170,0.34082,-0.895508,0.204102,0
23190,0.34668,-0.893555,0.191406,0
23210,0.336914,-0.885254,0.187988,0
23230,0.322754,-0.887207,0.190918,0
23250,0.318359,-0.890625,0.191895,0
23270,0.313477,-0.888672,0.20752,0
23290,0.321289,-0.895508,0.207031,0
23310,0.315918,-0.899902,0.206055,0
23330,0.308105,-0.908203,0.202637,0
23350,0.307617,-0.911621,0.206055,0
23370,0.295898,-0.918457,0.208496,0
23390,0.290527,-0.916504,0.213379,0
23410,0.296387,-0.92627,0.233887,0
23430,0.306152,-0.932129,0.218262,0
23450,0.320312,-0.916504,0.209473,0
23470,0.327148,-0.910645,0.212402,0
23490,0.311523,-0.896973,0.220215,0
23510,0.308105,-0.88623,0.239258,0
23530,0.31543,-0.896973,0.234863,0
23550,0.32666,-0.890625,0.208984,0
23570,0.327637,-0.893066,0.216797,0
23590,0.326172,-0.888672,0.222656,0
23610,0.324219,-0.893555,0.216797,0
23630,0.335449,-0.892578,0.218262,0
23650,0.336914,-0.896484,0.220703,0
23670,0.323242,-0.879883,0.28418,0
23680,0.324219,-0.896973,0.0322266,0
23700,0.439941,-0.913574,-0.0131836,0
23720,0.62793,-0.884277,0.312012,0
23740,-0.0180664,-0.868652,0.174316,0
23760,0.663086,-0.891113,0.31543,0
23780,0.125977,-0.882812,0.097168,0
23800,0.446777,-0.86377,0.403809,0
23820,0.37207,-0.81543,0.0102539,0
23840,0.161621,-0.884766,0.444336,0
23860,0.650391,-0.907715,0.0317383,0
23880,-0.0756836,-0.841797,0.374512,0
23900,0.79834,-0.922852,0.15918,0
23920,-0.151855,-0.854492,0.281738,0
23940,0.769043,-0.914062,0.269531,0
23960,0.349609,-0.879883,0.304688,0
23980,0.320312,-0.890137,0.220215,0
24000,0.331543,-0.888672,0.23584,0
24020,0.339355,-0.899902,0.234863,0
24040,0.331543,-0.88623,0.23877,0
24060,0.324707,-0.878906,0.242676,0
24080,0.321777,-0.889648,0.233887,0
24100,0.328125,-0.880371,0.229492,0
24120,0.334961,-0.885742,0.222168,0
24140,0.381348,-0.966797,0.229492,0
24160,0.3125,-0.882812,0.249023,0
24180,0.315918,-0.885254,0.237793,0
24200,0.328125,-0.894043,0.23291,0
24220,0.338379,-0.895996,0.234375,0
24240,0.335938,-0.891602,0.223633,0
24260,0.330078,-0.882812,0.233887,0
24280,0.321777,-0.883301,0.242676,0
24300,0.325195,-0.890137,0.233398,0
24320,0.326172,-0.893555,0.236816,0
24340,0.279785,-0.814453,0.229004,0
24360,0.333008,-0.885254,0.237305,0
24380,0.327148,-0.881348,0.234863,0
24400,0.331055,-0.883301,0.231445,0
24420,0.32959,-0.888184,0.238281,0
24440,0.321777,-0.864258,0.236328,0
24460,0.318359,-0.876465,0.240234,0
24480,0.314941,-0.877441,0.237793,0
24500,0.311035,-0.886719,0.241699,0
24520,0.312988,-0.881348,0.244141,0
24540,0.316895,-0.880859,0.253418,0
24560,0.327148,-0.885742,0.243164,0
24580,0.328125,-0.880859,0.240234,0
24600,0.341797,-0.885742,0.243652,0
24620,0.346191,-0.887207,0.245117,0
24640,0.359863,-0.880859,0.244629,0
24660,0.347168,-0.88623,0.225098,0
24680,0.340332,-0.881836,0.219238,0
24700,0.325195,-0.878418,0.222656,0
24720,0.321289,-0.874023,0.234375,0
24740,0.313477,-0.891113,0.237793,0
24760,0.321289,-0.893066,0.227539,0
24780,0.322266,-0.890137,0.227539,0
24800,0.322754,-0.887207,0.227051,0
24820,0.325195,-0.876953,0.223633,0
24840,0.323242,-0.877441,0.225098,0
24860,0.330078,-0.877441,0.23291,0
24880,0.337891,-0.887207,0.229004,0
24900,0.347656,-0.881348,0.222656,0
24920,0.359375,-0.870605,0.225098,0
24940,0.369629,-0.869629,0.224609,0
24960,0.368652,-0.871582,0.212402,0
24980,0.373047,-0.87793,0.20752,0
25000,0.375488,-0.868652,0.215332,0
25020,0.359375,-0.872559,0.218262,0
25040,0.334961,-0.878418,0.228027,0
25060,0.326172,-0.882324,0.222656,0
25080,0.318848,-0.876465,0.232422,0
25100,0.317383,-0.873047,0.232422,0
25120,0.313477,-0.874512,0.234863,0
25140,0.322266,-0.885742,0.225586,0
25160,0.313965,-0.888184,0.226074,0
25180,0.313965,-0.893066,0.229492,0
25200,0.313965,-0.896973,0.233398,0
25220,0.308594,-0.898926,0.233887,0
25240,0.325195,-0.89502,0.241699,0
25260,0.341309,-0.890625,0.239746,0
25280,0.344727,-0.892578,0.230469,0
25300,0.336426,-0.882812,0.222656,0
25320,0.337891,-0.890137,0.227539,0
25340,0.356445,-0.877441,0.225586,0
25360,0.369629,-0.889648,0.212402,0
25380,0.367676,-0.885254,0.217773,0
25400,0.360352,-0.883301,0.221191,0
25420,0.354004,-0.885254,0.212402,0
25440,0.367676,-0.885742,0.217285,0
25460,0.373047,-0.88916,0.208008,0
25480,0.366699,-0.874512,0.207031,0
25500,0.369141,-0.875488,0.205078,0
25520,0.369141,-0.876953,0.199707,0
25540,0.385254,-0.873047,0.192871,0
25560,0.397461,-0.87207,0.19043,0
25580,0.39502,-0.875,0.196777,0
25600,0.378418,-0.875,0.191895,0
25620,0.397949,-0.753418,0.158691,0
25630,0.385742,-0.866211,0.183594,0
25650,0.401367,-0.868164,0.18457,0
25670,0.399902,-0.874512,0.187012,0
25690,0.387207,-0.877441,0.191895,0
25710,0.377441,-0.873047,0.194824,0
25730,0.383789,-0.875977,0.191406,0
25750,0.39209,-0.869141,0.19043,0
25770,0.393555,-0.868652,0.183105,0
25790,0.390625,-0.877441,0.179199,0
25810,0.384277,-0.879395,0.193848,0
25830,0.376465,-0.888672,0.184082,0
25850,0.382812,-0.887207,0.184082,0
25870,0.378418,-0.885742,0.178223,0
25890,0.421875,-0.724609,0.141113,0
25910,0.385254,-0.874023,0.185547,0
25930,0.382324,-0.874512,0.178711,0
25950,0.39502,-0.869629,0.178711,0
25970,0.388672,-0.865723,0.175293,0
25990,0.387207,-0.870605,0.179688,0
26010,0.393066,-0.86377,0.17334,0
26030,0.402832,-0.866211,0.166992,0
26050,0.418457,-0.864746,0.185059,0
26070,0.404785,-0.876465,0.172363,0
26090,0.40625,-0.869141,0.170898,0
26110,0.411621,-0.866699,0.17041,0
26130,0.408203,-0.866699,0.163574,0
26150,0.416016,-0.867188,0.165039,0
26170,0.421875,-0.874512,0.169434,0
26190,0.42334,-0.870117,0.171875,0
26230,0.380859,-0.878906,0.167969,0
26250,0.378418,-0.87207,0.170898,0
26270,0.371582,-0.866699,0.167969,0
26290,0.378906,-0.878906,0.166016,0
26310,0.385254,-0.87793,0.175293,0
26330,0.390625,-0.875977,0.174805,0
26350,0.39209,-0.881836,0.172363,0
26370,0.397949,-0.880859,0.168945,0
26390,0.397949,-0.880859,0.151367,0
26410,0.414062,-0.882812,0.14209,0
26430,0.409668,-0.869629,0.143066,0
26450,0.425293,-0.872559,0.142578,0
26470,0.433105,-0.910645,0.15332,0
26490,0.430664,-0.874023,0.138672,0
26510,0.432617,-0.871582,0.124023,0
26530,0.436035,-0.87207,0.124023,0
26550,0.442383,-0.861816,0.130859,0
26570,0.445801,-0.868164,0.126953,0
26590,0.444336,-0.867676,0.139648,0
26620,0.461426,-0.854492,0.124512,0
26630,0.450195,-0.855957,0.114746,0
26650,0.458984,-0.842773,0.112793,0
26650,0.45459,-0.836914,0.11084,0
26660,0.464355,-0.844238,0.119141,0
26680,0.470703,-0.843262,0.117188,0
26700,0.462402,-0.834961,0.107422,0
26710,0.469238,-0.834961,0.106934,0
26730,0.388672,-1.05518,0.19873,0
26740,0.48584,-0.827148,0.118652,0
26750,0.489258,-0.839355,0.11084,0
26770,0.500488,-0.835938,0.11084,0
26790,0.497559,-0.833984,0.11084,0
26810,0.504395,-0.831055,0.110352,0
26830,0.494629,-0.839844,0.121582,0
26850,0.496094,-0.833984,0.121582,0
26860,0.5,-0.828125,0.129883,0
26880,0.515137,-0.822754,0.124512,0
26890,0.51709,-0.817871,0.128906,0
26920,0.515625,-0.807617,0.131836,0
26940,0.512207,-0.806641,0.119141,0
26960,0.538574,-0.793945,0.161133,0
26980,0.533691,-0.79834,0.157227,0
27000,0.533203,-0.786133,0.149414,0
27010,0.55127,-0.790527,0.171387,0
27020,0.54834,-0.786621,0.180664,0
27060,0.567383,-0.779785,0.177246,0
27090,0.561523,-0.783203,0.195312,0
27110,0.5625,-0.772949,0.179199,0
27130,0.562988,-0.76709,0.186035,0
27140,0.562012,-0.77832,0.192871,0
27160,0.566406,-0.76709,0.19043,0
27180,0.554199,-0.768066,0.201172,0
27200,0.557129,-0.759277,0.203125,0
27220,0.556641,-0.760254,0.201172,0
27240,0.559082,-0.758789,0.209473,0
27260,0.557617,-0.761719,0.217285,0
27280,0.553223,-0.748047,0.217773,0
27300,0.565918,-0.750977,0.212891,0
27320,0.572754,-0.760742,0.211426,0
27340,0.569824,-0.746582,0.222168,0
27360,0.561035,-0.756348,0.210449,0
27380,0.567383,-0.754883,0.219727,0
27400,0.574219,-0.755371,0.223145,0
27420,0.566406,-0.749512,0.231934,0
27440,0.554199,-0.741211,0.231445,0
27460,0.564941,-0.746582,0.226562,0
27480,0.56543,-0.752441,0.224121,0
27500,0.575195,-0.745605,0.229492,0
27520,0.555176,-0.556641,0.23291,0
27540,0.565918,-0.735352,0.234863,0
27560,0.569824,-0.743164,0.22998,0
27580,0.580078,-0.73584,0.231934,0
27600,0.578613,-0.742188,0.23877,0
27620,0.572266,-0.739258,0.238281,0
27640,0.570801,-0.744141,0.243652,0
27660,0.553223,-0.682617,0.239258,0
27680,0.564941,-0.740234,0.231445,0
27700,0.57666,-0.736816,0.241699,0
27720,0.568359,-0.729492,0.252441,0
27740,0.569824,-0.740234,0.259277,0
27760,0.577637,-0.731934,0.251953,0
27780,0.575684,-0.734863,0.25,0
27800,0.579102,-0.736328,0.268555,0
27820,0.569336,-0.71582,0.265137,0
27840,0.563477,-0.721191,0.260254,0
27860,0.578125,-0.724121,0.255859,0
27880,0.575195,-0.743164,0.27002,0
27900,0.549316,-0.730469,0.280273,0
27920,0.557617,-0.728027,0.279297,0
27940,0.553711,-0.706543,0.266602,0
27960,0.588867,-0.773438,0.283203,0
27980,0.566406,-0.740234,0.27002,0
28000,0.549805,-0.721191,0.264648,0
28020,0.562012,-0.737305,0.275879,0
28040,0.563477,-0.728516,0.289062,0
28050,0.555176,-0.736328,0.288574,0
28070,0.563477,-0.749023,0.289062,0
28090,0.575684,-0.754883,0.288086,0
28110,0.544434,-0.734375,0.293945,0
28130,0.549805,-0.723145,0.293457,0
28150,0.555664,-0.717773,0.283691,0
28170,0.564941,-0.730469,0.277344,0
28200,0.546875,-0.731934,0.307129,0
28220,0.568848,-0.736816,0.304688,0
28240,0.546875,-0.729492,0.30127,0
28270,0.56543,-0.730469,0.293945,0
28290,0.569824,-0.742676,0.299805,0
28310,0.559082,-0.723145,0.308594,0
28330,0.559082,-0.719727,0.310059,0
28350,0.561035,-0.742188,0.308594,0
28370,0.543945,-0.716309,0.313477,0
28390,0.54541,-0.728516,0.321289,0
28410,0.537598,-0.702148,0.314453,0
28430,0.575195,-0.750488,0.31543,0
28450,0.543457,-0.738281,0.328613,0
28460,0.537598,-0.736328,0.330566,0
28480,0.526855,-0.737793,0.322754,0
28500,0.524902,-0.735352,0.319336,0
28520,0.53418,-0.746094,0.336426,0
28540,0.525391,-0.72168,0.334961,0
28560,0.519531,-0.711914,0.321289,0
28580,0.521484,-0.72168,0.333496,0
28600,0.51123,-0.717285,0.344727,0
28620,0.510254,-0.715332,0.34082,0
28640,0.515137,-0.715332,0.345215,0
28660,0.518066,-0.72168,0.337891,0
28680,0.52002,-0.709473,0.341797,0
28700,0.522949,-0.719727,0.341797,0
28720,0.532227,-0.719727,0.329102,0
28740,0.535156,-0.712891,0.331543,0
28760,0.536621,-0.703613,0.327637,0
28780,0.54834,-0.710449,0.32959,0
28800,0.551758,-0.708984,0.323242,0
28820,0.552734,-0.716797,0.313477,0
28840,0.550781,-0.719238,0.322266,0
28860,0.545898,-0.720703,0.325684,0
28880,0.545898,-0.749023,0.32373,0
28900,0.539551,-0.727051,0.318848,0
28920,0.544434,-0.735352,0.322754,0
28940,0.535156,-0.736816,0.334473,0
28960,0.537109,-0.738281,0.319336,0
28980,0.542969,-0.730957,0.327637,0
29000,0.541992,-0.730469,0.318359,0
29020,0.536133,-0.716309,0.322754,0
29040,0.530273,-0.706543,0.308594,0
29060,0.541992,-0.723145,0.32373,0
29080,0.535645,-0.725098,0.31543,0
29100,0.508789,-0.722656,0.30957,0
29120,0.519531,-0.704102,0.306152,0
29140,0.520996,-0.718262,0.326172,0
29160,0.52002,-0.736816,0.322266,0
29180,0.501465,-0.735352,0.322754,0
29200,0.503906,-0.762207,0.321777,0
29220,0.512695,-0.749512,0.334961,0
29240,0.500977,-0.740234,0.325684,0
29260,0.505371,-0.730469,0.331055,0
29280,0.498535,-0.733398,0.336426,0
29300,0.49707,-0.736328,0.328125,0
29320,0.5,-0.749023,0.338867,0
29340,0.503906,-0.745117,0.339844,0
29360,0.488281,-0.742676,0.343262,0
29380,0.46875,-0.723633,0.345215,0
29400,0.486328,-0.731445,0.340332,0
29420,0.488281,-0.730957,0.347168,0
29440,0.48584,-0.73584,0.351074,0
29460,0.487793,-0.75293,0.349609,0
29480,0.50293,-0.739258,0.350098,0
29500,0.505859,-0.75293,0.347656,0
29520,0.499512,-0.745117,0.353027,0
29540,0.495117,-0.739258,0.354492,0
29560,0.487793,-0.744141,0.35498,0
29580,0.484863,-0.740723,0.35498,0
29600,0.498535,-0.75,0.354492,0
29620,0.48584,-0.754883,0.349121,0
29640,0.481934,-0.726562,0.350586,0
29660,0.478516,-0.730469,0.36377,0
29680,0.48584,-0.735352,0.358887,0
29700,0.483398,-0.744141,0.35791,0
29720,0.48584,-0.732422,0.35791,0
29740,0.490723,-0.736328,0.367676,0
29760,0.493164,-0.746094,0.357422,0
29780,0.493164,-0.73877,0.360352,0
29800,0.486328,-0.735352,0.352051,0
29820,0.484863,-0.736816,0.36084,0
29840,0.494629,-0.734375,0.361328,0
29860,0.483398,-0.733398,0.36377,0
29880,0.480957,-0.73584,0.362305,0
29900,0.478027,-0.746582,0.365234,0
29920,0.483887,-0.740234,0.367676,0
29940,0.475098,-0.737305,0.36377,0
29960,0.48877,-0.724121,0.361816,0
29980,0.487305,-0.72998,0.362305,0
30000,0.489746,-0.740234,0.367676,0
30020,0.480957,-0.742188,0.369629,0
30040,0.469727,-0.741211,0.358398,0
30060,0.481934,-0.734863,0.362793,0
30080,0.480469,-0.733887,0.369141,0
30100,0.47168,-0.739258,0.361816,0
30120,0.479492,-0.743652,0.359863,0
30140,0.489258,-0.74707,0.36084,0
30160,0.485352,-0.739746,0.366211,0
30180,0.477539,-0.745117,0.356445,0
30200,0.476074,-0.740723,0.361816,0
30220,0.479492,-0.742676,0.358887,0
30240,0.470215,-0.743652,0.367188,0
30260,0.464355,-0.739746,0.359375,0
30280,0.46582,-0.746094,0.369141,0
30300,0.456543,-0.745117,0.366699,0
30320,0.456543,-0.753418,0.366699,0
30340,0.462891,-0.751953,0.375977,0
30360,0.45752,-0.746094,0.374023,0
30380,0.439453,-0.75293,0.366699,0
30400,0.443848,-0.751465,0.367676,0
30410,0.45166,-0.760254,0.378906,0
30430,0.459473,-0.756836,0.368652,0
30450,0.447266,-0.751953,0.365723,0
30470,0.443359,-0.755859,0.361328,0
30490,0.441895,-0.753906,0.363281,0
30510,0.431152,-0.759766,0.364746,0
30530,0.435547,-0.763184,0.367188,0
30550,0.461914,-0.762207,0.369141,0
30570,0.45459,-0.75293,0.369629,0
30590,0.43457,-0.762695,0.372559,0
30610,0.435547,-0.769043,0.375977,0
30630,0.440918,-0.775391,0.376465,0
30650,0.446289,-0.769531,0.364746,0
30670,0.444336,-0.751465,0.371094,0
30690,0.43457,-0.753906,0.371582,0
30710,0.433105,-0.754883,0.380371,0
30730,0.430664,-0.76709,0.374512,0
30750,0.424316,-0.770508,0.376465,0
30770,0.418945,-0.766113,0.374512,0
30790,0.418945,-0.759277,0.370117,0
30810,0.425781,-0.759277,0.373047,0
30830,0.415527,-0.764648,0.373535,0
30850,0.413086,-0.771973,0.373535,0
30870,0.418945,-0.760254,0.37207,0
30890,0.416504,-0.76416,0.372559,0
30910,0.413574,-0.76123,0.371094,0
30930,0.413086,-0.76416,0.364746,0
30950,0.419922,-0.760254,0.368652,0
30970,0.431152,-0.76123,0.358398,0
30990,0.45166,-0.766113,0.356445,0
31010,0.459961,-0.766602,0.35791,0
31030,0.45752,-0.770508,0.353027,0
31050,0.466797,-0.768066,0.35498,0
31070,0.469238,-0.766113,0.339844,0
31090,0.461426,-0.761719,0.333984,0
31110,0.466309,-0.759277,0.344238,0
31130,0.460938,-0.77002,0.345703,0
31150,0.457031,-0.769531,0.338867,0
31170,0.45166,-0.768066,0.333984,0
31190,0.45752,-0.756348,0.346191,0
31210,0.442871,-0.765137,0.348145,0
31230,0.427734,-0.764648,0.354004,0
31250,0.430664,-0.778809,0.340332,0
31270,0.441895,-0.783691,0.349609,0
31290,0.443359,-0.768066,0.348145,0
31310,0.439453,-0.763672,0.348633,0
31330,0.45166,-0.770508,0.334961,0
31350,0.460449,-0.775879,0.350098,0
31370,0.456055,-0.782227,0.338379,0
31390,0.451172,-0.773926,0.346191,0
31410,0.444336,-0.768555,0.342285,0
31430,0.458008,-0.773438,0.334473,0
31450,0.459961,-0.774414,0.346191,0
31470,0.431152,-0.773438,0.342773,0
31490,0.42334,-0.775879,0.345703,0
31510,0.427246,-0.781738,0.336914,0
31530,0.436523,-0.782715,0.342285,0
31550,0.435547,-0.777832,0.346191,0
31570,0.443848,-0.774414,0.336426,0
31590,0.450195,-0.78125,0.331055,0
31610,0.458984,-0.785156,0.336914,0
31630,0.45459,-0.779785,0.339355,0
31650,0.450684,-0.774902,0.34082,0
31670,0.444824,-0.773926,0.32959,0
31690,0.452637,-0.780273,0.322754,0
31710,0.460938,-0.78418,0.32666,0
31730,0.452148,-0.775879,0.329102,0
31750,0.443848,-0.774902,0.328125,0
31770,0.4375,-0.775879,0.331055,0
31790,0.44873,-0.784668,0.330078,0
31810,0.458984,-0.789062,0.324707,0
31830,0.458496,-0.780273,0.332031,0
31850,0.435059,-0.77002,0.332031,0
31870,0.439941,-0.784668,0.335449,0
31890,0.45166,-0.786133,0.32373,0
31910,0.444336,-0.791504,0.330566,0
31930,0.44043,-0.777832,0.322754,0
31950,0.448242,-0.774414,0.327148,0
31970,0.447754,-0.778809,0.330566,0
31990,0.446289,-0.785645,0.333984,0
32010,0.435059,-0.785156,0.330078,0
32030,0.444824,-0.777832,0.327148,0
32050,0.447754,-0.781738,0.34082,0
32070,0.433594,-0.771484,0.339355,0
32090,0.413574,-0.786621,0.329102,0
32110,0.422363,-0.774414,0.336914,0
32130,0.433594,-0.782227,0.32666,0
32150,0.436035,-0.787598,0.324219,0
32170,0.435059,-0.790039,0.328125,0
32190,0.433594,-0.799316,0.327148,0
32210,0.450195,-0.802734,0.323242,0
32230,0.449707,-0.797363,0.327637,0
32250,0.440918,-0.796875,0.320312,0
32270,0.441895,-0.800293,0.312012,0
32290,0.453125,-0.794922,0.314941,0
32310,0.44873,-0.799805,0.313965,0
32330,0.435547,-0.793457,0.31543,0
32350,0.437988,-0.795898,0.316895,0
32370,0.435059,-0.800781,0.324707,0
32390,0.437012,-0.794922,0.320312,0
32410,0.437988,-0.79541,0.312988,0
32430,0.442871,-0.79248,0.304199,0
32450,0.441895,-0.791992,0.311523,0
32470,0.442383,-0.797363,0.308594,0
32490,0.441895,-0.793457,0.306152,0
32510,0.435059,-0.800293,0.306152,0
32530,0.433105,-0.782227,0.302734,0
32550,0.430664,-0.790039,0.30127,0
32570,0.428223,-0.785156,0.301758,0
32590,0.427734,-0.786133,0.301758,0
32610,0.431641,-0.792969,0.306152,0
32630,0.431641,-0.789062,0.306152,0
32650,0.432129,-0.793945,0.29541,0
32670,0.447266,-0.791016,0.290039,0
32690,0.452637,-0.796875,0.306152,0
32710,0.45166,-0.790039,0.299805,0
32730,0.460449,-0.796875,0.283691,0
32750,0.47168,-0.804199,0.280273,0
32770,0.463379,-0.818359,0.287109,0
32790,0.453125,-0.805176,0.286621,0
32810,0.447754,-0.800781,0.287598,0
32830,0.475098,-0.800293,0.288574,0
32850,0.470215,-0.787598,0.282227,0
32870,0.479004,-0.793457,0.276855,0
32890,0.47998,-0.791992,0.283203,0
32910,0.461914,-0.793945,0.284668,0
32930,0.46582,-0.783203,0.267578,0
32950,0.466309,-0.785645,0.271484,0
32970,0.474609,-0.797363,0.270508,0
32990,0.476562,-0.794434,0.279785,0
33010,0.470215,-0.79834,0.279785,0
33030,0.460938,-0.799805,0.262695,0
33050,0.45166,-0.79834,0.272461,0
33070,0.438477,-0.800781,0.26709,0
33090,0.450684,-0.800781,0.275879,0
33110,0.452148,-0.809082,0.267578,0
33130,0.444336,-0.806641,0.26123,0
33150,0.444824,-0.805664,0.272461,0
33170,0.450195,-0.818848,0.267578,0
33190,0.458496,-0.813965,0.269531,0
33210,0.449707,-0.818359,0.267578,0
33230,0.456055,-0.816895,0.265625,0
33250,0.461426,-0.820801,0.26709,0
33270,0.452637,-0.817383,0.266113,0
33290,0.4375,-0.801758,0.268066,0
33310,0.457031,-0.810059,0.267578,0
33330,0.460938,-0.811035,0.272461,0
33350,0.45166,-0.814941,0.268066,0
33370,0.454102,-0.804688,0.264648,0
33390,0.458496,-0.818848,0.266602,0
33410,0.457031,-0.805664,0.259766,0
33430,0.452148,-0.796387,0.262695,0
33450,0.453125,-0.801758,0.265625,0
33470,0.458496,-0.793457,0.258301,0
33490,0.452637,-0.796387,0.262695,0
33510,0.453613,-0.804688,0.250977,0
33530,0.446777,-0.813477,0.254883,0
33550,0.455078,-0.803711,0.254883,0
33570,0.460449,-0.799805,0.258789,0
33590,0.459961,-0.794922,0.242188,0
33610,0.469727,-0.800293,0.245605,0
33630,0.470215,-0.812988,0.241211,0
33650,0.483398,-0.802734,0.24707,0
33670,0.480957,-0.799805,0.248047,0
33690,0.487305,-0.803711,0.237793,0
33710,0.493652,-0.799316,0.243164,0
33730,0.494141,-0.799316,0.241211,0
33750,0.493164,-0.789062,0.23584,0
33770,0.484863,-0.800781,0.242676,0
33790,0.48584,-0.799316,0.227539,0
33800,0.48877,-0.800293,0.237305,0
33820,0.491699,-0.792969,0.225586,0
33840,0.495117,-0.789062,0.227051,0
33860,0.49707,-0.790527,0.229004,0
33880,0.494141,-0.791016,0.228516,0
33900,0.494141,-0.790527,0.229492,0
33920,0.492188,-0.790527,0.229004,0
33940,0.504395,-0.788574,0.226562,0
33960,0.502441,-0.785645,0.228027,0
33980,0.505371,-0.773926,0.222168,0
34000,0.513184,-0.779297,0.214844,0
34020,0.505859,-0.784668,0.214355,0
34040,0.500488,-0.79248,0.217773,0
34060,0.511719,-0.796875,0.225586,0
34080,0.520996,-0.792969,0.224609,0
34100,0.529297,-0.799805,0.229004,0
34120,0.526367,-0.785645,0.220703,0
34140,0.54248,-0.787598,0.217773,0
34160,0.535645,-0.777344,0.213867,0
34180,0.532227,-0.77832,0.207031,0
34200,0.491211,-0.770996,0.213867,0
34220,0.542969,-0.770996,0.219727,0
34240,0.53125,-0.780273,0.218262,0
34260,0.533203,-0.770508,0.20459,0
34280,0.536133,-0.769043,0.210449,0
34300,0.530273,-0.773438,0.213867,0
34320,0.535645,-0.770508,0.19873,0
34340,0.557129,-0.786621,0.197266,0
34360,0.561035,-0.780762,0.191406,0
34380,0.558594,-0.783691,0.188965,0
34400,0.541992,-0.768555,0.193848,0
34420,0.533691,-0.785156,0.192871,0
34440,0.546875,-0.776855,0.196777,0
34460,0.54541,-0.778809,0.180176,0
34480,0.538086,-0.771973,0.188477,0
34500,0.538086,-0.769043,0.1875,0
34520,0.552246,-0.771484,0.19043,0
34540,0.567383,-0.788574,0.190918,0
34560,0.562988,-0.783203,0.185059,0
34580,0.544434,-0.760254,0.188965,0
34600,0.573242,-0.769043,0.195312,0
34620,0.557129,-0.777344,0.189453,0
34640,0.551758,-0.777344,0.186523,0
34660,0.55127,-0.759277,0.195801,0
34680,0.556641,-0.759277,0.189941,0
34700,0.565918,-0.756836,0.191406,0
34720,0.565918,-0.765137,0.172363,0
34740,0.566406,-0.762207,0.185059,0
34760,0.560059,-0.754883,0.19043,0
34780,0.586426,-0.751465,0.179199,0
34790,0.589844,-0.750488,0.184082,0
34800,0.596191,-0.752441,0.167969,0
34820,0.598145,-0.741699,0.163086,0
34840,0.599121,-0.750488,0.163574,0
34860,0.588867,-0.746582,0.161621,0
34880,0.597656,-0.741699,0.165527,0
34900,0.595215,-0.746582,0.164551,0
34920,0.601074,-0.743164,0.163574,0
34940,0.598633,-0.749512,0.170898,0
34960,0.591309,-0.744141,0.169922,0
34980,0.595703,-0.744141,0.169922,0
35000,0.599121,-0.733398,0.160156,0
35020,0.602051,-0.726074,0.156738,0
35040,0.602051,-0.738281,0.152344,0
35060,0.60791,-0.726562,0.163574,0
35100,0.61084,-0.738281,0.153809,0
35120,0.611816,-0.736816,0.155273,0
35140,0.601074,-0.735352,0.149414,0
35160,0.597656,-0.730469,0.146973,0
35180,0.605957,-0.749023,0.15332,0
35200,0.623535,-0.726562,0.15332,0
35220,0.623047,-0.723145,0.141113,0
35240,0.640137,-0.719238,0.140625,0
35260,0.640625,-0.726562,0.136719,0
35280,0.627441,-0.718262,0.143066,0
35300,0.621582,-0.712402,0.144531,0
35320,0.646973,-0.706543,0.129883,0
35340,0.653809,-0.700684,0.125,0
35360,0.655273,-0.702148,0.119629,0
35380,0.649414,-0.689941,0.135254,0
35400,0.651855,-0.699219,0.126465,0
35420,0.649902,-0.689941,0.119141,0
35440,0.664551,-0.692871,0.128906,0
35460,0.651367,-0.692871,0.124023,0
35480,0.661133,-0.678711,0.120117,0
35500,0.664551,-0.688477,0.118164,0
35520,0.66748,-0.679199,0.112793,0
35540,0.671387,-0.6875,0.108398,0
35560,0.680176,-0.681641,0.103516,0
35580,0.682129,-0.675781,0.114746,0
35600,0.679199,-0.679688,0.113281,0
35620,0.6875,-0.669434,0.11377,0
35630,0.694824,-0.670898,0.105957,0
35650,0.698242,-0.67041,0.10791,0
35670,0.684082,-0.65918,0.107422,0
35690,0.684082,-0.65918,0.105469,0
35710,0.701172,-0.658691,0.106445,0
35730,0.694336,-0.65918,0.102539,0
35750,0.692383,-0.646973,0.108398,0
35770,0.703125,-0.643555,0.11377,0
35790,0.711914,-0.645996,0.111816,0
35810,0.712402,-0.627441,0.10791,0
35830,0.724121,-0.635742,0.105469,0
35850,0.732422,-0.630859,0.112305,0
35870,0.737305,-0.638672,0.116211,0
35890,0.731934,-0.627441,0.122559,0
35910,0.742188,-0.62207,0.128906,0
35930,0.743652,-0.625488,0.125,0
35950,0.75,-0.621582,0.118164,0
35970,0.750977,-0.631348,0.126465,0
35990,0.762207,-0.628418,0.136719,0
36010,0.744141,-0.616211,0.138184,0
36030,0.723145,-0.584473,0.132324,0
36050,0.734863,-0.571289,0.12207,0
36070,0.75293,-0.574707,0.129883,0
36090,0.750488,-0.574219,0.137207,0
36110,0.746094,-0.585938,0.135254,0
36130,0.757324,-0.572754,0.141602,0
36150,0.77002,-0.578613,0.141113,0
36170,0.773438,-0.57373,0.152344,0
36190,0.760254,-0.567871,0.150879,0
36210,0.750488,-0.571777,0.145996,0
36230,0.756348,-0.574219,0.147461,0
36250,0.751953,-0.587402,0.148438,0
36270,0.741211,-0.580566,0.167969,0
36290,0.742188,-0.574219,0.172852,0
36310,0.744141,-0.565918,0.178223,0
36330,0.76123,-0.570312,0.166504,0
36350,0.766113,-0.583984,0.176758,0
36370,0.754883,-0.579102,0.187012,0
36390,0.750488,-0.571289,0.189941,0
36410,0.763672,-0.573242,0.191895,0
36430,0.773926,-0.561523,0.197266,0
36450,0.782715,-0.562988,0.203613,0
36470,0.760742,-0.554199,0.228516,0
36490,0.74707,-0.546387,0.237793,0
36510,0.753418,-0.528809,0.234863,0
36530,0.753906,-0.52832,0.226562,0
36550,0.750977,-0.51709,0.223633,0
36570,0.755859,-0.517578,0.227051,0
36590,0.762207,-0.527832,0.216309,0
36610,0.77002,-0.529785,0.213867,0
36630,0.772461,-0.541992,0.208984,0
36650,0.772461,-0.54541,0.209473,0
36670,0.790039,-0.597168,0.225586,0
36690,0.778809,-0.535156,0.191895,0
36710,0.778809,-0.541992,0.189941,0
36730,0.78125,-0.544434,0.187012,0
36750,0.772461,-0.544922,0.189941,0
36770,0.755859,-0.541504,0.198242,0
36790,0.75293,-0.538574,0.195801,0
36810,0.76709,-0.546875,0.193848,0
36830,0.750977,-0.55957,0.197266,0
36850,0.753906,-0.553711,0.191406,0
36870,0.754395,-0.551758,0.193848,0
36890,0.758789,-0.53418,0.189453,0
36910,0.760254,-0.552734,0.208496,0
36930,0.754395,-0.555176,0.205078,0
36950,0.748535,-0.541504,0.196289,0
36970,0.763672,-0.551758,0.205566,0
36990,0.767578,-0.550293,0.206055,0
37010,0.747559,-0.554199,0.198242,0
37030,0.75293,-0.54834,0.205566,0
37050,0.757324,-0.544922,0.206055,0
37070,0.748047,-0.54541,0.216309,0
37090,0.755859,-0.551758,0.217773,0
37110,0.750977,-0.546387,0.217285,0
37130,0.750977,-0.538574,0.213867,0
37150,0.753906,-0.534668,0.217285,0
37170,0.751953,-0.541992,0.227051,0
37190,0.742188,-0.536133,0.230957,0
37210,0.74707,-0.56543,0.236816,0
37230,0.744141,-0.528809,0.240234,0
37250,0.750488,-0.535156,0.23877,0
37270,0.751465,-0.53418,0.243652,0
37290,0.742676,-0.535645,0.247559,0
37310,0.747559,-0.539551,0.253418,0
37330,0.753906,-0.54248,0.255371,0
37350,0.744141,-0.541504,0.259766,0
37370,0.75293,-0.543945,0.262695,0
37390,0.762695,-0.555664,0.264648,0
37410,0.744141,-0.546387,0.260742,0
37430,0.737305,-0.53418,0.254883,0
37450,0.744141,-0.547852,0.259277,0
37470,0.745117,-0.553223,0.260254,0
37490,0.746094,-0.561035,0.264648,0
37510,0.744629,-0.553223,0.269531,0
37530,0.760254,-0.565918,0.266602,0
37550,0.739258,-0.563477,0.273926,0
37570,0.736328,-0.561523,0.279297,0
37590,0.730957,-0.560547,0.272461,0
37610,0.731445,-0.563965,0.269043,0
37630,0.729004,-0.561035,0.268066,0
37650,0.709961,-0.55957,0.273926,0
37670,0.698242,-0.563965,0.285645,0
37690,0.706543,-0.574707,0.280762,0
37710,0.709473,-0.567383,0.27002,0
37730,0.705566,-0.558105,0.275391,0
37750,0.683594,-0.545898,0.288086,0
37770,0.685059,-0.547852,0.285156,0
37790,0.705566,-0.558105,0.286133,0
37810,0.717773,-0.572266,0.291016,0
37830,0.708008,-0.5625,0.295898,0
37850,0.687988,-0.562988,0.289551,0
37870,0.68457,-0.570312,0.284668,0
37890,0.689453,-0.578613,0.28418,0
37910,0.689453,-0.582031,0.286621,0
37930,0.722168,-0.634277,0.276855,0
37950,0.69043,-0.581543,0.276367,0
37970,0.69873,-0.587891,0.28125,0
37990,0.695312,-0.600098,0.286621,0
38010,0.701172,-0.617188,0.279297,0
38030,0.708008,-0.618164,0.276855,0
38050,0.706543,-0.607422,0.269531,0
38070,0.69873,-0.60498,0.269531,0
38090,0.695312,-0.589355,0.275391,0
38110,0.685547,-0.598145,0.266113,0
38130,0.680176,-0.595703,0.274902,0
38150,0.681152,-0.609375,0.28418,0
38170,0.673828,-0.611328,0.274902,0
38190,0.670898,-0.593262,0.270508,0
38210,0.666992,-0.597168,0.283203,0
38230,0.67334,-0.587891,0.273438,0
38250,0.671387,-0.597656,0.268555,0
38270,0.669434,-0.599121,0.27002,0
38290,0.666504,-0.607422,0.276855,0
38310,0.655762,-0.597656,0.276855,0
38330,0.666016,-0.603027,0.279785,0
38350,0.666992,-0.601562,0.268555,0
38370,0.664551,-0.583984,0.267578,0
38390,0.652832,-0.588379,0.273438,0
38410,0.644531,-0.587402,0.274414,0
38430,0.648926,-0.603516,0.287109,0
38450,0.660645,-0.609863,0.280762,0
38470,0.674316,-0.599609,0.273438,0
38490,0.67041,-0.609375,0.277832,0
38510,0.671387,-0.61084,0.285645,0
38530,0.673828,-0.620117,0.291992,0
38550,0.675293,-0.626465,0.281738,0
38570,0.676758,-0.624023,0.271484,0
38590,0.67627,-0.628418,0.282227,0
38610,0.672363,-0.620605,0.286133,0
38630,0.670898,-0.629883,0.285645,0
38650,0.674805,-0.630371,0.284668,0
38670,0.675293,-0.627441,0.28418,0
38690,0.666504,-0.622559,0.296875,0
38710,0.662598,-0.621582,0.289551,0
38730,0.65918,-0.628418,0.290527,0
38750,0.65918,-0.619629,0.283203,0
38770,0.651367,-0.619141,0.285156,0
38790,0.653809,-0.616699,0.279785,0
38810,0.660645,-0.623535,0.29834,0
38830,0.657227,-0.626953,0.294922,0
38850,0.648438,-0.619141,0.287109,0
38870,0.65332,-0.62793,0.278809,0
38890,0.66748,-0.631348,0.282715,0
38910,0.659668,-0.630859,0.289551,0
38930,0.647949,-0.632812,0.288574,0
38950,0.648926,-0.631348,0.285156,0
38970,0.661621,-0.644531,0.290527,0
38990,0.667969,-0.64209,0.294434,0
39010,0.649414,-0.637207,0.29248,0
39030,0.647461,-0.639648,0.290039,0
39040,0.649902,-0.640625,0.291504,0
39060,0.641113,-0.638184,0.290039,0
39080,0.636719,-0.632324,0.293457,0
39100,0.639648,-0.63623,0.286621,0
39120,0.646484,-0.631348,0.294922,0
39140,0.63916,-0.635254,0.292969,0
39160,0.631836,-0.637695,0.292969,0
39180,0.641602,-0.644531,0.29834,0
39200,0.632812,-0.647461,0.308594,0
39220,0.625488,-0.642578,0.302246,0
39240,0.621582,-0.65332,0.293945,0
39260,0.628906,-0.653809,0.293945,0
39280,0.630371,-0.653809,0.296387,0
39300,0.62793,-0.646973,0.297852,0
39320,0.629883,-0.648926,0.293945,0
39340,0.62207,-0.65625,0.29541,0
39360,0.625,-0.653809,0.288086,0
39380,0.633789,-0.66748,0.293457,0
39400,0.631348,-0.65918,0.285156,0
39420,0.631836,-0.650391,0.280762,0
39440,0.634277,-0.655273,0.280762,0
39460,0.634277,-0.658691,0.290039,0
39480,0.633789,-0.667969,0.286621,0
39500,0.632812,-0.666016,0.280273,0
39520,0.641113,-0.665039,0.291504,0
39540,0.621094,-0.664551,0.28125,0
39560,0.61377,-0.668457,0.277832,0
39580,0.625488,-0.674805,0.281738,0
39600,0.626465,-0.666992,0.282227,0
39620,0.613281,-0.672363,0.275879,0
39640,0.618164,-0.666504,0.282227,0
39660,0.619141,-0.679199,0.28125,0
39680,0.61084,-0.681641,0.290039,0
39700,0.614746,-0.676758,0.276367,0
39720,0.612793,-0.676758,0.276855,0
39740,0.619141,-0.677734,0.263184,0
39760,0.621582,-0.677246,0.269531,0
39780,0.624023,-0.679688,0.273438,0
39800,0.617676,-0.685547,0.269531,0
39820,0.614258,-0.683594,0.27002,0
39840,0.625488,-0.680176,0.254883,0
39860,0.621582,-0.683105,0.263672,0
39880,0.612305,-0.677246,0.266113,0
39900,0.619629,-0.686035,0.261719,0
39920,0.625,-0.691406,0.266113,0
39940,0.625977,-0.689941,0.265137,0
39960,0.618164,-0.689941,0.25293,0
39980,0.617188,-0.68457,0.250488,0
40000,0.618652,-0.688477,0.248047,0
40020,0.607422,-0.681641,0.246582,0
40040,0.613281,-0.683594,0.235352,0
40060,0.623535,-0.685547,0.239746,0
40080,0.619629,-0.682617,0.252441,0
40100,0.606934,-0.686035,0.23877,0
40120,0.609375,-0.699707,0.234375,0
40140,0.620117,-0.700684,0.245117,0
40160,0.618164,-0.704102,0.238281,0
40180,0.611816,-0.689941,0.232422,0
40200,0.603516,-0.694336,0.241699,0
40220,0.60791,-0.708984,0.237793,0
40240,0.599121,-0.72168,0.228516,0
40260,0.611328,-0.70166,0.220703,0
40280,0.621582,-0.708984,0.225586,0
40300,0.618652,-0.717773,0.223145,0
40320,0.605469,-0.713867,0.213379,0
40340,0.596191,-0.708008,0.220703,0
40360,0.601074,-0.710449,0.223145,0
40380,0.606445,-0.71582,0.21875,0
40400,0.605469,-0.708984,0.220703,0
40420,0.60791,-0.708984,0.220703,0
40440,0.595703,-0.713867,0.223633,0
40460,0.596191,-0.708984,0.219727,0
40480,0.589355,-0.720215,0.226562,0
40500,0.588379,-0.715332,0.221191,0
40520,0.59082,-0.71875,0.212402,0
40540,0.59668,-0.711914,0.209961,0
40560,0.604004,-0.71582,0.210449,0
40580,0.60791,-0.73584,0.209961,0
40600,0.611328,-0.734375,0.197266,0
40620,0.597656,-0.729004,0.195312,0
40640,0.597168,-0.724609,0.189453,0
40660,0.610352,-0.725098,0.196777,0
40680,0.59668,-0.731934,0.187012,0
40700,0.606445,-0.732422,0.18457,0
40720,0.605469,-0.729004,0.186523,0
40740,0.586914,-0.721191,0.188965,0
40760,0.580566,-0.716309,0.1875,0
40780,0.593262,-0.734863,0.188965,0
40800,0.609863,-0.746582,0.181152,0
40820,0.604004,-0.728516,0.180176,0
40840,0.583008,-0.722168,0.179199,0
40860,0.585938,-0.730469,0.182617,0
40880,0.597656,-0.73877,0.176758,0
40900,0.603516,-0.741211,0.171387,0
40920,0.57959,-0.737305,0.172363,0
40930,0.57959,-0.733887,0.175781,0
40960,0.590332,-0.747559,0.17334,0
40980,0.591309,-0.740723,0.17627,0
41000,0.58252,-0.750488,0.172363,0
41010,0.580078,-0.753906,0.164551,0
41030,0.588867,-0.757324,0.162598,0
41050,0.578613,-0.759766,0.160156,0
41070,0.575684,-0.757324,0.166504,0
41090,0.574707,-0.763184,0.164551,0
41110,0.575684,-0.765137,0.165527,0
41130,0.571777,-0.762695,0.163574,0
41150,0.564453,-0.758789,0.158203,0
41170,0.573242,-0.762695,0.152344,0
41190,0.572754,-0.76709,0.148438,0
41210,0.582031,-0.756836,0.139648,0
41230,0.575684,-0.762207,0.140137,0
41250,0.567871,-0.764648,0.140625,0
41270,0.568848,-0.76709,0.144531,0
41290,0.569336,-0.757324,0.147949,0
41310,0.561523,-0.748535,0.137695,0
41330,0.567383,-0.759766,0.122559,0
41350,0.583984,-0.748535,0.139648,0
41370,0.588379,-0.750488,0.134766,0
41390,0.589844,-0.757324,0.135254,0
41410,0.600586,-0.757324,0.126465,0
41430,0.61377,-0.757324,0.127441,0
41450,0.603027,-0.751465,0.130859,0
41470,0.598633,-0.748535,0.115723,0
41490,0.601074,-0.748535,0.118652,0
41510,0.609863,-0.757812,0.105469,0
41530,0.624512,-0.748535,0.10791,0
41550,0.609375,-0.737793,0.0966797,0
41570,0.623047,-0.751465,0.0854492,0
41590,0.629883,-0.745605,0.0917969,0
41610,0.628906,-0.748047,0.0908203,0
41630,0.629883,-0.737305,0.0864258,0
41650,0.642578,-0.730469,0.0805664,0
41670,0.641602,-0.729492,0.0615234,0
41690,0.654297,-0.743652,0.0581055,0
41710,0.638672,-0.743652,0.0673828,0
41730,0.629395,-0.728027,0.0625,0
41750,0.647461,-0.726074,0.0629883,0
41770,0.649902,-0.726074,0.0522461,0
41790,0.648926,-0.723633,0.0507812,0
41810,0.645996,-0.721191,0.0410156,0
41830,0.643555,-0.737793,0.0332031,0
41850,0.65332,-0.743652,0.0307617,0
41870,0.63916,-0.737793,0.0268555,0
41890,0.65625,-0.739258,0.0224609,0
41910,0.663574,-0.743164,0.0229492,0
41930,0.665039,-0.73584,0.0214844,0
41950,0.65332,-0.735352,0.00683594,0
41970,0.635254,-0.730957,0.00439453,0
41990,0.659668,-0.734863,0.00927734,0
42010,0.654785,-0.733887,0.0117188,0
42030,0.654785,-0.726562,-0.00292969,0
42050,0.661621,-0.729004,-0.00390625,0
42070,0.659668,-0.72998,-0.000976562,0
42090,0.649414,-0.725586,-0.00439453,0
42110,0.655273,-0.718262,-0.0078125,0
42130,0.662109,-0.723633,-0.0141602,0
42150,0.659668,-0.727051,-0.00439453,0
42170,0.646484,-0.705566,-0.00292969,0
42190,0.64502,-0.70752,-0.0175781,0
42210,0.669922,-0.712891,-0.0166016,0
42230,0.672363,-0.717285,-0.0219727,0
42250,0.652832,-0.712402,-0.0131836,0
42270,0.658691,-0.702637,-0.0107422,0
42290,0.666016,-0.713379,-0.000976562,0
42310,0.666504,-0.715332,-0.0136719,0
42330,0.670898,-0.711426,-0.0224609,0
42350,0.669922,-0.70166,-0.015625,0
42370,0.67334,-0.713867,-0.0151367,0
42390,0.67041,-0.725098,-0.0185547,0
42410,0.667969,-0.720215,-0.0258789,0
42430,0.650391,-0.719727,-0.0253906,0
42450,0.68457,-0.717773,-0.0292969,0
42470,0.669434,-0.711914,-0.0214844,0
42490,0.674805,-0.707031,-0.0224609,0
42510,0.693848,-0.70459,-0.034668,0
42530,0.703125,-0.707031,-0.0375977,0
42550,0.706543,-0.69873,-0.0302734,0
42570,0.700684,-0.696289,-0.027832,0
42590,0.697754,-0.686523,-0.03125,0
42610,0.718262,-0.686035,-0.0336914,0
42630,0.716309,-0.686523,-0.0410156,0
42650,0.722168,-0.678223,-0.0351562,0
42670,0.711914,-0.66748,-0.0283203,0
42690,0.722168,-0.657715,-0.03125,0
42710,0.727051,-0.660156,-0.0371094,0
42730,0.736816,-0.654297,-0.0395508,0
42750,0.737305,-0.637695,-0.0263672,0
42770,0.762207,-0.642578,-0.0249023,0
42790,0.754395,-0.638672,-0.0478516,0
42810,0.752441,-0.640137,-0.0405273,0
42830,0.756348,-0.629883,-0.0385742,0
42850,0.744141,-0.632812,-0.0419922,0
42870,0.745605,-0.630371,-0.0458984,0
42890,0.746582,-0.62793,-0.0439453,0
42910,0.743652,-0.626465,-0.046875,0
42930,0.736328,-0.630859,-0.0385742,0
42950,0.755859,-0.637207,-0.0512695,0
42970,0.739746,-0.629883,-0.0605469,0
42990,0.741699,-0.632324,-0.059082,0
43010,0.749512,-0.629883,-0.0581055,0
43030,0.75293,-0.634277,-0.0585938,0
43050,0.740723,-0.636719,-0.0566406,0
43070,0.740723,-0.629883,-0.0600586,0
43090,0.742676,-0.631836,-0.0561523,0
43110,0.741699,-0.618652,-0.0541992,0
43130,0.73584,-0.615234,-0.0668945,0
43150,0.737793,-0.614258,-0.0717773,0
43170,0.746094,-0.614746,-0.0693359,0
43190,0.746582,-0.614258,-0.0605469,0
43210,0.760254,-0.615234,-0.0634766,0
43230,0.770996,-0.620117,-0.059082,0
43250,0.774902,-0.605957,-0.0615234,0
43270,0.785156,-0.603027,-0.0722656,0
43290,0.784668,-0.595215,-0.0600586,0
43310,0.779785,-0.589355,-0.0581055,0
43330,0.782715,-0.591797,-0.0668945,0
43350,0.796387,-0.578125,-0.0537109,0
43370,0.791504,-0.567383,-0.0473633,0
43390,0.787109,-0.555176,-0.0478516,0
43410,0.797852,-0.547852,-0.0507812,0
43430,0.795898,-0.549316,-0.0541992,0
43450,0.799316,-0.537598,-0.0561523,0
43470,0.796875,-0.540039,-0.0483398,0
43490,0.802734,-0.532227,-0.0283203,0
43510,0.809082,-0.535156,-0.0288086,0
43530,0.806641,-0.538086,-0.0292969,0
43550,0.806641,-0.532715,-0.0375977,0
43570,0.808105,-0.533691,-0.0385742,0
43590,0.820801,-0.521973,-0.0361328,0
43610,0.824219,-0.525391,-0.0307617,0
43630,0.826172,-0.52832,-0.0297852,0
43650,0.836426,-0.515137,-0.0126953,0
43670,0.841797,-0.516113,-0.00341797,0
43690,0.82959,-0.522949,-0.0117188,0
43710,0.832031,-0.527344,-0.00146484,0
43730,0.834473,-0.51709,0.00146484,0
43750,0.834961,-0.519043,0.000488281,0
43770,0.837891,-0.511719,0.00732422,0
43790,0.84375,-0.505859,0.00927734,0
43810,0.842773,-0.515625,0.0102539,0
43830,0.837891,-0.505859,0.0214844,0
43850,0.837402,-0.497559,0.0214844,0
43870,0.838379,-0.488281,0.0195312,0
43890,0.838379,-0.486328,0.0263672,0
43910,0.833008,-0.480957,0.0351562,0
43930,0.833496,-0.467285,0.0332031,0
43950,0.848145,-0.484375,0.0395508,0
43970,0.853027,-0.482422,0.0454102,0
43990,0.834473,-0.480469,0.0517578,0
44010,0.827637,-0.476562,0.0512695,0
44030,0.835938,-0.466797,0.0561523,0
44050,0.849609,-0.467773,0.0605469,0
44070,0.851562,-0.460938,0.074707,0
44090,0.833008,-0.467773,0.0849609,0
44110,0.836914,-0.469727,0.0849609,0
44130,0.846191,-0.470215,0.0839844,0
44150,0.849609,-0.474609,0.0712891,0
44170,0.847656,-0.460938,0.0874023,0
44190,0.848145,-0.472168,0.102051,0
44210,0.844727,-0.482422,0.103516,0
44230,0.839355,-0.489258,0.09375,0
44250,0.833496,-0.484863,0.103516,0
44270,0.824707,-0.474121,0.0908203,0
44290,0.822754,-0.479004,0.0966797,0
44310,0.837402,-0.48291,0.102539,0
44330,0.835938,-0.484375,0.0976562,0
44350,0.837891,-0.486816,0.102539,0
44370,0.844238,-0.494629,0.115723,0
44390,0.833984,-0.506836,0.114258,0
44400,0.84375,-0.501953,0.117676,0
44420,0.838867,-0.499512,0.120605,0
44440,0.839844,-0.480469,0.120117,0
44460,0.841797,-0.487793,0.121094,0
44480,0.84082,-0.49707,0.12207,0
44500,0.839355,-0.491211,0.126465,0
44520,0.836914,-0.493652,0.133301,0
44540,0.841309,-0.487793,0.128906,0
44560,0.818848,-0.477051,0.130859,0
44580,0.807617,-0.483398,0.141602,0
44600,0.803711,-0.469727,0.141113,0
44620,0.82373,-0.475586,0.138672,0
44640,0.827148,-0.472168,0.140137,0
44660,0.806641,-0.474609,0.152344,0
44680,0.802734,-0.480469,0.15918,0
44700,0.814941,-0.491699,0.162598,0
44720,0.811523,-0.492676,0.149902,0
44740,0.812012,-0.491699,0.161133,0
44760,0.820312,-0.496094,0.17041,0
44780,0.815918,-0.492188,0.170898,0
44800,0.807129,-0.502441,0.170898,0
44820,0.810547,-0.499512,0.165039,0
44840,0.810059,-0.489746,0.183105,0
44860,0.787109,-0.483398,0.182617,0
44880,0.763184,-0.492188,0.171875,0
44900,0.764648,-0.523438,0.196289,0
44920,0.782227,-0.523926,0.210449,0
44940,0.775391,-0.51416,0.178223,0
44960,0.772461,-0.498047,0.174316,0
44980,0.770508,-0.510254,0.192383,0
45000,0.765137,-0.540527,0.203125,0
45020,0.776367,-0.55957,0.198242,0
45040,0.785645,-0.569824,0.183105,0
45060,0.79248,-0.557129,0.175781,0
45080,0.776855,-0.555176,0.178223,0
45100,0.767578,-0.553223,0.181152,0
45120,0.760254,-0.578125,0.196289,0
45140,0.749023,-0.597656,0.199707,0
45160,0.756348,-0.595703,0.185059,0
45180,0.753418,-0.584961,0.176758,0
45200,0.744629,-0.568359,0.177246,0
45220,0.721191,-0.592285,0.191895,0
45240,0.704102,-0.61084,0.186035,0
45260,0.713379,-0.616211,0.1875,0
45280,0.720215,-0.612793,0.193359,0
45300,0.717773,-0.606934,0.19043,0
45320,0.698242,-0.612793,0.182617,0
45340,0.694824,-0.613281,0.187988,0
45360,0.709961,-0.622559,0.192383,0
45380,0.709473,-0.625,0.187988,0
45400,0.709961,-0.611328,0.161621,0
45420,0.71582,-0.625488,0.157227,0
45440,0.697266,-0.617676,0.171387,0
45460,0.686035,-0.625,0.164551,0
45480,0.703125,-0.634766,0.159668,0
45500,0.710938,-0.626465,0.158691,0
45520,0.703125,-0.616211,0.157715,0
45540,0.697754,-0.60791,0.157715,0
45560,0.682617,-0.624512,0.152344,0
45580,0.679199,-0.633301,0.157715,0
45600,0.694336,-0.641602,0.146484,0
45620,0.703613,-0.643066,0.147949,0
45640,0.702148,-0.634766,0.14502,0
45660,0.693848,-0.645996,0.137695,0
45680,0.705566,-0.651855,0.142578,0
45700,0.703125,-0.667969,0.143066,0
45720,0.678711,-0.663574,0.133301,0
45740,0.675781,-0.67041,0.12207,0
45760,0.708496,-0.684082,0.124512,0
45780,0.731934,-0.681641,0.130371,0
45800,0.697754,-0.667969,0.114746,0
45820,0.681641,-0.666016,0.106445,0
45840,0.695801,-0.694336,0.118652,0
45860,0.699707,-0.70752,0.118652,0
45880,0.704102,-0.70166,0.11084,0
45900,0.696777,-0.701172,0.102539,0
45920,0.677734,-0.692871,0.0996094,0
45940,0.677734,-0.714844,0.102051,0
45960,0.6875,-0.725586,0.106934,0
45980,0.681641,-0.725586,0.0996094,0
46000,0.646973,-0.70752,0.0898438,0
46020,0.631836,-0.70459,0.0927734,0
46040,0.636719,-0.720703,0.0947266,0
46060,0.653809,-0.727051,0.0893555,0
46080,0.65918,-0.726562,0.0917969,0
46100,0.621582,-0.713867,0.0834961,0
46120,0.619141,-0.716309,0.0805664,0
46140,0.64502,-0.736816,0.0805664,0
46160,0.639648,-0.729492,0.0737305,0
46180,0.622559,-0.709961,0.0649414,0
46200,0.610352,-0.710449,0.0703125,0
46220,0.632324,-0.73877,0.0698242,0
46240,0.644531,-0.760254,0.0625,0
46260,0.636719,-0.745117,0.0585938,0
46280,0.620117,-0.73291,0.0556641,0
46300,0.611816,-0.73584,0.0419922,0
46320,0.622559,-0.754883,0.0576172,0
46340,0.625,-0.753418,0.0551758,0
46360,0.609375,-0.748047,0.0522461,0
46370,0.595703,-0.744629,0.0419922,0
46390,0.585449,-0.753418,0.046875,0
46410,0.583496,-0.765625,0.0522461,0
46430,0.591797,-0.758789,0.034668,0
46450,0.583984,-0.760254,0.0224609,0
46470,0.569336,-0.753906,0.0131836,0
46490,0.575195,-0.766602,0.0161133,0
46510,0.568359,-0.770996,0.0117188,0
46530,0.564453,-0.776855,-0.00537109,0
46550,0.58252,-0.781738,-0.000488281,0
46570,0.595703,-0.779785,-0.0117188,0
46590,0.597656,-0.771973,-0.0185547,0
46610,0.59082,-0.783203,-0.0234375,0
46630,0.570312,-0.776855,-0.0302734,0
46650,0.564453,-0.790527,-0.0356445,0
46670,0.574707,-0.786621,-0.0429688,0
46690,0.602051,-0.790527,-0.0385742,0
46710,0.617188,-0.785645,-0.0522461,0
46730,0.604492,-0.761719,-0.0600586,0
46750,0.592773,-0.764648,-0.0698242,0
46770,0.590332,-0.760742,-0.0634766,0
46790,0.59375,-0.771973,-0.0712891,0
46810,0.597168,-0.763672,-0.0849609,0
46830,0.608398,-0.769531,-0.0844727,0
46850,0.602051,-0.757812,-0.0927734,0
46870,0.594238,-0.744141,-0.0961914,0
46890,0.617188,-0.753418,-0.112305,0
46910,0.626465,-0.751465,-0.117676,0
46930,0.62207,-0.751953,-0.115723,0
46950,0.618164,-0.745117,-0.123047,0
46970,0.631836,-0.744629,-0.133301,0
46990,0.644043,-0.748535,-0.135254,0
47010,0.643555,-0.742188,-0.143066,0
47030,0.646973,-0.740234,-0.147949,0
47050,0.641602,-0.734375,-0.166992,0
47070,0.654785,-0.724121,-0.15918,0
47090,0.671387,-0.738281,-0.174805,0
47110,0.690918,-0.728027,-0.174316,0
47130,0.686523,-0.724609,-0.17334,0
47150,0.702637,-0.702148,-0.189453,0
47170,0.706543,-0.713379,-0.189941,0
47190,0.688477,-0.699219,-0.188965,0
47210,0.68457,-0.680664,-0.19873,0
47230,0.683594,-0.67334,-0.211426,0
47250,0.689941,-0.671875,-0.236816,0
47270,0.692383,-0.674805,-0.226562,0
47290,0.686523,-0.673828,-0.213379,0
47310,0.67627,-0.661133,-0.223633,0
47330,0.704102,-0.666016,-0.237793,0
47350,0.703125,-0.63623,-0.250488,0
47370,0.696777,-0.627441,-0.23877,0
47390,0.697754,-0.62793,-0.260742,0
47410,0.710938,-0.632812,-0.251465,0
47430,0.731934,-0.625977,-0.268066,0
47450,0.715332,-0.604004,-0.27002,0
47470,0.697266,-0.592773,-0.281738,0
47490,0.702148,-0.60791,-0.262207,0
47510,0.731445,-0.604492,-0.264648,0
47530,0.727539,-0.590332,-0.271973,0
47550,0.747559,-0.592773,-0.272461,0
47570,0.766113,-0.588379,-0.265625,0
47590,0.761719,-0.583984,-0.264648,0
47610,0.790527,-0.568359,-0.273438,0
47630,0.804688,-0.564453,-0.271484,0
47650,0.825684,-0.563477,-0.258301,0
47670,0.839844,-0.556152,-0.251953,0
47690,0.865723,-0.54834,-0.237793,2001
47710,0.873535,-0.523438,-0.227051,0
47730,0.886719,-0.498535,-0.21875,0
47750,0.922363,-0.498535,-0.208008,0
47770,0.94043,-0.480957,-0.194824,0
47790,0.943359,-0.481445,-0.203125,0
47810,0.935547,-0.466309,-0.187988,0
47830,0.911133,-0.4375,-0.172852,0
47850,0.877441,-0.429688,-0.163574,0
47860,0.847656,-0.428223,-0.154785,0
47880,0.816895,-0.40625,-0.15918,0
47900,0.766602,-0.393555,-0.178711,0
47920,0.734375,-0.385742,-0.174805,0
47940,0.696777,-0.38916,-0.190918,0
47960,0.627441,-0.424316,-0.214355,0
47980,0.600098,-0.458008,-0.191895,0
48000,0.574707,-0.439941,-0.200195,0
48020,0.585938,-0.470215,-0.225098,0
48040,0.616211,-0.489746,-0.19873,0
48060,0.615723,-0.490234,-0.148438,0
48080,0.601074,-0.500977,-0.140625,0
48100,0.62207,-0.521973,-0.154785,0
48120,0.655762,-0.560059,-0.135254,0
48140,0.705078,-0.559082,-0.0961914,0
48160,0.765137,-0.580566,-0.111328,0
48180,0.800781,-0.602539,-0.0791016,0
48200,0.791016,-0.600586,-0.0444336,0
48220,0.766602,-0.597168,-0.0200195,0
48240,0.767578,-0.616211,-0.0268555,0
48260,0.779785,-0.632324,-0.000488281,0
48280,0.797852,-0.658691,0.0283203,0
48300,0.769531,-0.635254,0.0268555,0
48320,0.794922,-0.659668,0.0302734,0
48340,0.794434,-0.663086,0.0869141,0
48360,0.77832,-0.711914,0.128906,0
48380,0.73877,-0.736816,0.126465,0
48400,0.673828,-0.741211,0.119629,0
48420,0.70459,-0.71875,0.109863,0
48440,0.708984,-0.723633,0.171387,0
48460,0.661621,-0.748047,0.199707,0
48480,0.612305,-0.759766,0.188477,0
48500,0.607422,-0.776855,0.216309,0
48520,0.612793,-0.796387,0.275879,0
48540,0.611816,-0.804199,0.301758,0
48560,0.614258,-0.841309,0.282227,0
48580,0.596191,-0.863281,0.297363,0
48610,0.570801,-0.876465,0.385742,0
48630,0.556641,-0.851562,0.399902,0
48650,0.520996,-0.860352,0.41748,0
48670,0.479004,-0.89209,0.395508,0
48690,0.438477,-0.870605,0.413574,0
48710,0.356445,-0.871582,0.430176,0
48730,0.346191,-0.856445,0.426758,0
48750,0.339844,-0.838379,0.422852,0
48770,0.350098,-0.839844,0.412598,0
48790,0.378418,-0.837402,0.394531,0
48810,0.392578,-0.82373,0.384277,0
48830,0.399414,-0.842773,0.37793,0
48850,0.377441,-0.805176,0.370605,0
48870,0.384277,-0.804199,0.366699,0
48890,0.383301,-0.807129,0.38916,0
48910,0.397461,-0.822754,0.400879,0
48930,0.378418,-0.817383,0.404785,0
48950,0.344238,-0.838379,0.391113,0
48970,0.305176,-0.838867,0.390137,0
48990,0.283691,-0.836426,0.373535,0
49010,0.23291,-0.811523,0.372559,0
49030,0.186035,-0.777344,0.37207,0
49050,0.161621,-0.775879,0.39209,0
49070,0.157227,-0.803223,0.395508,0
49090,0.154785,-0.858887,0.40332,0
49110,0.174316,-0.86377,0.406738,0
49130,0.176758,-0.868652,0.422852,0
49150,0.179199,-0.888184,0.400391,0
49170,0.191895,-0.885742,0.359863,0
49190,0.209473,-0.863281,0.334473,0
49210,0.224609,-0.853027,0.341797,0
49230,0.232422,-0.834961,0.332031,0
49250,0.245605,-0.824219,0.32373,0
49270,0.272949,-0.810059,0.34668,0
49290,0.294922,-0.808594,0.385254,0
49310,0.315918,-0.816406,0.391113,0
49330,0.312012,-0.827637,0.364746,0
49350,0.291992,-0.82373,0.342773,0
49370,0.291016,-0.824707,0.338379,0
49390,0.283203,-0.814453,0.350098,0
49410,0.273438,-0.803711,0.350098,0
49430,0.272461,-0.814941,0.349609,0
49450,0.277832,-0.835938,0.371582,0
49470,0.287109,-0.858887,0.374023,0
49490,0.290039,-0.875488,0.37207,0
49510,0.276367,-0.872559,0.370605,0
49530,0.283691,-0.896973,0.369629,0
49550,0.289551,-0.893555,0.359863,0
49570,0.29248,-0.875,0.370117,0
49590,0.289551,-0.860352,0.378418,0
49610,0.281738,-0.853027,0.383301,0
49630,0.285645,-0.850098,0.374512,0
49650,0.270508,-0.839844,0.357422,0
49670,0.280273,-0.851074,0.376465,0
49680,0.290527,-0.853516,0.368164,0
49700,0.289551,-0.864746,0.378418,0
49720,0.293945,-0.850098,0.383301,0
49740,0.303223,-0.849609,0.369629,0
49760,0.293457,-0.830566,0.365723,0
49780,0.27832,-0.820312,0.366699,0
49800,0.297852,-0.806152,0.37207,0
49820,0.285156,-0.798828,0.371582,0
49840,0.285156,-0.838867,0.359863,0
49860,0.294434,-0.84082,0.355469,0
49880,0.28418,-0.849121,0.375488,0
49900,0.279297,-0.825684,0.386719,0
49920,0.263184,-0.816895,0.383301,0
49940,0.262695,-0.828613,0.380859,0
49960,0.275879,-0.837891,0.380859,0
49980,0.300781,-0.848145,0.380371,0
50000,0.300293,-0.849121,0.363281,0
50020,0.276855,-0.856445,0.370117,0
50040,0.261719,-0.873535,0.36084,0
50080,0.293457,-0.867188,0.369629,0
50100,0.291016,-0.84375,0.35498,0
50120,0.283691,-0.831055,0.345703,0
50140,0.290039,-0.839355,0.345215,0
50160,0.327148,-0.843262,0.342285,0
50180,0.338867,-0.844238,0.326172,0
50200,0.335938,-0.841309,0.335449,0
50220,0.328125,-0.84668,0.32373,0
50240,0.367188,-0.842285,0.29541,0
50260,0.421387,-0.84668,0.268066,0
50280,0.439453,-0.842773,0.254883,0
50300,0.509277,-0.828613,0.262695,0
50320,0.652832,-0.84668,0.216309,0
50340,0.697754,-0.805664,0.15918,0
50360,0.669922,-0.745117,0.142578,0
50380,0.588867,-0.715332,0.125977,0
50400,0.513184,-0.683105,0.132812,0
50420,0.504395,-0.697754,0.161621,0
50440,0.480957,-0.781738,0.169434,0
50460,0.322754,-0.749512,0.201172,0
50480,0.225098,-0.748047,0.259277,0
50500,0.206543,-0.830566,0.334473,0
50520,0.259277,-0.870605,0.341797,0
50540,0.327148,-0.888184,0.328613,0
50560,0.371094,-0.879395,0.317383,0
50580,0.394043,-0.858398,0.320312,0
50600,0.40918,-0.888672,0.293945,0
50620,0.387207,-0.879395,0.293945,0
50640,0.407715,-0.866699,0.316406,0
50660,0.402344,-0.857422,0.318359,0
50680,0.383789,-0.836426,0.312988,0
50700,0.367676,-0.838379,0.303711,0
50720,0.349121,-0.84082,0.302734,0
50740,0.346191,-0.842773,0.31543,0
50760,0.333496,-0.847656,0.320312,0
50780,0.318359,-0.846191,0.307617,0
50800,0.320801,-0.84375,0.312988,0
50820,0.317871,-0.836426,0.297852,0
50840,0.305664,-0.851074,0.291016,0
50860,0.349121,-0.874512,0.319336,0
50880,0.407227,-0.871582,0.32959,0
50900,0.436035,-0.873047,0.304199,0
50920,0.444336,-0.857422,0.271484,0
50940,0.455078,-0.864258,0.267578,0
50960,0.463867,-0.848145,0.26416,0
50980,0.453125,-0.839355,0.266602,0
51000,0.455078,-0.848633,0.268555,0
51020,0.447754,-0.841797,0.268066,0
51040,0.424316,-0.831543,0.266113,0
51060,0.410645,-0.832031,0.243164,0
51080,0.409668,-0.820312,0.251465,0
51100,0.410645,-0.818848,0.26416,0
51130,0.386719,-0.822266,0.246582,0
51160,0.393555,-0.83252,0.232422,0
51180,0.40918,-0.859375,0.225586,0
51200,0.427734,-0.891602,0.218262,0
51220,0.398926,-0.852539,0.232422,0
51240,0.339844,-0.834961,0.256836,0
51260,0.321777,-0.849609,0.28125,0
51280,0.330078,-0.857422,0.280273,0
51300,0.333008,-0.865234,0.269531,0
51320,0.337891,-0.84668,0.260254,0
51340,0.341797,-0.838867,0.254883,0
51360,0.356445,-0.862793,0.263184,0
51380,0.348145,-0.866699,0.260254,0
51400,0.337891,-0.87793,0.258789,0
51420,0.334961,-0.864258,0.243164,0
51440,0.322754,-0.846191,0.249512,0
51460,0.318359,-0.85498,0.256348,0
51480,0.331543,-0.867676,0.251465,0
51500,0.325195,-0.880859,0.248047,0
51520,0.333008,-0.875977,0.230469,0
51540,0.307617,-0.87793,0.248047,0
51560,0.323242,-0.868164,0.241211,0
51580,0.340332,-0.880371,0.239258,0
51610,0.341797,-0.879395,0.251953,0
51630,0.344238,-0.876465,0.253418,0
51650,0.36377,-0.868164,0.259766,0
51670,0.364746,-0.862793,0.243652,0
51690,0.353027,-0.855957,0.242676,0
51710,0.359375,-0.868652,0.241699,0
51730,0.382324,-0.875,0.23291,0
51750,0.412598,-0.866211,0.232422,0
51770,0.40625,-0.86377,0.220703,0
51790,0.384277,-0.860352,0.231934,0
51810,0.370605,-0.867188,0.23291,0
51830,0.337891,-0.850098,0.246582,0
51850,0.333496,-0.861328,0.239258,0
51870,0.338867,-0.869141,0.244629,0
51890,0.345215,-0.865234,0.253418,0
51910,0.34375,-0.875488,0.245605,0
51930,0.337891,-0.873535,0.254883,0
51950,0.342773,-0.871582,0.257324,0
51970,0.339844,-0.876465,0.254395,0
51990,0.347168,-0.879883,0.250977,0
52010,0.355469,-0.888672,0.265137,0
52030,0.365234,-0.877441,0.251953,0
52050,0.371582,-0.865723,0.249023,0
52070,0.368652,-0.850586,0.243652,0
52090,0.36377,-0.855957,0.239258,0
52110,0.367676,-0.868652,0.238281,0
52130,0.371582,-0.866699,0.243164,0
52150,0.399414,-0.870117,0.240234,0
52170,0.412109,-0.859375,0.229492,0
52190,0.397461,-0.868164,0.216309,0
52210,0.393066,-0.880859,0.206055,0
52230,0.385742,-0.880371,0.194824,0
52250,0.366211,-0.884277,0.207031,0
52270,0.369141,-0.875488,0.23877,0
52290,0.353516,-0.861816,0.23877,0
52310,0.346191,-0.84668,0.243164,0
52330,0.333496,-0.846191,0.255859,0
52350,0.368164,-0.851074,0.262207,0
52370,0.341797,-0.838867,0.26123,0
52390,0.351562,-0.849609,0.257324,0
52410,0.353516,-0.853027,0.266602,0
52430,0.350586,-0.866699,0.269531,0
52450,0.350586,-0.853027,0.273926,0
52470,0.353516,-0.84375,0.259277,0
52490,0.350586,-0.849121,0.258789,0
52510,0.352539,-0.847656,0.273438,0
52530,0.350586,-0.861328,0.271973,0
52550,0.355957,-0.862793,0.27002,0
52570,0.362793,-0.858398,0.271973,0
52590,0.356445,-0.84668,0.271973,0
52610,0.34668,-0.848633,0.270508,0
52630,0.350586,-0.862305,0.267578,0
52650,0.360352,-0.864746,0.26709,0
52670,0.361328,-0.855957,0.273438,0
52690,0.354492,-0.853516,0.27832,0
52710,0.350586,-0.841797,0.274902,0
52740,0.373535,-0.866211,0.29541,0
52760,0.369141,-0.863281,0.293457,0
52780,0.353027,-0.852051,0.279785,0
52800,0.370605,-0.848145,0.286621,0
52820,0.380859,-0.857422,0.298828,0
52840,0.355469,-0.854492,0.30127,0
52860,0.355957,-0.849609,0.291504,0
52880,0.377441,-0.855469,0.28418,0
52900,0.366211,-0.838379,0.301758,0
52920,0.365234,-0.833008,0.278809,0
52940,0.362793,-0.836914,0.287598,0
52960,0.37207,-0.842773,0.286133,0
52980,0.384277,-0.870117,0.322266,0
53000,0.325195,-0.839844,0.301758,0
53020,0.37207,-0.841309,0.299805,0
53040,0.36377,-0.835938,0.299316,0
53060,0.355469,-0.845215,0.290527,0
53080,0.348633,-0.84375,0.289062,0
53100,0.346191,-0.848633,0.29541,0
53120,0.353027,-0.850586,0.311523,0
53140,0.352051,-0.857422,0.315918,0
53160,0.34668,-0.858887,0.306641,0
53180,0.350586,-0.852051,0.308105,0
53200,0.351074,-0.852539,0.330078,0
53220,0.352051,-0.847656,0.330566,0
53240,0.347168,-0.85791,0.317871,0
53260,0.351562,-0.841797,0.314941,0
53280,0.356934,-0.84375,0.314453,0
53300,0.360352,-0.852051,0.318359,0
53320,0.354004,-0.839355,0.320312,0
53340,0.360352,-0.845703,0.309082,0
53370,0.373535,-0.831543,0.310059,0
53390,0.371582,-0.830566,0.310059,0
53410,0.374023,-0.83252,0.301758,0
53420,0.374512,-0.82959,0.296875,0
53440,0.371582,-0.819336,0.293945,0
53470,0.352051,-0.845703,0.3125,0
53490,0.356934,-0.850098,0.302246,0
53510,0.375488,-0.845215,0.291992,0
53530,0.381836,-0.836426,0.29248,0
53550,0.382324,-0.838379,0.293945,0
53570,0.396484,-0.82666,0.287598,0
53590,0.381836,-0.843262,0.288086,0
53610,0.369141,-0.828125,0.289062,0
53630,0.348633,-0.840332,0.289551,0
53650,0.335449,-0.838867,0.30127,0
53670,0.324707,-0.848633,0.312012,0
53690,0.32666,-0.868164,0.309082,0
53710,0.338867,-0.85791,0.299805,0
53730,0.344727,-0.852051,0.286133,0
53750,0.332031,-0.85498,0.294434,0
53770,0.338379,-0.851074,0.300293,0
53790,0.341309,-0.856445,0.303711,0
53810,0.328613,-0.847168,0.296387,0
53830,0.318359,-0.853027,0.294922,0
53850,0.32373,-0.845215,0.297363,0
53870,0.321777,-0.841309,0.316895,0
53890,0.32666,-0.847656,0.307129,0
53910,0.331543,-0.833008,0.302246,0
53930,0.325195,-0.837891,0.310059,0
53950,0.321777,-0.831543,0.319336,0
53970,0.324707,-0.820312,0.330566,0
53990,0.327148,-0.841309,0.327637,0
54010,0.338379,-0.85498,0.306152,0
54030,0.356934,-0.859863,0.306152,0
54040,0.385254,-0.856445,0.300781,0
54060,0.394531,-0.83252,0.305176,0
54080,0.416504,-0.825684,0.314941,0
54100,0.428711,-0.823242,0.308594,0
54120,0.415527,-0.801758,0.314453,0
54140,0.417969,-0.801758,0.332031,0
54150,0.407715,-0.799805,0.325195,0
54170,0.410156,-0.807129,0.327637,0
54190,0.398926,-0.809082,0.32959,0
54210,0.396973,-0.811523,0.331055,0
54230,0.395996,-0.795898,0.329102,0
54250,0.397949,-0.796387,0.34082,0
54270,0.390625,-0.80127,0.34375,0
54290,0.384766,-0.809082,0.339844,0
54310,0.379395,-0.813477,0.347168,0
54330,0.376953,-0.811035,0.34668,0
54350,0.376953,-0.812012,0.336426,0
54370,0.385254,-0.812012,0.333008,0
54390,0.391113,-0.804688,0.334473,0
54410,0.387207,-0.797852,0.335449,0
54430,0.411133,-0.805664,0.332031,0
54450,0.40918,-0.817871,0.336914,0
54470,0.403809,-0.807129,0.330566,0
54490,0.407227,-0.818359,0.336426,0
54510,0.399902,-0.817871,0.322754,0
54530,0.391113,-0.811523,0.332031,0
54560,0.392578,-0.817383,0.332031,0
54590,0.382812,-0.812012,0.333496,0
54620,0.381836,-0.810059,0.343262,0
54640,0.378906,-0.814941,0.348633,0
54660,0.381348,-0.813477,0.351074,0
54680,0.376465,-0.813477,0.338867,0
54700,0.387207,-0.804688,0.348633,0
54720,0.387695,-0.808594,0.335449,0
54760,0.377441,-0.81543,0.342773,0
54790,0.410156,-0.816895,0.327148,0
54830,0.384277,-0.819824,0.343262,0
54850,0.382812,-0.823242,0.341797,0
54870,0.385742,-0.8125,0.336914,0
54890,0.391113,-0.818359,0.339844,0
54910,0.390625,-0.816406,0.333008,0
54930,0.378418,-0.817383,0.338867,0
54950,0.376953,-0.812988,0.337402,0
54970,0.375488,-0.806641,0.349609,0
54990,0.382324,-0.805664,0.340332,0
55010,0.379395,-0.79541,0.336914,0
55030,0.373047,-0.812012,0.352539,0
55050,0.372559,-0.803223,0.349609,0
55070,0.375,-0.816895,0.348145,0
55090,0.381348,-0.810059,0.351074,0
55110,0.376953,-0.813965,0.351074,0
55130,0.373047,-0.815918,0.353516,0
55150,0.373535,-0.821777,0.353027,0
55170,0.368164,-0.82959,0.344727,0
55190,0.368164,-0.825684,0.355957,0
55210,0.364258,-0.819824,0.361816,0
55230,0.36084,-0.8125,0.360352,0
55250,0.367188,-0.805176,0.351074,0
55270,0.368652,-0.805176,0.348633,0
55290,0.366699,-0.804199,0.345215,0
55310,0.372559,-0.809082,0.354492,0
55330,0.374512,-0.817871,0.344727,0
55350,0.372559,-0.818359,0.34082,0
55370,0.374512,-0.813477,0.342285,0
55390,0.368164,-0.816406,0.349609,0
55410,0.367188,-0.810547,0.36084,0
55430,0.367676,-0.811035,0.34668,0
55470,0.369629,-0.806641,0.344727,0
55520,0.368164,-0.820312,0.336426,0
55550,0.364746,-0.810547,0.34668,0
55580,0.364258,-0.813477,0.335449,0
55580,0.356445,-0.796875,0.354492,0
55600,0.383301,-0.822266,0.340332,0
55610,0.370605,-0.844727,0.342773,0
55630,0.378418,-0.831543,0.331055,0
55630,0.371094,-0.828613,0.336914,0
55650,0.370605,-0.835938,0.339355,0
55670,0.356934,-0.827148,0.342285,0
55690,0.359863,-0.82666,0.34668,0
55710,0.368164,-0.821289,0.357422,0
55730,0.374023,-0.842773,0.363281,0
55750,0.370605,-0.839355,0.346191,0
55770,0.37793,-0.817383,0.34668,0
55790,0.379883,-0.814453,0.330078,0
55830,0.376465,-0.777344,0.299316,0
55870,0.36377,-0.817383,0.316406,0
55890,0.377441,-0.826172,0.319336,0
55920,0.390625,-0.811035,0.32373,0
55940,0.385254,-0.815918,0.317871,0
55960,0.366699,-0.820312,0.339355,0
55980,0.374023,-0.821289,0.342285,0
56000,0.378418,-0.827637,0.333008,0
56020,0.388672,-0.822754,0.327637,0
56040,0.381348,-0.823242,0.328613,0
56060,0.379395,-0.816406,0.332031,0
56080,0.378906,-0.827637,0.324219,0
56090,0.368652,-0.817871,0.324707,0
56110,0.37793,-0.818848,0.325195,0
56130,0.37793,-0.813965,0.317383,0
56150,0.384766,-0.820312,0.320312,0
56170,0.361816,-0.828125,0.330566,0
56190,0.364746,-0.82666,0.33252,0
56210,0.379883,-0.830566,0.322266,0
56250,0.373047,-0.818848,0.320801,0
56270,0.374023,-0.821777,0.325684,0
56290,0.378906,-0.814453,0.331543,0
56310,0.37793,-0.818848,0.325195,0
56330,0.383301,-0.810059,0.331055,0
56350,0.376465,-0.816895,0.325195,0
56370,0.377441,-0.817383,0.323242,0
56390,0.376953,-0.821777,0.333008,0
56410,0.37793,-0.822754,0.330566,0
56420,0.378418,-0.82666,0.336426,0
56450,0.374512,-0.829102,0.335449,0
56460,0.373535,-0.823242,0.335449,0
56480,0.376465,-0.822754,0.334961,0
56500,0.37207,-0.823242,0.339844,0
56520,0.377441,-0.828125,0.340332,0
56540,0.371094,-0.824707,0.333984,0
56560,0.375,-0.820312,0.330566,0
56580,0.37793,-0.817383,0.334961,0
56600,0.375977,-0.818848,0.333984,0
56620,0.377441,-0.812988,0.332031,0
56630,0.375488,-0.817383,0.326172,0
56650,0.373535,-0.823242,0.336914,0
56670,0.367676,-0.819336,0.341309,0
56690,0.369141,-0.829102,0.348633,0
56710,0.368164,-0.8125,0.335938,0
56730,0.370605,-0.80957,0.338867,0
56750,0.376465,-0.821289,0.333984,0
56770,0.376953,-0.811523,0.335938,0
56790,0.375488,-0.82373,0.345215,0
56810,0.374023,-0.831543,0.335449,0
56830,0.376465,-0.818848,0.33252,0
56850,0.375488,-0.818848,0.334961,0
56870,0.350098,-0.770996,0.326172,0
56890,0.376953,-0.816895,0.337891,0
56910,0.37207,-0.817871,0.34375,0
56920,0.371094,-0.814941,0.343262,0
56930,0.365234,-0.803223,0.333496,0
56960,0.347656,-0.804688,0.336426,0
56980,0.370605,-0.824707,0.335938,0
57000,0.369629,-0.822266,0.333984,0
57030,0.368652,-0.81543,0.34668,0
57050,0.383301,-0.821777,0.334473,0
57080,0.370605,-0.825684,0.335449,0
57100,0.374023,-0.818359,0.338867,0
57130,0.37793,-0.827637,0.332031,0
57150,0.375488,-0.825684,0.336914,0
57170,0.372559,-0.827148,0.34082,0
57190,0.363281,-0.811035,0.343262,0
57210,0.369629,-0.817871,0.339844,0
57230,0.366699,-0.814453,0.34375,0
57250,0.358398,-0.824219,0.34668,0
57270,0.375977,-0.831543,0.331055,0
57290,0.371094,-0.820801,0.332031,0
57300,0.393555,-0.824219,0.322754,0
57310,0.383301,-0.841797,0.309082,0
57340,0.412109,-0.841797,0.299805,0
57370,0.404785,-0.827148,0.305664,0
57380,0.418457,-0.813965,0.279297,0
57400,0.416992,-0.817383,0.278809,0
57420,0.397949,-0.847168,0.276855,0
57430,0.385254,-0.828613,0.282227,0
57470,0.344238,-0.85498,0.320312,0
57490,0.314941,-0.835938,0.332031,0
57510,0.348633,-0.82959,0.330078,0
57530,0.345703,-0.84082,0.318359,0
57550,0.344727,-0.834473,0.310059,0
57570,0.321777,-0.833008,0.322266,0
57590,0.312012,-0.823242,0.320312,0
57610,0.311035,-0.842285,0.307617,0
57670,0.368164,-0.864746,0.299316,0
57680,0.379883,-0.855469,0.297363,0
57710,0.352539,-0.842773,0.286621,0
57720,0.354004,-0.839844,0.285645,0
57740,0.340332,-0.838867,0.291992,0
57760,0.323242,-0.838379,0.291504,0
57790,0.350586,-0.836914,0.302246,0
57820,0.332031,-0.844238,0.315918,0
57840,0.360352,-0.861816,0.311523,0
57850,0.378906,-0.854492,0.291504,0
57870,0.375488,-0.854004,0.285645,0
57880,0.360352,-0.841309,0.294922,0
57910,0.340332,-0.860352,0.306152,0
57930,0.318848,-0.858398,0.323242,0
57960,0.341797,-0.852539,0.281738,0
57990,0.337402,-0.852051,0.291992,0
58010,0.350586,-0.853516,0.274414,0
58030,0.366211,-0.86084,0.276855,0
58040,0.383301,-0.859375,0.285156,0
58070,0.386719,-0.849609,0.257812,0
58090,0.393066,-0.854492,0.248535,0
58110,0.421875,-0.86084,0.254395,0
58130,0.403809,-0.852539,0.258301,0
58150,0.432617,-0.849121,0.237793,0
58170,0.445801,-0.836426,0.21875,0
58190,0.46875,-0.83252,0.192383,0
58210,0.494141,-0.820801,0.190918,0
58230,0.456055,-0.813965,0.208496,0
58250,0.47168,-0.802246,0.202637,0
58270,0.487305,-0.810547,0.182129,0
58290,0.489746,-0.81543,0.183594,0
58310,0.461914,-0.815918,0.189941,0
58330,0.447266,-0.810547,0.195801,0
58350,0.471191,-0.818848,0.202148,0
58370,0.507324,-0.824707,0.184082,0
58390,0.523926,-0.814941,0.151855,0
58410,0.526855,-0.805664,0.129883,0
58430,0.537109,-0.786621,0.125488,0
58450,0.546387,-0.782715,0.124512,0
58470,0.538086,-0.786621,0.121094,0
58490,0.532715,-0.784668,0.130371,0
58510,0.533203,-0.791992,0.13623,0
58530,0.55127,-0.791992,0.12207,0
58550,0.560059,-0.804199,0.123047,0
58570,0.554199,-0.80957,0.130371,0
58590,0.544922,-0.818848,0.149902,0
58610,0.503906,-0.813965,0.165527,0
58630,0.47998,-0.804199,0.185547,0
58650,0.47168,-0.83252,0.196289,0
58670,0.418457,-0.835449,0.239258,0
58690,0.402832,-0.829102,0.257324,0
58710,0.393555,-0.831543,0.280273,0
58730,0.388672,-0.868164,0.305176,0
58750,0.367188,-0.89209,0.293457,0
58770,0.358398,-0.850586,0.297852,0
58790,0.333008,-0.835938,0.3125,0
58810,0.346191,-0.862793,0.294434,0
58830,0.382812,-0.867676,0.283203,0
58850,0.383301,-0.874512,0.286621,0
58870,0.373047,-0.868652,0.285645,0
58890,0.352539,-0.864258,0.285156,0
58920,0.363281,-0.878906,0.263672,0
58940,0.356445,-0.875977,0.259766,0
58960,0.328613,-0.868164,0.260254,0
58980,0.326172,-0.849121,0.280762,0
59000,0.308105,-0.84375,0.269531,0
59020,0.310547,-0.853027,0.266602,0
59040,0.302734,-0.852051,0.271484,0
59060,0.296875,-0.836914,0.280762,0
59080,0.289062,-0.850098,0.27832,0
59100,0.297852,-0.862793,0.274414,0
59120,0.309082,-0.869629,0.263672,0
59140,0.32373,-0.865723,0.275391,0
59160,0.32959,-0.875,0.270996,0
59170,0.333496,-0.884766,0.26123,0
59190,0.328125,-0.878418,0.269043,0
59210,0.342773,-0.872559,0.252441,0
59230,0.341797,-0.875,0.263672,0
59250,0.342285,-0.874023,0.258789,0
59270,0.342285,-0.867188,0.264648,0
59290,0.341309,-0.866211,0.264648,0
59310,0.348633,-0.875488,0.276855,0
59330,0.353027,-0.864746,0.268555,0
59350,0.360352,-0.864746,0.261719,0
59370,0.353027,-0.860352,0.256348,0
59390,0.342773,-0.858887,0.266602,0
59420,0.360352,-0.865234,0.258301,0
59440,0.35498,-0.870605,0.255371,0
59480,0.383789,-0.867188,0.250977,0
59500,0.384766,-0.858887,0.245605,0
59520,0.384766,-0.844727,0.249023,0
59520,0.386719,-0.84375,0.259766,0
59540,0.382812,-0.837402,0.259766,0
59560,0.368652,-0.84668,0.251465,0
59580,0.368652,-0.847656,0.260254,0
59600,0.379883,-0.856934,0.26709,0
59620,0.381836,-0.854492,0.271484,0
59640,0.373535,-0.859863,0.260254,0
59660,0.355469,-0.857422,0.273926,0
59680,0.351074,-0.847656,0.275879,0
59700,0.352051,-0.858887,0.286621,0
59720,0.344238,-0.861816,0.279785,0
59740,0.347168,-0.851074,0.283203,0
59760,0.354004,-0.856445,0.286133,0
59780,0.36084,-0.851562,0.276855,0
59800,0.356934,-0.852051,0.279297,0
59820,0.367188,-0.864258,0.270996,0
59840,0.334961,-0.85498,0.283691,0
59860,0.340332,-0.865723,0.28418,0
59880,0.31543,-0.868652,0.289062,0
59900,0.344727,-0.864746,0.283203,0
59920,0.338379,-0.849609,0.286133,0
59940,0.327148,-0.851562,0.293457,0
59960,0.349121,-0.858398,0.284668,0
59980,0.339844,-0.85498,0.280762,0
60000,0.335449,-0.855469,0.286621,0
60020,0.334961,-0.852539,0.288086,0
60040,0.321289,-0.859863,0.291016,0
60060,0.353516,-0.865234,0.284668,0
60080,0.347656,-0.865723,0.26416,0
60110,0.391113,-0.856934,0.26123,0
60130,0.38916,-0.854492,0.272949,0
60150,0.387207,-0.849609,0.268066,0
60170,0.337402,-0.854492,0.249023,0
60190,0.411621,-0.845703,0.239258,0
60210,0.392578,-0.852051,0.238281,0
60230,0.38916,-0.84375,0.245605,0
60250,0.385254,-0.842285,0.249512,0
60270,0.331543,-0.853516,0.234375,0
60290,0.422363,-0.852051,0.223633,0
60330,0.415527,-0.830566,0.223633,0
60370,0.47168,-0.833008,0.19043,0
60390,0.449707,-0.821777,0.191406,0
60410,0.450195,-0.825684,0.183105,0
60430,0.472656,-0.832031,0.174805,0
60450,0.450195,-0.828125,0.187988,0
60470,0.467773,-0.813965,0.178223,0
60490,0.473145,-0.811035,0.206055,0
60510,0.488281,-0.821289,0.195801,0
60530,0.482422,-0.818359,0.177246,0
60550,0.473633,-0.80957,0.179199,0
60570,0.486816,-0.812988,0.173828,0
60590,0.499512,-0.828125,0.163574,0
60610,0.425781,-0.79541,0.161133,0
60630,0.534668,-0.806152,0.151367,0
60650,0.505371,-0.818359,0.158203,0
60670,0.470703,-0.811035,0.166992,0
60690,0.495605,-0.826172,0.180176,0
60710,0.513184,-0.814941,0.183105,0
60730,0.531738,-0.852051,0.146973,0
60750,0.535645,-0.8125,0.133789,0
60770,0.536133,-0.784668,0.12207,0
60790,0.540527,-0.78418,0.12207,0
60810,0.53125,-0.788574,0.128418,0
60830,0.53418,-0.781738,0.150879,0
60850,0.512695,-0.773438,0.163086,0
60870,0.465332,-0.780762,0.228027,0
60890,0.550293,-0.765137,0.185547,0
60910,0.544922,-0.787598,0.183594,0
60930,0.532227,-0.796387,0.164551,0
60950,0.541992,-0.810547,0.161621,0
60960,0.592773,-0.783691,0.172363,0
60990,0.635742,-0.773926,0.182129,0
61000,0.662109,-0.77832,0.135254,0
61020,0.669434,-0.762695,0.112305,0
61040,0.707031,-0.740723,0.120605,0
61060,0.706055,-0.710938,0.134766,0
61080,0.675781,-0.706543,0.135254,0
61100,0.637695,-0.688965,0.143555,0
61120,0.608887,-0.706055,0.152832,0
61140,0.617188,-0.738281,0.146973,0
61160,0.543457,-0.725586,0.196777,0
61180,0.517578,-0.755371,0.21582,0
61200,0.515625,-0.77832,0.21875,0
61220,0.522949,-0.802246,0.195312,0
61240,0.520508,-0.802734,0.181641,0
61260,0.531738,-0.8125,0.178223,0
61280,0.569336,-0.808105,0.185547,0
61300,0.571289,-0.80127,0.161621,0
61320,0.582031,-0.801758,0.166504,0
61340,0.579102,-0.778809,0.185547,0
61360,0.549316,-0.789062,0.185059,0
61380,0.56543,-0.791016,0.196289,0
61400,0.57959,-0.803223,0.213379,0
61420,0.532227,-0.822266,0.234863,0
61440,0.488281,-0.797363,0.238281,0
61460,0.473633,-0.796387,0.233398,0
61480,0.496582,-0.840332,0.246094,0
61500,0.421875,-0.875977,0.256348,0
61520,0.34082,-0.841309,0.29248,0
61540,0.286621,-0.836426,0.297852,0
61560,0.287109,-0.879395,0.298828,0
61580,0.289551,-0.894531,0.291992,0
61600,0.243652,-0.894531,0.285156,0
61620,0.234375,-0.871582,0.28125,0
61640,0.249023,-0.847168,0.29541,0
61660,0.267578,-0.847656,0.288574,0
61680,0.260254,-0.848145,0.271973,0
61700,0.257324,-0.856934,0.271973,0
61720,0.256836,-0.871582,0.28418,0
61740,0.260742,-0.900879,0.276855,0
61760,0.273926,-0.902832,0.268066,0
61780,0.274414,-0.882812,0.277344,0
61800,0.28418,-0.878906,0.255859,0
61820,0.304688,-0.878906,0.244629,0
61840,0.302734,-0.855957,0.25,0
61860,0.29541,-0.889648,0.236816,0
61880,0.290039,-0.900879,0.223633,0
61900,0.304199,-0.90918,0.233887,0
61920,0.293945,-0.892578,0.227539,0
61940,0.289062,-0.919434,0.226562,0
61960,0.278809,-0.911133,0.24707,0
61980,0.280273,-0.919922,0.24707,0
62000,0.285156,-0.90625,0.23584,0
62020,0.28125,-0.899902,0.252441,0
62040,0.302246,-0.910156,0.259766,0
62060,0.31543,-0.883301,0.255371,0
62080,0.325684,-0.873047,0.245605,0
62100,0.304688,-0.854004,0.250488,0
62120,0.300781,-0.865723,0.251465,0
62140,0.317383,-0.847656,0.270996,0
62160,0.331055,-0.847168,0.269043,0
62180,0.303711,-0.858398,0.277344,0
62200,0.299316,-0.862793,0.28418,0
62220,0.306641,-0.853027,0.278809,0
62240,0.326172,-0.890625,0.291504,0
62260,0.38916,-0.89209,0.23877,0
62280,0.413086,-0.892578,0.248535,0
62300,0.398926,-0.897461,0.243164,0
62320,0.40918,-0.890625,0.251465,0
62340,0.399414,-0.874512,0.257812,2000
62360,0.375488,-0.85791,0.282227,0
62380,0.358398,-0.861328,0.287598,0
62400,0.346191,-0.858398,0.307617,0
62420,0.345215,-0.852539,0.278809,0
62440,0.355469,-0.837402,0.286133,0
62460,0.359863,-0.829102,0.300293,0
62480,0.357422,-0.818848,0.283691,0
62500,0.348633,-0.825684,0.288086,0
62520,0.340332,-0.828613,0.29541,0
62540,0.345703,-0.828613,0.285156,0
62550,0.344238,-0.84375,0.287598,0
62570,0.356445,-0.838867,0.284668,0
62590,0.344727,-0.839355,0.289062,0
62630,0.287598,-0.820801,0.308594,0
62650,0.370605,-0.868164,0.319336,0
62670,0.370117,-0.865723,0.312988,0
62690,0.361816,-0.850586,0.302734,0
62710,0.376953,-0.836426,0.291016,0
62730,0.347656,-0.825195,0.310547,0
62750,0.333496,-0.847168,0.314453,0
62770,0.289062,-0.867188,0.327148,0
62790,0.366211,-0.856445,0.32666,0
62810,0.357422,-0.848633,0.311523,0
62830,0.348633,-0.840332,0.310059,0
62850,0.350586,-0.846191,0.305664,0
62870,0.351562,-0.863281,0.297852,0
62890,0.357422,-0.848145,0.315918,0
62910,0.34668,-0.842285,0.326172,0
62930,0.350098,-0.826172,0.321777,0
62950,0.344238,-0.82959,0.329102,0
62970,0.328613,-0.841309,0.333496,0
62990,0.323242,-0.836914,0.337402,0
63010,0.334961,-0.847168,0.327637,0
63030,0.330566,-0.855957,0.333496,0
63050,0.326172,-0.850098,0.324219,0
63070,0.32959,-0.852539,0.317871,0
63090,0.343262,-0.856445,0.330078,0
63110,0.328125,-0.856445,0.331543,0
63130,0.335938,-0.850586,0.320801,0
63150,0.337891,-0.838379,0.321289,0
63170,0.352539,-0.845215,0.321289,0
63190,0.340332,-0.830078,0.327637,0
63210,0.33252,-0.838867,0.326172,0
63230,0.333496,-0.834473,0.325195,0
63250,0.334473,-0.849609,0.322754,0
63270,0.341309,-0.837402,0.331055,0
63290,0.336914,-0.834473,0.322266,0
63310,0.330078,-0.838867,0.322754,0
63330,0.336426,-0.848633,0.317871,0
63350,0.33252,-0.838379,0.337891,0
63370,0.330078,-0.830566,0.322266,0
63390,0.316406,-0.842773,0.324707,0
63410,0.330078,-0.833496,0.336914,0
63430,0.34375,-0.833496,0.327637,0
63450,0.325195,-0.82959,0.32373,0
63470,0.313965,-0.818848,0.333008,0
63490,0.337891,-0.830078,0.336914,0
63510,0.321777,-0.829102,0.342773,0
63530,0.287109,-0.853027,0.352051,0
63550,0.336426,-0.849609,0.342285,0
63570,0.324219,-0.836426,0.335938,0
63590,0.317383,-0.822754,0.353516,0
63610,0.332031,-0.836914,0.37207,0
63630,0.380859,-0.861816,0.34668,0
63650,0.35498,-0.84375,0.324219,0
63670,0.36084,-0.841309,0.359375,0
63690,0.347656,-0.840332,0.353027,0
63710,0.333496,-0.848145,0.337402,0
63730,0.322754,-0.852539,0.335938,0
63750,0.311523,-0.851074,0.328125,0
63770,0.30957,-0.837891,0.327148,0
63790,0.316406,-0.813965,0.34668,0
63810,0.344727,-0.787598,0.344238,0
63830,0.367676,-0.786133,0.352051,0
63850,0.371094,-0.771973,0.387207,0
63870,0.395996,-0.804199,0.387695,0
63890,0.368652,-0.786133,0.393555,0
63910,0.349609,-0.800781,0.387207,0
63930,0.36377,-0.817871,0.374512,0
63950,0.325684,-0.818359,0.378906,0
63970,0.303711,-0.830078,0.382812,0
63990,0.291016,-0.845215,0.39502,0
64010,0.280273,-0.873047,0.392578,0
64030,0.271484,-0.875488,0.393066,0
64050,0.182617,-0.785645,0.395508,0
64070,0.280273,-0.851074,0.418457,0
64090,0.290527,-0.864258,0.380371,0
64110,0.277344,-0.853027,0.374512,0
64130,0.324219,-0.849609,0.376465,0
64150,0.322754,-0.831543,0.370117,0
64170,0.354492,-0.83252,0.367676,0
64190,0.348633,-0.82373,0.374023,0
64210,0.36084,-0.808594,0.374512,0
64230,0.366211,-0.791992,0.370605,0
64250,0.349121,-0.814453,0.369141,0
64270,0.327148,-0.793457,0.379395,0
64290,0.325195,-0.79834,0.381348,0
64310,0.324219,-0.811523,0.383789,0
64340,0.316406,-0.816895,0.387207,0
64350,0.313477,-0.823242,0.359863,0
64360,0.312012,-0.835938,0.358887,0
64390,0.305176,-0.824707,0.352051,0
64410,0.302734,-0.836914,0.358887,0
64430,0.302246,-0.836426,0.358887,0
64450,0.299805,-0.844727,0.365234,0
64470,0.307129,-0.837402,0.375,0
64490,0.297852,-0.830566,0.377441,0
64510,0.306641,-0.827637,0.395996,0
64530,0.329102,-0.8125,0.413574,0
64550,0.331543,-0.814453,0.379395,0
64570,0.312012,-0.822754,0.36084,0
64590,0.321289,-0.833496,0.365234,0
64610,0.368164,-0.839844,0.353027,0
64630,0.409668,-0.849121,0.32666,0
64650,0.424805,-0.828613,0.315918,0
64670,0.398926,-0.780273,0.320312,0
64700,0.332031,-0.806152,0.326172,0
64720,0.330078,-0.823242,0.333008,0
64730,0.320312,-0.831055,0.337402,0
64750,0.302246,-0.838379,0.358398,0
64770,0.294922,-0.850098,0.351562,0
64780,0.28418,-0.842773,0.342285,0
64800,0.280762,-0.839844,0.341309,0
64820,0.323242,-0.842285,0.366699,0
64840,0.334961,-0.833496,0.360352,0
64860,0.330078,-0.825684,0.358398,0
64880,0.314941,-0.835449,0.355957,0
64900,0.312012,-0.839355,0.352539,0
64920,0.304688,-0.837891,0.350098,0
64940,0.294434,-0.843262,0.354004,0
64960,0.295898,-0.846191,0.35498,0
64980,0.292969,-0.85791,0.352051,0
65020,0.297852,-0.871094,0.356934,0
65040,0.296387,-0.834473,0.36377,0
65060,0.301758,-0.829102,0.384277,0
65080,0.295898,-0.80957,0.374512,0
65100,0.327148,-0.827637,0.358887,0
65120,0.34668,-0.818359,0.344727,0
65140,0.355957,-0.821777,0.340332,0
65160,0.348145,-0.830566,0.34082,0
65180,0.338867,-0.837402,0.335449,0
65200,0.365234,-0.834961,0.342285,0
65220,0.368652,-0.843262,0.343262,0
65240,0.339844,-0.831055,0.349609,0
65260,0.333496,-0.82666,0.343262,0
65280,0.336426,-0.834961,0.344727,0
65300,0.333984,-0.839844,0.357422,0
65320,0.312988,-0.847168,0.344238,0
65340,0.31543,-0.838379,0.344727,0
65360,0.30127,-0.846191,0.361328,0
65400,0.336914,-0.839844,0.348633,0
65420,0.348633,-0.824219,0.350586,0
65450,0.34375,-0.837891,0.330566,0
65470,0.333984,-0.849609,0.330078,0
65500,0.337402,-0.845703,0.328613,0
65520,0.34082,-0.851562,0.336914,0
65530,0.344727,-0.866699,0.33252,0
65550,0.330078,-0.847168,0.334961,0
65600,0.330566,-0.834473,0.318359,0
65620,0.336914,-0.838379,0.311523,0
65640,0.339355,-0.830566,0.323242,0
65660,0.352539,-0.830566,0.30957,0
65680,0.363281,-0.838379,0.299805,0
65700,0.363281,-0.845215,0.304199,0
65720,0.360352,-0.841309,0.299316,0
65740,0.371582,-0.844238,0.29834,0
65760,0.400879,-0.848633,0.29248,0
65780,0.40918,-0.82959,0.273438,0
65800,0.430176,-0.833008,0.251465,0
65820,0.434082,-0.82666,0.248047,0
65840,0.434082,-0.811523,0.239258,0
65860,0.429688,-0.8125,0.248047,0
65880,0.42627,-0.813477,0.244629,0
65900,0.431641,-0.822266,0.257324,0
65920,0.432129,-0.807129,0.245605,0
65940,0.423828,-0.844727,0.26709,0
65960,0.424316,-0.831543,0.266113,0
65980,0.443359,-0.855957,0.270508,0
66000,0.449219,-0.835449,0.272461,0
66020,0.44873,-0.82666,0.299316,0
66040,0.425781,-0.838867,0.288574,0
66060,0.411621,-0.808105,0.291016,0
66080,0.393066,-0.810059,0.302246,0
66100,0.382812,-0.803223,0.330566,0
66120,0.352539,-0.806152,0.36377,0
66130,0.327637,-0.824219,0.353027,0
66150,0.337402,-0.817871,0.333008,0
66170,0.315918,-0.813477,0.330078,0
66190,0.307617,-0.810547,0.336914,0
66210,0.339844,-0.836426,0.314453,0
66230,0.36377,-0.849609,0.31543,0
66250,0.378418,-0.85791,0.315918,0
66270,0.374512,-0.84375,0.313477,0
66290,0.375977,-0.830078,0.304688,0
66310,0.388184,-0.839355,0.310547,0
66330,0.403809,-0.828125,0.307129,0
66350,0.398926,-0.836426,0.297852,0
66370,0.391602,-0.828613,0.304688,0
66390,0.388184,-0.822266,0.318359,0
66410,0.397949,-0.830078,0.314941,0
66430,0.40332,-0.821289,0.299805,0
66450,0.41748,-0.806641,0.301758,0
66470,0.412109,-0.791016,0.296387,0
66490,0.414062,-0.791992,0.307617,0
66510,0.418945,-0.814941,0.29541,0
66530,0.42627,-0.802246,0.283691,0
66560,0.43457,-0.803711,0.303711,0
66580,0.421875,-0.807617,0.291992,0
66600,0.421875,-0.812988,0.29834,0
66620,0.416504,-0.81543,0.306152,0
66640,0.403809,-0.82373,0.30957,0
66660,0.400391,-0.821289,0.308594,0
66680,0.394531,-0.822754,0.30957,0
66700,0.392578,-0.831543,0.327148,0
66720,0.390625,-0.813477,0.329102,0
66740,0.38916,-0.828613,0.316895,0
66760,0.396973,-0.824219,0.30957,0
66770,0.402832,-0.830078,0.321777,0
66780,0.401855,-0.833984,0.310059,0
66790,0.387207,-0.815918,0.322266,0
66810,0.386719,-0.819824,0.311523,0
66830,0.394043,-0.814941,0.306152,0
66850,0.387207,-0.817383,0.316406,0
66870,0.366699,-0.815918,0.32373,0
66890,0.391602,-0.827637,0.317871,0
66910,0.40625,-0.837402,0.305664,0
66930,0.42041,-0.82959,0.296875,0
66950,0.391113,-0.827637,0.298828,0
66960,0.395508,-0.827148,0.294922,0
66980,0.391602,-0.826172,0.297363,0
67000,0.404785,-0.821289,0.29541,0
67020,0.423828,-0.825684,0.293457,0
67040,0.414551,-0.815918,0.278809,0
67060,0.411133,-0.805176,0.279297,0
67080,0.436035,-0.810059,0.276855,0
67100,0.450684,-0.812988,0.272949,0
67120,0.4375,-0.820801,0.266602,0
67140,0.401367,-0.808105,0.276367,0
67160,0.412109,-0.811523,0.280273,0
67180,0.409668,-0.825684,0.285156,0
67200,0.411133,-0.826172,0.279297,0
67220,0.415039,-0.838379,0.266113,0
67240,0.417969,-0.836426,0.270508,0
67260,0.39502,-0.824219,0.268555,0
67280,0.398926,-0.823242,0.271973,0
67300,0.405762,-0.819824,0.272949,0
67320,0.40918,-0.841309,0.288574,0
67340,0.382324,-0.803711,0.297363,0
67360,0.438477,-0.830566,0.265625,0
67380,0.430176,-0.82666,0.268066,0
67400,0.435059,-0.832031,0.276367,0
67420,0.444336,-0.820312,0.268066,0
67440,0.448242,-0.805176,0.266113,0
