Timestamp, Acceleration x, Acceleration y, Acceleration z, Marker
40,-0.39209,-0.744629,0.569824,0
60,-0.394043,-0.742188,0.575684,0
80,-0.387207,-0.743652,0.575195,0
100,-0.385742,-0.741699,0.575195,0
120,-0.385742,-0.738281,0.574219,0
120,-0.384766,-0.740723,0.576172,0
160,-0.385742,-0.739746,0.577148,0
180,-0.38623,-0.742676,0.581055,0
200,-0.388184,-0.743164,0.577148,0
220,-0.391602,-0.747559,0.571289,0
240,-0.390137,-0.741211,0.571777,0
260,-0.388184,-0.742188,0.569824,0
280,-0.385742,-0.738281,0.580566,0
300,-0.389648,-0.742188,0.575684,0
320,-0.388672,-0.73584,0.578125,0
340,-0.391602,-0.742676,0.580566,0
360,-0.391113,-0.73877,0.578125,0
380,-0.388672,-0.743164,0.573242,0
400,-0.391602,-0.747559,0.571777,0
420,-0.388184,-0.745605,0.574219,0
440,-0.384277,-0.742676,0.568359,0
460,-0.387207,-0.741699,0.570801,0
480,-0.391113,-0.740234,0.583008,0
500,-0.39209,-0.73877,0.58252,0
520,-0.388672,-0.742676,0.582031,0
540,-0.388184,-0.738281,0.582031,0
560,-0.390137,-0.740234,0.578613,0
580,-0.388672,-0.73877,0.576172,0
600,-0.388672,-0.741699,0.563965,0
620,-0.39209,-0.746582,0.572266,0
640,-0.388184,-0.748047,0.571777,0
660,-0.384766,-0.746094,0.572266,0
680,-0.385254,-0.742188,0.574707,0
700,-0.388184,-0.73877,0.576172,0
720,-0.387207,-0.736816,0.581543,0
740,-0.387695,-0.739746,0.581055,0
760,-0.385742,-0.741211,0.576172,0
780,-0.387207,-0.743164,0.578613,0
800,-0.388184,-0.746094,0.570312,0
820,-0.391602,-0.742188,0.571289,0
840,-0.391602,-0.741211,0.577637,0
860,-0.388672,-0.741699,0.572266,0
880,-0.386719,-0.741211,0.579102,0
900,-0.385742,-0.737793,0.576172,0
920,-0.387695,-0.740234,0.584961,0
940,-0.388672,-0.737305,0.574219,0
960,-0.38916,-0.742676,0.578125,0
980,-0.385254,-0.746094,0.574707,0
1000,-0.389648,-0.744629,0.57666,0
1020,-0.390137,-0.741699,0.57666,0
1040,-0.385742,-0.741211,0.575195,0
1060,-0.389648,-0.736328,0.580078,0
1080,-0.383301,-0.739746,0.584961,0
1100,-0.387695,-0.738281,0.588867,0
1120,-0.384766,-0.736816,0.57666,0
1140,-0.387695,-0.740234,0.574219,0
1160,-0.391113,-0.742188,0.576172,0
1180,-0.388672,-0.742188,0.574219,0
1200,-0.390625,-0.742676,0.574707,0
1220,-0.391602,-0.740723,0.580078,0
1240,-0.392578,-0.742676,0.572754,0
1260,-0.37793,-0.744141,0.577148,0
1280,-0.388672,-0.742188,0.580078,0
1300,-0.381836,-0.739258,0.577637,0
1320,-0.38623,-0.739746,0.583984,0
1340,-0.384766,-0.736328,0.580078,0
1360,-0.388184,-0.744141,0.58252,0
1380,-0.388184,-0.741699,0.57373,0
1400,-0.388672,-0.743164,0.57373,0
1420,-0.391602,-0.741211,0.574219,0
1440,-0.388184,-0.742188,0.580566,0
1460,-0.386719,-0.740723,0.580078,0
1480,-0.387695,-0.737793,0.575684,0
1500,-0.390137,-0.739746,0.575195,0
1520,-0.391113,-0.742676,0.580078,0
1540,-0.388672,-0.739746,0.582031,0
1550,-0.391113,-0.745117,0.577637,0
1570,-0.387695,-0.744629,0.577637,0
1590,-0.387695,-0.742188,0.571777,0
1610,-0.390625,-0.741699,0.568848,0
1630,-0.385254,-0.740234,0.568359,0
1650,-0.39209,-0.739746,0.584473,0
1670,-0.394531,-0.742676,0.585449,0
1690,-0.391113,-0.737305,0.583984,0
1710,-0.388672,-0.736816,0.57959,0
1730,-0.387207,-0.737305,0.578613,0
1750,-0.38916,-0.743164,0.57373,0
1770,-0.391113,-0.741699,0.572754,0
1790,-0.391113,-0.739746,0.570801,0
1810,-0.386719,-0.741699,0.578125,0
1830,-0.385742,-0.743164,0.572754,0
1850,-0.386719,-0.742188,0.574219,0
1870,-0.385254,-0.742188,0.57959,0
1890,-0.386719,-0.731934,0.576172,0
1910,-0.388184,-0.741699,0.581055,0
1930,-0.386719,-0.740723,0.57666,0
1950,-0.387207,-0.744141,0.578125,0
1970,-0.390137,-0.743164,0.57666,0
1990,-0.390625,-0.740234,0.571777,0
2010,-0.388672,-0.744629,0.57373,0
2030,-0.388672,-0.743164,0.574707,0
2050,-0.38623,-0.735352,0.574219,0
2070,-0.385254,-0.741699,0.57959,0
2090,-0.387207,-0.744629,0.57666,0
2110,-0.386719,-0.738281,0.57666,0
2130,-0.391602,-0.736328,0.570312,0
2150,-0.38623,-0.743652,0.576172,0
2170,-0.388672,-0.737305,0.576172,0
2190,-0.385742,-0.742188,0.575684,0
2210,-0.387207,-0.743652,0.576172,0
2230,-0.388672,-0.740234,0.574219,0
2250,-0.383301,-0.73877,0.574707,0
2270,-0.391113,-0.740234,0.581543,0
2290,-0.391113,-0.736816,0.585938,0
2310,-0.384766,-0.739746,0.578125,0
2330,-0.38623,-0.735352,0.580566,0
2350,-0.387207,-0.740234,0.575195,0
2370,-0.387695,-0.73877,0.577637,0
2390,-0.38623,-0.741211,0.575684,0
2410,-0.39209,-0.741699,0.569336,0
2430,-0.391113,-0.745605,0.575195,0
2450,-0.385254,-0.743164,0.569824,0
2470,-0.380859,-0.739258,0.57666,0
2490,-0.385742,-0.739258,0.578613,0
2510,-0.384766,-0.740234,0.578125,0
2530,-0.382812,-0.742676,0.577637,0
2550,-0.388184,-0.741699,0.578613,0
2570,-0.388672,-0.743164,0.578125,0
2590,-0.389648,-0.741699,0.574219,0
2610,-0.387207,-0.742676,0.570312,0
2630,-0.387695,-0.739258,0.57666,0
2650,-0.38623,-0.737305,0.57666,0
2670,-0.392578,-0.737305,0.578125,0
2690,-0.389648,-0.734375,0.581055,0
2710,-0.391113,-0.73584,0.583496,0
2730,-0.39502,-0.736816,0.583496,0
2750,-0.397461,-0.741699,0.580078,0
2770,-0.39209,-0.745605,0.573242,0
2790,-0.394043,-0.748047,0.569824,0
2810,-0.390625,-0.747559,0.568848,0
2830,-0.39502,-0.75293,0.574707,0
2850,-0.395508,-0.752441,0.560547,0
2870,-0.387695,-0.765137,0.558594,0
2890,-0.38623,-0.762207,0.566406,0
2910,-0.379883,-0.76416,0.555176,0
2930,-0.377441,-0.766113,0.549805,0
2950,-0.376465,-0.766113,0.547852,0
2970,-0.38623,-0.773438,0.540527,0
2990,-0.388184,-0.782715,0.536133,0
3010,-0.387207,-0.790039,0.527832,0
3030,-0.400391,-0.787598,0.509766,0
3050,-0.40332,-0.797363,0.504395,0
3070,-0.400879,-0.807129,0.505371,0
3090,-0.402344,-0.807129,0.494629,0
3110,-0.400391,-0.813477,0.475586,0
3130,-0.400879,-0.808105,0.468262,0
3150,-0.408691,-0.812988,0.45166,0
3170,-0.410645,-0.817871,0.443848,0
3190,-0.421875,-0.825684,0.425781,0
3210,-0.425781,-0.824219,0.421875,0
3230,-0.429688,-0.817871,0.410156,0
3250,-0.431152,-0.830566,0.408203,0
3270,-0.446777,-0.83252,0.394043,0
3290,-0.447266,-0.837402,0.384277,0
3310,-0.453613,-0.836426,0.376953,0
3330,-0.458008,-0.847168,0.367188,0
3350,-0.460938,-0.84668,0.367676,0
3370,-0.473145,-0.854004,0.358887,0
3390,-0.490234,-0.853027,0.35791,0
3410,-0.487793,-0.853027,0.342773,0
3430,-0.496582,-0.865234,0.330078,0
3450,-0.499512,-0.841797,0.30957,0
3470,-0.483398,-0.828613,0.312988,0
3490,-0.495117,-0.849609,0.312012,0
3510,-0.495117,-0.838379,0.302246,0
3530,-0.482422,-0.841797,0.302246,0
3550,-0.48584,-0.835449,0.28125,0
3570,-0.481445,-0.847168,0.289551,0
3590,-0.483887,-0.858887,0.277832,0
3610,-0.483887,-0.863281,0.268555,0
3630,-0.50293,-0.84668,0.273438,0
3650,-0.517578,-0.855469,0.266113,0
3660,-0.524902,-0.846191,0.251465,0
3700,-0.534668,-0.84375,0.243652,0
3700,-0.546387,-0.852051,0.243652,0
3720,-0.550293,-0.82959,0.220215,0
3740,-0.541992,-0.823242,0.224121,0
3770,-0.566895,-0.840332,0.207031,0
3790,-0.571289,-0.851562,0.181641,0
3840,-0.559082,-0.847656,0.149902,0
3900,-0.575195,-0.833008,0.119629,0
3980,-0.612793,-0.831055,0.100098,0
4040,-0.607422,-0.833496,0.0957031,0
4060,-0.602051,-0.835938,0.103027,0
4080,-0.597656,-0.826172,0.108887,0
4150,-0.594727,-0.818359,0.120117,0
4180,-0.612793,-0.822266,0.128906,0
4220,-0.599609,-0.808594,0.22168,0
4240,-0.605469,-0.810059,0.243164,0
4260,-0.597656,-0.803223,0.256348,0
4290,-0.572266,-0.787109,0.318359,0
4310,-0.568848,-0.782227,0.330078,0
4330,-0.55957,-0.785645,0.355957,0
4350,-0.547852,-0.782715,0.380859,0
4370,-0.539062,-0.772461,0.397949,0
4390,-0.529297,-0.76123,0.408691,0
4410,-0.520508,-0.763672,0.429688,0
4430,-0.521973,-0.751953,0.452637,0
4450,-0.523438,-0.742676,0.461426,0
4470,-0.518066,-0.73584,0.476074,0
4490,-0.516113,-0.717773,0.490723,0
4510,-0.505371,-0.716797,0.509766,0
4530,-0.496582,-0.712891,0.525391,0
4550,-0.489258,-0.697754,0.543945,0
4570,-0.484863,-0.690918,0.564941,0
4590,-0.480957,-0.683594,0.572266,0
4610,-0.473145,-0.67041,0.588867,0
4630,-0.460938,-0.649902,0.609375,0
4650,-0.450195,-0.645996,0.619141,0
4670,-0.435547,-0.63623,0.635742,0
4690,-0.427734,-0.623047,0.645508,0
4710,-0.425781,-0.605469,0.664551,0
4730,-0.421875,-0.602539,0.678223,0
4750,-0.414551,-0.59082,0.696289,0
4770,-0.403809,-0.561523,0.711426,0
4790,-0.38916,-0.558594,0.727051,0
4810,-0.37793,-0.549316,0.75,0
4830,-0.368652,-0.538574,0.753418,0
4850,-0.354004,-0.540039,0.772461,0
4870,-0.337891,-0.520508,0.777832,0
4890,-0.328125,-0.500488,0.786621,0
4910,-0.324707,-0.479004,0.79541,0
4930,-0.314941,-0.464355,0.806152,0
4950,-0.299805,-0.448242,0.810547,0
4970,-0.293457,-0.438965,0.834473,0
4990,-0.294434,-0.444336,0.855957,0
5010,-0.280273,-0.450195,0.865234,0
5030,-0.266113,-0.429199,0.856934,0
5050,-0.257324,-0.420898,0.862305,0
5070,-0.258301,-0.420898,0.869141,0
5090,-0.248047,-0.422363,0.870605,0
5110,-0.252441,-0.418945,0.873047,0
5130,-0.233398,-0.402344,0.866211,0
5150,-0.228027,-0.392578,0.867188,0
5170,-0.21875,-0.396973,0.871582,0
5190,-0.217773,-0.408203,0.892578,0
5210,-0.211914,-0.421875,0.910156,0
5230,-0.200684,-0.42627,0.922852,0
5240,-0.189453,-0.415527,0.90625,0
5260,-0.185059,-0.411621,0.903809,0
5280,-0.191406,-0.411133,0.883301,0
5300,-0.192383,-0.42334,0.876465,0
5320,-0.195801,-0.435547,0.883789,0
5340,-0.198242,-0.438477,0.875,0
5360,-0.20166,-0.441895,0.873535,0
5380,-0.199219,-0.436035,0.875977,0
5400,-0.19873,-0.433594,0.878418,0
5420,-0.199219,-0.435059,0.883301,0
5440,-0.190918,-0.435547,0.885742,0
5460,-0.1875,-0.439453,0.882324,0
5480,-0.196289,-0.441895,0.878418,0
5510,-0.20752,-0.46582,0.868164,0
5540,-0.217285,-0.479004,0.865723,0
5570,-0.241699,-0.503906,0.827148,0
5590,-0.250488,-0.512695,0.80957,0
5610,-0.259277,-0.530273,0.802246,0
5630,-0.258301,-0.539551,0.797363,0
5650,-0.261719,-0.547363,0.801758,0
5670,-0.273438,-0.554688,0.790039,0
5690,-0.278809,-0.564941,0.785156,0
5710,-0.274414,-0.57666,0.780762,0
5730,-0.281738,-0.588867,0.768555,0
5750,-0.285156,-0.599609,0.760254,0
5770,-0.300781,-0.605957,0.744141,0
5790,-0.313965,-0.614258,0.728027,0
5810,-0.331055,-0.630371,0.716797,0
5830,-0.343262,-0.644043,0.700195,0
5850,-0.351562,-0.654297,0.688965,0
5870,-0.358398,-0.665039,0.665039,0
5890,-0.368652,-0.679199,0.650391,0
5910,-0.367188,-0.692871,0.643066,0
5930,-0.373047,-0.702148,0.626953,0
5950,-0.375488,-0.708008,0.614258,0
5970,-0.381836,-0.705566,0.604492,0
5990,-0.382812,-0.713867,0.59375,0
6010,-0.387207,-0.723145,0.582031,0
6030,-0.393066,-0.726562,0.578125,0
6050,-0.395996,-0.726562,0.574219,0
6070,-0.421387,-0.72998,0.552246,0
6090,-0.423828,-0.731934,0.547363,0
6110,-0.436035,-0.727051,0.537109,0
6130,-0.451172,-0.727539,0.528809,0
6150,-0.464844,-0.729492,0.517578,0
6170,-0.484375,-0.724609,0.501953,0
6190,-0.49707,-0.73291,0.490234,0
6210,-0.518555,-0.744629,0.479004,0
6230,-0.514648,-0.747559,0.459961,0
6250,-0.519043,-0.76416,0.449219,0
6270,-0.51709,-0.769531,0.439941,0
6290,-0.522461,-0.796387,0.427246,0
6310,-0.510254,-0.803711,0.417969,0
6330,-0.501953,-0.824707,0.407227,0
6350,-0.5,-0.834473,0.380859,0
6370,-0.491211,-0.82959,0.368652,0
6390,-0.485352,-0.836426,0.367188,0
6410,-0.48584,-0.834961,0.357422,0
6430,-0.495117,-0.817383,0.356445,0
6450,-0.518066,-0.785156,0.341797,0
6470,-0.519531,-0.795898,0.32959,0
6490,-0.521973,-0.802246,0.322266,0
6510,-0.533691,-0.813477,0.298828,0
6530,-0.539062,-0.825684,0.297363,0
6550,-0.554688,-0.844238,0.277344,0
6570,-0.545898,-0.856445,0.27002,0
6590,-0.525391,-0.866699,0.278809,0
6610,-0.536621,-0.852051,0.25293,0
6630,-0.541992,-0.82959,0.264648,0
6650,-0.550781,-0.814453,0.269531,0
6670,-0.557129,-0.80127,0.26709,0
6690,-0.5625,-0.802246,0.265137,0
6710,-0.571289,-0.791504,0.25293,0
6730,-0.595215,-0.791992,0.23877,0
6750,-0.61377,-0.785156,0.233887,0
6770,-0.613281,-0.793945,0.230469,0
6790,-0.63916,-0.799805,0.214844,0
6810,-0.63623,-0.80127,0.197266,0
6830,-0.634766,-0.807129,0.193359,0
6850,-0.619141,-0.810059,0.195312,0
6870,-0.616699,-0.802734,0.205078,0
6890,-0.614258,-0.794922,0.217773,0
6900,-0.600098,-0.794922,0.229492,0
6920,-0.591797,-0.792969,0.240723,0
6930,-0.584473,-0.792969,0.254395,0
6940,-0.585449,-0.800293,0.260742,0
6960,-0.585449,-0.79834,0.265137,0
6990,-0.577148,-0.799805,0.271973,0
7010,-0.572754,-0.807617,0.292969,0
7020,-0.568848,-0.802734,0.308105,0
7030,-0.560547,-0.790039,0.310059,0
7070,-0.555176,-0.786621,0.334961,0
7100,-0.543945,-0.793457,0.376465,0
7120,-0.530762,-0.768555,0.412109,0
7140,-0.529297,-0.759277,0.414551,0
7160,-0.521484,-0.758301,0.424316,0
7180,-0.525391,-0.756836,0.438965,0
7200,-0.516113,-0.756348,0.449707,0
7220,-0.503906,-0.750977,0.460449,0
7240,-0.51123,-0.745605,0.465332,0
7260,-0.513672,-0.75,0.466797,0
7280,-0.51416,-0.753418,0.472168,0
7300,-0.486328,-0.762695,0.493652,0
7320,-0.483887,-0.757812,0.50293,0
7340,-0.474609,-0.749023,0.510742,0
7360,-0.463379,-0.733398,0.51416,0
7380,-0.466309,-0.724121,0.525879,0
7400,-0.483887,-0.728027,0.527832,0
7420,-0.480957,-0.726562,0.526855,0
7440,-0.470215,-0.725586,0.536621,0
7460,-0.480957,-0.723145,0.538086,0
7480,-0.478027,-0.717773,0.540039,0
7500,-0.47998,-0.717773,0.539062,0
7520,-0.481934,-0.72168,0.537109,0
7540,-0.478027,-0.717285,0.541504,0
7560,-0.483887,-0.717285,0.54834,0
7580,-0.483887,-0.712402,0.537598,0
7600,-0.479492,-0.712402,0.546875,0
7620,-0.479492,-0.710449,0.543945,0
7640,-0.484375,-0.705078,0.543945,0
7660,-0.479492,-0.707031,0.549805,0
7680,-0.479004,-0.706543,0.550293,0
7700,-0.48291,-0.708496,0.546875,0
7720,-0.482422,-0.705566,0.557129,0
7740,-0.479004,-0.704102,0.554688,0
7760,-0.481445,-0.701172,0.545898,0
7780,-0.480469,-0.702637,0.554688,0
7800,-0.479004,-0.707031,0.547852,0
7820,-0.479492,-0.708984,0.549316,0
7840,-0.476562,-0.708496,0.54541,0
7860,-0.474609,-0.720703,0.54248,0
7880,-0.466797,-0.709961,0.55957,0
7900,-0.483398,-0.702148,0.55957,0
7920,-0.48291,-0.702148,0.567383,0
7940,-0.473633,-0.703125,0.566895,0
7960,-0.473145,-0.695801,0.558594,0
7980,-0.481445,-0.689453,0.562988,0
8000,-0.479492,-0.691895,0.560059,0
8020,-0.484863,-0.695801,0.558594,0
8040,-0.484863,-0.700195,0.548828,0
8060,-0.479492,-0.702148,0.554199,0
8080,-0.481934,-0.706055,0.547363,0
8100,-0.481934,-0.708496,0.556152,0
8120,-0.485352,-0.706543,0.553223,0
8140,-0.480469,-0.70459,0.553711,0
8160,-0.482422,-0.699707,0.551758,0
8180,-0.47998,-0.696289,0.555176,0
8200,-0.474121,-0.696289,0.556152,0
8220,-0.475586,-0.697754,0.557129,0
8240,-0.477539,-0.69873,0.560059,0
8260,-0.479492,-0.699219,0.564453,0
8280,-0.479004,-0.699707,0.562988,0
8300,-0.48291,-0.696777,0.566895,0
8320,-0.47998,-0.691406,0.563965,0
8340,-0.48584,-0.688965,0.55957,0
8360,-0.480469,-0.687012,0.561523,0
8380,-0.477539,-0.693359,0.563477,0
8400,-0.477539,-0.688965,0.564941,0
8420,-0.475586,-0.6875,0.569824,0
8440,-0.474121,-0.688965,0.566406,0
8460,-0.473145,-0.692871,0.57373,0
8480,-0.475098,-0.691406,0.580078,0
8500,-0.475586,-0.685547,0.572754,0
8520,-0.476074,-0.687012,0.570801,0
8540,-0.474121,-0.687012,0.578125,0
8560,-0.475586,-0.685547,0.583496,0
8580,-0.473633,-0.687988,0.574707,0
8600,-0.475098,-0.687012,0.569336,0
8620,-0.483887,-0.685059,0.57666,0
8640,-0.470703,-0.684082,0.578613,0
8660,-0.47168,-0.687988,0.568848,0
8680,-0.46582,-0.6875,0.586426,0
8700,-0.464844,-0.688477,0.583984,0
8720,-0.466797,-0.681152,0.578613,0
8740,-0.464355,-0.684082,0.58252,0
8760,-0.46582,-0.683105,0.586426,0
8780,-0.461426,-0.681641,0.587402,0
8800,-0.463379,-0.68457,0.589844,0
8820,-0.463867,-0.682129,0.584473,0
8840,-0.464844,-0.686523,0.58252,0
8860,-0.468262,-0.685547,0.583008,0
8880,-0.469238,-0.683105,0.590332,0
8900,-0.468262,-0.681152,0.591797,0
8920,-0.459473,-0.682129,0.598145,0
8940,-0.461426,-0.677734,0.591309,0
8960,-0.458008,-0.678711,0.592285,0
8980,-0.462402,-0.680176,0.588379,0
9000,-0.460938,-0.678223,0.585449,0
9020,-0.465332,-0.679199,0.589355,0
9040,-0.469727,-0.680176,0.595215,0
9060,-0.470703,-0.680176,0.594238,0
9080,-0.462891,-0.683105,0.593262,0
9100,-0.458984,-0.678223,0.594238,0
9120,-0.460938,-0.677734,0.591797,0
9140,-0.456543,-0.685059,0.589355,0
9160,-0.455566,-0.682129,0.59082,0
9180,-0.459473,-0.681641,0.587402,0
9200,-0.462891,-0.678223,0.586914,0
9220,-0.461914,-0.681152,0.587891,0
9240,-0.460449,-0.685547,0.587891,0
9260,-0.453613,-0.683594,0.595703,0
9280,-0.458984,-0.686035,0.59668,0
9300,-0.457031,-0.682129,0.587891,0
9320,-0.455078,-0.683105,0.595703,0
9340,-0.460938,-0.684082,0.59375,0
9360,-0.45752,-0.684082,0.589355,0
9380,-0.453613,-0.68457,0.594727,0
9400,-0.455078,-0.685547,0.591309,0
9420,-0.453613,-0.685547,0.591309,0
9440,-0.459473,-0.686523,0.59082,0
9460,-0.456543,-0.684082,0.592285,0
9480,-0.455566,-0.682129,0.594238,0
9500,-0.451172,-0.681641,0.596191,0
9520,-0.455566,-0.681152,0.597656,0
9540,-0.456055,-0.681641,0.596191,0
9560,-0.456055,-0.682129,0.594727,0
9580,-0.451172,-0.68457,0.588867,0
9600,-0.453613,-0.685547,0.593262,0
9620,-0.458984,-0.686035,0.594238,0
9640,-0.45459,-0.678711,0.601562,0
9660,-0.458496,-0.68457,0.601562,0
9680,-0.452148,-0.677246,0.600098,0
9700,-0.452637,-0.676758,0.598633,0
9720,-0.45166,-0.676758,0.600098,0
9740,-0.451172,-0.678223,0.597168,0
9760,-0.45166,-0.681152,0.597168,0
9780,-0.457031,-0.678223,0.600586,0
9800,-0.449707,-0.669922,0.60791,0
9820,-0.45459,-0.678711,0.59668,0
9840,-0.455078,-0.677734,0.601562,0
9860,-0.456543,-0.672852,0.604004,0
9880,-0.455566,-0.67627,0.601562,0
9900,-0.450195,-0.674316,0.598145,0
9920,-0.455566,-0.679199,0.597656,0
9940,-0.446289,-0.677246,0.59668,0
9960,-0.450684,-0.677246,0.600098,0
9980,-0.45459,-0.678223,0.59668,0
9990,-0.45752,-0.677246,0.601074,0
10010,-0.453125,-0.674316,0.596191,0
10030,-0.449219,-0.679199,0.596191,0
10050,-0.450684,-0.676758,0.599609,0
10070,-0.45459,-0.673828,0.603027,0
10090,-0.45166,-0.672852,0.605469,0
10110,-0.450684,-0.677246,0.601074,0
10130,-0.456543,-0.678223,0.602051,0
10150,-0.448242,-0.671387,0.598633,0
10170,-0.450684,-0.679688,0.594727,0
10190,-0.442383,-0.682129,0.603027,0
10210,-0.451172,-0.676758,0.61084,0
10230,-0.448242,-0.675781,0.606934,0
10250,-0.444336,-0.670898,0.606445,0
10270,-0.44873,-0.66748,0.614258,0
10290,-0.44873,-0.672363,0.605469,0
10310,-0.449707,-0.676758,0.605957,0
10330,-0.456055,-0.67334,0.602051,0
10350,-0.45166,-0.67041,0.599121,0
10370,-0.455078,-0.674805,0.608398,0
10390,-0.45166,-0.674805,0.60791,0
10410,-0.44873,-0.67041,0.60791,0
10430,-0.445312,-0.672363,0.61084,0
10450,-0.449219,-0.672363,0.614746,0
10470,-0.446289,-0.67041,0.613281,0
10490,-0.447266,-0.672852,0.608887,0
10510,-0.447266,-0.66748,0.608398,0
10530,-0.45166,-0.670898,0.613281,0
10550,-0.453125,-0.669922,0.614746,0
10570,-0.451172,-0.67041,0.613281,0
10590,-0.44873,-0.669922,0.61084,0
10610,-0.452637,-0.677246,0.607422,0
10630,-0.446777,-0.669434,0.610352,0
10650,-0.446289,-0.665039,0.61084,0
10670,-0.443848,-0.668945,0.61084,0
10690,-0.446289,-0.671875,0.608398,0
10710,-0.442383,-0.676758,0.606934,0
10730,-0.445312,-0.670898,0.608398,0
10750,-0.444824,-0.671387,0.605469,0
10770,-0.449219,-0.675293,0.608398,0
10790,-0.45166,-0.675293,0.612793,0
10810,-0.452637,-0.672363,0.609375,0
10830,-0.443359,-0.677246,0.609863,0
10850,-0.448242,-0.666016,0.609863,0
10870,-0.447754,-0.669922,0.610352,0
10890,-0.456055,-0.672363,0.603516,0
10910,-0.448242,-0.665527,0.607422,0
10930,-0.452148,-0.666992,0.612305,0
10950,-0.452148,-0.67041,0.61084,0
10970,-0.452148,-0.672852,0.60791,0
10990,-0.453613,-0.673828,0.61377,0
11010,-0.447754,-0.666992,0.615234,0
11030,-0.452637,-0.662598,0.614746,0
11050,-0.440918,-0.664551,0.616211,0
11070,-0.446289,-0.668945,0.614258,0
11090,-0.450195,-0.660645,0.61377,0
11110,-0.445312,-0.666016,0.61084,0
11130,-0.452148,-0.666504,0.612305,0
11150,-0.448242,-0.665527,0.621582,0
11170,-0.451172,-0.666016,0.614258,0
11190,-0.449707,-0.659668,0.618652,0
11210,-0.449219,-0.663574,0.619141,0
11230,-0.449219,-0.662109,0.618164,0
11250,-0.446777,-0.665527,0.621582,0
11270,-0.44873,-0.663086,0.615234,0
11290,-0.446777,-0.665039,0.613281,0
11310,-0.44043,-0.665039,0.613281,0
11330,-0.444336,-0.66748,0.615723,0
11350,-0.439453,-0.669922,0.623047,0
11370,-0.444824,-0.664551,0.621582,0
11390,-0.443848,-0.663574,0.617676,0
11410,-0.44043,-0.664551,0.627441,0
11430,-0.442871,-0.659668,0.621094,0
11450,-0.441895,-0.662109,0.619629,0
11470,-0.445801,-0.66748,0.619141,0
11490,-0.447754,-0.662598,0.620117,0
11510,-0.448242,-0.661621,0.618652,0
11530,-0.44873,-0.664062,0.62207,0
11550,-0.441895,-0.662598,0.620117,0
11570,-0.440918,-0.664062,0.623535,0
11590,-0.444336,-0.665039,0.62207,0
11610,-0.443359,-0.660156,0.624512,0
11630,-0.440918,-0.666992,0.62207,0
11650,-0.434082,-0.665527,0.619141,0
11670,-0.439941,-0.668457,0.618164,0
11690,-0.433594,-0.662109,0.623535,0
11710,-0.437988,-0.666992,0.628906,0
11730,-0.435059,-0.661621,0.626465,0
11750,-0.438965,-0.663086,0.625,0
11770,-0.437988,-0.666016,0.632812,0
11790,-0.437988,-0.664062,0.632324,0
11810,-0.438965,-0.657715,0.621094,0
11830,-0.436523,-0.65918,0.625977,0
11850,-0.440918,-0.658691,0.629883,0
11870,-0.435547,-0.660156,0.631836,0
11890,-0.435059,-0.663574,0.621582,0
11910,-0.43457,-0.665527,0.623047,0
11930,-0.435059,-0.663574,0.630371,0
11950,-0.437988,-0.666992,0.632812,0
11970,-0.439941,-0.662598,0.627441,0
11990,-0.43457,-0.666992,0.626465,0
12010,-0.4375,-0.665527,0.627441,0
12030,-0.435059,-0.666504,0.624023,0
12050,-0.4375,-0.67334,0.615723,0
12070,-0.44043,-0.667969,0.615723,0
12090,-0.441406,-0.669922,0.619629,0
12110,-0.441895,-0.665527,0.61377,0
12130,-0.437988,-0.67334,0.614746,0
12150,-0.437988,-0.669434,0.611816,0
12170,-0.437012,-0.669922,0.617188,0
12190,-0.441406,-0.669922,0.619141,0
12210,-0.438965,-0.671387,0.609863,0
12230,-0.438477,-0.671387,0.609863,0
12250,-0.4375,-0.672363,0.610352,0
12270,-0.439941,-0.675293,0.60791,0
12290,-0.44043,-0.672363,0.611328,0
12310,-0.437012,-0.673828,0.612793,0
12330,-0.441406,-0.676758,0.614258,0
12350,-0.443848,-0.67334,0.61084,0
12370,-0.439941,-0.671387,0.611328,0
12390,-0.4375,-0.676758,0.611816,0
12410,-0.432617,-0.682617,0.614746,0
12430,-0.426758,-0.680176,0.609863,0
12450,-0.428223,-0.677246,0.612793,0
12470,-0.420898,-0.672852,0.618652,0
12490,-0.427246,-0.674805,0.623535,0
12510,-0.425293,-0.674316,0.625,0
12530,-0.434082,-0.664062,0.62207,0
12550,-0.431152,-0.671875,0.616699,0
12570,-0.431641,-0.674316,0.623047,0
12590,-0.434082,-0.66748,0.628418,0
12610,-0.429199,-0.668945,0.621094,0
12630,-0.427246,-0.67334,0.623535,0
12650,-0.437012,-0.667969,0.62207,0
12670,-0.438477,-0.666992,0.624512,0
12690,-0.442871,-0.668945,0.619141,0
12710,-0.45459,-0.666992,0.622559,0
12730,-0.466797,-0.679688,0.617676,0
12750,-0.486328,-0.711914,0.604004,0
12770,-0.504395,-0.72998,0.5625,0
12790,-0.46582,-0.744629,0.599609,0
12810,-0.490723,-0.737793,0.650879,0
12830,-0.541016,-0.677246,0.690918,0
12850,-0.554199,-0.614258,0.741211,0
12870,-0.487793,-0.646484,0.770996,0
12890,-0.40918,-0.771973,0.787109,0
12910,-0.368164,-0.994629,0.804688,0
12930,-0.233887,-1.13428,0.820312,0
12950,-0.0439453,-1.06396,0.694824,0
12970,0.0751953,-0.833008,0.583008,0
12990,0.0541992,-0.699707,0.611816,0
13010,0.0854492,-0.691895,0.624023,0
13030,0,-0.803711,0.601074,0
13050,-0.0361328,-0.660156,0.648926,0
13070,-0.0712891,-0.608398,0.576172,0
13090,-0.0317383,-0.674805,0.549805,0
13110,0.034668,-0.664062,0.547363,0
13130,-0.130859,-0.728516,0.469238,0
13150,-0.155762,-0.606445,0.594727,0
13160,-0.127441,-0.670898,0.700195,0
13180,-0.163574,-0.662109,0.661133,0
13200,-0.140625,-0.539062,0.650391,0
13220,-0.0395508,-0.64502,0.742676,0
13240,-0.090332,-0.811035,0.625977,0
13260,-0.120117,-0.850586,0.746094,0
13280,-0.0825195,-0.860352,0.745117,0
13300,0.043457,-0.800293,0.557129,0
13320,-0.046875,-0.73291,0.640137,0
13340,-0.104004,-0.69043,0.655273,0
13360,-0.0961914,-0.778809,0.69873,0
13380,-0.0654297,-0.836914,0.643066,0
13400,-0.0322266,-0.810547,0.643066,0
13420,-0.027832,-0.777344,0.654297,0
13440,-0.0214844,-0.758789,0.643555,0
13460,-0.0263672,-0.792969,0.610352,0
13480,-0.0405273,-0.81543,0.661133,0
13500,-0.0673828,-0.796387,0.664551,0
13520,-0.0161133,-0.742188,0.672363,0
13550,0.00537109,-0.783203,0.626465,0
13570,0,-0.753906,0.671387,0
13590,0.0136719,-0.729004,0.649414,0
13610,0.0288086,-0.771484,0.652344,0
13630,0.0844727,-0.817871,0.64502,0
13650,0.124023,-0.837891,0.632324,0
13670,0.10498,-0.773438,0.654785,0
13690,0.0883789,-0.769531,0.663086,0
13710,0.0927734,-0.822266,0.617676,0
13730,0.105957,-0.855957,0.606445,0
13750,0.141113,-0.944336,0.60791,0
13770,0.12793,-0.905273,0.650391,0
13790,0.102539,-0.82666,0.634277,0
13810,0.122559,-0.788086,0.566406,0
13830,0.173828,-0.75,0.549316,0
13850,0.215332,-0.674316,0.607422,0
13870,0.199707,-0.705078,0.614746,0
13890,0.143066,-0.702148,0.628418,0
13910,0.141113,-0.701172,0.561523,0
13930,0.225586,-0.702637,0.582031,0
13950,0.317383,-0.731934,0.679688,0
13970,0.345215,-0.689453,0.740234,0
13980,0.266602,-0.619629,0.687988,0
14000,0.259766,-0.769043,0.665527,0
14010,0.400879,-0.765625,0.699219,0
14030,0.312012,-0.630371,0.710449,0
14040,0.306641,-0.596191,0.675293,0
14070,0.339355,-0.535156,0.659668,0
14090,0.379395,-0.632324,0.594727,0
14120,0.346191,-0.749023,0.664551,0
14140,0.325195,-0.731445,0.663574,0
14140,0.285645,-0.765625,0.632324,0
14140,0.299805,-0.788086,0.662109,0
14150,0.211914,-0.77832,0.727539,0
14150,0.217285,-0.766602,0.711914,0
14170,0.247559,-0.72998,0.652832,0
14170,0.254883,-0.681641,0.655762,0
14190,0.211914,-0.716309,0.665039,0
14210,0.156738,-0.753418,0.720215,0
14230,0.152832,-0.758301,0.740723,0
14250,0.160645,-0.768555,0.688965,0
14270,0.164551,-0.716309,0.673828,0
14290,0.178223,-0.660156,0.707031,0
14310,0.138184,-0.643555,0.742676,0
14330,0.100586,-0.637695,0.762695,0
14350,0.0673828,-0.65332,0.778809,0
14370,0.074707,-0.657227,0.760742,0
14390,0.0864258,-0.64502,0.724609,0
14410,0.090332,-0.655273,0.695312,0
14430,0.0932617,-0.640625,0.666016,0
14430,0.150391,-0.631348,0.641602,0
14450,0.129395,-0.623535,0.637207,0
14480,-0.0644531,-0.462891,0.700684,0
14500,-0.0620117,-0.535156,0.733887,0
14520,-0.046875,-0.65625,0.772461,0
14540,-0.155762,-0.683105,0.715332,0
14580,-0.430664,-0.96582,1.36719,0
14620,-0.431641,-0.602051,0.708008,0
14640,-0.506348,-0.616211,0.835938,0
14670,-0.44043,-0.565918,0.692383,0
14690,-0.351562,-0.566406,0.64209,0
14720,-0.429199,-0.616211,0.687988,0
14720,-0.462891,-0.62793,0.716797,0
14740,-0.433594,-0.629395,0.716797,0
14760,-0.423828,-0.58252,0.694336,0
14780,-0.416504,-0.593262,0.661621,0
14800,-0.427246,-0.604004,0.648438,0
14830,-0.45166,-0.625977,0.676758,0
14850,-0.444824,-0.647461,0.683594,0
14870,-0.44043,-0.654785,0.688477,0
14890,-0.416504,-0.662598,0.665039,0
14910,-0.399414,-0.666016,0.658203,0
14930,-0.391113,-0.660645,0.668457,0
14950,-0.385254,-0.651367,0.682617,0
14970,-0.374512,-0.651855,0.692383,0
14990,-0.375,-0.643555,0.686523,0
15010,-0.388184,-0.638184,0.69043,0
15030,-0.385254,-0.639648,0.682617,0
15050,-0.393555,-0.641113,0.674805,0
15070,-0.398926,-0.633301,0.676758,0
15090,-0.400391,-0.641602,0.686523,0
15110,-0.38916,-0.645996,0.679688,0
15130,-0.394531,-0.647949,0.666992,0
15150,-0.391602,-0.640137,0.67041,0
15170,-0.39209,-0.634277,0.674316,0
15190,-0.395996,-0.639648,0.660156,0
15210,-0.400879,-0.64209,0.663086,0
15230,-0.394531,-0.646484,0.662109,0
15250,-0.399902,-0.650879,0.656738,0
15270,-0.393555,-0.649414,0.660645,0
15290,-0.38916,-0.65332,0.659668,0
15310,-0.391113,-0.646973,0.648438,0
15330,-0.39209,-0.649414,0.647949,0
15350,-0.390625,-0.661621,0.658691,0
15370,-0.394043,-0.659668,0.639648,0
15390,-0.40625,-0.651367,0.635742,0
15410,-0.415039,-0.641602,0.647949,0
15430,-0.415527,-0.62793,0.631348,0
15450,-0.417969,-0.621094,0.610352,0
15470,-0.423828,-0.616699,0.61084,0
15490,-0.436035,-0.603516,0.615723,0
15510,-0.453613,-0.615234,0.626465,0
15530,-0.460449,-0.637207,0.643555,0
15550,-0.450195,-0.654297,0.653809,0
15570,-0.445312,-0.672363,0.679199,0
15590,-0.448242,-0.702148,0.680664,0
15610,-0.43457,-0.716797,0.685547,0
15630,-0.461914,-0.722656,0.670898,0
15650,-0.460938,-0.685059,0.703613,0
15660,-0.400879,-0.669922,0.736328,0
15680,-0.395996,-0.70459,0.839355,0
15700,-0.355957,-0.705566,0.827148,0
15720,-0.247559,-0.79248,0.857422,0
15740,-0.19043,-0.741699,0.886719,0
15760,-0.110352,-0.592773,0.82373,0
15780,-0.0610352,-0.589844,0.884766,0
15800,-0.105957,-0.72168,0.891113,0
15820,-0.0307617,-0.722168,0.864746,0
15840,0.0527344,-0.769043,0.817383,0
15860,0.0776367,-0.825195,0.780273,0
15880,0.0561523,-0.811035,0.780762,0
15900,0.0766602,-0.789551,0.772461,0
15920,0.0883789,-0.739746,0.79248,0
15940,0.103516,-0.706543,0.74707,0
15960,0.0864258,-0.725098,0.67334,0
15980,0.0380859,-0.782715,0.700195,0
16000,0.00244141,-0.775391,0.744141,0
16020,0.0341797,-0.736328,0.731934,0
16040,0.0136719,-0.66748,0.540527,0
16070,-0.0180664,-0.705566,0.555664,0
16090,0.0322266,-0.724121,0.528809,0
16110,0.0849609,-0.760742,0.53418,0
16130,0.108398,-0.780762,0.570801,0
16150,0.146973,-0.823242,0.543945,0
16170,0.201172,-0.788574,0.547852,0
16190,0.25293,-0.759277,0.612793,0
16220,0.224609,-0.858887,0.57373,0
16230,0.186523,-0.851074,0.561523,0
16250,0.138184,-0.84375,0.556641,0
16270,0.132812,-0.824219,0.520508,0
16290,0.183594,-0.801758,0.54541,0
16310,0.155273,-0.789062,0.557129,0
16330,0.12207,-0.808594,0.537109,0
16350,0.154785,-0.814941,0.554199,0
16370,0.172852,-0.772461,0.571777,0
16390,0.1875,-0.758301,0.546875,0
16410,0.237305,-0.77002,0.541992,0
16430,0.251953,-0.795898,0.546387,0
16450,0.225586,-0.789551,0.557129,0
16470,0.207031,-0.785156,0.529785,0
16490,0.202637,-0.777832,0.564453,0
16510,0.13916,-0.746582,0.587891,0
16530,0.0175781,-0.69873,0.613281,0
16550,-0.123047,-0.674805,0.588379,0
16570,-0.262207,-0.696289,0.468262,0
16590,-0.291504,-0.669922,0.412598,0
16610,-0.233887,-0.648926,0.395508,0
16630,-0.192871,-0.68457,0.374512,0
16650,-0.181152,-0.768066,0.356934,0
16670,-0.160156,-0.834473,0.396973,0
16690,-0.170898,-0.862793,0.477539,0
16710,-0.154785,-0.892578,0.544922,0
16710,-0.0947266,-0.929199,0.620117,0
16730,0.0136719,-0.932617,0.763672,0
16750,0.137695,-0.848145,0.922363,0
16770,0.135254,-0.774414,0.924805,0
16780,0.0117188,-0.725586,0.807617,0
16800,-0.125488,-0.619629,0.837402,0
16820,-0.185059,-0.623047,0.999512,0
16840,-0.171387,-0.718262,0.841309,0
16860,-0.15625,-0.763672,0.790527,0
16880,-0.109863,-0.798828,0.805176,0
16900,-0.154785,-0.769043,0.807617,0
16920,-0.177246,-0.740723,0.812012,0
16940,-0.121094,-0.92334,1.05713,0
16960,-0.0952148,-0.887695,1.40088,0
16980,0.220215,-0.803711,1.24268,0
17000,0.354004,-0.653809,0.708496,0
17010,-0.164551,-0.590332,0.683105,0
17030,-0.081543,-0.668945,0.63623,0
17050,-0.0952148,-0.666992,0.631836,0
17070,-0.281738,-0.714844,0.766113,0
17090,-0.459473,-0.754883,0.889648,0
17110,-0.445801,-0.756836,0.887207,0
17130,-0.260254,-0.752441,0.782715,0
17150,-0.23584,-0.700195,0.664551,0
17190,-0.453125,-0.385742,0.688477,0
17210,-0.391602,-0.478516,0.711914,0
17230,-0.365234,-0.617188,0.753418,0
17250,-0.400391,-0.647949,0.748535,0
17270,-0.433594,-0.625488,0.741211,0
17290,-0.43457,-0.617188,0.734375,0
17310,-0.419922,-0.60498,0.724121,0
17330,-0.400879,-0.611328,0.699219,0
17350,-0.400391,-0.635742,0.67627,0
17370,-0.415527,-0.675781,0.690918,0
17390,-0.398438,-0.696289,0.708496,0
17410,-0.35791,-0.668945,0.694336,0
17430,-0.332031,-0.639648,0.702148,0
17450,-0.317383,-0.615234,0.710449,0
17460,-0.289062,-0.593262,0.740723,0
17480,-0.257812,-0.59668,0.77832,0
17500,-0.265137,-0.606445,0.766602,0
17520,-0.278809,-0.615723,0.757324,0
17540,-0.284668,-0.611816,0.753418,0
17560,-0.29248,-0.609375,0.754395,0
17580,-0.294434,-0.606934,0.755859,0
17600,-0.298828,-0.604492,0.75293,0
17620,-0.301758,-0.602539,0.754395,0
17640,-0.306641,-0.597656,0.751953,0
17660,-0.306641,-0.584473,0.751465,0
17680,-0.311523,-0.593262,0.748047,0
17690,-0.325195,-0.592773,0.737793,0
17710,-0.334961,-0.595703,0.741699,0
17730,-0.338867,-0.598633,0.740234,0
17750,-0.339844,-0.593262,0.728516,0
17770,-0.332031,-0.596191,0.72998,0
17790,-0.323242,-0.605469,0.726562,0
17810,-0.322266,-0.61377,0.730957,0
17830,-0.322754,-0.618164,0.736328,0
17850,-0.317383,-0.621094,0.735352,0
17870,-0.309082,-0.615234,0.734375,0
17890,-0.314453,-0.60791,0.727539,0
17910,-0.313965,-0.61377,0.728027,0
17930,-0.328613,-0.608887,0.741699,0
17950,-0.334473,-0.603516,0.73584,0
17970,-0.332031,-0.605957,0.734375,0
17990,-0.319824,-0.614258,0.72998,0
18010,-0.320312,-0.621582,0.728516,0
18030,-0.325195,-0.631348,0.726074,0
18050,-0.327637,-0.626953,0.721191,0
18070,-0.336426,-0.627441,0.73291,0
18090,-0.331543,-0.618164,0.733887,0
18110,-0.342285,-0.60791,0.738281,0
18130,-0.340332,-0.611816,0.729492,0
18150,-0.349121,-0.624023,0.741211,0
18170,-0.35791,-0.625488,0.744629,0
18190,-0.364258,-0.619629,0.73877,0
18210,-0.357422,-0.617188,0.720703,0
18230,-0.366211,-0.601562,0.702637,0
18250,-0.370605,-0.600098,0.689941,0
18270,-0.368652,-0.614258,0.68457,0
18290,-0.37793,-0.587402,0.670898,0
18310,-0.388184,-0.59082,0.686035,0
18330,-0.394043,-0.59668,0.702637,0
18350,-0.413086,-0.620605,0.704102,0
18370,-0.40332,-0.63623,0.679199,0
18390,-0.385254,-0.635254,0.674805,0
18410,-0.415039,-0.606445,0.687988,0
18430,-0.42041,-0.620117,0.699707,0
18450,-0.403809,-0.646973,0.674805,0
18470,-0.368164,-0.670898,0.657227,0
18490,-0.358887,-0.666992,0.666016,0
18510,-0.380859,-0.662109,0.666016,0
18530,-0.396973,-0.658691,0.678223,0
18550,-0.387207,-0.66748,0.699707,0
18570,-0.385742,-0.675781,0.696777,0
18590,-0.393555,-0.673828,0.673828,0
18600,-0.387207,-0.658691,0.647461,0
18620,-0.435059,-0.63916,0.637207,0
18640,-0.467285,-0.628418,0.61377,0
18660,-0.421875,-0.660645,0.626465,0
18680,-0.406738,-0.678223,0.637695,0
18700,-0.38916,-0.668945,0.640625,0
18720,-0.383301,-0.652344,0.638672,0
18740,-0.381348,-0.656738,0.685547,0
18760,-0.3125,-0.686035,0.76416,0
18780,-0.249023,-0.645996,0.782715,0
18800,-0.29248,-0.593262,0.848145,0
18820,-0.266113,-0.68457,0.836914,0
18840,-0.239258,-0.695801,0.772461,0
18860,-0.299805,-0.615234,0.790527,0
18880,-0.306641,-0.555664,0.890137,0
18900,-0.26416,-0.422363,0.909668,0
18920,-0.217285,-0.441406,0.859863,0
18940,-0.224609,-0.519043,0.883789,0
18960,-0.216309,-0.572266,0.921387,0
18980,-0.165527,-0.622559,0.899414,0
19000,-0.0390625,-0.598145,0.821289,0
19010,-0.0224609,-0.605957,0.764648,0
19030,-0.00439453,-0.686523,0.755859,0
19050,0.00390625,-0.765137,0.799805,0
19070,-0.00439453,-0.847656,0.731934,0
19090,0.046875,-0.886719,0.624023,0
19110,0.0673828,-0.851562,0.595703,0
19130,0.0527344,-0.871094,0.623535,0
19150,-0.00683594,-0.888184,0.642578,0
19170,-0.00878906,-0.873535,0.67334,0
19190,0.0141602,-0.869629,0.612793,0
19210,0.0786133,-0.842285,0.594727,0
19210,0.0981445,-0.754883,0.573242,0
19230,0.0898438,-0.771484,0.551758,0
19250,0.121094,-0.768555,0.505371,0
19270,0.141602,-0.758301,0.52832,0
19290,0.141113,-0.719727,0.565918,0
19310,0.129883,-0.737793,0.59668,0
19330,0.140625,-0.760742,0.576172,0
19350,0.140137,-0.811035,0.538086,0
19370,0.0898438,-0.827637,0.562988,0
19390,0.0654297,-0.792969,0.575684,0
19410,0.0820312,-0.762695,0.555176,0
19430,0.104004,-0.734375,0.559082,0
19450,0.151367,-0.750977,0.521973,0
19470,0.223633,-0.760742,0.481445,0
19490,0.237793,-0.779785,0.55127,0
19510,0.23291,-0.806641,0.607422,0
19530,0.272949,-0.790527,0.615234,0
19550,0.29541,-0.762695,0.597656,0
19570,0.325195,-0.775879,0.583008,0
19590,0.337402,-0.82959,0.556152,0
19610,0.318848,-0.862305,0.545898,0
19630,0.27002,-0.866211,0.533203,0
19660,0.217285,-0.803711,0.577148,0
19690,0.253418,-0.807617,0.595703,0
19710,0.231934,-0.777344,0.601562,0
19730,0.227539,-0.743652,0.594238,0
19750,0.249512,-0.753418,0.580078,0
19770,0.230469,-0.779297,0.617188,0
19790,0.220215,-0.776855,0.607422,2000
19810,0.258789,-0.793945,0.572266,0
19830,0.213379,-0.767578,0.608887,0
19850,0.227539,-0.811035,0.576172,0
19870,0.208008,-0.810059,0.560059,0
19890,0.177246,-0.784668,0.582031,0
19910,0.16748,-0.765625,0.618652,0
19930,0.217773,-0.773926,0.589844,0
19950,0.245605,-0.796875,0.553223,0
19970,0.182617,-0.788574,0.555664,0
19990,0.147461,-0.763184,0.592285,0
20010,0.211914,-0.76709,0.587402,0
20030,0.221191,-0.762695,0.584961,0
20050,0.151367,-0.787598,0.569824,0
20070,0.147949,-0.771484,0.572266,0
20090,0.176758,-0.777832,0.590332,0
20110,0.202148,-0.787109,0.558594,0
20130,0.231934,-0.78125,0.57666,0
20150,0.343262,-0.749023,0.618652,0
20170,0.385254,-0.762695,0.579102,0
20190,0.324707,-0.797852,0.558105,0
20210,0.365723,-0.75293,0.62207,0
20230,0.41748,-0.723633,0.637207,0
20250,0.415039,-0.73877,0.577148,0
20270,0.483887,-0.736816,0.563965,0
20290,0.534668,-0.726074,0.602051,0
20310,0.416016,-0.707031,0.609375,0
20330,0.275391,-0.719727,0.53418,0
20350,0.231934,-0.703613,0.555664,0
20370,0.317871,-0.71875,0.599121,0
20390,0.408203,-0.749512,0.601074,0
20410,0.366699,-0.775879,0.571777,0
20430,0.306152,-0.733887,0.545898,0
20450,0.320312,-0.708008,0.585938,0
20470,0.414551,-0.737305,0.618652,0
20490,0.431152,-0.750488,0.591797,0
20510,0.375488,-0.742676,0.572754,0
20530,0.318359,-0.751465,0.597656,0
20540,0.54834,-0.718262,0.617188,0
20580,0.526367,-0.623047,0.603516,0
20650,0.710938,-0.556152,0.601074,0
20670,0.647949,-0.562012,0.644043,0
20720,0.706543,-0.507812,0.602051,0
20740,0.655762,-0.553223,0.69043,0
20760,0.506836,-0.591797,0.75293,0
20820,0.444336,-0.546875,0.789551,0
20840,0.348633,-0.595703,0.739258,0
20860,0.378906,-0.619141,0.729004,0
20880,0.441895,-0.615234,0.742676,0
20900,0.453613,-0.586914,0.755371,0
20920,0.42334,-0.570801,0.740234,0
20940,0.366211,-0.609863,0.725098,0
20960,0.412109,-0.658691,0.736816,0
20980,0.51123,-0.658691,0.723633,0
21000,0.535645,-0.567383,0.709473,0
21020,0.536133,-0.541504,0.708496,0
21040,0.528809,-0.593262,0.724609,0
21060,0.464844,-0.634277,0.831543,0
21080,0.30127,-0.608398,0.819336,0
21100,0.15332,-0.5625,0.743164,0
21120,0.114258,-0.558594,0.753418,0
21170,0.09375,-0.59668,0.669922,0
21190,0.135742,-0.618164,0.644531,0
21200,0.187012,-0.635254,0.63623,0
21220,0.220703,-0.635742,0.660645,0
21240,0.194824,-0.680664,0.650391,0
21250,0.213867,-0.65332,0.665039,0
21270,0.167969,-0.664062,0.632324,0
21290,0.222168,-0.677734,0.625,0
21310,0.239258,-0.650391,0.689941,0
21330,0.187988,-0.606934,0.696289,0
21350,0.218262,-0.631348,0.673828,0
21370,0.376953,-0.630371,0.686035,0
21390,0.433594,-0.652344,0.699219,0
21410,0.34668,-0.681152,0.669922,0
21450,0.444336,-0.708496,0.67041,0
21470,0.439941,-0.699219,0.631348,0
21490,0.44043,-0.672363,0.609375,0
21520,0.424316,-0.706543,0.602051,0
21540,0.461914,-0.693359,0.556152,0
21560,0.529785,-0.64209,0.554688,0
21580,0.507812,-0.660156,0.526367,0
21600,0.478516,-0.6875,0.513672,0
21620,0.450195,-0.693848,0.51123,0
21640,0.479492,-0.703613,0.518066,0
21660,0.519043,-0.699219,0.519043,0
21680,0.558105,-0.68457,0.474609,0
21700,0.57373,-0.67041,0.493164,0
21720,0.586426,-0.683594,0.513184,0
21740,0.614746,-0.673828,0.517578,0
21770,0.62793,-0.658203,0.475098,0
21790,0.59668,-0.652344,0.48291,0
21810,0.625,-0.677734,0.467285,0
21830,0.621094,-0.683105,0.465332,0
21850,0.574707,-0.672363,0.437988,0
21870,0.616699,-0.655762,0.428711,0
21900,0.661133,-0.637695,0.460938,0
21920,0.728027,-0.62793,0.43457,0
21940,0.727539,-0.563477,0.464844,0
21960,0.700195,-0.561035,0.461426,0
21980,0.697266,-0.56543,0.494629,0
22000,0.74707,-0.575684,0.479004,0
22020,0.762695,-0.556641,0.47168,0
22040,0.787109,-0.507812,0.506836,0
22060,0.837891,-0.489746,0.499023,0
22080,0.854004,-0.500488,0.484375,0
22100,0.823242,-0.507812,0.486816,0
22120,0.830078,-0.51709,0.498047,0
22140,0.813965,-0.490723,0.513672,0
22160,0.79541,-0.49707,0.493652,0
22180,0.796387,-0.499512,0.490723,0
22200,0.799805,-0.48877,0.529297,0
22220,0.750977,-0.464844,0.544434,0
22240,0.756348,-0.455566,0.533691,0
22260,0.776855,-0.447754,0.522949,0
22280,0.790527,-0.460449,0.523926,0
22300,0.776855,-0.452148,0.532715,0
22320,0.775879,-0.456543,0.519043,0
22340,0.793457,-0.452148,0.518555,0
22360,0.80957,-0.434082,0.507324,0
22380,0.82959,-0.419922,0.499512,0
22400,0.847656,-0.423828,0.506836,0
22420,0.785645,-0.449219,0.538086,0
22440,0.736816,-0.471191,0.515137,0
22460,0.758789,-0.461914,0.514648,0
22480,0.776855,-0.453613,0.530273,0
22500,0.711914,-0.434082,0.577637,0
22520,0.669434,-0.423828,0.584473,0
22540,0.658203,-0.431152,0.555664,0
22560,0.663574,-0.470215,0.572754,0
22580,0.651855,-0.473145,0.581055,0
22600,0.674805,-0.453613,0.580566,0
22620,0.739746,-0.441895,0.582031,0
22640,0.743164,-0.462402,0.62207,0
22660,0.686035,-0.493164,0.598145,0
22680,0.706055,-0.491699,0.593262,0
22720,0.769043,-0.458008,0.634766,0
22740,0.703125,-0.445312,0.60791,0
22760,0.645508,-0.44043,0.583496,0
22780,0.632812,-0.443359,0.598633,0
22820,0.564453,-0.492676,0.567383,0
22830,0.525879,-0.525391,0.616211,0
22850,0.600098,-0.51709,0.614258,0
22870,0.625488,-0.537598,0.620117,0
22890,0.54834,-0.511719,0.585938,0
22910,0.541992,-0.493164,0.581055,0
22930,0.621094,-0.527344,0.595703,0
22950,0.637207,-0.565918,0.600098,0
22970,0.588379,-0.629883,0.612793,0
22990,0.580078,-0.611328,0.600586,0
23010,0.554688,-0.598633,0.581543,0
23030,0.509277,-0.612305,0.552734,0
23050,0.472656,-0.648926,0.552734,0
23070,0.463379,-0.675781,0.561035,0
23100,0.453125,-0.65332,0.56543,0
23130,0.486816,-0.65918,0.569336,0
23150,0.516602,-0.723633,0.534668,0
23160,0.538574,-0.699707,0.51123,0
23180,0.529785,-0.736328,0.508789,0
23220,0.484863,-0.786133,0.46875,0
23240,0.46875,-0.757324,0.446777,0
23260,0.490234,-0.715332,0.439941,0
23280,0.42334,-0.739258,0.453125,0
23300,0.35791,-0.783691,0.436523,0
23320,0.358398,-0.771973,0.410156,0
23340,0.342285,-0.75293,0.40625,0
23360,0.366699,-0.750488,0.422852,0
23390,0.557617,-0.786133,0.400879,0
23410,0.524902,-0.79541,0.377441,0
23430,0.549805,-0.802246,0.351562,0
23450,0.608887,-0.782715,0.362793,0
23470,0.599121,-0.772949,0.342285,0
23490,0.57666,-0.798828,0.311523,0
23510,0.732422,-0.682617,0.214355,0
23530,0.789062,-0.653809,0.195312,0
23550,0.793457,-0.682617,0.18457,0
23580,0.799805,-0.671875,0.194824,0
23600,0.79834,-0.650391,0.151855,0
23610,0.796387,-0.616699,0.189453,0
23630,0.775879,-0.614746,0.178711,0
23640,0.762695,-0.639648,0.157227,0
23660,0.768066,-0.659668,0.144043,0
23680,0.823242,-0.64502,0.194824,0
23690,0.876465,-0.602539,0.213867,0
23710,0.893555,-0.530762,0.21875,0
23730,0.92041,-0.522949,0.20166,0
23750,0.937012,-0.525879,0.204102,0
23770,0.928223,-0.538574,0.193848,0
23790,0.91748,-0.520996,0.194824,0
23810,0.965332,-0.46582,0.210938,0
23830,0.993164,-0.433105,0.230469,0
23850,0.971191,-0.421387,0.249512,0
23870,0.949707,-0.443848,0.262695,0
23900,0.880371,-0.416504,0.265625,0
23920,0.922363,-0.422363,0.273438,0
23940,0.948242,-0.425293,0.276367,0
23960,0.942383,-0.399902,0.288086,0
23980,0.969727,-0.388184,0.30957,0
24000,0.965332,-0.36377,0.338379,0
24020,0.91748,-0.351074,0.31543,0
24040,0.91748,-0.358398,0.289062,0
24060,0.927246,-0.396484,0.314453,0
24080,0.921875,-0.42041,0.317871,0
24100,0.907227,-0.393555,0.327148,0
24120,0.876465,-0.379395,0.324707,0
24140,0.877441,-0.362793,0.34375,0
24160,0.853027,-0.408203,0.371582,0
24180,0.794434,-0.429688,0.384277,0
24200,0.75293,-0.400879,0.404785,0
24220,0.792969,-0.383789,0.401367,0
24240,0.844727,-0.419434,0.42627,0
24260,0.821777,-0.457031,0.424805,0
24280,0.817871,-0.479492,0.450195,0
24300,0.79541,-0.476074,0.492188,0
24320,0.72998,-0.449707,0.480957,0
24340,0.744141,-0.471191,0.489746,0
24360,0.741211,-0.516113,0.505859,0
24380,0.69043,-0.519531,0.484863,0
24400,0.703125,-0.514648,0.496094,0
24420,0.703613,-0.503906,0.49707,0
24440,0.671387,-0.470215,0.530762,0
24460,0.702148,-0.486328,0.524414,0
24490,0.731934,-0.509277,0.493164,0
24520,0.758301,-0.538086,0.504395,0
24540,0.703125,-0.591309,0.496094,0
24560,0.665527,-0.5625,0.47998,0
24580,0.739258,-0.52832,0.48291,0
24600,0.688477,-0.543945,0.477539,0
24620,0.604492,-0.591797,0.45752,0
24640,0.688965,-0.591309,0.487793,0
24660,0.766602,-0.584473,0.502441,0
24680,0.723145,-0.586426,0.549805,0
24700,0.615723,-0.570312,0.519043,0
24720,0.56543,-0.562988,0.492188,0
24740,0.615723,-0.583496,0.486816,0
24760,0.668457,-0.617188,0.466309,0
24780,0.591797,-0.654785,0.452148,0
24800,0.549316,-0.675781,0.477051,0
24820,0.635742,-0.642578,0.472168,0
24840,0.668945,-0.591309,0.473633,0
24850,0.652344,-0.626465,0.525879,0
24870,0.719727,-0.69043,0.620605,0
24890,0.719727,-0.711914,0.597168,0
24910,0.762207,-0.701172,0.568848,0
24930,0.697754,-0.65332,0.549805,0
24950,0.502441,-0.645508,0.454102,0
24970,0.431152,-0.680664,0.401367,0
24990,0.478516,-0.688477,0.424805,0
25010,0.447754,-0.679199,0.395508,0
25030,0.47998,-0.673828,0.38623,0
25050,0.447266,-0.66748,0.343262,0
25070,0.45459,-0.70166,0.367676,0
25090,0.50293,-0.683594,0.370117,0
25110,0.49707,-0.687988,0.350586,0
25130,0.458984,-0.705078,0.340332,0
25150,0.412598,-0.750488,0.321289,0
25170,0.466797,-0.742188,0.334961,0
25190,0.49707,-0.729492,0.333984,0
25210,0.462891,-0.734863,0.328613,0
25230,0.462402,-0.743164,0.318359,0
25250,0.533691,-0.741211,0.328613,0
25270,0.583496,-0.76123,0.308105,0
25290,0.581543,-0.750977,0.284668,0
25310,0.649902,-0.749512,0.288086,0
25330,0.687012,-0.763672,0.286133,0
25350,0.67041,-0.770996,0.246582,0
25370,0.700684,-0.750488,0.249023,0
25390,0.745605,-0.738281,0.26416,0
25410,0.780762,-0.766602,0.203125,0
25430,0.770508,-0.750977,0.139648,0
25450,0.741699,-0.687012,0.166504,0
25470,0.759766,-0.657227,0.171875,0
25490,0.837402,-0.710449,0.13623,0
25510,0.810547,-0.751465,0.125977,0
25530,0.730957,-0.727539,0.11377,0
25550,0.758789,-0.690918,0.120605,0
25570,0.844238,-0.628906,0.107422,0
25590,0.830078,-0.624512,0.103027,0
25610,0.812988,-0.630859,0.122559,0
25630,0.847168,-0.621582,0.123047,0
25650,0.916992,-0.62207,0.108398,0
25670,0.935059,-0.580566,0.117188,0
25690,0.908203,-0.554688,0.132812,2001
25710,0.944824,-0.529785,0.108887,0
25730,0.964355,-0.543945,0.115234,0
25750,0.923828,-0.536133,0.114746,0
25750,0.888184,-0.537598,0.134766,0
25770,0.881836,-0.519531,0.13623,0
25790,0.82373,-0.489258,0.149414,0
25810,0.76709,-0.478516,0.132812,0
25850,0.668457,-0.427734,0.17041,0
25860,0.675293,-0.439453,0.187012,0
25920,0.638184,-0.526855,0.300781,0
25960,0.71875,-0.533203,0.287109,0
25980,0.83252,-0.574707,0.29248,0
26000,0.861328,-0.589355,0.337402,0
26020,0.84375,-0.640625,0.362793,0
26040,0.888184,-0.689941,0.385254,0
26060,0.926758,-0.732422,0.400391,0
26080,0.964355,-0.795898,0.376465,0
26110,0.810547,-0.8125,0.493652,0
26130,0.770996,-0.861816,0.522461,0
26150,0.722168,-0.896484,0.571289,0
26160,0.526367,-0.898438,0.608398,0
26180,0.46582,-0.861328,0.612305,0
26200,0.447754,-0.834961,0.613281,0
26210,0.398438,-0.823242,0.588379,0
26250,0.372559,-0.771973,0.572754,2000
26290,0.372559,-0.771484,0.547363,0
26310,0.372559,-0.758789,0.549805,0
26350,0.321289,-0.706543,0.539551,0
26400,0.341309,-0.694336,0.536621,0
26420,0.34375,-0.710938,0.519531,0
26440,0.389648,-0.708496,0.536621,0
26450,0.463867,-0.723145,0.550293,0
26460,0.480957,-0.746582,0.530273,0
26480,0.444824,-0.750977,0.560059,0
26500,0.408203,-0.746582,0.582031,0
26520,0.397461,-0.743652,0.575684,0
26540,0.374023,-0.734863,0.560547,0
26560,0.348145,-0.749512,0.570312,0
26580,0.338379,-0.764648,0.578613,0
26600,0.325684,-0.768555,0.575684,0
26620,0.286621,-0.771973,0.549805,0
26640,0.294434,-0.762207,0.512695,0
26660,0.370117,-0.749023,0.527344,0
26680,0.432129,-0.729492,0.54834,0
26700,0.430664,-0.731934,0.535645,0
26710,0.427246,-0.772461,0.457031,0
26730,0.468262,-0.785645,0.472656,0
26750,0.549805,-0.779785,0.519043,0
26770,0.58252,-0.787598,0.510254,0
26790,0.592773,-0.793945,0.461914,0
26800,0.503418,-0.738281,0.477051,0
26820,0.453613,-0.734375,0.522949,0
26840,0.492188,-0.750977,0.513184,0
26860,0.577148,-0.760742,0.5,0
26880,0.525391,-0.649902,0.5,0
26910,0.666504,-0.657227,0.44873,0
26930,0.733887,-0.63623,0.440918,0
26950,0.67627,-0.636719,0.417969,0
26980,0.723145,-0.633301,0.406738,0
27000,0.775879,-0.597656,0.405762,0
27020,0.783691,-0.585938,0.408691,0
27040,0.793945,-0.572754,0.396484,0
27060,0.788574,-0.574707,0.428711,0
27070,0.824219,-0.562012,0.437012,0
27090,0.809082,-0.556641,0.4375,0
27110,0.794434,-0.558594,0.45752,0
27130,0.798828,-0.55957,0.475586,0
27150,0.831543,-0.586914,0.472656,0
27170,0.702637,-0.550781,0.51416,0
27190,0.701172,-0.566895,0.528809,0
27210,0.652344,-0.566895,0.530273,0
27230,0.668945,-0.552246,0.518555,0
27250,0.719727,-0.557129,0.539551,0
27270,0.618652,-0.589844,0.619141,0
27290,0.57959,-0.618164,0.643066,0
27300,0.577637,-0.616211,0.648438,0
27320,0.561035,-0.59375,0.631348,0
27340,0.538086,-0.5625,0.644043,0
27360,0.506348,-0.572754,0.652344,0
27380,0.481934,-0.592773,0.660156,0
27400,0.483398,-0.585938,0.679199,0
27420,0.505859,-0.55957,0.67334,0
27430,0.530273,-0.561035,0.665039,0
27450,0.54541,-0.575195,0.658691,0
27460,0.472656,-0.566406,0.663574,0
27490,0.418945,-0.586914,0.650879,0
27510,0.405273,-0.60791,0.587402,0
27530,0.454102,-0.60791,0.590332,0
27550,0.460938,-0.635742,0.596191,0
27570,0.472656,-0.658691,0.606445,0
27590,0.407715,-0.648438,0.594727,0
27620,0.314941,-0.611816,0.626953,0
27640,0.365234,-0.629395,0.624023,0
27660,0.403809,-0.640137,0.647949,0
27670,0.419434,-0.649902,0.634766,0
27690,0.473145,-0.65918,0.620117,0
27710,0.458496,-0.679688,0.581543,0
27720,0.43457,-0.720703,0.568848,0
27740,0.498047,-0.745117,0.590332,0
27760,0.383301,-0.71875,0.58252,0
27820,0.317871,-0.779785,0.47168,0
27850,0.380859,-0.826172,0.435059,0
27870,0.361328,-0.807129,0.435059,0
27910,0.428223,-0.79834,0.382324,0
27940,0.541016,-0.742676,0.376465,0
27960,0.636719,-0.759766,0.352051,0
27980,0.658691,-0.812012,0.328613,0
28000,0.628906,-0.794434,0.351562,0
28010,0.59668,-0.758301,0.3125,0
28030,0.565918,-0.70752,0.284668,0
28050,0.595215,-0.727539,0.257324,0
28060,0.650879,-0.758789,0.254883,0
28070,0.655762,-0.768555,0.261719,0
28090,0.632812,-0.743164,0.257812,0
28110,0.602539,-0.728027,0.246582,0
28130,0.635254,-0.724121,0.239258,0
28150,0.65918,-0.720703,0.272461,0
28170,0.652832,-0.741211,0.228516,0
28190,0.665527,-0.737793,0.216309,0
28210,0.702637,-0.715332,0.232422,0
28230,0.687012,-0.717773,0.232422,0
28250,0.691895,-0.720703,0.232422,0
28270,0.724121,-0.716309,0.200195,0
28290,0.765625,-0.6875,0.243652,0
28310,0.776855,-0.6875,0.28125,0
28330,0.748535,-0.677734,0.248047,0
28350,0.78418,-0.653809,0.247559,0
28370,0.794922,-0.637695,0.276367,0
28390,0.825684,-0.619141,0.290039,0
28410,0.871094,-0.594727,0.282227,0
28430,0.918457,-0.578613,0.259766,0
28450,0.941895,-0.558105,0.269043,0
28470,0.962891,-0.532715,0.283691,0
28490,1.00195,-0.52002,0.314941,0
28510,0.973633,-0.515625,0.318848,0
28530,0.926758,-0.482422,0.323242,0
28550,0.939941,-0.477051,0.338379,0
28570,0.927734,-0.445801,0.402344,0
28590,0.90625,-0.438477,0.416504,0
28610,0.892578,-0.449707,0.423828,0
28630,0.865234,-0.457031,0.44873,0
28650,0.86377,-0.455566,0.455566,0
28670,0.866699,-0.431152,0.456543,0
28690,0.87793,-0.408203,0.447754,0
28710,0.85791,-0.401367,0.478027,0
28730,0.778809,-0.44043,0.524902,0
28750,0.731445,-0.45166,0.490234,0
28770,0.789551,-0.445312,0.464844,0
28790,0.877441,-0.445801,0.477539,0
28810,0.797363,-0.451172,0.526855,0
28830,0.73584,-0.449219,0.5625,0
28850,0.744629,-0.433594,0.550781,0
28860,0.762695,-0.440918,0.561523,0
28900,0.708496,-0.402344,0.561035,0
28920,0.681641,-0.432129,0.587402,0
28940,0.669434,-0.494141,0.570312,0
28960,0.65918,-0.48584,0.56543,0
28980,0.60791,-0.489746,0.569336,0
29000,0.65625,-0.478516,0.565918,0
29020,0.643066,-0.48291,0.585938,0
29040,0.598145,-0.513184,0.556641,0
29060,0.604004,-0.538574,0.559082,0
29080,0.61084,-0.546875,0.52002,0
29100,0.64502,-0.538574,0.56543,0
29120,0.65625,-0.561523,0.557129,0
29140,0.628906,-0.595703,0.5625,0
29160,0.554199,-0.60791,0.567871,0
29180,0.47998,-0.583008,0.54541,0
29200,0.504883,-0.569824,0.544922,0
29220,0.500977,-0.590332,0.516602,0
29240,0.51123,-0.602051,0.522461,0
29260,0.566406,-0.618652,0.526855,0
29280,0.549805,-0.658203,0.507812,0
29300,0.552734,-0.645508,0.556641,0
29320,0.538574,-0.703125,0.524902,0
29340,0.470215,-0.713379,0.52002,0
29360,0.447754,-0.714355,0.482422,0
29380,0.540527,-0.679688,0.494141,0
29400,0.555176,-0.668945,0.51709,0
29420,0.504883,-0.700195,0.503418,0
29440,0.435547,-0.731445,0.48877,0
29460,0.408203,-0.711426,0.44043,0
29480,0.450684,-0.670898,0.438965,0
29500,0.443359,-0.685059,0.441895,0
29520,0.397461,-0.757812,0.40625,0
29540,0.455078,-0.76709,0.379883,0
29560,0.474121,-0.751465,0.380859,0
29580,0.452637,-0.744141,0.39209,0
29600,0.46582,-0.786621,0.365234,0
29620,0.578125,-0.807129,0.314941,0
29640,0.695312,-0.770996,0.348633,0
29660,0.566895,-0.776855,0.343262,0
29680,0.447754,-0.796387,0.274414,0
29700,0.544922,-0.78418,0.290039,0
29720,0.695801,-0.787109,0.284668,0
29740,0.71582,-0.797363,0.230957,0
29750,0.679199,-0.799316,0.187012,0
29780,0.717285,-0.799805,0.21875,0
29800,0.693848,-0.796875,0.244141,0
29840,0.717773,-0.714844,0.144531,0
29860,0.712891,-0.709961,0.149414,0
29880,0.713379,-0.716797,0.141113,0
29900,0.74707,-0.739258,0.106445,0
29920,0.751953,-0.70752,0.111816,0
29930,0.740723,-0.629395,0.0986328,0
29950,0.872559,-0.648438,0.0625,0
29960,0.895996,-0.652832,-0.0649414,0
29960,0.880371,-0.674805,-0.0117188,0
29980,0.881348,-0.588867,0.0571289,0
29990,0.895996,-0.564941,0.0551758,0
30010,0.952148,-0.529297,0.0478516,0
30030,0.957031,-0.475586,0.0307617,0
30070,0.966309,-0.436035,0.0200195,0
30090,0.981934,-0.40918,0.0385742,0
30110,0.973145,-0.402832,0.0825195,0
30180,1.02979,-0.331543,0.135742,0
30200,1.06396,-0.337891,0.196289,0
30220,1.0542,-0.34082,0.189941,0
30240,1.11426,-0.338379,0.137695,0
30260,1.2207,-0.278809,0.245605,0
30300,1.04932,-0.374023,0.257812,0
30320,0.970215,-0.34668,0.340332,0
30340,0.848145,-0.298828,0.385254,0
30360,0.752441,-0.260742,0.370605,0
30380,0.792969,-0.258301,0.412109,0
30400,0.771484,-0.300293,0.481934,0
30420,0.765137,-0.320312,0.474609,0
30440,0.73877,-0.358398,0.480469,0
30460,0.744141,-0.331055,0.433105,0
30480,0.777344,-0.332031,0.537598,0
30500,0.794922,-0.378418,0.475586,0
30520,0.962891,-0.418945,0.446289,0
30540,1.06348,-0.45459,0.527344,0
30560,0.810059,-0.558105,0.523926,0
30580,0.633789,-0.535156,0.49707,0
30600,0.705566,-0.477539,0.530273,0
30620,0.657715,-0.455078,0.474121,0
30640,0.70166,-0.344238,0.503906,0
30660,0.704102,-0.437988,0.552246,0
30700,0.506836,-0.531738,0.541504,0
30720,0.649902,-0.38916,0.547852,0
30740,0.592773,-0.450684,0.501465,0
30760,0.615723,-0.556641,0.519531,0
30780,0.75293,-0.650391,0.562988,0
30800,0.724121,-0.594238,0.54541,0
30820,0.480957,-0.543945,0.487305,0
30840,0.597656,-0.555664,0.495117,0
30860,0.763184,-0.605469,0.5,0
30880,0.603027,-0.702637,0.510254,0
30920,0.619141,-0.648438,0.476562,0
30960,0.569336,-0.691406,0.371582,0
30980,0.622559,-0.744629,0.330078,0
31000,0.669922,-0.765137,0.351074,0
31020,0.690918,-0.803223,0.361328,0
31040,0.580566,-0.773926,0.370117,0
31060,0.481445,-0.787109,0.327637,0
31080,0.460938,-0.830566,0.280762,0
31100,0.458008,-0.805664,0.234375,0
31120,0.449219,-0.871582,0.199707,0
31140,0.469727,-0.858398,0.140137,0
31160,0.461914,-0.78418,0.105957,0
31180,0.387695,-0.780273,0.0791016,0
31200,0.395508,-0.773926,0.0327148,0
31220,0.501953,-0.780273,-0.0185547,0
31240,0.598633,-0.791016,0.0078125,0
31260,0.473633,-0.79834,0.0332031,0
31280,0.380371,-0.808105,-0.027832,0
31300,0.48877,-0.742188,-0.0200195,0
31320,0.580566,-0.694336,-0.00830078,0
31340,0.657715,-0.709961,-0.0341797,0
31360,0.723145,-0.763672,0.00146484,0
31380,0.712891,-0.791992,-0.00585938,0
31400,0.746094,-0.751953,-0.0639648,0
31420,0.799805,-0.658691,-0.0429688,0
31440,0.827148,-0.637207,-0.0639648,0
31460,0.881348,-0.681152,-0.177246,0
31480,0.932617,-0.634766,-0.090332,0
31500,0.933594,-0.591309,-0.0986328,0
31520,0.89209,-0.609863,-0.191406,0
31540,0.963867,-0.571777,-0.155762,0
31560,1.02686,-0.531738,-0.163086,0
31580,1.03027,-0.54834,-0.183594,0
31600,1.00146,-0.552734,-0.15332,0
31620,0.966797,-0.490234,-0.179199,0
31640,1.00928,-0.48584,-0.177734,0
31660,0.999023,-0.463867,-0.135742,2001
31670,0.966309,-0.421387,-0.0996094,0
31690,0.973633,-0.454102,-0.131348,0
31710,0.953125,-0.48291,-0.101074,0
31730,0.896973,-0.498047,-0.0678711,0
31750,0.88916,-0.437988,-0.0800781,0
31770,0.848145,-0.38916,-0.0341797,0
31790,0.75,-0.435547,-0.0288086,0
31810,0.699707,-0.519531,-0.0390625,0
31830,0.739258,-0.496582,0.00732422,0
31850,0.707031,-0.408203,0.0234375,0
31870,0.664551,-0.387695,-0.012207,0
31890,0.657227,-0.419434,0.027832,0
31910,0.656738,-0.482422,0.0629883,0
31930,0.647461,-0.509766,0.0581055,0
31950,0.67334,-0.473633,0.0268555,0
31960,0.703613,-0.407715,0.0805664,0
31960,0.711914,-0.392578,0.100098,0
31980,0.843262,-0.441895,0.0727539,0
31990,0.898926,-0.524902,0.0732422,0
32010,0.908203,-0.569336,0.0737305,0
32020,0.908691,-0.549316,0.00830078,0
32040,0.998535,-0.580566,0.0449219,0
32060,0.982422,-0.639648,0.164551,0
32080,0.820801,-0.694336,0.181152,0
32100,0.731445,-0.762207,0.129883,0
32120,0.780762,-0.806641,0.174805,0
32140,0.775879,-0.779785,0.286133,0
32170,0.825684,-0.80957,0.208008,0
32180,0.668945,-0.908203,0.3125,0
32210,0.635742,-0.841309,0.407227,0
32230,0.540039,-0.885254,0.375977,0
32240,0.530762,-0.922852,0.419434,0
32260,0.520996,-0.94873,0.461914,0
32280,0.487305,-0.938965,0.487305,0
32300,0.454102,-0.915527,0.475098,0
32320,0.45752,-0.883789,0.451172,0
32340,0.491699,-0.859375,0.475586,0
32360,0.485352,-0.843262,0.520996,0
32380,0.410645,-0.863281,0.470703,0
32400,0.408203,-0.861816,0.458008,0
32420,0.453125,-0.80127,0.475586,0
32440,0.450684,-0.776855,0.450684,0
32460,0.478516,-0.78418,0.459473,0
32480,0.510254,-0.772949,0.461426,0
32500,0.514648,-0.742188,0.450684,0
32520,0.491211,-0.738281,0.462402,0
32540,0.510742,-0.788574,0.462891,0
32560,0.455566,-0.786621,0.512207,0
32580,0.38916,-0.774902,0.502441,2000
32600,0.390137,-0.736816,0.49707,0
32620,0.437012,-0.731934,0.508301,0
32640,0.416504,-0.791992,0.530762,0
32660,0.375488,-0.827148,0.504395,0
32680,0.386719,-0.805664,0.500488,0
32700,0.398438,-0.74707,0.496582,0
32720,0.397461,-0.727051,0.528809,0
32740,0.371582,-0.774414,0.514648,0
32760,0.34668,-0.803711,0.490723,0
32780,0.387207,-0.790527,0.503418,0
32800,0.453125,-0.758301,0.495117,0
32820,0.45459,-0.743652,0.474121,0
32840,0.486816,-0.725586,0.461914,0
32860,0.547363,-0.721191,0.476074,0
32880,0.569824,-0.749023,0.452148,0
32900,0.510742,-0.74707,0.42334,0
32920,0.458984,-0.749512,0.352539,0
32940,0.53418,-0.764648,0.399902,0
32960,0.629883,-0.788574,0.409668,0
32980,0.640137,-0.782715,0.378418,0
33000,0.61377,-0.73291,0.362305,0
33020,0.581055,-0.705078,0.362305,0
33040,0.59082,-0.726562,0.366699,0
33060,0.64209,-0.72998,0.432129,0
33080,0.709961,-0.780762,0.387695,0
33100,0.644043,-0.731445,0.364746,0
33120,0.61377,-0.691895,0.394043,0
33140,0.682129,-0.723633,0.42334,0
33160,0.714844,-0.733887,0.378906,0
33180,0.651855,-0.723633,0.348145,0
33200,0.626465,-0.714844,0.326172,0
33250,0.914551,-0.53125,0.438965,0
33280,0.880859,-0.539551,0.460938,0
33310,0.899414,-0.537109,0.447266,0
33330,0.866699,-0.508789,0.449219,0
33350,0.834961,-0.522949,0.473633,0
33370,0.814941,-0.544434,0.520508,0
33390,0.804688,-0.513184,0.526855,0
33410,0.79248,-0.475586,0.483887,0
33430,0.810547,-0.466797,0.515625,0
33460,0.688965,-0.584473,0.563477,0
33480,0.621094,-0.483887,0.555664,0
33500,0.584473,-0.482422,0.625488,0
33520,0.537598,-0.559082,0.611816,0
33540,0.55957,-0.598633,0.615234,0
33560,0.561523,-0.585449,0.65332,0
33580,0.524902,-0.548828,0.609375,0
33600,0.47998,-0.51416,0.62207,0
33620,0.43457,-0.539062,0.591797,0
33640,0.469238,-0.589844,0.610352,0
33660,0.437012,-0.597656,0.626465,0
33680,0.387207,-0.571777,0.647949,0
33700,0.364258,-0.553711,0.639648,0
33720,0.378418,-0.564453,0.637695,0
33740,0.44873,-0.605469,0.629883,0
33760,0.511719,-0.622559,0.582031,0
33780,0.523438,-0.577637,0.605469,0
33800,0.485352,-0.59082,0.642578,0
33820,0.455566,-0.65918,0.608887,0
33840,0.469238,-0.69043,0.584961,0
33880,0.444336,-0.768555,0.560547,0
33920,0.422852,-0.806641,0.407715,0
33940,0.408203,-0.790527,0.398438,0
33960,0.380371,-0.804199,0.42627,0
33980,0.355957,-0.827637,0.374023,0
33990,0.398926,-0.805176,0.374512,0
34010,0.378418,-0.811035,0.350586,0
34030,0.391113,-0.847656,0.286133,0
34040,0.469238,-0.830078,0.32666,0
34050,0.493652,-0.787109,0.353516,0
34090,0.685059,-0.706055,0.180176,0
34110,0.742188,-0.706543,0.216797,0
34130,0.78125,-0.716797,0.187012,0
34150,0.748047,-0.704102,0.156738,0
34170,0.737793,-0.675781,0.14502,0
34190,0.758789,-0.665527,0.15918,0
34210,0.805176,-0.644531,0.165527,0
34230,0.964844,-0.625488,0.197754,0
34250,1.03955,-0.567871,0.240723,0
34270,0.998535,-0.520508,0.217285,0
34290,1.00146,-0.501953,0.163086,0
34310,0.987305,-0.482422,0.168945,0
34330,1.00537,-0.47998,0.198242,0
34350,1.00439,-0.492188,0.203613,0
34370,0.95752,-0.48584,0.213867,0
34390,0.944824,-0.457031,0.230957,0
34410,0.955078,-0.438965,0.222656,0
34430,0.963379,-0.388672,0.224609,0
34450,0.983887,-0.40332,0.259277,0
34470,0.968262,-0.414551,0.26416,0
34490,0.963867,-0.428711,0.281738,0
34510,0.96582,-0.445801,0.255859,0
34530,1.01221,-0.429688,0.270508,0
34550,1.021,-0.368652,0.307617,0
34570,0.98877,-0.414551,0.345703,0
34590,0.943359,-0.521484,0.388672,0
34610,0.88916,-0.591797,0.408691,0
34630,0.850098,-0.47998,0.38916,0
34650,0.828613,-0.318359,0.431641,0
34670,0.76123,-0.369629,0.48584,0
34690,0.707031,-0.536621,0.499512,0
34710,0.714844,-0.544434,0.520996,0
34730,0.737793,-0.533203,0.538086,0
34770,0.633789,-0.522949,0.537598,0
34790,0.606445,-0.566895,0.532227,0
34810,0.573242,-0.574219,0.553223,0
34830,0.563965,-0.569824,0.519531,0
34850,0.568848,-0.588867,0.51416,0
34870,0.516113,-0.60791,0.534668,0
34890,0.478027,-0.60498,0.576172,0
34910,0.435059,-0.62207,0.56543,0
34930,0.405762,-0.612793,0.524902,0
34950,0.481934,-0.585938,0.541992,0
34970,0.472656,-0.594238,0.600586,0
34990,0.413086,-0.64209,0.602051,0
35010,0.53125,-0.67334,0.597656,0
35050,0.486328,-0.655273,0.510742,0
35070,0.44043,-0.687012,0.483398,0
35090,0.477539,-0.719238,0.494141,0
35110,0.481445,-0.776367,0.46582,0
35130,0.476562,-0.804199,0.471191,0
35150,0.48877,-0.779297,0.439941,0
35170,0.456055,-0.770996,0.442871,0
35180,0.454102,-0.793945,0.429199,0
35200,0.510742,-0.77832,0.446289,0
35220,0.481934,-0.800293,0.436035,0
35240,0.468262,-0.854492,0.392578,0
35260,0.449219,-0.82373,0.371094,0
35280,0.381836,-0.782715,0.337891,0
35300,0.326172,-0.779297,0.344727,0
35320,0.328125,-0.834961,0.317871,0
35340,0.318359,-0.848145,0.244629,0
35360,0.330078,-0.855469,0.233887,0
35380,0.331543,-0.836426,0.26709,0
35400,0.343262,-0.813965,0.247559,0
35420,0.361816,-0.793945,0.231934,0
35440,0.455078,-0.845215,0.255859,0
35470,0.476562,-0.904297,0.175781,0
35490,0.463867,-0.903809,0.171387,0
35510,0.547852,-0.893066,0.155273,0
35530,0.666992,-0.875,0.121094,0
35550,0.716797,-0.836426,0.0810547,0
35570,0.69873,-0.835938,0.101562,0
35590,0.65332,-0.803223,0.120605,0
35610,0.624023,-0.778809,0.119141,0
35630,0.659668,-0.780273,0.0449219,0
35650,0.774902,-0.804688,0.0126953,0
35670,0.786133,-0.79541,0.0356445,0
35690,0.728516,-0.71875,-0.0102539,0
35710,0.760742,-0.687012,-0.0610352,0
35730,0.807129,-0.714355,-0.0585938,0
35750,0.85791,-0.772949,-0.0512695,0
35770,0.887695,-0.72998,-0.0708008,0
35790,0.92041,-0.680176,-0.0961914,0
35810,0.889648,-0.625,-0.0849609,0
35830,0.854004,-0.580566,-0.12793,0
35830,0.874512,-0.592773,-0.134766,0
35860,0.922852,-0.513184,-0.125488,0
35880,0.895996,-0.465332,-0.135254,0
35890,0.86377,-0.533691,-0.0878906,0
35910,0.863281,-0.598633,-0.0395508,0
35930,0.878906,-0.555664,-0.0332031,0
35950,0.9375,-0.453125,-0.0273438,0
35970,0.96582,-0.39209,0.0117188,0
35990,0.933594,-0.38623,0.0385742,0
36010,0.945801,-0.392578,0.0488281,0
36080,1.01514,-0.32666,0.30957,0
36100,1.01904,-0.359863,0.341309,0
36120,0.978516,-0.36084,0.380371,0
36140,0.923828,-0.376465,0.374512,0
36160,0.91748,-0.373535,0.383789,0
36180,0.895508,-0.370117,0.400391,0
36200,0.859863,-0.374023,0.42041,0
36220,0.854492,-0.422363,0.430664,0
36240,0.859375,-0.430176,0.449219,0
36260,0.722656,-0.414551,0.470703,0
36300,0.698242,-0.494629,0.504395,0
36320,0.709473,-0.475098,0.489746,0
36340,0.67627,-0.475098,0.470215,0
36360,0.614746,-0.463379,0.436035,0
36380,0.641602,-0.488281,0.449707,0
36400,0.670898,-0.529785,0.463379,0
36420,0.634277,-0.553711,0.470215,0
36440,0.677246,-0.546875,0.44873,0
36460,0.760254,-0.558594,0.49707,0
36480,0.699219,-0.629883,0.491211,0
36500,0.702148,-0.667969,0.480469,0
36520,0.709961,-0.654297,0.492676,0
36530,0.67041,-0.604004,0.480469,0
36560,0.600586,-0.588379,0.468262,0
36570,0.614258,-0.661133,0.442383,0
36590,0.584473,-0.695801,0.428223,0
36610,0.467285,-0.696777,0.400879,0
36630,0.463867,-0.64209,0.327148,0
36650,0.492188,-0.644043,0.297852,0
36670,0.512207,-0.645996,0.336426,0
36690,0.45166,-0.708984,0.333008,0
36710,0.528809,-0.743164,0.319336,0
36730,0.567871,-0.708984,0.244629,0
36750,0.539551,-0.739746,0.180664,0
36770,0.589355,-0.766113,0.197266,0
36790,0.626465,-0.751465,0.201172,0
36810,0.59375,-0.775391,0.169922,0
36830,0.54248,-0.79248,0.168945,0
36850,0.527344,-0.836914,0.149414,0
36870,0.598145,-0.856934,0.149902,0
36890,0.642578,-0.802246,0.128906,0
36910,0.652832,-0.759277,0.0566406,0
36930,0.649414,-0.804688,0.0356445,0
36950,0.641113,-0.827148,0.0849609,0
36980,0.708984,-0.757812,-0.0322266,0
37000,0.834473,-0.751953,-0.0371094,0
37020,0.839844,-0.739258,-0.0185547,0
37040,0.791504,-0.758301,-0.0297852,0
37060,0.820312,-0.769043,-0.106445,0
37080,0.86084,-0.745605,-0.125,0
37100,0.86377,-0.700684,-0.116699,0
37120,0.871582,-0.699707,-0.149902,0
37140,0.842285,-0.650391,-0.171387,0
37160,0.868652,-0.631348,-0.161621,0
37180,0.945312,-0.628906,-0.196289,0
37200,0.932129,-0.643555,-0.147461,0
37220,0.830078,-0.638184,-0.10791,0
37240,0.820801,-0.608398,-0.149902,0
37260,0.903809,-0.564941,-0.157227,0
37280,0.908691,-0.51416,-0.104004,0
37300,0.824707,-0.540527,-0.0961914,0
37320,0.773438,-0.543457,-0.105469,2001
37340,0.773926,-0.515625,-0.104004,0
37360,0.810547,-0.495605,-0.121582,0
37380,0.845215,-0.502441,-0.101562,0
37400,0.782715,-0.494629,-0.0830078,0
37420,0.72998,-0.50293,-0.0844727,0
37440,0.758789,-0.464844,-0.11084,0
37460,0.800293,-0.460938,-0.0776367,0
37480,0.795898,-0.478027,-0.0473633,0
37500,0.798828,-0.527832,-0.0610352,0
37520,0.824707,-0.566895,-0.0771484,0
37540,0.757324,-0.544922,-0.0244141,0
37560,0.64502,-0.478516,-0.0258789,0
37580,0.637207,-0.40332,-0.0786133,0
37590,0.65332,-0.430176,-0.0795898,0
37610,0.673828,-0.516113,-0.0200195,0
37630,0.660645,-0.56543,0.0180664,0
37650,0.606934,-0.585938,0.0268555,0
37670,0.612305,-0.539062,-0.0195312,0
37690,0.727051,-0.478516,-0.0263672,0
37710,0.776367,-0.464844,0.0698242,0
37730,0.727051,-0.536133,0.0825195,0
37750,0.724121,-0.603516,0.0644531,0
37770,0.832031,-0.591309,0.18457,0
37790,0.880859,-0.564941,0.250488,0
37810,0.866211,-0.604492,0.176758,0
37830,0.861816,-0.63623,0.106934,0
37850,0.927246,-0.6875,0.119141,0
37870,0.922852,-0.78418,0.251465,0
37890,0.784668,-0.854004,0.220703,0
37910,0.750977,-0.860352,0.122559,0
37930,0.89209,-0.850586,0.182129,0
37950,0.901367,-0.84082,0.300293,0
37970,0.790527,-0.890137,0.317383,0
37990,0.699707,-0.938477,0.329102,0
38010,0.727539,-0.962402,0.404785,0
38030,0.723145,-0.975586,0.459473,0
38050,0.642578,-0.948242,0.481934,0
38060,0.522461,-0.875,0.538574,0
38080,0.445801,-0.859375,0.566895,0
38100,0.413574,-0.90625,0.585449,0
38120,0.349121,-0.92334,0.614746,0
38140,0.307617,-0.89502,0.644043,0
38160,0.335938,-0.835449,0.615723,0
38180,0.404785,-0.766113,0.584961,0
38200,0.389648,-0.750977,0.582031,0
38220,0.306152,-0.787109,0.572266,0
38240,0.308105,-0.820312,0.571777,0
38260,0.351074,-0.799316,0.576172,0
38280,0.347656,-0.762695,0.558594,2000
38290,0.34668,-0.714844,0.553223,0
38310,0.371582,-0.785156,0.542969,0
38330,0.39502,-0.776855,0.541992,0
38340,0.419434,-0.745117,0.516113,0
38350,0.403809,-0.713867,0.526855,0
38370,0.345703,-0.76123,0.536621,0
38390,0.319336,-0.836426,0.568848,0
38410,0.331055,-0.815918,0.59668,0
38420,0.3125,-0.743652,0.560059,0
38450,0.258301,-0.80957,0.597168,0
38470,0.241211,-0.838379,0.57666,0
38490,0.230957,-0.825195,0.52832,0
38510,0.244141,-0.788574,0.514648,0
38520,0.428711,-0.779785,0.488281,0
38550,0.678711,-0.780762,0.490723,0
38570,0.549805,-0.729492,0.460938,0
38590,0.59668,-0.695801,0.459473,0
38610,0.697754,-0.689941,0.455078,0
38630,0.677734,-0.698242,0.402344,0
38650,0.581055,-0.667969,0.37207,0
38670,0.57373,-0.665527,0.399902,0
38690,0.683105,-0.679199,0.437988,0
38710,0.734863,-0.686523,0.404785,0
38730,0.706543,-0.645508,0.371582,0
38750,0.733398,-0.546875,0.38916,0
38750,0.871582,-0.497559,0.40918,0
38770,0.924805,-0.487305,0.396973,0
38790,0.941406,-0.503418,0.407715,0
38810,0.937988,-0.510254,0.37207,0
38830,0.921875,-0.499512,0.359375,0
38850,0.928223,-0.522949,0.410156,0
38870,0.880371,-0.481445,0.516113,0
38890,0.874512,-0.45752,0.488281,0
38910,0.87207,-0.432129,0.445801,0
38930,0.847168,-0.404297,0.527344,0
38950,0.741699,-0.45166,0.692871,0
38970,0.710938,-0.554199,0.67627,0
38990,0.763184,-0.533203,0.596191,0
39010,0.739258,-0.450684,0.632324,0
39030,0.683594,-0.430664,0.648926,0
39050,0.618652,-0.492676,0.689941,0
39070,0.602539,-0.539551,0.679199,0
39090,0.640137,-0.55957,0.627441,0
39110,0.663574,-0.503418,0.696777,0
39130,0.62207,-0.507324,0.694336,0
39150,0.589355,-0.553711,0.688965,0
39170,0.621094,-0.582031,0.667969,0
39190,0.572266,-0.568848,0.655762,0
39200,0.503418,-0.590332,0.556152,0
39220,0.524414,-0.589844,0.553711,0
39240,0.564453,-0.584961,0.634277,0
39250,0.472168,-0.628418,0.714355,0
39270,0.280273,-0.627441,0.671387,0
39290,0.274902,-0.529297,0.66748,0
39310,0.268555,-0.488281,0.670898,0
39330,0.247559,-0.566406,0.630371,0
39350,0.304199,-0.624512,0.585449,0
39360,0.399902,-0.645508,0.628418,0
39380,0.34668,-0.629883,0.640625,0
39400,0.285156,-0.645996,0.569824,0
39420,0.362793,-0.675293,0.566406,0
39450,0.378418,-0.750488,0.561523,0
39450,0.451172,-0.769531,0.594727,0
39460,0.283691,-0.739746,0.583008,0
39480,0.384277,-0.731445,0.539551,0
39500,0.35791,-0.84375,0.461426,0
39520,0.509277,-0.804688,0.223633,0
39540,0.512695,-0.821289,0.235352,0
39560,0.539551,-0.806641,0.202637,0
39570,0.578613,-0.774902,0.208496,0
39610,0.740723,-0.749512,0.134766,0
39620,0.773926,-0.716309,0.118652,0
39640,0.773926,-0.713379,0.112793,0
39650,0.817383,-0.682617,0.09375,0
39670,0.840332,-0.670898,0.0825195,0
39670,0.825195,-0.652344,0.0751953,0
39690,0.865723,-0.62793,0.0751953,0
39710,0.907715,-0.640137,0.0776367,0
39730,0.967285,-0.62207,0.0498047,0
39750,1.01123,-0.555664,0.0483398,0
39770,1.00146,-0.515137,0.0419922,0
39790,0.986328,-0.513672,0.0737305,0
39810,1.00439,-0.525879,0.081543,0
39830,1.01562,-0.477051,0.123535,0
39860,0.966797,-0.375,0.108398,0
39880,0.96875,-0.361816,0.14502,0
39900,0.989258,-0.368164,0.191895,0
39920,1.00244,-0.359375,0.218262,0
39940,1.0083,-0.348633,0.230469,0
39960,1.04492,-0.327637,0.254883,0
39980,1.04688,-0.338379,0.254883,0
40000,1.125,-0.444824,0.294922,0
40020,1.06494,-0.430664,0.308594,0
40040,1.02734,-0.358887,0.394043,0
40060,1.05176,-0.315918,0.421387,0
40080,0.946289,-0.367676,0.440918,0
40100,0.803711,-0.52832,0.468262,0
40120,0.665527,-0.509277,0.498535,0
40140,0.668457,-0.358398,0.537109,0
40160,0.693359,-0.368164,0.554199,0
40160,0.553223,-0.420898,0.647949,0
40180,0.55127,-0.474609,0.66748,0
40200,0.695312,-0.462402,0.658203,0
40220,0.754883,-0.464844,0.649414,0
40240,0.779297,-0.501465,0.691895,0
40280,0.600586,-0.579102,0.592773,0
40300,0.515625,-0.566406,0.606445,0
40340,0.456543,-0.533203,0.514648,0
40370,0.431641,-0.530762,0.541016,0
40390,0.402344,-0.59082,0.504395,0
40410,0.508301,-0.588379,0.521484,0
40430,0.37207,-0.565918,0.53125,0
40450,0.25,-0.551758,0.472656,0
40470,0.455566,-0.597656,0.546387,0
40490,0.589844,-0.67041,0.575684,0
40520,0.463867,-0.70752,0.541992,0
40540,0.39209,-0.665527,0.525879,0
40560,0.316895,-0.734375,0.462402,0
40580,0.460938,-0.77002,0.459473,0
40600,0.669922,-0.777832,0.473633,0
40620,0.640137,-0.779297,0.5,0
40640,0.406738,-0.804688,0.42334,0
40660,0.436523,-0.796387,0.387207,0
40680,0.501465,-0.762695,0.369629,0
40700,0.409668,-0.741699,0.358398,0
40720,0.359863,-0.742188,0.382324,0
40740,0.373047,-0.786621,0.287109,0
40760,0.469238,-0.842773,0.289551,0
40780,0.464844,-0.853516,0.32959,0
40800,0.414551,-0.813477,0.273438,0
40820,0.522461,-0.785156,0.203613,0
40840,0.602539,-0.837402,0.218262,0
40860,0.551758,-0.913086,0.220215,0
40880,0.55127,-0.960938,0.168945,0
40920,0.765137,-0.86084,0.0678711,0
40970,0.726074,-0.832031,0.0507812,0
40990,0.685547,-0.763184,0.0166016,0
41010,0.668457,-0.727539,0,0
41030,0.649902,-0.70166,0.00439453,0
41050,0.661133,-0.699707,-0.019043,0
41070,0.703125,-0.67627,-0.0625,0
41090,0.772949,-0.651367,-0.0795898,0
41110,0.808105,-0.632812,-0.0410156,0
41130,0.751953,-0.618652,-0.0507812,0
41150,0.738281,-0.600586,-0.104492,0
41170,0.763672,-0.587402,-0.116211,0
41190,0.806641,-0.614258,-0.0708008,0
41210,0.866211,-0.630859,-0.0932617,0
41230,0.861328,-0.579102,-0.116699,0
41250,0.876953,-0.577637,-0.119629,0
41270,0.927246,-0.587402,-0.106934,0
41290,1.00098,-0.53418,-0.09375,0
41310,1.06836,-0.492188,-0.0766602,0
41330,1.04492,-0.480957,-0.0693359,0
41350,1.00342,-0.473145,-0.0415039,0
41370,1.00488,-0.437012,0.0371094,0
41390,0.974609,-0.390137,0.0463867,0
41430,0.947266,-0.300293,0.101562,0
41450,0.94043,-0.293945,0.0668945,0
41480,1.02246,-0.28418,0.177246,0
41500,1.06592,-0.275879,0.20166,0
41520,1.12061,-0.277344,0.205566,0
41530,1.12012,-0.286133,0.28125,0
41560,1.03174,-0.235352,0.352539,0
41580,0.998047,-0.287109,0.335449,0
41590,0.992188,-0.365723,0.308105,0
41610,1.01514,-0.338379,0.396484,0
41620,0.953125,-0.338379,0.415039,0
41640,0.90918,-0.47168,0.431641,0
41660,0.799805,-0.489746,0.490723,0
41680,0.810059,-0.367188,0.443848,0
41690,0.754883,-0.394043,0.463379,0
41710,0.64209,-0.519531,0.503906,0
41730,0.605957,-0.558594,0.492676,0
41750,0.633301,-0.548828,0.460938,0
41770,0.757812,-0.478027,0.47168,0
41790,0.727539,-0.451172,0.483398,0
41810,0.54541,-0.637695,0.479492,0
41830,0.605469,-0.721191,0.48584,0
41850,0.667969,-0.648926,0.469238,0
41870,0.473145,-0.571777,0.424316,0
41890,0.443848,-0.592285,0.384277,0
41910,0.477539,-0.698242,0.35791,0
41930,0.538574,-0.751465,0.399414,0
41950,0.551758,-0.749023,0.374512,0
41970,0.555664,-0.730469,0.356445,0
41990,0.537109,-0.71875,0.373535,0
42010,0.505859,-0.736816,0.335449,0
42030,0.412598,-0.792969,0.268066,0
42050,0.47998,-0.766602,0.283203,0
42070,0.52002,-0.725098,0.260742,0
42090,0.549316,-0.763672,0.262207,0
42110,0.489258,-0.799805,0.26123,0
42130,0.445801,-0.816895,0.220703,0
42150,0.520996,-0.790039,0.226074,0
42170,0.575195,-0.79541,0.233398,0
42190,0.579102,-0.837891,0.234863,0
42210,0.566895,-0.838379,0.207031,0
42230,0.518066,-0.868652,0.163574,0
42250,0.570312,-0.879883,0.123047,0
42270,0.663574,-0.878906,0.0854492,0
42290,0.737793,-0.921387,0.043457,0
42310,0.708496,-0.905762,0.0639648,0
42330,0.627441,-0.865723,0.0649414,0
42350,0.657227,-0.848633,0.00634766,0
42370,0.759766,-0.807617,0.0180664,0
42390,0.632324,-0.766602,0.0078125,0
42410,0.519043,-0.796387,-0.101074,0
42430,0.614258,-0.74707,-0.120605,0
42450,0.687988,-0.69873,-0.0927734,0
42470,0.699707,-0.674805,-0.15332,0
42490,0.738281,-0.661621,-0.198242,0
42520,0.704102,-0.712402,-0.147461,0
42540,0.742676,-0.677246,-0.182129,0
42560,0.768555,-0.624023,-0.200195,0
42580,0.787109,-0.535156,-0.210449,0
42600,0.82666,-0.546875,-0.216797,0
42620,0.880859,-0.630859,-0.222168,0
42640,0.939453,-0.70459,-0.254395,0
42660,0.946289,-0.595703,-0.231934,0
42680,0.945801,-0.513672,-0.256348,0
42700,0.952148,-0.47168,-0.26709,2001
42720,0.913086,-0.484375,-0.246582,0
42740,0.943359,-0.529785,-0.250488,0
42760,0.941406,-0.560547,-0.228027,0
42780,0.865234,-0.534668,-0.230957,0
42800,0.845215,-0.422363,-0.230469,0
42820,0.814453,-0.463379,-0.154297,0
42840,0.789551,-0.521484,-0.137207,0
42860,0.726562,-0.508789,-0.0927734,0
42880,0.683105,-0.490723,-0.0664062,0
42900,0.631348,-0.447266,-0.0751953,0
42920,0.595703,-0.415039,-0.0410156,0
42940,0.568359,-0.444336,-0.0258789,0
42960,0.583008,-0.464355,0.0107422,0
42980,0.564453,-0.477539,0.0527344,0
43000,0.540527,-0.472168,0.0385742,0
43020,0.605957,-0.462402,-0.015625,0
43040,0.720215,-0.4375,0.0263672,0
43060,0.813965,-0.466309,0.0805664,0
43070,0.80127,-0.517578,0.0976562,0
43090,0.798828,-0.564941,-0.00878906,0
43100,0.845703,-0.598145,-0.00244141,0
43120,0.908691,-0.663574,0.0952148,0
43140,0.883301,-0.685547,0.102539,0
43160,0.835449,-0.760254,0.0239258,0
43180,0.880859,-0.808105,0.0126953,0
43200,0.922852,-0.853516,0.129395,0
43220,0.914062,-0.916992,0.158691,0
43240,0.914062,-0.98291,0.103516,0
43290,0.786133,-0.988281,0.373047,0
43310,0.707031,-0.993652,0.402832,0
43330,0.615234,-0.985352,0.419922,0
43350,0.55127,-0.975098,0.44043,0
43370,0.449219,-0.971191,0.389648,0
43390,0.423828,-0.912598,0.39209,0
43410,0.438965,-0.852539,0.418457,0
43430,0.443848,-0.837891,0.455566,0
43450,0.416016,-0.864746,0.460449,0
43470,0.369141,-0.89502,0.422363,0
43480,0.387695,-0.869629,0.450195,0
43500,0.370117,-0.793457,0.535156,0
43520,0.273438,-0.783691,0.525879,0
43540,0.230469,-0.828613,0.461914,2000
43560,0.283203,-0.83252,0.466309,0
43580,0.323242,-0.807129,0.512695,0
43600,0.254883,-0.763184,0.501953,0
43620,0.252441,-0.767578,0.454102,0
43640,0.336426,-0.795898,0.486816,0
43660,0.375977,-0.872559,0.528809,0
43680,0.353027,-0.896973,0.520996,0
43700,0.408203,-0.856445,0.481934,0
43720,0.489258,-0.813477,0.475098,0
43740,0.454102,-0.797363,0.509277,0
43760,0.382812,-0.80957,0.493652,0
43770,0.361816,-0.853027,0.416992,0
43780,0.394043,-0.865723,0.430176,0
43800,0.408691,-0.823242,0.444336,0
43820,0.440918,-0.793457,0.45752,0
43840,0.425293,-0.779297,0.462402,0
43860,0.358887,-0.799805,0.431641,0
43880,0.349121,-0.837402,0.399902,0
43900,0.459473,-0.830566,0.428223,0
43920,0.526855,-0.825684,0.427734,0
43940,0.42041,-0.787109,0.377441,0
43950,0.397461,-0.796387,0.370117,0
43970,0.477051,-0.816895,0.432617,0
43990,0.556641,-0.813477,0.442383,0
44010,0.557129,-0.82666,0.376953,0
44020,0.505859,-0.778809,0.327148,0
44040,0.551758,-0.728027,0.36377,0
44050,0.617676,-0.723145,0.35791,0
44070,0.65332,-0.746094,0.34668,0
44090,0.634277,-0.770508,0.336426,0
44110,0.659668,-0.800781,0.342773,0
44130,0.677246,-0.751953,0.367676,0
44140,0.638672,-0.681152,0.362305,0
44160,0.662598,-0.693359,0.361328,0
44170,0.654785,-0.680176,0.396973,0
44190,0.697266,-0.667969,0.424805,0
44210,0.726562,-0.648926,0.395996,0
44230,0.73291,-0.622559,0.370117,0
44250,0.754395,-0.616211,0.383789,0
44270,0.78418,-0.604492,0.409668,0
44290,0.811035,-0.60498,0.42627,0
44310,0.796875,-0.620605,0.432129,0
44330,0.819824,-0.632324,0.390137,0
44350,0.895508,-0.633301,0.370117,0
44360,0.876465,-0.649902,0.377441,0
44380,0.844727,-0.623535,0.421875,0
44400,0.814453,-0.631348,0.431152,0
44420,0.820312,-0.638184,0.429688,0
44440,0.82666,-0.605469,0.470215,0
44490,0.641113,-0.597168,0.560059,0
44510,0.675781,-0.599609,0.552246,0
44530,0.638184,-0.625977,0.57373,0
44550,0.602539,-0.64502,0.618652,0
44570,0.633301,-0.648926,0.612305,0
44590,0.649414,-0.63623,0.579102,0
44610,0.593262,-0.630371,0.623535,0
44630,0.518555,-0.640137,0.613281,0
44650,0.479004,-0.639648,0.600586,0
44670,0.486328,-0.583984,0.595215,0
44690,0.419434,-0.604004,0.62207,0
44710,0.335938,-0.642578,0.614258,0
44730,0.367676,-0.624023,0.598145,0
44750,0.367188,-0.614746,0.639648,0
44770,0.370117,-0.623047,0.627441,0
44790,0.42334,-0.610352,0.59082,0
44810,0.507324,-0.631836,0.62207,0
44830,0.551758,-0.654297,0.633301,0
44850,0.519531,-0.707031,0.626465,0
44870,0.472168,-0.714355,0.613281,0
44910,0.278809,-0.646484,0.572754,0
44930,0.248047,-0.702148,0.574219,0
44960,0.437988,-0.748047,0.524902,0
44980,0.311035,-0.790527,0.460449,0
45000,0.278809,-0.80957,0.438477,0
45010,0.351562,-0.808594,0.503418,0
45030,0.351074,-0.812988,0.47998,0
45040,0.37207,-0.777344,0.423828,0
45080,0.376953,-0.796387,0.445312,0
45100,0.388184,-0.826172,0.361328,0
45120,0.459961,-0.842773,0.368652,0
45140,0.496094,-0.808105,0.421387,0
45200,0.583496,-0.821777,0.27832,0
45220,0.654297,-0.858398,0.3125,0
45240,0.696289,-0.872559,0.285156,0
45260,0.717285,-0.827637,0.263672,0
45280,0.654785,-0.76709,0.244629,0
45300,0.699219,-0.795898,0.193848,0
45320,0.726074,-0.831543,0.256836,0
45340,0.658203,-0.800293,0.279785,0
45360,0.625977,-0.724609,0.199219,0
45380,0.671387,-0.709961,0.164551,0
45400,0.73291,-0.697754,0.209961,0
45420,0.771484,-0.689941,0.234375,0
45440,0.775879,-0.679199,0.173828,0
45470,0.884277,-0.608398,0.185059,0
45510,0.846191,-0.550293,0.101074,0
45530,0.879883,-0.541504,0.132324,0
45550,0.932129,-0.559082,0.166992,0
45570,1.0083,-0.530273,0.157715,0
45590,1.03711,-0.494629,0.12793,0
45610,1.00928,-0.453125,0.118652,0
45630,1.0293,-0.447754,0.153809,0
45650,1.02979,-0.444824,0.202148,0
45670,1.01855,-0.44043,0.195801,0
45690,1.05078,-0.413086,0.177246,0
45710,1.11719,-0.366699,0.223145,0
45730,1.08691,-0.365234,0.266602,0
45750,0.984375,-0.374512,0.277344,0
45770,0.958008,-0.351074,0.298828,0
45790,0.994141,-0.310547,0.276855,0
45810,0.963867,-0.285156,0.332031,0
45830,0.885742,-0.311523,0.416016,0
45850,0.824219,-0.368652,0.440918,0
45870,0.8125,-0.342285,0.409668,0
45890,0.837891,-0.300781,0.458496,0
45910,0.879883,-0.321289,0.512207,0
45930,0.955566,-0.394043,0.544434,0
45950,0.998047,-0.395508,0.544922,0
45970,0.860352,-0.370117,0.548828,0
45990,0.714844,-0.362305,0.57373,0
46010,0.668457,-0.425293,0.54248,0
46030,0.724609,-0.443848,0.569336,0
46050,0.65332,-0.437012,0.616211,0
46070,0.569824,-0.387695,0.554199,0
46090,0.621094,-0.376465,0.583496,0
46110,0.560547,-0.45166,0.625488,0
46130,0.468262,-0.532715,0.552734,0
46150,0.546387,-0.507812,0.591309,0
46170,0.540039,-0.493164,0.59668,0
46190,0.419922,-0.536621,0.506348,0
46210,0.513672,-0.577637,0.545898,0
46210,0.561523,-0.599609,0.620117,0
46270,0.560547,-0.729492,0.505859,0
46290,0.510254,-0.800781,0.484863,0
46310,0.503418,-0.769043,0.535156,0
46330,0.403809,-0.750977,0.493652,0
46350,0.446777,-0.689453,0.505371,0
46370,0.416016,-0.701172,0.466797,0
46390,0.407227,-0.766602,0.442383,0
46410,0.481445,-0.805664,0.445312,0
46430,0.416992,-0.774902,0.432617,0
46450,0.37207,-0.725586,0.36377,0
46470,0.368164,-0.723145,0.336914,0
46490,0.350586,-0.744629,0.344238,0
46510,0.371094,-0.787598,0.311035,0
46530,0.446289,-0.807617,0.287598,0
46550,0.463867,-0.821777,0.196777,0
46570,0.554199,-0.826172,0.193848,0
46590,0.602051,-0.786133,0.255859,0
46610,0.606445,-0.805176,0.228516,0
46630,0.65918,-0.833008,0.178711,0
46650,0.669922,-0.851562,0.15918,0
46690,0.688965,-0.825684,0.0805664,0
46710,0.731934,-0.792969,0.0288086,0
46730,0.743652,-0.789551,0.00585938,0
46750,0.72168,-0.811035,0.0361328,0
46840,0.682617,-0.688965,-0.050293,0
46860,0.720215,-0.743652,-0.0444336,0
46880,0.755371,-0.746582,-0.0644531,0
46890,0.761719,-0.642578,-0.0961914,0
46920,0.806641,-0.549805,-0.148438,0
46930,0.863281,-0.546387,-0.137695,0
46950,0.869141,-0.545898,-0.154297,0
46970,0.853516,-0.587402,-0.168945,0
46990,0.878418,-0.556641,-0.16748,0
47000,0.914551,-0.523926,-0.147949,0
47020,0.925781,-0.461914,-0.145508,0
47040,0.916504,-0.435547,-0.129395,0
47060,0.931641,-0.436035,-0.102051,0
47080,0.968262,-0.400879,-0.0605469,0
47100,1.02246,-0.370605,-0.0703125,0
47120,1.04395,-0.372559,-0.0688477,0
47140,1.02783,-0.362305,-0.00439453,0
47160,1.03809,-0.343262,0.0200195,0
47180,1.09082,-0.344727,0.0327148,0
47200,1.1377,-0.297852,0.0512695,0
47220,1.14307,-0.272949,0.0878906,0
47240,1.09863,-0.269043,0.148438,0
47260,1.04346,-0.293457,0.20459,0
47280,1.04785,-0.321289,0.237793,0
47300,1.06104,-0.313965,0.268066,0
47320,1.02393,-0.287109,0.228516,0
47340,1.02881,-0.328125,0.277344,0
47360,0.958984,-0.315918,0.337891,0
47380,0.947754,-0.330078,0.342285,0
47400,0.994141,-0.375488,0.352539,0
47420,0.973145,-0.393555,0.39209,0
47440,0.890137,-0.453613,0.36084,0
47460,0.82666,-0.483887,0.378418,0
47480,0.806641,-0.394043,0.400391,0
47500,0.789551,-0.384766,0.392578,0
47520,0.76123,-0.464844,0.375,0
47540,0.742676,-0.550293,0.425293,0
47560,0.719238,-0.55127,0.402344,0
47580,0.650391,-0.479492,0.390625,0
47600,0.61377,-0.524414,0.390625,0
47620,0.605957,-0.601074,0.355957,0
47640,0.676758,-0.603027,0.373535,0
47660,0.6875,-0.551758,0.407227,0
47680,0.640625,-0.61084,0.383789,0
47700,0.70459,-0.67627,0.391602,0
47720,0.753906,-0.747559,0.382324,0
47740,0.699219,-0.781738,0.369141,0
47760,0.648438,-0.760254,0.355469,0
47780,0.621582,-0.723145,0.328613,0
47800,0.59375,-0.694824,0.308105,0
47820,0.599121,-0.72168,0.299316,0
47840,0.604004,-0.793457,0.333008,0
47860,0.555176,-0.814941,0.305176,0
47880,0.578125,-0.765625,0.290039,0
47900,0.576172,-0.728027,0.280762,0
47920,0.518066,-0.754883,0.265137,0
47940,0.496094,-0.794434,0.256348,0
47960,0.508789,-0.839355,0.239258,0
47980,0.561035,-0.82666,0.22998,0
48000,0.490234,-0.788086,0.22168,0
48020,0.479004,-0.776367,0.192871,0
48040,0.536133,-0.785156,0.185547,0
48060,0.556641,-0.840332,0.14209,0
48080,0.572266,-0.898926,0.105469,0
48100,0.666504,-0.897949,0.0957031,0
48120,0.646973,-0.90625,0.0883789,0
48140,0.563477,-0.875,0.0776367,0
48160,0.479492,-0.858398,0.0263672,0
48180,0.494141,-0.812988,0.0249023,0
48200,0.586426,-0.812988,0.0239258,0
48220,0.646973,-0.833496,0.00683594,0
48240,0.64502,-0.823242,-0.0371094,0
48260,0.617676,-0.827148,-0.0727539,0
48280,0.626465,-0.795898,-0.0429688,0
48300,0.631348,-0.772949,-0.0405273,0
48320,0.641113,-0.768555,-0.0800781,0
48340,0.717285,-0.749023,-0.151367,0
48360,0.689453,-0.745117,-0.165039,0
48380,0.614258,-0.772949,-0.160156,0
48400,0.668457,-0.751465,-0.188477,0
48430,0.788086,-0.711426,-0.210938,0
48450,0.714844,-0.702637,-0.219727,0
48470,0.66748,-0.685059,-0.201172,0
48490,0.754883,-0.644531,-0.219238,0
48510,0.855957,-0.647461,-0.248535,0
48530,0.83252,-0.64502,-0.251953,0
48550,0.81543,-0.65332,-0.231934,0
48570,0.82666,-0.625488,-0.226562,0
48590,0.848633,-0.601562,-0.279785,0
48610,0.87793,-0.55127,-0.270508,2001
48630,0.865723,-0.547363,-0.279785,0
48650,0.852539,-0.589844,-0.256836,0
48660,0.827148,-0.587891,-0.226562,0
48680,0.818359,-0.534668,-0.238281,0
48690,0.820801,-0.511719,-0.241211,0
48710,0.822266,-0.506836,-0.25,0
48730,0.80127,-0.540039,-0.212891,0
48750,0.758789,-0.56543,-0.20752,0
48770,0.730957,-0.515137,-0.211914,0
48790,0.730469,-0.433594,-0.190918,0
48810,0.691406,-0.411621,-0.169434,0
48810,0.609863,-0.461914,-0.0834961,0
48830,0.529785,-0.548828,-0.0742188,0
48850,0.505371,-0.544922,-0.0810547,0
48870,0.492188,-0.445312,-0.0942383,0
48890,0.520996,-0.460938,-0.0800781,0
48910,0.527832,-0.458008,-0.0585938,0
48930,0.520508,-0.452148,-0.046875,0
48950,0.495117,-0.476074,0.0141602,0
48970,0.503906,-0.53418,-0.0136719,0
48990,0.628418,-0.575195,-0.0253906,0
49010,0.757812,-0.553223,0.123535,0
49030,0.797363,-0.525879,0.212402,0
49050,0.831543,-0.649902,0.097168,0
49070,0.887695,-0.814941,-0.0297852,0
49090,0.937988,-0.865234,0.0703125,0
49110,0.967773,-0.905273,0.132812,0
49130,0.932617,-0.962402,0.0888672,0
49150,0.943359,-0.986328,0.0463867,0
49170,0.972168,-1.01562,0.12207,0
49190,0.911133,-1.06689,0.205078,0
49210,0.833496,-1.14307,0.249023,0
49230,0.79541,-1.13232,0.245605,0
49250,0.805664,-1.06738,0.268555,0
49270,0.773926,-0.983398,0.342773,0
49290,0.621094,-0.984375,0.375977,0
49310,0.492676,-1.02148,0.381836,0
49330,0.457031,-0.975586,0.437012,0
49360,0.327637,-0.890625,0.448242,0
49380,0.255859,-0.862793,0.48291,0
49400,0.208008,-0.852539,0.497559,0
49420,0.246094,-0.84375,0.519043,0
49440,0.292969,-0.813477,0.516113,0
49460,0.268066,-0.800293,0.479492,0
49480,0.26709,-0.819824,0.483887,0
49500,0.324219,-0.806641,0.486328,0
49510,0.413086,-0.805176,0.486816,0
49530,0.413574,-0.814941,0.516113,0
49550,0.349121,-0.816406,0.511719,0
49560,0.321777,-0.844238,0.486816,0
49580,0.375,-0.802246,0.483398,0
49600,0.411133,-0.769043,0.500488,0
49620,0.401367,-0.775879,0.51123,0
49640,0.398438,-0.843262,0.45459,0
49660,0.42334,-0.867676,0.433594,0
49680,0.450684,-0.851562,0.454102,0
49700,0.422852,-0.832031,0.46875,0
49720,0.317383,-0.808105,0.45459,0
49740,0.312012,-0.811523,0.46875,0
49750,0.375977,-0.833008,0.456055,0
49770,0.385742,-0.826172,0.466797,0
49790,0.507324,-0.849121,0.427734,0
49810,0.617188,-0.834473,0.394531,0
49830,0.54248,-0.788574,0.404785,0
49850,0.441406,-0.765137,0.399902,0
49870,0.54834,-0.793457,0.375977,0
49880,0.668457,-0.848633,0.361328,0
49900,0.557617,-0.800293,0.33252,0
49920,0.510254,-0.720215,0.356934,0
49940,0.670898,-0.706055,0.350586,0
49960,0.895996,-0.740234,0.285156,0
49980,0.938965,-0.720703,0.208008,0
50000,0.905273,-0.710938,0.15918,0
50020,0.959961,-0.727539,0.140137,0
50040,0.954102,-0.701172,0.157227,0
50060,0.862305,-0.739258,0.202637,0
50080,0.84082,-0.85791,0.126953,0
50100,0.831543,-0.879883,0.209473,0
50120,0.739258,-0.765137,0.25,0
50140,0.718262,-0.624512,0.348145,0
50160,0.773438,-0.59375,0.375977,0
50180,0.593262,-0.713379,0.418945,0
50200,0.405273,-0.816406,0.490234,0
50220,0.366699,-0.84082,0.518555,0
50240,0.323242,-0.762207,0.565918,0
50260,0.217773,-0.708008,0.496582,0
50260,0.158203,-0.788574,0.538574,0
50280,0.123047,-0.865723,0.522949,0
50290,0.171387,-0.780762,0.524902,0
50310,0.144531,-0.724609,0.562012,0
50310,0.078125,-0.782227,0.594238,0
50330,0.13623,-0.85498,0.567383,0
50350,0.254395,-0.894531,0.545898,0
50350,0.320312,-0.841309,0.525879,0
50370,0.332031,-0.756348,0.525391,2000
50390,0.333008,-0.736816,0.514648,0
50420,0.408203,-0.882324,0.511719,0
50420,0.490234,-0.810547,0.491699,0
50440,0.450195,-0.754883,0.476562,0
50440,0.382324,-0.834473,0.493164,0
50470,0.463379,-0.780273,0.465332,0
50470,0.356934,-0.756836,0.49707,0
50490,0.260742,-0.821777,0.480469,0
50510,0.31543,-0.862793,0.481934,0
50520,0.363281,-0.816895,0.501465,0
50530,0.328613,-0.71875,0.477051,0
50550,0.29248,-0.699707,0.486816,0
50560,0.29248,-0.799316,0.493164,0
50580,0.26709,-0.886719,0.476562,0
50600,0.312988,-0.856445,0.479492,0
50620,0.340332,-0.768555,0.424316,0
50640,0.299805,-0.78418,0.442871,0
50660,0.399902,-0.901855,0.427734,0
50680,0.410645,-0.849121,0.458984,0
50700,0.456055,-0.802246,0.444824,0
50720,0.535156,-0.821289,0.37207,0
50740,0.519043,-0.838379,0.392578,0
50760,0.530762,-0.880371,0.40625,0
50780,0.547363,-0.897949,0.37207,0
50800,0.544922,-0.875488,0.316895,0
50820,0.549316,-0.816895,0.34668,0
50840,0.54248,-0.794922,0.375488,0
50870,0.576172,-0.812012,0.333008,0
50890,0.592773,-0.78418,0.361328,0
50910,0.673828,-0.762207,0.374023,0
50920,0.722168,-0.745117,0.324707,0
50960,0.782227,-0.696777,0.345215,0
50970,0.799316,-0.630859,0.337402,0
51000,0.807129,-0.629395,0.354492,0
51020,0.794922,-0.546875,0.361816,0
51040,0.824219,-0.548828,0.368652,0
51060,0.860352,-0.589844,0.422852,0
51070,0.874023,-0.643066,0.416504,0
51070,0.787109,-0.499512,0.414062,0
51090,0.79834,-0.516602,0.47168,0
51110,0.831055,-0.652344,0.536621,0
51130,0.678223,-0.68457,0.543945,0
51150,0.638672,-0.565918,0.555176,0
51170,0.679199,-0.483398,0.583008,0
51190,0.654297,-0.538574,0.614258,0
51210,0.586914,-0.639648,0.631836,0
51230,0.52832,-0.608887,0.649902,0
51250,0.541992,-0.575684,0.60498,0
51270,0.556641,-0.524414,0.628418,0
51290,0.505859,-0.563965,0.635254,0
51310,0.436523,-0.619141,0.628906,0
51330,0.438477,-0.689941,0.573242,0
51350,0.503906,-0.698242,0.547852,0
51370,0.513184,-0.700684,0.54248,0
51390,0.450684,-0.728516,0.580566,0
51410,0.387207,-0.77002,0.659668,0
51430,0.262207,-0.760742,0.632324,0
51450,0.193359,-0.704102,0.54248,0
51470,0.286133,-0.585938,0.578125,0
51490,0.324707,-0.621582,0.590332,0
51510,0.304688,-0.76416,0.523926,0
51530,0.342285,-0.779785,0.554688,0
51550,0.337891,-0.741211,0.568359,0
51600,0.26416,-0.849609,0.371582,0
51620,0.318359,-0.828613,0.320312,0
51640,0.415039,-0.858398,0.379395,0
51660,0.402344,-0.882812,0.409668,0
51680,0.311523,-0.863281,0.342773,0
51710,0.433594,-0.853516,0.314453,0
51730,0.436035,-0.881348,0.335449,0
51750,0.353516,-0.84375,0.322754,0
51760,0.525391,-0.852539,0.226562,0
51770,0.388184,-0.885254,0.14502,0
51790,0.469727,-0.853516,0.17334,0
51810,0.46582,-0.881836,0.162109,0
51830,0.410645,-0.861816,0.100586,0
51850,0.404785,-0.839844,0.108887,0
51870,0.411621,-0.855469,0.125,0
51890,0.452148,-0.869141,0.148926,0
51910,0.480469,-0.819336,0.140625,0
51930,0.452148,-0.813965,0.0869141,0
51990,0.633301,-0.821777,-0.0527344,0
52010,0.665039,-0.796875,0,0
52060,0.788086,-0.67627,0.0209961,0
52070,0.921387,-0.688477,0.0288086,0
52090,0.878906,-0.702148,0.0380859,0
52110,0.789062,-0.683594,-0.00732422,0
52130,0.814941,-0.625977,0.0273438,0
52150,0.90918,-0.600098,0.0537109,0
52170,0.932617,-0.558105,0.0390625,0
52190,0.92334,-0.570312,0.0541992,0
52210,0.941406,-0.563965,0.116211,0
52230,0.991699,-0.526855,0.163574,0
52250,1.0127,-0.452148,0.166016,0
52270,1.02832,-0.42041,0.17041,0
52290,1.06348,-0.429199,0.177734,0
52310,1.07471,-0.444336,0.229004,0
52330,1.07275,-0.407227,0.283691,0
52350,1.09814,-0.356445,0.310059,0
52370,1.05273,-0.362793,0.327148,0
52390,1.00049,-0.350098,0.283691,0
52410,1.03516,-0.421387,0.328125,0
52430,1.01562,-0.390137,0.417969,0
52450,0.952148,-0.349609,0.48291,0
52470,0.813477,-0.354492,0.49707,0
52490,0.766602,-0.383789,0.467773,0
52510,0.780762,-0.47168,0.478027,0
52530,0.794434,-0.396484,0.489746,0
52550,0.750977,-0.34668,0.533691,0
52570,0.65918,-0.46875,0.575195,0
52590,0.697754,-0.570312,0.46875,0
52640,0.446777,-0.535645,0.549805,0
52660,0.473145,-0.620605,0.489746,0
52690,0.636719,-0.533203,0.564941,0
52710,0.383301,-0.594727,0.492188,0
52720,0.466797,-0.65332,0.444336,0
52730,0.625977,-0.679688,0.497559,0
52750,0.485352,-0.658203,0.476074,0
52780,0.415039,-0.699219,0.442383,0
52800,0.475098,-0.728516,0.453613,0
52820,0.400391,-0.716309,0.408203,0
52840,0.439941,-0.727051,0.403809,0
52860,0.391113,-0.759277,0.46875,0
52880,0.258789,-0.811035,0.399414,0
52900,0.42627,-0.796875,0.369629,0
52920,0.543457,-0.756836,0.443848,0
52940,0.387207,-0.828613,0.407227,0
52960,0.46582,-0.877441,0.401367,0
52980,0.521973,-0.854492,0.420898,0
53000,0.368164,-0.85791,0.351562,0
53020,0.418457,-0.82959,0.253906,0
53040,0.489258,-0.852051,0.258789,0
53060,0.433594,-0.902832,0.297363,0
53080,0.395996,-0.909668,0.26123,0
53100,0.442871,-0.869629,0.220215,0
53120,0.458984,-0.853516,0.205078,0
53140,0.399902,-0.874023,0.202637,0
53160,0.400879,-0.883789,0.211426,0
53180,0.440918,-0.881836,0.163574,0
53200,0.440918,-0.891602,0.136719,0
53220,0.44873,-0.904297,0.0986328,0
53240,0.517578,-0.884277,0.0742188,0
53260,0.582031,-0.883789,0.0727539,0
53280,0.653809,-0.895996,0.0922852,0
53300,0.704102,-0.89209,0.0913086,0
53320,0.699707,-0.904297,0.0561523,0
53330,0.657227,-0.911133,0.00585938,0
53350,0.626953,-0.86084,-0.0249023,0
53370,0.625,-0.745605,-0.115234,0
53390,0.686035,-0.706543,-0.155762,0
53400,0.747559,-0.69043,-0.12793,0
53420,0.717285,-0.713379,-0.140137,0
53440,0.688477,-0.738281,-0.191406,0
53460,0.714844,-0.728516,-0.223633,0
53470,0.77002,-0.715332,-0.249512,0
53490,0.818359,-0.708496,-0.22168,0
53510,0.773438,-0.691406,-0.205566,0
53530,0.743652,-0.647949,-0.195312,0
53540,0.774414,-0.625,-0.19873,0
53550,0.846191,-0.483887,-0.171875,0
53560,0.916504,-0.484863,-0.161133,0
53580,0.924805,-0.504883,-0.0756836,0
53600,0.937012,-0.471191,-0.090332,0
53620,0.962891,-0.430664,-0.0761719,0
53630,1.06348,-0.394043,0.0786133,0
53650,1.08154,-0.360352,0.13623,0
53680,1.06104,-0.34668,0.234863,0
53700,1.04248,-0.326172,0.219238,0
53720,0.989746,-0.333984,0.27002,0
53740,0.951172,-0.419922,0.308594,0
53760,0.979492,-0.507812,0.319824,0
53780,1.06299,-0.515137,0.317871,0
53800,1.3374,-0.483887,0.395996,0
53820,1.38428,-0.512695,0.436035,0
53840,0.96875,-0.562012,0.441406,0
53860,0.55957,-0.583008,0.401855,0
53880,0.48291,-0.538574,0.381836,0
53900,0.555664,-0.509766,0.379883,0
53920,0.372559,-0.495605,0.311523,0
53940,0.522949,-0.557129,0.382324,0
53960,0.48877,-0.722168,0.353027,0
53980,0.54834,-0.702637,0.351562,0
54000,0.561035,-0.64502,0.299805,0
54020,0.551758,-0.623047,0.28418,0
54040,0.506836,-0.754395,0.29834,0
54060,0.563477,-0.85791,0.279785,0
54080,0.614258,-0.830566,0.251465,0
54100,0.492676,-0.806641,0.210938,0
54120,0.493652,-0.769043,0.19043,0
54140,0.509766,-0.839355,0.188477,0
54160,0.466797,-0.925781,0.14209,0
54180,0.59082,-0.899902,0.178223,0
54200,0.583984,-0.831055,0.14209,0
54220,0.391113,-0.872559,0.0527344,0
54240,0.420898,-0.921875,0.0722656,0
54260,0.516602,-0.926758,0.0629883,0
54280,0.53418,-0.926758,0.0551758,0
54300,0.524902,-0.891113,0.0356445,0
54320,0.605469,-0.916504,0.0351562,0
54340,0.562988,-0.945312,0.00683594,0
54360,0.466797,-0.953613,-0.059082,0
54380,0.533203,-0.900879,-0.0703125,0
54400,0.637695,-0.88623,-0.0639648,0
54420,0.625977,-0.937012,-0.0820312,0
54440,0.57373,-0.964844,-0.0927734,0
54460,0.548828,-0.95166,-0.149902,0
54480,0.545898,-0.885742,-0.198242,0
54500,0.531738,-0.84375,-0.198242,0
54520,0.519043,-0.840332,-0.208984,0
54540,0.576172,-0.84375,-0.229004,0
54560,0.575195,-0.82959,-0.219238,0
54580,0.512207,-0.789551,-0.193848,0
54600,0.535645,-0.745117,-0.282227,0
54620,0.598633,-0.709961,-0.29248,0
54640,0.570801,-0.704102,-0.282227,0
54660,0.549805,-0.724609,-0.317871,0
54680,0.586914,-0.713379,-0.32666,0
54690,0.539551,-0.734863,-0.32666,0
54710,0.503418,-0.729004,-0.309082,0
54730,0.664551,-0.632324,-0.333008,0
54750,0.819336,-0.612793,-0.352051,0
54770,0.804688,-0.72998,-0.325684,0
54790,0.708984,-0.82959,-0.338379,0
54810,0.779785,-0.812988,-0.368652,0
54830,0.928711,-0.691895,-0.291992,0
54850,0.862793,-0.602051,-0.302734,0
54870,0.687012,-0.63916,-0.29248,0
54890,0.708984,-0.759277,-0.305664,0
54910,0.836426,-0.739746,-0.270996,0
54930,0.810059,-0.649414,-0.275391,0
54950,0.789551,-0.588867,-0.312988,0
54970,0.761719,-0.567871,-0.304688,0
54990,0.713867,-0.582031,-0.279785,0
55010,0.700684,-0.599609,-0.229004,0
55030,0.652832,-0.574219,-0.220215,0
55050,0.641113,-0.550293,-0.197266,0
55070,0.633789,-0.536133,-0.188477,0
55090,0.660156,-0.495605,-0.208496,0
55110,0.731934,-0.527832,-0.234375,0
55130,0.726562,-0.584961,-0.192871,0
55150,0.708008,-0.604004,-0.185547,2001
55170,0.74707,-0.567383,-0.197266,0
55210,0.800781,-0.613281,-0.223145,0
55230,0.86377,-0.642578,-0.216797,0
55250,0.826172,-0.672852,-0.21582,0
55270,0.759277,-0.706543,-0.243652,0
55290,0.741699,-0.663086,-0.193848,0
55310,0.708984,-0.583984,-0.176758,0
55330,0.642578,-0.550781,-0.201172,0
55350,0.595215,-0.574219,-0.189941,0
55370,0.554199,-0.552734,-0.155762,0
55390,0.556641,-0.538086,-0.12793,0
55410,0.635742,-0.543457,-0.0766602,0
55430,0.569824,-0.525879,-0.00390625,0
55450,0.598145,-0.528809,-0.0332031,0
55470,0.690918,-0.528809,0.00195312,0
55490,0.774902,-0.505859,0.163574,0
55510,0.71582,-0.477051,0.288574,0
55510,0.674316,-0.541016,0.125488,0
55530,0.679199,-0.652344,0.0883789,0
55550,0.747559,-0.725098,0.0932617,0
55570,0.840332,-0.804199,0.140625,0
55580,0.920898,-0.922852,0.144043,0
55630,1.14111,-1.11084,0.120605,0
55630,1.12793,-0.999023,0.338867,0
55670,0.812012,-0.949219,0.387695,0
55700,0.463379,-0.86377,0.546387,0
55710,0.354004,-0.76709,0.63916,0
55730,0.337402,-0.708984,0.650391,0
55750,0.33252,-0.668945,0.628418,0
55760,0.353516,-0.73877,0.557129,0
55810,0.443359,-0.658203,0.581543,0
55870,0.319336,-0.749023,0.588867,0
55910,0.347168,-0.685547,0.625977,0
55920,0.428223,-0.670898,0.640137,0
55940,0.492188,-0.694336,0.588379,0
55940,0.509766,-0.739258,0.546875,0
55960,0.580566,-0.702637,0.549316,0
56000,0.498535,-0.741211,0.462891,0
56020,0.65918,-0.693359,0.545898,0
56040,0.734375,-0.678711,0.484375,0
56040,0.710938,-0.606934,0.385254,0
56060,0.932129,-0.641113,0.362793,0
56090,0.929199,-0.568848,0.246582,0
56110,0.94043,-0.63623,0.237305,0
56130,0.931641,-0.655273,0.23877,0
56170,0.903809,-0.72168,0.338867,0
56190,0.740234,-0.581543,0.36084,0
56210,0.654297,-0.520996,0.380371,0
56230,0.280762,-0.673828,0.617676,0
56320,0.209961,-0.73584,0.665527,0
56340,0.166992,-0.681152,0.660645,0
56380,0.424805,-0.791992,0.623535,2000
56410,0.397949,-0.772949,0.609375,0
56430,0.437012,-0.622559,0.52832,0
56470,0.277344,-0.780762,0.587891,0
56500,0.237305,-0.686523,0.48877,0
56510,0.174316,-0.662109,0.526855,0
56520,0.21582,-0.745605,0.571289,0
56540,0.64209,-0.714844,0.544434,0
56560,0.584961,-0.74707,0.498535,0
56570,0.616699,-0.75293,0.426758,0
56600,0.633301,-0.727051,0.363281,0
56620,0.544434,-0.702637,0.404297,0
56640,0.543945,-0.722656,0.398438,0
56660,0.63623,-0.700195,0.409668,0
56680,0.721191,-0.694824,0.375488,0
56690,0.697754,-0.65625,0.375977,0
56710,0.726074,-0.644531,0.394531,0
56730,0.829102,-0.586426,0.399414,0
56740,0.771973,-0.560547,0.371094,0
56760,0.85498,-0.597656,0.424805,0
56780,0.803223,-0.612305,0.540039,0
56810,0.719238,-0.601074,0.447266,0
56820,0.789551,-0.590332,0.435059,0
56840,0.787598,-0.556152,0.450195,0
56870,0.700195,-0.623047,0.484375,0
56890,0.591309,-0.691895,0.585938,0
56910,0.549805,-0.661621,0.515137,0
56930,0.648926,-0.614746,0.503906,0
56950,0.694336,-0.584961,0.582031,0
56970,0.663086,-0.664551,0.615723,0
56990,0.590332,-0.69043,0.570801,0
57010,0.541992,-0.672363,0.54834,0
57030,0.539062,-0.615234,0.583496,0
57050,0.569824,-0.57373,0.555176,0
57070,0.586426,-0.625,0.558594,0
57090,0.462402,-0.70752,0.58252,0
57110,0.393555,-0.696777,0.515625,0
57130,0.474121,-0.668457,0.548828,0
57150,0.498535,-0.643066,0.578613,0
57170,0.480957,-0.687988,0.538574,0
57190,0.46582,-0.727051,0.563477,0
57210,0.413086,-0.687988,0.556641,0
57230,0.397949,-0.664551,0.578613,0
57250,0.376465,-0.719238,0.561035,0
57270,0.394531,-0.722168,0.500977,0
57290,0.380371,-0.710938,0.528809,0
57310,0.333008,-0.712402,0.535156,0
57330,0.331055,-0.721191,0.489258,0
57350,0.349121,-0.727539,0.508789,0
57370,0.320801,-0.731445,0.529785,0
57400,0.406738,-0.76709,0.478516,0
57420,0.458496,-0.841309,0.415039,0
57440,0.400879,-0.814941,0.406738,0
57470,0.378906,-0.833496,0.344238,0
57500,0.35791,-0.824219,0.342285,0
57510,0.385254,-0.8125,0.317383,0
57530,0.520996,-0.867676,0.126953,0
57570,0.500977,-0.849609,0.141602,0
57600,0.570312,-0.785645,0.0820312,0
57620,0.645508,-0.745605,0.148438,0
57640,0.652832,-0.737305,0.130371,0
57650,0.67627,-0.783691,0.106934,0
57680,0.72998,-0.766602,0.113281,0
57700,0.77002,-0.720215,0.0756836,0
57720,0.773438,-0.696289,0.0830078,0
57740,0.813965,-0.695801,0.0546875,0
57760,0.85791,-0.713867,0.0390625,0
57780,0.871582,-0.70752,0.0615234,0
57800,0.911133,-0.661133,0.103027,0
57820,0.899414,-0.628418,0.0595703,0
57840,0.912598,-0.57666,0.059082,0
57860,0.9375,-0.591797,0.0751953,0
57880,0.944336,-0.536133,0.0537109,0
57900,0.960449,-0.522949,0.0922852,0
57920,0.940918,-0.524414,0.112793,0
57940,0.97998,-0.524414,0.10498,0
57960,0.989258,-0.515137,0.134766,0
57980,0.925293,-0.449219,0.114746,0
58000,0.938477,-0.4375,0.140137,0
58020,1.00049,-0.46582,0.185059,0
58040,0.99707,-0.469727,0.236328,0
58060,0.994141,-0.493652,0.216309,0
58080,0.962402,-0.499023,0.212402,0
58110,1.00537,-0.359375,0.244141,0
58130,0.977539,-0.392578,0.276367,0
58150,0.906738,-0.478516,0.326172,0
58170,0.850586,-0.546387,0.401367,0
58190,0.87793,-0.576172,0.38623,0
58210,0.898926,-0.524414,0.367676,0
58230,0.844238,-0.490723,0.35791,0
58250,0.770996,-0.525391,0.410156,0
58270,0.802734,-0.58252,0.414551,0
58290,0.86377,-0.585938,0.384277,0
58310,0.994141,-0.586426,0.381348,0
58330,1.03174,-0.640625,0.470215,0
58350,0.86084,-0.623047,0.5,0
58370,0.606934,-0.64209,0.462891,0
58390,0.472168,-0.524414,0.474609,0
58410,0.42627,-0.524414,0.520996,0
58440,0.371094,-0.516602,0.541016,0
58470,0.416992,-0.531738,0.503418,0
58490,0.481445,-0.623047,0.59668,0
58510,0.511719,-0.660645,0.510742,0
58530,0.63623,-0.626953,0.51123,0
58540,0.639648,-0.656738,0.533203,0
58550,0.493164,-0.779785,0.48877,0
58570,0.412598,-0.85791,0.466797,0
58590,0.529785,-0.858398,0.472656,0
58610,0.585938,-0.799316,0.418457,0
58630,0.59082,-0.724609,0.410156,0
58650,0.506348,-0.773438,0.406738,0
58670,0.546875,-0.847168,0.438965,0
58690,0.633301,-0.849121,0.458008,0
58710,0.494629,-0.783203,0.413574,0
58730,0.372559,-0.723633,0.304688,0
58750,0.557129,-0.750977,0.340332,0
58770,0.577637,-0.845703,0.418457,0
58790,0.314941,-0.828613,0.370605,0
58810,0.245117,-0.769531,0.269531,0
58830,0.398438,-0.800781,0.216309,0
58850,0.565918,-0.774414,0.28125,0
58870,0.5,-0.787598,0.288086,0
58890,0.419922,-0.841309,0.255371,0
58910,0.412598,-0.883789,0.229004,0
58930,0.40625,-0.899414,0.203613,0
58950,0.42334,-0.894531,0.182129,0
58970,0.462402,-0.887695,0.140625,0
58990,0.508789,-0.879883,0.109863,0
59020,0.500488,-0.950195,0.131836,0
59040,0.456055,-0.96875,0.0830078,0
59060,0.547363,-0.95166,0.0634766,0
59080,0.608398,-0.935547,0.0854492,0
59100,0.575195,-0.945801,0.0415039,0
59120,0.606934,-0.921875,0.00878906,0
59140,0.64502,-0.904297,-0.00390625,0
59160,0.606934,-0.88623,0.0166016,0
59180,0.562988,-0.880859,0.0131836,0
59190,0.574219,-0.854492,-0.0229492,0
59210,0.649414,-0.803711,-0.0566406,0
59240,0.680664,-0.782715,-0.0810547,0
59260,0.614258,-0.783691,-0.0625,0
59280,0.581543,-0.744141,-0.0698242,0
59300,0.635742,-0.657715,-0.125977,0
59310,0.678711,-0.647461,-0.153809,0
59320,0.627441,-0.723145,-0.114746,0
59320,0.630371,-0.73584,-0.115723,0
59340,0.65625,-0.727051,-0.143555,0
59360,0.722168,-0.681152,-0.161621,0
59390,0.856445,-0.648926,-0.16748,0
59410,0.897461,-0.528809,-0.108887,0
59430,0.947266,-0.520508,-0.0932617,0
59450,0.958496,-0.55127,-0.0546875,0
59470,0.957031,-0.565918,-0.0732422,0
59470,0.950684,-0.531738,-0.0327148,0
59480,0.962891,-0.418457,-0.0332031,0
59500,1.00635,-0.375977,-0.0219727,0
59520,1.00977,-0.397461,0.00488281,0
59540,1.00098,-0.435547,0.0253906,0
59560,1.03955,-0.467773,0.0654297,0
59580,1.03613,-0.436523,0.109863,0
59600,0.976074,-0.408203,0.0615234,0
59620,1,-0.388184,0.102539,0
59640,1.03613,-0.421387,0.177734,0
59660,0.993652,-0.493164,0.189453,0
59680,0.934082,-0.574219,0.21875,0
59700,0.881836,-0.54834,0.22998,0
59720,0.859375,-0.51416,0.233398,0
59740,0.854492,-0.577637,0.244141,0
59760,0.879883,-0.614258,0.26709,0
59780,0.986328,-0.581055,0.312988,0
59800,0.962402,-0.559082,0.326172,0
59820,0.791992,-0.63916,0.295898,0
59840,0.754395,-0.70459,0.312012,0
59860,0.767578,-0.719727,0.342285,0
59880,0.729492,-0.602539,0.276855,0
59900,0.762207,-0.578125,0.277344,0
59920,0.701172,-0.622559,0.294434,0
59940,0.61084,-0.751465,0.303223,0
59960,0.644531,-0.669434,0.301758,0
59980,0.561523,-0.647949,0.302734,0
60000,0.527344,-0.719727,0.293945,0
60030,0.620605,-0.791504,0.286133,0
60060,0.436523,-0.767578,0.28125,0
60080,0.416016,-0.783203,0.230957,0
60100,0.444336,-0.787109,0.229004,0
60120,0.396973,-0.811035,0.221191,0
60140,0.525391,-0.778809,0.197266,0
60160,0.52832,-0.767578,0.221191,0
60180,0.363281,-0.820312,0.162109,0
60200,0.516602,-0.872559,0.152344,0
60200,0.588379,-0.920898,0.197754,0
60200,0.462891,-0.916504,0.224609,0
60220,0.442383,-0.87207,0.15332,0
60240,0.500977,-0.883301,0.157715,0
60260,0.52832,-0.964355,0.152344,0
60280,0.520508,-0.922363,0.142578,0
60300,0.503906,-0.858398,0.106445,0
60320,0.458008,-0.923828,0.117676,0
60340,0.563965,-0.946777,0.0844727,0
60360,0.482422,-0.927246,0.0683594,0
60380,0.37793,-0.911133,0.0161133,0
60400,0.45166,-0.867188,-0.0200195,0
60420,0.525879,-0.842773,-0.0126953,0
60440,0.483887,-0.916992,0.0209961,0
60460,0.435547,-0.935059,-0.0170898,0
60480,0.553223,-0.946289,-0.0551758,0
60500,0.684082,-0.899414,-0.0195312,0
60520,0.589844,-0.862793,-0.0654297,0
60540,0.600586,-0.849121,-0.138184,0
60560,0.707031,-0.84082,-0.159668,0
60580,0.726074,-0.863281,-0.166992,0
60600,0.639648,-0.85791,-0.188965,0
60620,0.662109,-0.773438,-0.213379,0
60640,0.780762,-0.716309,-0.267578,0
60660,0.700684,-0.755371,-0.262695,0
60680,0.591309,-0.726562,-0.23291,0
60700,0.634277,-0.71875,-0.29541,0
60720,0.6875,-0.730957,-0.296875,0
60740,0.659668,-0.707031,-0.262207,0
60760,0.59668,-0.681152,-0.312012,0
60780,0.617676,-0.689941,-0.303711,0
60800,0.727051,-0.715332,-0.312988,0
60820,0.745117,-0.702637,-0.293945,0
60840,0.681152,-0.700684,-0.312988,0
60860,0.702148,-0.663574,-0.354004,0
60880,0.769531,-0.624023,-0.333496,0
60900,0.775391,-0.636719,-0.304688,0
60920,0.759277,-0.679199,-0.322266,0
60940,0.758301,-0.696777,-0.280273,0
60960,0.773438,-0.621582,-0.283691,0
60980,0.78125,-0.558105,-0.286621,0
61000,0.77002,-0.495117,-0.298828,0
61020,0.766113,-0.485352,-0.31543,0
61040,0.803223,-0.543945,-0.291016,0
61060,0.79248,-0.547852,-0.262207,0
61080,0.73877,-0.540527,-0.262207,0
61100,0.776367,-0.54248,-0.244141,2001
61120,0.79834,-0.532227,-0.231445,0
61140,0.772461,-0.509277,-0.233398,0
61160,0.812012,-0.506348,-0.228027,0
61180,0.846191,-0.533691,-0.220215,0
61200,0.875,-0.549805,-0.224609,0
61220,0.853516,-0.536621,-0.236328,0
61230,0.874512,-0.549316,-0.244141,0
61250,0.900391,-0.630371,-0.228516,0
61270,0.883301,-0.615234,-0.217285,0
61290,0.852539,-0.544434,-0.240234,0
61310,0.788574,-0.520996,-0.253906,0
61330,0.759277,-0.554688,-0.245117,0
61350,0.734863,-0.59668,-0.251953,0
61380,0.70459,-0.442383,-0.217773,0
61400,0.626465,-0.475586,-0.206543,0
61430,0.47998,-0.543945,-0.237305,0
61450,0.607422,-0.51416,-0.198242,0
61470,0.720215,-0.486816,-0.141113,0
61490,0.683105,-0.483887,-0.155273,0
61510,0.619141,-0.479004,-0.167969,0
61530,0.623535,-0.537598,-0.187988,0
61550,0.702148,-0.591797,-0.0996094,0
61570,0.73291,-0.622559,-0.074707,0
61590,0.724121,-0.610352,-0.134277,0
61610,0.755859,-0.682617,-0.10498,0
61630,0.776855,-0.755859,0.000488281,0
61660,0.673828,-0.831055,0.0322266,0
61680,0.709473,-0.810059,0.0507812,0
61700,0.764648,-0.833496,0.169434,0
61720,0.660645,-0.893066,0.186035,0
61740,0.550781,-0.943359,0.112305,0
61760,0.586914,-0.879395,0.183105,0
61780,0.677246,-0.838379,0.207031,0
61800,0.708984,-0.875488,0.197754,0
61820,0.636719,-0.928711,0.226074,0
61840,0.574219,-0.973145,0.275879,0
61860,0.570801,-1.02441,0.313477,0
61880,0.506348,-1.08789,0.291504,0
61900,0.470215,-1.09863,0.266113,0
61920,0.519043,-1.04053,0.361328,2000
61940,0.527344,-0.998047,0.370605,0
61950,0.464355,-0.968262,0.367676,0
61980,0.419434,-0.794922,0.555176,0
62000,0.449219,-0.723633,0.527832,0
62030,0.624512,-0.730469,0.333496,0
62070,0.549805,-0.713379,0.484375,0
62100,0.583008,-0.702637,0.384766,0
62120,0.5625,-0.719727,0.352051,0
62140,0.602051,-0.765137,0.382812,0
62160,0.580078,-0.735352,0.4375,0
62170,0.59668,-0.738281,0.441406,0
62200,0.604492,-0.662109,0.483887,0
62240,0.808594,-0.581055,0.476562,0
62260,0.713867,-0.561035,0.45752,0
62280,0.727051,-0.53125,0.465332,0
62300,0.791016,-0.549316,0.442383,0
62320,0.788086,-0.554199,0.495605,0
62340,0.770508,-0.500488,0.477539,0
62360,0.828613,-0.556152,0.501953,0
62380,0.775391,-0.597168,0.539062,0
62390,0.675781,-0.589355,0.540527,0
62410,0.693359,-0.538574,0.509766,0
62430,0.76709,-0.50293,0.521973,0
62440,0.757324,-0.544434,0.540527,0
62450,0.708984,-0.597168,0.572754,0
62470,0.628418,-0.624512,0.580078,0
62490,0.626953,-0.575195,0.57959,0
62510,0.650391,-0.533691,0.558594,0
62530,0.709961,-0.55127,0.588379,0
62550,0.666504,-0.616211,0.671387,0
62570,0.559082,-0.654297,0.606934,0
62590,0.555176,-0.61084,0.562988,0
62610,0.547363,-0.530762,0.623047,0
62630,0.492676,-0.528809,0.602051,0
62650,0.527344,-0.560059,0.600098,0
62670,0.580078,-0.599121,0.614258,0
62690,0.589844,-0.626953,0.561035,0
62710,0.647949,-0.57373,0.633301,0
62730,0.628906,-0.59082,0.67627,0
62750,0.530273,-0.612793,0.621094,0
62770,0.419434,-0.58252,0.573242,0
62790,0.351562,-0.624023,0.524902,0
62820,0.217773,-0.607422,0.456543,0
62840,0.220215,-0.647949,0.475098,0
62860,0.210449,-0.674805,0.503906,0
62880,0.263672,-0.694336,0.51416,0
62900,0.348145,-0.719238,0.509766,0
62920,0.395996,-0.746094,0.54834,0
62940,0.520996,-0.8125,0.54248,0
62960,0.698242,-0.810547,0.568359,0
62980,0.75293,-0.772949,0.575684,0
63000,0.688965,-0.731934,0.506348,0
63020,0.620117,-0.723145,0.498047,0
63040,0.645508,-0.742676,0.508301,0
63050,0.692871,-0.757812,0.519531,0
63070,0.658203,-0.73584,0.529785,0
63090,0.647949,-0.655762,0.524902,0
63110,0.720703,-0.619629,0.59375,0
63130,0.63916,-0.688965,0.628418,0
63150,0.496094,-0.753418,0.556152,0
63170,0.572754,-0.705566,0.554688,0
63190,0.530273,-0.641602,0.564941,0
63230,0.415039,-0.662109,0.549805,0
63240,0.47168,-0.688477,0.589355,0
63260,0.402344,-0.645996,0.571777,0
63270,0.399902,-0.647949,0.558594,0
63290,0.456055,-0.681152,0.59375,0
63310,0.341309,-0.654297,0.542969,0
63330,0.406738,-0.67334,0.56543,0
63330,0.422852,-0.757812,0.538574,0
63350,0.367676,-0.747559,0.536621,0
63370,0.439453,-0.774902,0.511719,0
63390,0.490234,-0.802734,0.507324,0
63410,0.437988,-0.796875,0.496582,0
63430,0.430176,-0.789062,0.498047,0
63440,0.503418,-0.824219,0.445312,0
63480,0.427246,-0.813965,0.407227,0
63500,0.438477,-0.815918,0.407715,0
63520,0.395996,-0.82666,0.363281,0
63540,0.38916,-0.825684,0.346191,0
63560,0.370605,-0.817871,0.376953,0
63580,0.344238,-0.795898,0.367676,0
63600,0.336914,-0.814453,0.33252,0
63600,0.381348,-0.835938,0.355469,0
63620,0.385254,-0.830078,0.364746,0
63630,0.396484,-0.837402,0.326172,0
63670,0.510254,-0.838379,0.276367,0
63700,0.504395,-0.854492,0.214355,0
63720,0.525391,-0.849609,0.185059,0
63740,0.612793,-0.837402,0.214355,0
63760,0.577148,-0.791992,0.181641,0
63780,0.562012,-0.827148,0.135742,0
63800,0.625977,-0.808105,0.197754,0
63820,0.675781,-0.790527,0.216309,0
63840,0.645996,-0.745605,0.174316,0
63850,0.644043,-0.754883,0.140137,0
63850,0.707031,-0.739746,0.211914,0
63870,0.727539,-0.717773,0.224121,0
63890,0.70459,-0.667969,0.178711,0
63910,0.743164,-0.662109,0.15332,0
63950,0.812988,-0.680664,0.224121,0
63980,0.837402,-0.677734,0.228027,0
64000,0.879883,-0.634766,0.207031,0
64020,0.87207,-0.59375,0.177734,0
64040,0.893555,-0.595703,0.167969,0
64060,0.929688,-0.610352,0.226562,0
64080,0.907227,-0.609375,0.238281,0
64100,0.891113,-0.55127,0.246094,0
64120,0.90625,-0.507324,0.253418,0
64140,0.912109,-0.500977,0.241211,0
64160,0.942383,-0.515137,0.25,0
64180,0.942871,-0.496094,0.305664,0
64200,0.938477,-0.481445,0.324707,0
64220,0.882324,-0.455078,0.307617,0
64240,0.890625,-0.45459,0.301758,0
64260,0.909668,-0.437988,0.31543,0
64280,0.941895,-0.436523,0.298828,0
64300,0.961914,-0.432129,0.291016,0
64320,0.973633,-0.428223,0.306152,0
64340,0.964844,-0.447754,0.308594,0
64360,0.927734,-0.442383,0.31543,0
64380,0.919922,-0.395996,0.303223,0
64400,0.936523,-0.383789,0.300781,0
64420,0.937012,-0.390137,0.335938,0
64440,0.901855,-0.452637,0.343262,0
64460,0.883301,-0.475586,0.330078,0
64480,0.86377,-0.463867,0.289062,0
64500,0.880859,-0.400879,0.264648,0
64520,0.915039,-0.39502,0.299316,0
64540,0.954102,-0.483887,0.351562,0
64560,0.940918,-0.572266,0.424316,0
64580,0.858887,-0.54248,0.460938,0
64600,0.729492,-0.480957,0.442871,0
64620,0.670898,-0.413086,0.483887,0
64640,0.677734,-0.47998,0.527344,0
64660,0.679688,-0.537109,0.490234,0
64680,0.65625,-0.512207,0.506836,0
64700,0.657227,-0.481445,0.529297,0
64720,0.685059,-0.480469,0.492188,0
64740,0.63916,-0.519531,0.506836,0
64760,0.533691,-0.558105,0.490234,0
64780,0.576172,-0.625977,0.371582,0
64790,0.760254,-0.636719,0.418457,0
64830,0.370117,-0.666992,0.53418,0
64840,0.380859,-0.620117,0.51709,0
64860,0.446777,-0.529785,0.572266,0
64880,0.375977,-0.608887,0.536133,0
64890,0.419922,-0.737305,0.519043,0
64910,0.483398,-0.722656,0.558105,0
64920,0.291992,-0.699219,0.472168,0
64940,0.43457,-0.771973,0.444824,0
64960,0.521484,-0.773926,0.494629,0
64980,0.437012,-0.746094,0.500977,0
65000,0.395996,-0.703613,0.46875,0
65020,0.38916,-0.756348,0.438477,0
65040,0.483398,-0.839355,0.417969,0
65060,0.607422,-0.84375,0.467773,0
65080,0.52002,-0.820312,0.4375,0
65100,0.476074,-0.843262,0.383789,0
65120,0.592773,-0.881836,0.421875,0
65140,0.546387,-0.897949,0.45459,0
65160,0.516113,-0.894043,0.366699,0
65180,0.562988,-0.876953,0.322266,0
65200,0.563477,-0.838867,0.374512,0
65220,0.478516,-0.855469,0.376465,0
65240,0.450684,-0.90332,0.327637,0
65260,0.475586,-0.87207,0.29248,0
65280,0.494629,-0.822754,0.297852,0
65300,0.499023,-0.824219,0.305176,0
65320,0.431641,-0.811523,0.249512,0
65340,0.42334,-0.837891,0.205566,0
65360,0.503906,-0.858887,0.20752,0
65380,0.549805,-0.84668,0.202148,0
65400,0.511719,-0.851074,0.129395,0
65420,0.531738,-0.871094,0.112793,0
65440,0.533203,-0.875977,0.111328,0
65460,0.490723,-0.854004,0.109375,0
65480,0.520508,-0.854004,0.0488281,0
65500,0.59082,-0.833984,-0.0371094,0
65520,0.563477,-0.857422,-0.0283203,0
65540,0.495117,-0.888184,0.0161133,0
65560,0.533691,-0.890625,-0.0175781,0
65580,0.595215,-0.841797,-0.0737305,0
65610,0.544434,-0.807129,0.0239258,0
65630,0.576172,-0.772461,-0.0244141,0
65650,0.651367,-0.72168,-0.0800781,0
65670,0.708008,-0.766113,-0.0776367,0
65690,0.73584,-0.786133,-0.104004,0
65710,0.735352,-0.791504,-0.108887,0
65730,0.72168,-0.760742,-0.121094,0
65750,0.748047,-0.724121,-0.17627,0
65770,0.801758,-0.697754,-0.168945,0
65790,0.81543,-0.695801,-0.135254,0
65810,0.856445,-0.671875,-0.168945,0
65830,0.883301,-0.629883,-0.143555,0
65850,0.873535,-0.491211,-0.150391,0
65860,0.862305,-0.494141,-0.0913086,0
65880,0.899414,-0.47168,-0.0751953,0
65900,0.924805,-0.446777,-0.0556641,0
65920,0.928223,-0.424316,-0.00341797,0
65940,0.922363,-0.427734,-0.0239258,0
65960,0.962402,-0.422363,0.00537109,0
65970,1.01953,-0.400879,0.0625,0
66010,0.967773,-0.399902,0.0742188,0
66030,1.00879,-0.375488,0.115234,0
66060,0.989258,-0.397949,0.223145,0
66100,0.977539,-0.39502,0.240234,0
66120,1.021,-0.424805,0.231445,0
66140,1.00732,-0.451172,0.31543,0
66160,0.927246,-0.435547,0.359863,0
66180,0.874023,-0.454102,0.404785,0
66200,0.858887,-0.492188,0.365234,0
66220,0.864258,-0.57666,0.354004,0
66240,0.86084,-0.56543,0.444336,0
66260,0.793457,-0.515137,0.453613,0
66280,0.699219,-0.486816,0.429688,0
66300,0.706055,-0.638184,0.432617,0
66320,0.713867,-0.701172,0.433105,0
66340,0.608887,-0.624512,0.427734,0
66360,0.54248,-0.583496,0.401367,0
66380,0.641113,-0.650391,0.397949,0
66400,0.692383,-0.729492,0.444824,0
66420,0.668457,-0.780273,0.397461,0
66440,0.695801,-0.712402,0.391602,0
66460,0.638672,-0.67041,0.375,0
66480,0.554688,-0.710449,0.364746,0
66500,0.511719,-0.785645,0.293457,0
66520,0.688477,-0.805176,0.295898,0
66540,0.676758,-0.728516,0.348633,0
66560,0.45166,-0.709473,0.277344,0
66580,0.490234,-0.742676,0.233398,0
66590,0.545898,-0.776855,0.258301,0
66610,0.432617,-0.786133,0.241211,0
66630,0.474609,-0.728516,0.227051,0
66650,0.486816,-0.719238,0.23291,0
66670,0.513184,-0.862305,0.217773,0
66690,0.591797,-0.900391,0.203613,0
66710,0.520996,-0.873047,0.131836,0
66730,0.479004,-0.812012,0.0888672,0
66750,0.5,-0.816406,0.09375,0
66760,0.554199,-0.86377,0.0981445,0
66790,0.567383,-0.902832,0.0771484,0
66810,0.577637,-0.860352,0.0341797,0
66830,0.598633,-0.844727,0.0214844,0
66850,0.57373,-0.844727,0.0419922,0
66870,0.526367,-0.831543,0.0449219,0
66890,0.59082,-0.824219,-0.00683594,0
66910,0.663574,-0.849121,-0.027832,0
66930,0.626953,-0.822754,-0.0268555,0
66950,0.648926,-0.760254,-0.0517578,0
66970,0.716309,-0.754883,-0.125977,0
66990,0.758789,-0.783691,-0.130371,0
67010,0.719238,-0.785156,-0.118652,0
67030,0.68457,-0.73584,-0.155762,0
67050,0.729004,-0.695312,-0.239746,0
67070,0.763672,-0.699707,-0.243652,0
67090,0.73877,-0.711914,-0.185059,0
67110,0.700195,-0.696289,-0.231445,0
67130,0.744141,-0.640625,-0.266113,0
67150,0.791016,-0.625488,-0.282715,0
67170,0.780762,-0.641602,-0.252441,0
67190,0.762695,-0.650391,-0.26123,0
67210,0.805664,-0.612305,-0.310059,0
67230,0.855469,-0.568359,-0.32373,0
67250,0.858398,-0.581055,-0.312988,0
67270,0.792969,-0.61377,-0.260254,0
67290,0.788574,-0.602539,-0.300293,2001
67310,0.853027,-0.564453,-0.32959,0
67330,0.882812,-0.493164,-0.285156,0
67350,0.825684,-0.467773,-0.249023,0
67370,0.78418,-0.542969,-0.282715,0
67390,0.791504,-0.59668,-0.271484,0
67410,0.833984,-0.52002,-0.242188,0
67430,0.806152,-0.470215,-0.212891,0
67450,0.738281,-0.478516,-0.15918,0
67490,0.608887,-0.473145,-0.0966797,0
67510,0.621094,-0.452148,-0.0859375,0
67530,0.614258,-0.460938,0.0400391,0
67550,0.610352,-0.45166,0.0786133,0
67570,0.641113,-0.473145,0.0161133,0
67610,0.833496,-0.618652,0.129395,0
67630,0.891602,-0.710449,0.00976562,0
67650,0.993164,-0.724121,0.0585938,0
67670,1.0918,-0.746094,0.187988,0
67690,1.01904,-0.798828,0.182129,0
67720,0.95459,-0.916992,0.145508,0
67750,0.70459,-0.834473,0.598145,0
67790,0.344727,-0.73584,0.596191,0
67810,0.376953,-0.778809,0.611816,0
