Timestamp, Acceleration x, Acceleration y, Acceleration z, Marker
30,-0.298828,-0.391113,0.814941,0
50,-0.30127,-0.392578,0.810059,0
70,-0.299805,-0.390625,0.808594,0
90,-0.299805,-0.383301,0.801758,0
110,-0.300781,-0.393555,0.796875,0
130,-0.30127,-0.391113,0.802734,0
150,-0.305664,-0.388672,0.810547,0
170,-0.297852,-0.39209,0.816406,0
190,-0.299805,-0.393555,0.813477,0
210,-0.296875,-0.394043,0.806152,0
230,-0.300781,-0.392578,0.809082,0
240,-0.303223,-0.396484,0.813477,0
240,-0.30127,-0.392578,0.804199,0
280,-0.305176,-0.393555,0.800293,0
290,-0.306152,-0.394043,0.79834,0
310,-0.311523,-0.398926,0.806641,0
330,-0.310547,-0.395508,0.806641,0
350,-0.309082,-0.395508,0.799316,0
370,-0.309082,-0.402832,0.794922,0
390,-0.304199,-0.394043,0.803223,0
410,-0.308594,-0.389648,0.809082,0
430,-0.305664,-0.398438,0.796875,0
450,-0.307129,-0.398438,0.801758,0
470,-0.305664,-0.394043,0.805664,0
490,-0.302734,-0.39502,0.804199,0
510,-0.303711,-0.393555,0.796875,0
520,-0.305664,-0.385742,0.797852,0
540,-0.308105,-0.385254,0.802246,0
560,-0.312988,-0.394531,0.797363,0
580,-0.3125,-0.394043,0.799805,0
600,-0.30957,-0.39502,0.797852,0
620,-0.312012,-0.408203,0.800293,0
640,-0.318359,-0.455078,0.802246,0
660,-0.337402,-0.422363,0.848633,0
680,-0.443359,-0.36084,0.901855,0
700,-0.450195,-0.435547,0.836914,0
720,-0.472656,-0.345703,0.87207,0
740,-0.472656,-0.448242,0.844727,0
760,-0.400879,-0.643066,0.811035,0
780,-0.367676,-0.713867,0.910156,0
800,-0.157227,-0.655273,0.989746,0
840,0.18457,-0.617188,0.967773,0
860,0.264648,-0.624512,0.956055,0
880,0.358887,-0.625977,0.904297,0
910,0.541992,-0.597168,0.798828,0
930,0.621094,-0.511719,0.68457,0
950,0.723145,-0.475098,0.591797,0
970,0.766602,-0.40332,0.595703,0
990,0.717773,-0.352539,0.540039,0
1010,0.76123,-0.328613,0.451172,0
1030,0.804199,-0.279785,0.377441,0
1060,0.799805,-0.217773,0.268066,0
1080,0.791016,-0.200684,0.199219,0
1100,0.749023,-0.172852,0.161621,0
1120,0.754883,-0.189453,0.120117,0
1140,0.733887,-0.161621,0.059082,0
1160,0.77832,-0.175781,0.0244141,0
1180,0.756836,-0.180664,0.0161133,0
1200,0.790527,-0.160645,-0.0703125,0
1220,0.775391,-0.154785,-0.155762,0
1230,0.854004,-0.146973,-0.189453,0
1250,0.875977,-0.0917969,-0.216309,0
1270,0.897461,-0.0664062,-0.250488,0
1290,0.92627,-0.0791016,-0.290527,0
1310,0.919922,-0.0766602,-0.303711,0
1330,0.878418,-0.0517578,-0.298828,0
1350,0.866699,-0.027832,-0.291016,0
1370,0.831543,-0.0673828,-0.348633,0
1390,0.791016,-0.110352,-0.373047,0
1410,0.792969,-0.0947266,-0.358398,0
1430,0.786621,-0.106445,-0.39502,0
1450,0.803223,-0.10791,-0.453613,0
1470,0.838379,-0.124512,-0.472656,0
1490,0.856445,-0.149902,-0.467773,0
1510,0.858398,-0.152344,-0.452148,0
1530,0.882812,-0.150879,-0.428223,0
1550,0.921875,-0.142578,-0.441406,0
1570,0.947754,-0.143555,-0.489258,0
1590,0.92334,-0.131836,-0.457031,0
1610,0.901367,-0.139648,-0.470703,0
1630,0.879395,-0.124512,-0.43457,0
1650,0.857422,-0.114746,-0.391113,0
1670,0.833008,-0.104492,-0.361816,0
1690,0.842773,-0.117676,-0.379395,0
1710,0.842285,-0.159668,-0.434082,0
1730,0.858887,-0.174316,-0.438965,0
1750,0.891602,-0.163574,-0.408691,0
1770,0.95166,-0.165527,-0.391602,0
1790,0.894531,-0.165039,-0.391602,0
1810,0.881836,-0.16748,-0.404785,0
1830,0.878906,-0.16748,-0.387207,0
1850,0.919434,-0.155762,-0.382324,0
1870,0.925781,-0.144043,-0.387207,0
1890,0.914551,-0.13916,-0.404297,0
1910,0.900391,-0.13916,-0.408691,0
1930,0.914551,-0.142578,-0.395996,0
1950,0.941895,-0.143555,-0.387695,0
1970,0.945801,-0.140625,-0.390625,0
1990,0.944824,-0.140137,-0.412109,0
2010,0.937988,-0.136719,-0.416504,0
2030,0.922363,-0.137695,-0.404785,0
2050,0.910156,-0.131348,-0.390137,0
2070,0.904297,-0.133789,-0.387695,0
2090,0.897949,-0.131836,-0.38916,0
2110,0.90332,-0.124512,-0.395508,0
2130,0.928223,-0.133301,-0.391113,0
2150,0.92334,-0.134766,-0.387207,0
2170,0.92334,-0.128418,-0.390137,0
2190,0.940918,-0.129883,-0.371582,0
2210,0.950684,-0.129395,-0.362793,0
2230,0.92041,-0.132324,-0.398926,0
2250,0.894531,-0.112305,-0.410645,0
2270,0.883789,-0.121582,-0.379883,0
2290,0.870117,-0.142578,-0.380859,0
2310,0.85498,-0.14209,-0.39209,0
2330,0.854492,-0.108887,-0.382812,0
2350,0.890625,-0.113281,-0.395508,0
2370,0.938477,-0.127441,-0.396484,0
2390,0.939941,-0.13623,-0.402832,0
2400,0.933105,-0.128418,-0.409668,0
2410,0.932617,-0.154297,-0.414551,0
2430,0.950195,-0.177246,-0.420898,0
2440,0.939453,-0.208496,-0.42041,0
2460,0.901367,-0.151367,-0.389648,0
2480,0.918945,-0.140137,-0.41748,0
2500,0.915039,-0.144531,-0.404297,0
2520,0.926758,-0.149414,-0.384766,0
2540,0.913574,-0.138672,-0.370605,0
2560,0.894043,-0.128906,-0.361328,0
2580,0.882324,-0.128418,-0.378906,0
2600,0.890625,-0.142578,-0.380371,0
2620,0.887207,-0.149902,-0.370117,0
2640,0.902344,-0.153809,-0.369629,0
2660,0.901855,-0.148438,-0.354004,0
2680,0.90625,-0.148926,-0.363281,0
2700,0.911621,-0.149902,-0.356445,0
2720,0.911133,-0.157227,-0.364746,0
2740,0.919434,-0.163574,-0.356445,0
2760,0.918945,-0.152344,-0.347168,0
2780,0.92334,-0.156738,-0.354004,0
2800,0.918457,-0.152832,-0.359863,0
2820,0.919434,-0.156738,-0.369629,0
2840,0.936035,-0.158691,-0.366211,0
2860,0.952637,-0.17041,-0.369629,0
2880,0.938965,-0.171875,-0.374023,0
2900,0.922363,-0.1875,-0.366211,0
2920,0.895508,-0.179688,-0.35498,0
2940,0.873535,-0.186035,-0.365723,0
2960,0.880859,-0.178223,-0.365723,0
2980,0.895996,-0.162598,-0.365723,0
3000,0.903809,-0.148438,-0.38623,0
3030,0.941406,-0.135742,-0.394043,0
3050,0.929199,-0.131836,-0.389648,0
3070,0.901367,-0.132812,-0.403809,0
3090,0.893555,-0.137207,-0.392578,0
3090,0.900391,-0.168457,-0.407715,0
3110,0.916504,-0.168457,-0.427246,0
3130,0.907715,-0.149902,-0.411133,0
3150,0.933105,-0.141602,-0.408203,0
3170,0.934082,-0.150879,-0.417969,0
3220,0.890625,-0.164062,-0.396973,0
3240,0.865723,-0.167969,-0.389648,0
3260,0.864746,-0.147949,-0.383301,0
3280,0.869629,-0.145508,-0.370605,0
3300,0.877441,-0.142578,-0.368652,0
3320,0.887695,-0.147949,-0.387207,0
3340,0.888184,-0.151855,-0.421387,0
3360,0.884277,-0.140137,-0.425781,0
3380,0.90625,-0.154785,-0.416016,0
3400,0.905273,-0.13916,-0.394043,0
3420,0.914062,-0.143066,-0.400879,0
3440,0.908691,-0.164551,-0.452637,0
3460,0.905762,-0.176758,-0.45752,0
3460,0.907715,-0.165039,-0.437988,0
3480,0.921875,-0.171875,-0.470215,0
3500,0.935547,-0.172363,-0.473145,0
3520,0.977051,-0.17627,-0.44043,0
3540,0.962891,-0.182129,-0.400879,0
3560,0.897461,-0.162598,-0.359863,0
3580,0.856934,-0.162109,-0.350586,0
3600,0.832031,-0.177734,-0.355469,0
3620,0.798828,-0.176758,-0.349609,0
3640,0.801758,-0.163574,-0.350098,0
3660,0.841797,-0.161621,-0.371094,0
3680,0.888672,-0.171387,-0.413574,0
3700,0.926758,-0.1875,-0.430176,0
3720,0.937988,-0.182617,-0.443848,0
3740,0.982422,-0.199219,-0.46582,0
3780,0.915527,-0.195312,-0.406738,0
3800,0.922363,-0.178711,-0.393066,0
3820,0.92627,-0.151367,-0.368652,0
3840,0.914551,-0.137695,-0.371094,0
3860,0.911133,-0.151367,-0.369629,0
3880,0.912598,-0.165527,-0.35498,0
3900,0.906738,-0.18457,-0.355957,0
3920,0.889648,-0.205566,-0.355469,0
3940,0.877441,-0.216309,-0.342773,0
3960,0.876465,-0.22998,-0.354492,0
3980,0.89502,-0.220703,-0.36377,0
4000,0.901367,-0.217285,-0.379395,0
4020,0.900879,-0.213867,-0.374512,0
4040,0.907715,-0.200684,-0.380859,0
4060,0.905762,-0.19043,-0.383301,0
4080,0.904297,-0.175781,-0.371094,0
4100,0.90332,-0.165527,-0.368164,0
4120,0.898438,-0.166504,-0.387207,0
4140,0.902344,-0.165039,-0.404785,0
4160,0.90625,-0.174316,-0.408691,0
4180,0.932617,-0.174316,-0.394531,0
4200,0.908203,-0.196777,-0.394531,0
4220,0.902344,-0.207031,-0.371094,0
4240,0.884277,-0.224121,-0.367676,0
4250,0.874512,-0.216309,-0.360352,0
4270,0.862793,-0.211914,-0.357422,0
4290,0.868164,-0.206543,-0.362793,0
4310,0.862793,-0.202148,-0.366699,0
4330,0.869629,-0.197266,-0.375488,0
4350,0.879883,-0.191895,-0.375488,0
4370,0.891602,-0.169922,-0.370117,0
4390,0.915527,-0.167969,-0.375488,0
4410,0.935547,-0.171387,-0.384277,0
4430,0.956543,-0.162109,-0.377441,0
4450,0.981445,-0.153809,-0.381348,0
4470,0.988281,-0.148926,-0.384766,0
4490,0.981934,-0.134766,-0.376465,0
4510,0.950195,-0.129395,-0.374023,0
4530,0.933594,-0.146973,-0.37793,0
4550,0.891113,-0.175781,-0.358398,0
4570,0.867676,-0.209473,-0.343262,0
4590,0.861816,-0.224121,-0.327148,0
4610,0.873047,-0.245117,-0.337402,0
4630,0.883301,-0.241699,-0.333984,0
4650,0.901367,-0.253418,-0.345703,0
4670,0.918945,-0.234863,-0.359863,0
4690,0.937988,-0.193359,-0.356934,0
4710,0.941895,-0.144043,-0.352539,0
4730,0.932617,-0.146973,-0.354492,0
4750,0.924316,-0.154785,-0.387207,0
4770,0.917969,-0.179688,-0.411133,0
4790,0.908203,-0.217285,-0.387695,0
4810,0.901367,-0.220703,-0.380371,0
4820,0.904785,-0.232422,-0.367188,0
4840,0.904297,-0.236328,-0.369141,0
4860,0.884277,-0.236328,-0.366211,0
4880,0.90918,-0.225586,-0.381836,0
4900,0.911621,-0.223145,-0.363281,0
4910,0.916992,-0.21582,-0.366211,0
4930,0.932617,-0.189941,-0.379883,0
4950,0.908203,-0.193848,-0.37207,0
4960,0.91748,-0.210449,-0.379883,0
4980,0.909668,-0.20752,-0.384277,0
5000,0.896484,-0.203613,-0.379395,0
5020,0.88623,-0.218262,-0.375977,0
5040,0.894531,-0.227051,-0.371094,0
5060,0.883301,-0.214844,-0.351074,0
5080,0.866211,-0.198242,-0.342773,0
5100,0.84375,-0.202637,-0.337891,0
5120,0.789551,-0.20166,-0.318848,0
5140,0.738281,-0.212891,-0.304688,0
5160,0.679688,-0.234863,-0.271484,0
5180,0.651367,-0.237305,-0.261719,0
5200,0.609863,-0.232422,-0.273926,0
5210,0.557129,-0.219727,-0.290039,0
5230,0.501953,-0.213867,-0.262695,0
5250,0.455566,-0.177246,-0.147949,0
5260,0.518555,-0.100098,0.0253906,0
5270,0.550781,-0.0893555,0.105469,0
5290,0.598633,-0.13623,0.0947266,0
5310,0.674316,-0.200195,0.0625,0
5330,0.844727,-0.209473,0.205078,0
5350,0.971191,-0.251465,0.424316,0
5370,0.955566,-0.356445,0.430176,0
5390,0.922363,-0.456055,0.316895,0
5410,1.07764,-0.487793,0.271484,0
5430,1.24951,-0.476074,0.442383,0
5450,1.18555,-0.546387,0.520996,0
5470,0.84082,-0.629395,0.498535,0
5490,0.713867,-0.587891,0.688477,0
5510,0.710938,-0.584961,0.879883,0
5530,0.648438,-0.655273,0.902344,0
5550,0.387695,-0.609375,0.873047,0
5570,-0.0253906,-0.639648,0.848633,0
5590,-0.412598,-0.595215,0.938477,0
5610,-0.415039,-0.647949,0.836426,0
5630,-0.317383,-0.602539,0.764648,0
5650,-0.44873,-0.529785,0.727051,0
5670,-0.622559,-0.666016,0.838867,0
5690,-0.743164,-0.890625,1.17041,0
5710,-0.416504,-0.896973,0.775391,0
5730,-0.175293,-0.791992,0.685059,0
5750,-0.245605,-0.701172,0.783203,0
5770,-0.247559,-0.639648,0.668457,0
5790,-0.332031,-0.46875,0.550293,0
5810,-0.410156,-0.393066,0.580566,0
5830,-0.358398,-0.480957,0.661621,0
5850,-0.367676,-0.574219,0.740723,0
5870,-0.31543,-0.632324,0.837891,0
5890,-0.249512,-0.624512,0.84668,0
5910,-0.230957,-0.605957,0.807129,0
5930,-0.251465,-0.55957,0.737305,0
5950,-0.309082,-0.533691,0.696289,0
5970,-0.359863,-0.527832,0.717773,0
5990,-0.32959,-0.512207,0.695312,0
6010,-0.259766,-0.525879,0.640137,0
6030,-0.242188,-0.527344,0.618652,0
6050,-0.28125,-0.521973,0.647461,0
6070,-0.28125,-0.538086,0.682617,0
6090,-0.23877,-0.553711,0.684082,0
6110,-0.229492,-0.559082,0.69043,0
6130,-0.237305,-0.54834,0.711914,0
6150,-0.22998,-0.546387,0.723145,0
6170,-0.206543,-0.55957,0.740723,0
6190,-0.195312,-0.566895,0.780273,0
6210,-0.212891,-0.556641,0.803223,0
6230,-0.288574,-0.524414,0.791992,0
6250,-0.355469,-0.487793,0.772949,0
6270,-0.342773,-0.476074,0.75,0
6290,-0.322266,-0.499023,0.729004,0
6310,-0.337402,-0.526367,0.733398,0
6330,-0.344727,-0.53125,0.729004,0
6350,-0.334473,-0.551758,0.740723,0
6370,-0.318359,-0.558594,0.740234,0
6390,-0.292969,-0.547852,0.723145,0
6410,-0.294434,-0.554688,0.712402,0
6430,-0.309082,-0.55957,0.699219,0
6450,-0.328125,-0.557129,0.703613,0
6470,-0.34082,-0.562988,0.703613,0
6490,-0.341797,-0.574707,0.702148,0
6510,-0.342285,-0.562988,0.697754,0
6530,-0.343262,-0.552246,0.702637,0
6550,-0.342773,-0.548828,0.695312,0
6570,-0.324219,-0.547852,0.699219,0
6590,-0.29834,-0.55127,0.707031,0
6610,-0.299805,-0.557617,0.711426,0
6630,-0.305664,-0.561035,0.711914,0
6650,-0.314453,-0.558105,0.711426,0
6670,-0.322266,-0.554199,0.714355,0
6690,-0.331055,-0.561035,0.703125,0
6710,-0.333496,-0.550781,0.700684,0
6730,-0.330566,-0.549805,0.705078,0
6750,-0.328125,-0.547852,0.697754,0
6770,-0.32666,-0.553223,0.69043,0
6790,-0.324707,-0.554199,0.688477,0
6810,-0.333008,-0.553223,0.693359,0
6830,-0.341797,-0.557617,0.699219,0
6850,-0.341797,-0.567871,0.706055,0
6870,-0.332031,-0.566406,0.708984,0
6890,-0.325684,-0.567871,0.708008,0
6910,-0.314941,-0.553223,0.724609,0
6930,-0.30957,-0.547363,0.721191,0
6950,-0.310547,-0.54248,0.722168,0
6970,-0.310059,-0.533203,0.728027,0
6990,-0.314453,-0.53418,0.71875,0
7010,-0.328125,-0.54834,0.714844,0
7030,-0.340332,-0.548828,0.713379,0
7050,-0.32959,-0.541992,0.714844,0
7070,-0.322266,-0.538574,0.718262,0
7090,-0.317871,-0.538574,0.719238,0
7110,-0.313477,-0.535156,0.727051,0
7130,-0.306641,-0.541992,0.71582,0
7150,-0.3125,-0.553223,0.720215,0
7170,-0.323242,-0.557129,0.714355,0
7190,-0.318848,-0.546387,0.713379,0
7210,-0.331543,-0.544922,0.714355,0
7230,-0.335449,-0.542969,0.708984,0
7250,-0.333008,-0.550781,0.709473,0
7270,-0.325684,-0.554688,0.705566,0
7290,-0.323242,-0.561035,0.708984,0
7310,-0.319824,-0.548828,0.715332,0
7330,-0.316895,-0.538574,0.725098,0
7350,-0.320312,-0.536621,0.723145,0
7370,-0.322266,-0.535645,0.720703,0
7390,-0.320801,-0.538086,0.714355,0
7410,-0.320801,-0.541016,0.715332,0
7430,-0.320312,-0.543945,0.716309,0
7450,-0.320801,-0.538086,0.717773,0
7470,-0.316406,-0.538574,0.720215,0
7490,-0.316895,-0.538086,0.726074,0
7510,-0.315918,-0.541504,0.724121,0
7530,-0.313477,-0.541016,0.719727,0
7550,-0.319824,-0.540039,0.715332,0
7570,-0.325195,-0.541992,0.71875,0
7580,-0.327637,-0.539062,0.71875,0
7600,-0.329102,-0.54248,0.715332,0
7620,-0.325684,-0.541992,0.717773,0
7640,-0.323242,-0.543945,0.712891,0
7660,-0.318359,-0.54248,0.712891,0
7680,-0.324219,-0.546387,0.714844,0
7700,-0.321289,-0.54541,0.709473,0
7720,-0.325195,-0.540039,0.711426,0
7740,-0.32373,-0.544922,0.716309,0
7760,-0.322266,-0.545898,0.718262,0
7780,-0.318359,-0.540039,0.722656,0
7800,-0.314941,-0.541992,0.721191,0
7820,-0.313477,-0.542969,0.725586,0
7840,-0.312012,-0.543457,0.717773,0
7860,-0.319336,-0.535645,0.71875,0
7880,-0.323242,-0.544434,0.714844,0
7900,-0.314453,-0.543945,0.719727,0
7920,-0.32373,-0.537109,0.719238,0
7940,-0.321777,-0.54248,0.718262,0
7960,-0.324219,-0.541992,0.71875,0
7980,-0.327148,-0.546875,0.717285,0
8000,-0.32373,-0.544434,0.709961,0
8020,-0.325195,-0.544434,0.717773,0
8040,-0.319824,-0.54541,0.718262,0
8060,-0.320801,-0.538086,0.716309,0
8080,-0.316895,-0.54248,0.721191,0
8100,-0.320312,-0.542969,0.71875,0
8120,-0.318359,-0.532715,0.720703,0
8140,-0.312988,-0.529297,0.719727,0
8160,-0.321289,-0.537109,0.722656,0
8180,-0.318848,-0.53418,0.723145,0
8200,-0.321289,-0.534668,0.716797,0
8220,-0.320801,-0.543457,0.718262,0
8240,-0.322266,-0.538086,0.725586,0
8260,-0.319824,-0.538086,0.722168,0
8280,-0.319824,-0.543945,0.719238,0
8300,-0.319824,-0.540527,0.720703,0
8320,-0.315918,-0.536133,0.718262,0
8340,-0.316406,-0.530273,0.715332,0
8360,-0.32666,-0.540527,0.724121,0
8380,-0.324219,-0.54248,0.716797,0
8400,-0.316895,-0.539551,0.721191,0
8420,-0.319336,-0.540527,0.720215,0
8440,-0.320801,-0.540039,0.717773,0
8460,-0.317383,-0.541992,0.720215,0
8480,-0.319824,-0.541504,0.714844,0
8500,-0.324219,-0.54248,0.712891,0
8520,-0.321289,-0.539551,0.712891,0
8540,-0.320312,-0.539062,0.720703,0
8560,-0.322266,-0.540039,0.727539,0
8580,-0.320312,-0.538086,0.726562,0
8600,-0.31543,-0.540039,0.715332,0
8620,-0.319336,-0.539551,0.714844,0
8640,-0.320801,-0.547852,0.725586,0
8660,-0.320801,-0.542969,0.713379,0
8680,-0.323242,-0.54248,0.720215,0
8700,-0.327148,-0.544434,0.714844,0
8720,-0.324707,-0.538086,0.719238,0
8740,-0.319336,-0.538574,0.713867,0
8760,-0.322754,-0.541504,0.719727,0
8780,-0.325684,-0.541016,0.716797,0
8800,-0.323242,-0.542969,0.717773,0
8820,-0.317871,-0.543945,0.719727,0
8840,-0.317383,-0.542969,0.720215,0
8860,-0.318359,-0.539551,0.716797,0
8880,-0.319824,-0.546387,0.71582,0
8900,-0.324707,-0.550293,0.710938,0
8920,-0.320801,-0.545898,0.71582,0
8940,-0.322754,-0.539062,0.722168,0
8960,-0.323242,-0.546387,0.717285,0
8980,-0.321777,-0.541992,0.711914,0
9000,-0.321289,-0.540039,0.720215,0
9020,-0.325195,-0.544922,0.712402,0
9040,-0.324707,-0.549805,0.713379,0
9060,-0.321777,-0.541016,0.711914,0
9080,-0.315918,-0.542969,0.714355,0
9100,-0.325684,-0.543945,0.713379,0
9120,-0.325195,-0.541016,0.718262,0
9140,-0.328125,-0.54248,0.712402,0
9160,-0.321777,-0.544922,0.724609,0
9180,-0.323242,-0.54541,0.722656,0
9200,-0.321289,-0.542969,0.714355,0
9220,-0.320312,-0.547363,0.715332,0
9240,-0.328125,-0.547852,0.710449,0
9260,-0.327637,-0.541992,0.715332,0
9280,-0.32373,-0.54248,0.708496,0
9300,-0.323242,-0.547852,0.710449,0
9320,-0.321289,-0.546387,0.714844,0
9340,-0.322754,-0.549316,0.718262,0
9360,-0.322266,-0.542969,0.717285,0
9380,-0.32373,-0.54541,0.717773,0
9400,-0.322754,-0.54541,0.709961,0
9420,-0.324707,-0.54541,0.715332,0
9440,-0.321777,-0.549805,0.711914,0
9460,-0.321777,-0.543457,0.716309,0
9480,-0.319824,-0.546875,0.717773,0
9500,-0.318359,-0.552246,0.713379,0
9520,-0.325195,-0.54248,0.72168,0
9540,-0.324219,-0.547852,0.712402,0
9560,-0.324707,-0.549805,0.714355,0
9570,-0.326172,-0.547852,0.715332,0
9590,-0.323242,-0.54248,0.716309,0
9610,-0.320312,-0.54541,0.717773,0
9630,-0.328613,-0.547852,0.715332,0
9650,-0.319336,-0.543457,0.717773,0
9670,-0.316895,-0.543457,0.710449,0
9690,-0.325684,-0.54541,0.709473,0
9710,-0.324707,-0.548828,0.719727,0
9730,-0.32373,-0.541016,0.714355,0
9750,-0.321289,-0.543945,0.713867,0
9770,-0.32666,-0.54248,0.717773,0
9790,-0.325684,-0.544434,0.713867,0
9810,-0.323242,-0.547852,0.713867,0
9830,-0.324219,-0.547363,0.715332,0
9850,-0.322754,-0.538574,0.719727,0
9870,-0.320312,-0.542969,0.71582,0
9890,-0.330566,-0.54541,0.716309,0
9910,-0.327148,-0.55127,0.714355,0
9930,-0.32373,-0.55127,0.718262,0
9950,-0.324219,-0.549805,0.716309,0
9970,-0.327148,-0.540039,0.72168,0
9990,-0.323242,-0.541992,0.716797,0
10010,-0.324219,-0.541504,0.705566,0
10030,-0.323242,-0.543945,0.715332,0
10050,-0.32666,-0.548828,0.708496,0
10070,-0.325684,-0.545898,0.719238,0
10090,-0.32373,-0.545898,0.713379,0
10110,-0.327148,-0.543457,0.710938,0
10130,-0.32373,-0.540527,0.702148,0
10150,-0.32666,-0.546387,0.710449,0
10170,-0.32959,-0.542969,0.714844,0
10190,-0.327637,-0.543457,0.714844,0
10210,-0.324707,-0.540527,0.711426,0
10230,-0.327637,-0.542969,0.709473,0
10250,-0.329102,-0.54541,0.706055,0
10270,-0.32373,-0.541504,0.719727,0
10290,-0.325195,-0.543945,0.709961,0
10310,-0.327637,-0.540527,0.71875,0
10330,-0.328613,-0.541504,0.716797,0
10350,-0.325684,-0.541992,0.712891,0
10370,-0.325195,-0.545898,0.714355,0
10390,-0.327148,-0.543945,0.708984,0
10410,-0.319336,-0.539551,0.712402,0
10430,-0.32373,-0.541992,0.712402,0
10450,-0.324707,-0.543457,0.715332,0
10470,-0.326172,-0.53125,0.729492,0
10490,-0.334473,-0.533203,0.73584,0
10510,-0.339355,-0.546387,0.743164,0
10530,-0.34668,-0.560547,0.73291,0
10550,-0.350586,-0.562988,0.776367,0
10570,-0.326172,-0.587891,0.775391,0
10590,-0.344238,-0.600098,0.742188,0
10610,-0.303223,-0.567871,0.693359,0
10630,-0.264648,-0.515137,0.705566,0
10650,-0.266602,-0.518555,0.728516,0
10670,-0.303223,-0.626953,0.728516,0
10690,-0.277344,-0.698242,0.790039,0
10710,-0.223145,-0.630371,0.850586,0
10730,-0.164551,-0.602051,0.845215,0
10750,-0.107422,-0.581543,0.808594,0
10770,-0.0585938,-0.541992,0.812988,0
10790,0.00146484,-0.549805,0.819336,0
10810,0.0957031,-0.586914,0.78418,0
10830,0.108887,-0.621094,0.772949,0
10850,0.15332,-0.60498,0.757324,0
10870,0.194824,-0.569336,0.730469,0
10890,0.153809,-0.522949,0.734863,0
10910,0.097168,-0.48584,0.717773,0
10930,0.114258,-0.460449,0.703125,0
10960,0.145508,-0.47168,0.688965,0
10980,0.165039,-0.47998,0.679688,0
11000,0.21582,-0.489258,0.752441,0
11020,0.17041,-0.49707,0.758301,0
11050,0.155273,-0.494141,0.744141,0
11070,0.15332,-0.504883,0.741699,0
11090,0.150391,-0.498047,0.716797,0
11110,0.231445,-0.510254,0.686035,0
11130,0.319824,-0.527344,0.726074,0
11150,0.298828,-0.525879,0.717285,0
11170,0.259766,-0.503418,0.695312,0
11190,0.280762,-0.509277,0.677734,0
11210,0.325684,-0.521484,0.675781,0
11230,0.309082,-0.527344,0.675781,0
11250,0.279297,-0.51709,0.65625,0
11270,0.291992,-0.52832,0.643555,0
11290,0.317383,-0.549316,0.674805,0
11310,0.295898,-0.533203,0.66748,0
11330,0.309082,-0.550781,0.628418,0
11350,0.361816,-0.551758,0.640625,0
11370,0.416992,-0.532227,0.682129,0
11390,0.410645,-0.526855,0.686035,0
11410,0.401367,-0.540527,0.677734,0
11430,0.385742,-0.519531,0.664062,0
11450,0.378906,-0.51123,0.657715,0
11470,0.395996,-0.526855,0.633301,0
11490,0.418945,-0.532715,0.648438,0
11510,0.39502,-0.523438,0.657715,0
11530,0.37793,-0.50293,0.66748,0
11550,0.393555,-0.50293,0.634277,0
11590,0.448242,-0.52002,0.633301,0
11610,0.466797,-0.513184,0.639648,0
11630,0.48584,-0.509277,0.632812,0
11650,0.476074,-0.51416,0.631348,0
11670,0.433105,-0.516602,0.630371,0
11690,0.392578,-0.504883,0.658691,0
11710,0.374023,-0.521973,0.671875,0
11720,0.395996,-0.523438,0.678711,0
11740,0.385254,-0.507812,0.67334,0
11760,0.377441,-0.508301,0.669922,0
11770,0.356445,-0.52002,0.678711,0
11780,0.38916,-0.519531,0.666016,0
11800,0.399414,-0.519043,0.65918,0
11820,0.390625,-0.541016,0.653809,0
11840,0.384766,-0.529297,0.65918,0
11860,0.399902,-0.522461,0.652344,0
11870,0.418945,-0.53125,0.645508,0
11890,0.396973,-0.527344,0.658691,0
11910,0.375488,-0.522949,0.665039,0
11930,0.380859,-0.52002,0.646973,0
11950,0.392578,-0.510742,0.66748,0
11980,0.402344,-0.51416,0.67334,0
12000,0.410156,-0.524414,0.657227,0
12020,0.404785,-0.510254,0.65625,0
12040,0.404297,-0.515625,0.646484,0
12060,0.400391,-0.519531,0.65332,0
12080,0.388672,-0.516602,0.655273,0
12100,0.39209,-0.516113,0.652832,0
12140,0.358887,-0.514648,0.665039,0
12160,0.353516,-0.512207,0.667969,0
12180,0.323242,-0.510742,0.666016,0
12200,0.256836,-0.506836,0.654785,0
12220,0.190918,-0.494629,0.630371,0
12240,0.125,-0.478027,0.606445,0
12260,0.0854492,-0.455566,0.614258,0
12280,0.0805664,-0.427734,0.683105,0
12300,0.158691,-0.463379,0.654297,0
12320,0.229004,-0.475098,0.615723,0
12340,0.251465,-0.480469,0.658691,0
12360,0.189453,-0.411133,0.755371,0
12380,0.367188,-0.48584,0.720703,0
12400,0.458008,-0.500977,0.681641,0
12420,0.525391,-0.540527,0.6875,0
12440,0.486816,-0.561523,0.702637,0
12460,0.327637,-0.519531,0.71875,0
12480,0.160645,-0.54541,0.745605,0
12500,0.0913086,-0.752441,0.857422,0
12520,-0.237793,-0.666992,0.872559,0
12550,-0.30957,-0.764648,0.737305,0
12570,-0.272949,-0.69043,0.840332,0
12590,-0.435547,-0.612793,0.961914,0
12610,-0.319824,-0.486328,0.933105,0
12630,-0.277832,-0.415527,0.838379,0
12650,-0.378906,-0.367676,0.820312,0
12670,-0.307617,-0.410645,0.709473,0
12690,-0.292969,-0.413574,0.668945,0
12710,-0.336426,-0.441895,0.691406,0
12730,-0.335449,-0.466797,0.723145,0
12750,-0.33252,-0.485352,0.783691,0
12770,-0.316895,-0.487305,0.816406,0
12780,-0.277344,-0.475098,0.824219,0
12800,-0.276855,-0.479004,0.79541,0
12820,-0.257812,-0.501953,0.764648,0
12840,-0.248535,-0.498535,0.740723,0
12860,-0.270508,-0.506348,0.713379,0
12880,-0.314453,-0.514648,0.733887,0
12900,-0.319824,-0.475586,0.771973,0
12920,-0.293945,-0.475586,0.774414,0
12940,-0.296875,-0.481445,0.782227,0
12960,-0.293945,-0.45752,0.781738,0
12980,-0.312012,-0.495605,0.75293,0
13000,-0.31543,-0.499512,0.755371,0
13020,-0.306641,-0.501465,0.743164,0
13040,-0.320312,-0.518555,0.752441,0
13060,-0.291504,-0.466309,0.760742,0
13080,-0.28418,-0.511719,0.752441,0
13100,-0.263184,-0.496582,0.770996,0
13120,-0.267578,-0.489258,0.768555,0
13140,-0.287598,-0.487305,0.767578,0
13160,-0.290527,-0.477539,0.766113,0
13180,-0.282715,-0.484863,0.766113,0
13200,-0.266602,-0.488281,0.753418,0
13220,-0.277344,-0.493164,0.75,0
13240,-0.291992,-0.48584,0.751953,0
13260,-0.311035,-0.484863,0.748047,0
13280,-0.310059,-0.51416,0.745117,0
13300,-0.285156,-0.491699,0.758789,0
13320,-0.28125,-0.494141,0.745605,0
13340,-0.298828,-0.508301,0.744629,0
13360,-0.298828,-0.506836,0.748535,0
13380,-0.290527,-0.513184,0.760254,0
13400,-0.28125,-0.512695,0.763672,0
13420,-0.294434,-0.504883,0.758301,0
13440,-0.300293,-0.512207,0.749023,0
13460,-0.298828,-0.503418,0.752441,0
13480,-0.307129,-0.497559,0.748047,0
13500,-0.313477,-0.498047,0.755859,0
13520,-0.311035,-0.48877,0.73877,0
13540,-0.307617,-0.494141,0.75293,0
13560,-0.305664,-0.500488,0.754395,0
13580,-0.300781,-0.500977,0.767578,0
13600,-0.289062,-0.490723,0.757812,0
13620,-0.286621,-0.489258,0.760254,0
13640,-0.310059,-0.49707,0.756348,0
13660,-0.321289,-0.5,0.749023,0
13680,-0.304199,-0.489746,0.752441,0
13700,-0.296387,-0.497559,0.751465,0
13720,-0.295898,-0.493652,0.756836,0
13740,-0.299316,-0.490234,0.753906,0
13760,-0.29834,-0.48877,0.754883,0
13780,-0.303711,-0.484863,0.763672,0
13800,-0.305176,-0.482422,0.759277,0
13820,-0.305664,-0.486816,0.751953,0
13840,-0.319824,-0.494629,0.746582,0
13860,-0.310059,-0.487793,0.759766,0
13880,-0.296387,-0.475098,0.759766,0
13900,-0.291992,-0.48291,0.76123,0
13920,-0.297852,-0.479004,0.759766,0
13940,-0.304688,-0.490723,0.76123,0
13960,-0.312988,-0.49707,0.754883,0
13980,-0.305664,-0.492188,0.759766,0
14000,-0.300781,-0.495117,0.757324,0
14020,-0.300293,-0.483887,0.759277,0
14040,-0.305664,-0.487305,0.745117,0
14060,-0.311035,-0.496094,0.75,0
14080,-0.294922,-0.465332,0.76123,0
14100,-0.297852,-0.478516,0.755371,0
14120,-0.300293,-0.501953,0.754395,0
14140,-0.302246,-0.484375,0.753418,0
14160,-0.310547,-0.481934,0.754883,0
14180,-0.308594,-0.496094,0.756836,0
14200,-0.305176,-0.493652,0.75,0
14220,-0.291016,-0.484375,0.755371,0
14240,-0.304688,-0.483887,0.754883,0
14260,-0.299316,-0.480957,0.759277,0
14280,-0.299805,-0.481445,0.768555,0
14300,-0.307129,-0.489258,0.758789,0
14320,-0.305664,-0.496094,0.759277,0
14340,-0.300781,-0.492188,0.752441,0
14360,-0.297363,-0.489746,0.76123,0
14380,-0.300293,-0.490234,0.763672,0
14400,-0.306641,-0.487793,0.763184,0
14420,-0.30957,-0.484863,0.750488,0
14440,-0.306152,-0.495605,0.743652,0
14460,-0.308105,-0.491211,0.751465,0
14480,-0.306152,-0.481445,0.760742,0
14500,-0.299316,-0.486816,0.753418,0
14520,-0.296875,-0.486816,0.759766,0
14540,-0.304199,-0.488281,0.752441,0
14560,-0.311035,-0.488281,0.749023,0
14580,-0.304688,-0.487305,0.755371,0
14600,-0.305176,-0.489746,0.757812,0
14620,-0.302734,-0.484375,0.757812,0
14640,-0.303223,-0.490723,0.75293,0
14660,-0.309082,-0.5,0.757324,0
14680,-0.302246,-0.480957,0.749023,0
14700,-0.305176,-0.486328,0.758301,0
14720,-0.305664,-0.482422,0.754883,0
14740,-0.301758,-0.484375,0.753418,0
14760,-0.307617,-0.484863,0.760742,0
14770,-0.301758,-0.473633,0.77002,0
14790,-0.304688,-0.474121,0.769531,0
14810,-0.305664,-0.479004,0.769043,0
14830,-0.300293,-0.469727,0.769531,0
14850,-0.310059,-0.478027,0.761719,0
14870,-0.31543,-0.479492,0.76709,0
14890,-0.304688,-0.475586,0.766602,0
14910,-0.300293,-0.478516,0.768066,0
14930,-0.294922,-0.482422,0.759277,0
14950,-0.307129,-0.478027,0.760254,0
14970,-0.31543,-0.481934,0.761719,0
14990,-0.314941,-0.492676,0.758789,0
15010,-0.296387,-0.475098,0.759277,0
15030,-0.300293,-0.481934,0.757324,0
15050,-0.303711,-0.487305,0.755371,0
15070,-0.316895,-0.488281,0.756836,0
15090,-0.325684,-0.506836,0.748047,0
15110,-0.30957,-0.493164,0.76123,0
15130,-0.303711,-0.485352,0.76123,0
15150,-0.310547,-0.494141,0.736328,0
15170,-0.305664,-0.498047,0.755371,0
15190,-0.306152,-0.48291,0.760254,0
15210,-0.294434,-0.48584,0.75293,0
15230,-0.311035,-0.49707,0.749023,0
15250,-0.313965,-0.509277,0.748535,0
15270,-0.305176,-0.498535,0.746094,0
15290,-0.306152,-0.486816,0.749512,0
15310,-0.306152,-0.496582,0.750488,0
15330,-0.308594,-0.495117,0.75,0
15350,-0.304199,-0.493652,0.749023,0
15370,-0.305176,-0.48877,0.756836,0
15390,-0.30127,-0.492676,0.754395,0
15420,-0.302734,-0.48877,0.755371,0
15440,-0.311035,-0.498047,0.75,0
15460,-0.305176,-0.494141,0.748535,0
15480,-0.296875,-0.490723,0.75,0
15500,-0.304688,-0.481445,0.755859,0
15520,-0.319824,-0.492188,0.76123,0
15540,-0.310547,-0.48877,0.757812,0
15560,-0.301758,-0.486816,0.754883,0
15580,-0.293945,-0.484375,0.754395,0
15600,-0.29834,-0.476562,0.762695,0
15620,-0.312012,-0.482422,0.756836,0
15640,-0.319336,-0.485352,0.759277,0
15660,-0.307617,-0.48584,0.763184,0
15680,-0.295898,-0.484863,0.755859,0
15700,-0.303711,-0.491699,0.757812,0
15720,-0.311523,-0.476562,0.757812,0
15740,-0.3125,-0.480957,0.760254,0
15760,-0.318848,-0.478516,0.756836,0
15780,-0.308594,-0.492188,0.762695,0
15800,-0.299805,-0.470703,0.76123,0
15820,-0.305664,-0.467773,0.760254,0
15840,-0.308594,-0.480469,0.763672,0
15860,-0.306152,-0.48291,0.760742,0
15880,-0.297852,-0.48584,0.762207,0
15900,-0.291504,-0.486816,0.769531,0
15920,-0.290039,-0.48291,0.773438,0
15940,-0.296875,-0.47168,0.762207,0
15960,-0.302246,-0.46875,0.76416,0
15980,-0.31543,-0.466797,0.76709,0
16000,-0.313965,-0.477051,0.753418,0
16020,-0.314453,-0.483887,0.758789,0
16040,-0.314941,-0.485352,0.76123,0
16060,-0.310059,-0.48584,0.762207,0
16080,-0.304688,-0.473633,0.76416,0
16100,-0.303223,-0.477051,0.759277,0
16120,-0.30127,-0.477539,0.758789,0
16140,-0.303223,-0.47998,0.759277,0
16160,-0.304688,-0.478027,0.758301,0
16180,-0.314941,-0.470703,0.768555,0
16200,-0.310059,-0.464355,0.765625,0
16220,-0.300781,-0.466797,0.765625,0
16240,-0.29834,-0.471191,0.760254,0
16260,-0.30127,-0.476562,0.761719,0
16280,-0.304199,-0.473145,0.769043,0
16300,-0.298828,-0.474609,0.761719,0
16320,-0.305664,-0.475586,0.769531,0
16340,-0.305176,-0.469238,0.766113,0
16360,-0.310547,-0.470215,0.766602,0
16380,-0.310059,-0.477539,0.762207,0
16400,-0.309082,-0.476562,0.766602,0
16420,-0.307617,-0.472168,0.764648,0
16440,-0.307129,-0.479492,0.77002,0
16460,-0.309082,-0.479004,0.77002,0
16480,-0.312012,-0.467285,0.759766,0
16500,-0.314941,-0.470703,0.759766,0
16520,-0.320801,-0.474121,0.759766,0
16540,-0.314453,-0.472656,0.753906,0
16560,-0.30127,-0.475098,0.762695,0
16580,-0.301758,-0.485352,0.756836,0
16600,-0.296387,-0.475586,0.746094,0
16620,-0.295898,-0.46875,0.750488,0
16640,-0.278809,-0.47998,0.76709,0
16660,-0.267578,-0.48877,0.787109,0
16680,-0.27002,-0.469727,0.807617,0
16700,-0.287598,-0.448242,0.811035,0
16720,-0.31543,-0.446777,0.796387,0
16740,-0.335938,-0.434082,0.776367,0
16760,-0.361328,-0.429688,0.767578,0
16780,-0.378418,-0.455078,0.739258,0
16800,-0.354004,-0.495605,0.731445,0
16820,-0.32666,-0.517578,0.729004,0
16840,-0.307617,-0.524414,0.742676,0
16860,-0.30127,-0.516602,0.748535,0
16880,-0.298828,-0.491211,0.748535,0
16900,-0.286133,-0.487793,0.754395,0
16920,-0.29248,-0.494629,0.750488,0
16940,-0.306641,-0.499023,0.757324,0
16960,-0.314453,-0.505371,0.757324,0
16980,-0.331543,-0.513184,0.750488,0
17000,-0.331543,-0.498047,0.736328,0
17020,-0.333496,-0.492188,0.738281,0
17040,-0.32959,-0.491699,0.731934,0
17060,-0.325684,-0.501953,0.736328,0
17080,-0.330078,-0.500488,0.736816,0
17100,-0.32666,-0.50293,0.731445,0
17120,-0.322266,-0.507812,0.724121,0
17140,-0.328613,-0.517578,0.727051,0
17160,-0.338867,-0.51416,0.728516,0
17180,-0.344727,-0.519531,0.730469,0
17200,-0.338867,-0.51709,0.731934,0
17220,-0.334473,-0.510742,0.723633,0
17240,-0.33252,-0.509766,0.726562,0
17260,-0.332031,-0.507324,0.728516,0
17280,-0.325684,-0.498535,0.738281,0
17300,-0.318359,-0.507324,0.73877,0
17320,-0.32666,-0.511719,0.745117,0
17340,-0.333008,-0.506836,0.750977,0
17360,-0.333984,-0.498047,0.743652,0
17380,-0.333008,-0.503418,0.737793,0
17400,-0.340332,-0.509766,0.738281,0
17420,-0.339844,-0.505859,0.727051,0
17440,-0.345703,-0.510254,0.723633,0
17460,-0.342285,-0.51709,0.727539,0
17480,-0.338379,-0.513672,0.731934,0
17500,-0.338867,-0.515137,0.738281,0
17520,-0.335938,-0.514648,0.733398,0
17540,-0.336426,-0.514648,0.734375,0
17560,-0.328613,-0.507812,0.733887,0
17580,-0.334473,-0.507812,0.725586,0
17600,-0.334473,-0.51709,0.731934,0
17620,-0.335449,-0.509766,0.734375,0
17640,-0.338379,-0.506836,0.730957,0
17660,-0.341797,-0.507324,0.731934,0
17670,-0.34082,-0.499023,0.72998,0
17690,-0.339355,-0.499023,0.730469,0
17710,-0.337891,-0.508789,0.728516,0
17730,-0.345703,-0.510742,0.729004,0
17750,-0.342773,-0.513672,0.730469,0
17770,-0.341797,-0.513672,0.730469,0
17790,-0.342285,-0.516113,0.725098,0
17810,-0.339355,-0.507324,0.731934,0
17830,-0.346191,-0.511719,0.725098,0
17850,-0.351074,-0.512695,0.729492,0
17870,-0.348633,-0.515137,0.725098,0
17890,-0.345703,-0.508301,0.72998,0
17910,-0.345703,-0.506836,0.735352,0
17930,-0.349121,-0.504883,0.737793,0
17950,-0.350586,-0.50293,0.72998,0
17970,-0.347168,-0.506348,0.733887,0
17990,-0.344727,-0.50293,0.729492,0
18010,-0.340332,-0.500488,0.731934,0
18030,-0.333984,-0.500488,0.737793,0
18050,-0.332031,-0.501953,0.733398,0
18070,-0.332031,-0.501465,0.745117,0
18100,-0.336914,-0.494141,0.73584,0
18120,-0.333496,-0.495605,0.730469,0
18140,-0.334473,-0.495117,0.727051,0
18150,-0.334473,-0.494629,0.748535,0
18170,-0.339844,-0.496582,0.756348,0
18190,-0.345215,-0.493164,0.746094,0
18210,-0.338867,-0.492188,0.737793,0
18230,-0.333008,-0.5,0.730957,0
18250,-0.342773,-0.499512,0.742676,0
18270,-0.333984,-0.48291,0.72998,0
18290,-0.32666,-0.491211,0.730469,0
18310,-0.32666,-0.490723,0.741699,0
18330,-0.330566,-0.47998,0.748535,0
18350,-0.335938,-0.476074,0.751465,0
18370,-0.338379,-0.47998,0.749023,0
18390,-0.346191,-0.487793,0.745605,0
18410,-0.355469,-0.490234,0.744141,0
18430,-0.351562,-0.49707,0.73584,0
18450,-0.341797,-0.512207,0.742188,0
18470,-0.337891,-0.506836,0.745117,0
18490,-0.344727,-0.499512,0.742676,0
18510,-0.344238,-0.499512,0.734863,0
18530,-0.349121,-0.488281,0.744141,0
18550,-0.349609,-0.487793,0.730957,0
18570,-0.339844,-0.488281,0.737793,0
18590,-0.331055,-0.499512,0.736816,0
18610,-0.317383,-0.504395,0.737793,0
18630,-0.313965,-0.513672,0.746582,0
18650,-0.327637,-0.503418,0.744629,0
18670,-0.337891,-0.473145,0.745117,0
18690,-0.344727,-0.482422,0.738281,0
18710,-0.355957,-0.5,0.732422,0
18730,-0.349121,-0.513184,0.73291,0
18750,-0.324707,-0.511719,0.739746,0
18770,-0.317383,-0.510742,0.746094,0
18790,-0.310547,-0.494629,0.74707,0
18810,-0.321777,-0.475586,0.74707,0
18830,-0.334961,-0.475586,0.74707,0
18850,-0.34082,-0.496094,0.740723,0
18870,-0.350098,-0.5,0.736816,0
18890,-0.339355,-0.500488,0.735352,0
18910,-0.330566,-0.501953,0.742676,0
18930,-0.327148,-0.489258,0.75293,0
18950,-0.324219,-0.47998,0.757812,0
18970,-0.328125,-0.487305,0.750488,0
18990,-0.332031,-0.48584,0.744629,0
19010,-0.333496,-0.491211,0.742676,0
19030,-0.333008,-0.49707,0.742188,0
19050,-0.330078,-0.503418,0.744629,0
19070,-0.325684,-0.503906,0.753906,0
19090,-0.321289,-0.494629,0.741699,0
19110,-0.319824,-0.489258,0.748047,0
19130,-0.330566,-0.48291,0.749023,0
19150,-0.328125,-0.475586,0.756348,0
19170,-0.328613,-0.486328,0.752441,0
19190,-0.32373,-0.487793,0.748535,0
19210,-0.318848,-0.491211,0.75293,0
19230,-0.318848,-0.490723,0.74707,0
19250,-0.320801,-0.48584,0.750488,0
19270,-0.322266,-0.482422,0.751953,0
19290,-0.324707,-0.47998,0.755371,0
19310,-0.331055,-0.48877,0.749512,0
19330,-0.32959,-0.492188,0.748047,0
19350,-0.324219,-0.493164,0.751465,0
19370,-0.322754,-0.490723,0.75293,0
19390,-0.321289,-0.492188,0.753906,0
19410,-0.328613,-0.481934,0.755371,0
19430,-0.324707,-0.479492,0.755371,0
19450,-0.322266,-0.480957,0.75293,0
19470,-0.320801,-0.483887,0.75293,0
19490,-0.318848,-0.480957,0.756836,0
19510,-0.319336,-0.48584,0.748047,0
19530,-0.318848,-0.48584,0.754395,0
19550,-0.320312,-0.479492,0.755859,0
19570,-0.31543,-0.480469,0.754395,0
19590,-0.320801,-0.482422,0.754883,0
19610,-0.324707,-0.47998,0.753418,0
19630,-0.320312,-0.484863,0.748535,0
19650,-0.317383,-0.484863,0.757812,0
19670,-0.322266,-0.487305,0.752441,0
19690,-0.320312,-0.477539,0.750488,0
19710,-0.324219,-0.481445,0.752441,0
19730,-0.325195,-0.486328,0.745117,0
19750,-0.311523,-0.481445,0.750488,0
19770,-0.313477,-0.472656,0.755859,0
19790,-0.318848,-0.480469,0.757812,0
19810,-0.320312,-0.480957,0.757812,0
19830,-0.318359,-0.477539,0.753906,0
19850,-0.317383,-0.482422,0.751465,0
19870,-0.317383,-0.480469,0.756348,0
19890,-0.318359,-0.479492,0.755371,0
19910,-0.316895,-0.482422,0.754883,0
19930,-0.320801,-0.485352,0.756836,0
19950,-0.31543,-0.478516,0.756348,0
19970,-0.312988,-0.478027,0.757812,0
19990,-0.31543,-0.479004,0.757812,0
20010,-0.31543,-0.477539,0.761719,0
20030,-0.315918,-0.476562,0.754883,0
20050,-0.315918,-0.477539,0.75293,0
20070,-0.314941,-0.480469,0.758301,0
20090,-0.316895,-0.478516,0.757812,0
20110,-0.320801,-0.480469,0.758301,0
20130,-0.316406,-0.48291,0.756836,0
20140,-0.318359,-0.478516,0.754883,0
20160,-0.31543,-0.480469,0.755859,0
20180,-0.314453,-0.480469,0.760742,0
20200,-0.313477,-0.477539,0.758789,0
20220,-0.312988,-0.479004,0.753418,0
20240,-0.312988,-0.484375,0.757812,0
20260,-0.318848,-0.481445,0.755371,0
20280,-0.315918,-0.476074,0.760254,0
20300,-0.311035,-0.476074,0.760742,0
20320,-0.316895,-0.479004,0.753906,0
20340,-0.318848,-0.476562,0.759766,0
20360,-0.31543,-0.477539,0.757324,0
20380,-0.314941,-0.478516,0.758301,0
20400,-0.318359,-0.483398,0.756836,0
20420,-0.312012,-0.476074,0.760742,0
20440,-0.317871,-0.483398,0.760742,0
20460,-0.3125,-0.480469,0.754395,0
20480,-0.313965,-0.480469,0.757812,0
20500,-0.311523,-0.479004,0.759277,0
20520,-0.311035,-0.479492,0.760742,0
20540,-0.3125,-0.478516,0.762207,0
20560,-0.310547,-0.475586,0.76709,0
20580,-0.310059,-0.48291,0.756836,0
20600,-0.3125,-0.480469,0.75293,0
20620,-0.313965,-0.474121,0.760254,0
20640,-0.315918,-0.476074,0.763184,0
20660,-0.316406,-0.478516,0.756348,0
20680,-0.309082,-0.480957,0.760742,0
20700,-0.312012,-0.479492,0.756348,0
20720,-0.312012,-0.483398,0.759277,0
20740,-0.314453,-0.480469,0.756348,0
20760,-0.314453,-0.479004,0.757324,0
20780,-0.312988,-0.478516,0.762207,0
20800,-0.315918,-0.478516,0.765137,0
20820,-0.3125,-0.475098,0.760742,0
20840,-0.312012,-0.477051,0.763184,0
20860,-0.315918,-0.482422,0.76123,0
20880,-0.312988,-0.478516,0.76123,0
20900,-0.312012,-0.474609,0.757324,0
20920,-0.311523,-0.47998,0.755859,0
20940,-0.314453,-0.479004,0.761719,0
20960,-0.316406,-0.475586,0.761719,0
20980,-0.312012,-0.478027,0.762695,0
21000,-0.309082,-0.483887,0.756836,0
21020,-0.310059,-0.478516,0.758789,0
21040,-0.313965,-0.477539,0.759766,0
21060,-0.311523,-0.480957,0.753418,0
21080,-0.312012,-0.479492,0.765625,0
21100,-0.311523,-0.474609,0.757324,0
21120,-0.308105,-0.476074,0.751465,0
21140,-0.312012,-0.480469,0.758789,0
21160,-0.311035,-0.477539,0.755859,0
21180,-0.31543,-0.478516,0.762695,0
21200,-0.312988,-0.480469,0.758301,0
21220,-0.314941,-0.479004,0.755371,0
21240,-0.309082,-0.476562,0.765137,0
21260,-0.311523,-0.479004,0.763184,0
21280,-0.315918,-0.478027,0.758789,0
21300,-0.3125,-0.475098,0.761719,0
21320,-0.31543,-0.482422,0.761719,0
21340,-0.312988,-0.478516,0.753906,0
21360,-0.310547,-0.47998,0.762695,0
21380,-0.312012,-0.479492,0.757324,0
21400,-0.317871,-0.481445,0.756836,0
21420,-0.311523,-0.480957,0.759766,0
21440,-0.310059,-0.473633,0.760742,0
21460,-0.312988,-0.474609,0.759277,0
21480,-0.317383,-0.480957,0.760254,0
21500,-0.319336,-0.477539,0.760742,0
21520,-0.315918,-0.480469,0.756836,0
21540,-0.311035,-0.48291,0.753418,0
21560,-0.312012,-0.480469,0.754883,0
21580,-0.312012,-0.47998,0.759766,0
21600,-0.311523,-0.486816,0.759277,0
21620,-0.311035,-0.481934,0.752441,0
21640,-0.311035,-0.478516,0.757812,0
21660,-0.313965,-0.481934,0.764648,0
21680,-0.30957,-0.482422,0.758301,0
21700,-0.314453,-0.480469,0.759277,0
21720,-0.311035,-0.482422,0.756348,0
21740,-0.312012,-0.481445,0.752441,0
21760,-0.312012,-0.478027,0.75293,0
21780,-0.313965,-0.481445,0.759766,0
21800,-0.313477,-0.481934,0.756836,0
21820,-0.311035,-0.47998,0.760742,0
21840,-0.311035,-0.479004,0.759277,0
21860,-0.311523,-0.479004,0.759766,0
21880,-0.3125,-0.478027,0.755859,0
21900,-0.3125,-0.483887,0.760254,0
21920,-0.308105,-0.476562,0.757324,0
21940,-0.316895,-0.484863,0.755859,0
21960,-0.315918,-0.484375,0.76123,0
21980,-0.312012,-0.481934,0.753906,0
22000,-0.312988,-0.479004,0.758789,0
22020,-0.312988,-0.486328,0.755859,0
22040,-0.313965,-0.479492,0.758301,0
22070,-0.317871,-0.484863,0.750488,0
22090,-0.310059,-0.483398,0.760254,0
22110,-0.314453,-0.47998,0.756836,0
22130,-0.317871,-0.485352,0.759766,0
22150,-0.31543,-0.480469,0.753418,0
22170,-0.316895,-0.481934,0.758301,0
22190,-0.314453,-0.484375,0.755371,0
22210,-0.311035,-0.484375,0.752441,0
22230,-0.3125,-0.483398,0.756348,0
22250,-0.3125,-0.478027,0.756348,0
22270,-0.312988,-0.48291,0.756836,0
22290,-0.316406,-0.481934,0.759277,0
22310,-0.313477,-0.479492,0.759766,0
22330,-0.31543,-0.478516,0.760742,0
22350,-0.315918,-0.487305,0.759766,0
22370,-0.310059,-0.481934,0.758301,0
22390,-0.312012,-0.48291,0.762207,0
22410,-0.313965,-0.482422,0.756348,0
22430,-0.319336,-0.483887,0.754883,0
22450,-0.316406,-0.483887,0.751953,0
22470,-0.314941,-0.47998,0.760254,0
22490,-0.315918,-0.480469,0.753906,0
22510,-0.310059,-0.477539,0.758789,0
22530,-0.314453,-0.480469,0.762695,0
22550,-0.310059,-0.484375,0.76123,0
22570,-0.306152,-0.480469,0.753906,0
22590,-0.313965,-0.480957,0.761719,0
22610,-0.3125,-0.484863,0.754883,0
22630,-0.313965,-0.48291,0.755859,0
22650,-0.312988,-0.478516,0.757812,0
22670,-0.315918,-0.485352,0.756348,0
22690,-0.308594,-0.487793,0.750977,0
22710,-0.31543,-0.498047,0.755859,0
22730,-0.319336,-0.506348,0.777344,0
22750,-0.324707,-0.485352,0.791992,0
22770,-0.327148,-0.450195,0.788086,0
22790,-0.321777,-0.525391,0.772949,0
22810,-0.32373,-0.544434,0.786133,0
22830,-0.32373,-0.568359,0.773438,0
22850,-0.28125,-0.597656,0.764648,0
22870,-0.153809,-0.592773,0.767578,0
22890,-0.151855,-0.556152,0.836914,0
22910,-0.194336,-0.60498,0.871094,0
22930,-0.154297,-0.620605,0.862305,0
22950,-0.0893555,-0.632324,0.877441,0
22970,-0.0327148,-0.644043,0.880859,0
22990,0.0244141,-0.62793,0.856445,0
23010,0.0664062,-0.601074,0.814453,0
23030,0.132324,-0.592773,0.808594,0
23050,0.146484,-0.593262,0.771484,0
23070,0.148438,-0.592285,0.756836,0
23090,0.151855,-0.571777,0.737305,0
23110,0.150879,-0.559082,0.732422,0
23130,0.179688,-0.552734,0.703613,0
23150,0.183594,-0.52002,0.682617,0
23170,0.163086,-0.515625,0.668457,0
23180,0.173828,-0.504883,0.65332,0
23200,0.210938,-0.504395,0.65332,0
23210,0.249512,-0.509766,0.618164,0
23220,0.275879,-0.530273,0.584961,0
23240,0.314941,-0.562988,0.598633,0
23260,0.326172,-0.570312,0.597168,0
23280,0.326172,-0.59375,0.572266,0
23300,0.314941,-0.601074,0.584473,0
23320,0.310059,-0.594238,0.584473,0
23340,0.29248,-0.604004,0.574219,0
23360,0.323242,-0.618652,0.571289,0
23380,0.324219,-0.625488,0.57959,0
23400,0.344238,-0.625,0.55127,0
23420,0.380371,-0.622559,0.591309,0
23440,0.360352,-0.618164,0.601074,0
23460,0.353516,-0.627441,0.569824,0
23480,0.355469,-0.644531,0.567871,0
23500,0.366699,-0.628906,0.570312,0
23510,0.331055,-0.602539,0.567871,0
23530,0.291504,-0.580078,0.55127,0
23550,0.293945,-0.583496,0.560547,0
23570,0.318848,-0.603027,0.575195,0
23590,0.336426,-0.60791,0.564941,0
23610,0.36084,-0.600586,0.55127,0
23630,0.357422,-0.59082,0.569824,0
23650,0.377441,-0.608887,0.581543,0
23670,0.424805,-0.619141,0.589844,0
23690,0.441895,-0.620605,0.580078,0
23710,0.45166,-0.617188,0.581055,0
23730,0.479004,-0.634766,0.587891,0
23750,0.493164,-0.62207,0.589844,0
23770,0.469727,-0.613281,0.566895,0
23790,0.45166,-0.627441,0.574707,0
23810,0.444336,-0.627441,0.580566,0
23830,0.427734,-0.61377,0.569824,0
23850,0.411133,-0.616211,0.567871,0
23870,0.419922,-0.601562,0.570801,0
23890,0.419922,-0.593262,0.566895,0
23910,0.406738,-0.602051,0.556641,0
23930,0.416992,-0.605957,0.567383,0
23950,0.415527,-0.600586,0.572266,0
23970,0.381348,-0.604004,0.566895,0
23990,0.367676,-0.621094,0.556152,0
24010,0.397949,-0.616211,0.566895,0
24030,0.395996,-0.612305,0.574707,0
24050,0.380371,-0.626953,0.547852,0
24070,0.383789,-0.625,0.543457,0
24090,0.397949,-0.623047,0.568848,0
24110,0.39502,-0.627441,0.583008,0
24130,0.398438,-0.635742,0.563477,0
24150,0.404785,-0.630859,0.584961,0
24170,0.401367,-0.624023,0.577637,0
24190,0.388672,-0.637695,0.554199,0
24210,0.380859,-0.637695,0.574707,0
24230,0.396973,-0.650879,0.585938,0
24250,0.407227,-0.633789,0.559082,2000
24270,0.397461,-0.624512,0.54248,0
24290,0.381348,-0.631348,0.564453,0
24310,0.370117,-0.633789,0.581055,0
24330,0.369629,-0.638672,0.575195,0
24350,0.383301,-0.632324,0.557617,0
24370,0.373047,-0.641602,0.554199,0
24390,0.34375,-0.634277,0.569336,0
24410,0.325195,-0.628418,0.559082,0
24430,0.337891,-0.634766,0.566895,0
24450,0.355469,-0.650879,0.573242,0
24470,0.365234,-0.64502,0.554688,0
24490,0.371094,-0.633789,0.542969,0
24510,0.394531,-0.611816,0.564453,0
24530,0.429688,-0.61377,0.56543,0
24550,0.437988,-0.62207,0.54541,0
24570,0.41748,-0.621582,0.527344,0
24590,0.412598,-0.62793,0.523926,0
24610,0.408203,-0.635742,0.529785,0
24630,0.390625,-0.632812,0.51709,0
24650,0.367188,-0.634277,0.525879,0
24670,0.387695,-0.620605,0.553223,0
24690,0.419434,-0.613281,0.566406,0
24710,0.436523,-0.615723,0.544434,0
24730,0.427246,-0.612305,0.557129,0
24750,0.471191,-0.59668,0.552734,0
24770,0.560547,-0.600586,0.547852,0
24790,0.600586,-0.624512,0.51123,0
24810,0.635742,-0.625,0.476074,0
24830,0.66748,-0.618164,0.488281,0
24850,0.663574,-0.611816,0.481934,0
24870,0.663574,-0.607422,0.466309,0
24890,0.666016,-0.623047,0.453613,0
24910,0.63623,-0.634766,0.446777,0
24930,0.445801,-0.606934,0.480957,0
24950,0.297852,-0.570801,0.554688,0
24970,0.242676,-0.547852,0.59375,0
24990,0.256836,-0.552734,0.608887,0
25010,0.271484,-0.573242,0.609863,0
25030,0.304688,-0.581055,0.617188,0
25050,0.365234,-0.583496,0.585938,0
25070,0.428711,-0.590332,0.571289,0
25090,0.422363,-0.583496,0.550293,0
25110,0.407227,-0.598633,0.542969,0
25130,0.492188,-0.62207,0.535156,0
25150,0.562012,-0.629883,0.53418,0
25170,0.540527,-0.611816,0.508789,0
25190,0.533203,-0.587891,0.476074,0
25210,0.59082,-0.605469,0.430664,0
25230,0.67627,-0.576172,0.435547,0
25250,0.691406,-0.567871,0.442383,0
25270,0.638184,-0.547852,0.453613,0
25290,0.717285,-0.497559,0.410156,0
25360,0.787598,-0.437012,0.339355,0
25380,0.80127,-0.41748,0.290039,0
25400,0.815918,-0.419434,0.28418,0
25420,0.84668,-0.388672,0.28418,0
25440,0.823242,-0.373535,0.283691,0
25460,0.860352,-0.368652,0.249512,0
25480,0.847656,-0.34375,0.224609,0
25490,0.864258,-0.342773,0.220215,0
25510,0.893066,-0.329102,0.208984,0
25530,0.913086,-0.317383,0.191406,0
25550,0.905762,-0.303711,0.181152,0
25570,0.92041,-0.303711,0.16748,0
25590,0.917969,-0.304199,0.177734,0
25610,0.940918,-0.312988,0.187988,0
25640,0.88623,-0.303711,0.226074,0
25660,0.905762,-0.302734,0.243652,0
25680,0.905273,-0.308594,0.275879,0
25700,0.895996,-0.3125,0.311523,0
25720,0.869629,-0.302246,0.320312,0
25740,0.865234,-0.303711,0.338379,0
25760,0.833008,-0.311523,0.374023,0
25780,0.831543,-0.32373,0.398438,0
25800,0.768066,-0.311035,0.427246,0
25820,0.759277,-0.301758,0.422852,0
25840,0.845215,-0.311035,0.42041,0
25860,0.804688,-0.32666,0.456543,0
25880,0.706543,-0.324219,0.480957,0
25900,0.702148,-0.306152,0.492188,0
25920,0.758301,-0.303711,0.503418,0
25940,0.807617,-0.320801,0.494141,0
25960,0.809082,-0.327637,0.505371,0
25980,0.713379,-0.330566,0.557617,0
26000,0.629883,-0.303223,0.546387,0
26020,0.705078,-0.337891,0.555176,0
26040,0.710449,-0.347168,0.617676,0
26060,0.629883,-0.351562,0.636719,0
26080,0.605957,-0.362793,0.625977,0
26100,0.607422,-0.355469,0.641113,0
26120,0.614258,-0.370117,0.666016,0
26140,0.589355,-0.374512,0.665527,0
26160,0.540039,-0.390625,0.69043,0
26180,0.51709,-0.414062,0.682129,0
26200,0.498047,-0.385254,0.689453,0
26220,0.482422,-0.398926,0.686523,0
26240,0.45752,-0.426758,0.669922,0
26260,0.430176,-0.412598,0.69873,0
26280,0.415039,-0.397461,0.721191,0
26300,0.436523,-0.416992,0.700195,0
26320,0.464844,-0.4375,0.687012,0
26340,0.47998,-0.44043,0.708496,0
26360,0.411621,-0.436035,0.6875,0
26380,0.397949,-0.466309,0.679199,0
26400,0.430664,-0.472656,0.703613,0
26420,0.438965,-0.45459,0.708984,0
26440,0.382324,-0.454102,0.687988,0
26460,0.362305,-0.46875,0.701172,0
26480,0.399902,-0.47168,0.696289,0
26500,0.339844,-0.461914,0.685547,0
26520,0.310059,-0.450195,0.686523,0
26540,0.302246,-0.462891,0.681152,0
26560,0.286621,-0.462402,0.665039,0
26580,0.319336,-0.480957,0.680176,0
26600,0.315918,-0.486328,0.674316,0
26620,0.318359,-0.487793,0.654785,0
26640,0.318359,-0.500977,0.643555,0
26660,0.30127,-0.516113,0.643066,0
26680,0.266602,-0.519043,0.63916,0
26700,0.269043,-0.54248,0.613281,0
26720,0.31543,-0.553223,0.641602,0
26730,0.368164,-0.556641,0.659668,0
26750,0.348633,-0.568848,0.630371,0
26770,0.3125,-0.597168,0.618164,0
26790,0.338867,-0.629395,0.62793,0
26810,0.337891,-0.602051,0.635254,0
26830,0.29541,-0.612793,0.598633,0
26850,0.337402,-0.635742,0.566406,0
26870,0.317871,-0.658691,0.578125,0
26890,0.305664,-0.640625,0.57666,0
26910,0.268555,-0.633789,0.519531,0
26930,0.256348,-0.640137,0.515625,0
26950,0.282715,-0.681641,0.519531,0
26970,0.32373,-0.704102,0.503906,0
26990,0.288086,-0.699219,0.495605,0
27010,0.254883,-0.687012,0.458984,0
27030,0.295898,-0.71582,0.469238,0
27050,0.354492,-0.733887,0.502441,0
27070,0.336426,-0.72998,0.451172,0
27090,0.309082,-0.731934,0.403809,0
27110,0.317383,-0.737793,0.409668,0
27130,0.34375,-0.741699,0.442383,0
27150,0.371582,-0.743164,0.430176,0
27170,0.35791,-0.743164,0.383789,0
27190,0.325684,-0.73584,0.370605,0
27210,0.353516,-0.759277,0.416504,0
27230,0.433105,-0.757324,0.412109,0
27250,0.436523,-0.741699,0.348145,0
27270,0.365723,-0.743652,0.317871,0
27290,0.372559,-0.754883,0.339844,0
27310,0.456543,-0.741211,0.394531,0
27330,0.455566,-0.730957,0.347168,0
27350,0.443848,-0.753418,0.257812,0
27370,0.500488,-0.757812,0.301758,0
27390,0.529297,-0.737793,0.385742,0
27410,0.572754,-0.700195,0.367188,0
27430,0.544922,-0.697266,0.270996,0
27450,0.541016,-0.732422,0.222656,0
27470,0.59375,-0.700195,0.297852,0
27490,0.665527,-0.692871,0.342773,0
27510,0.665039,-0.695312,0.26416,0
27530,0.65625,-0.710938,0.183594,0
27550,0.659668,-0.693848,0.228027,0
27570,0.676758,-0.63916,0.287109,0
27590,0.695801,-0.637695,0.244141,0
27610,0.713867,-0.637207,0.165527,0
27630,0.754395,-0.652344,0.168457,0
27650,0.688965,-0.646973,0.207031,0
27670,0.717285,-0.583496,0.225098,0
27690,0.817871,-0.553223,0.202148,0
27710,0.887695,-0.556641,0.15918,0
27730,0.811035,-0.570312,0.143066,0
27750,0.771973,-0.564453,0.0913086,0
27770,0.809082,-0.534668,0.0942383,0
27790,0.848633,-0.507324,0.119629,0
27810,0.855957,-0.48584,0.114258,0
27830,0.842773,-0.483887,0.0581055,0
27850,0.82959,-0.48291,0.0522461,0
27870,0.837402,-0.465332,0.0820312,0
27890,0.85791,-0.425781,0.11377,0
27910,0.853516,-0.38916,0.0805664,0
27930,0.883789,-0.387695,0.0332031,0
27950,0.902344,-0.387695,0.0493164,0
27970,0.920898,-0.378418,0.0625,0
27990,0.920898,-0.362793,0.0722656,0
28010,0.933105,-0.323242,0.059082,0
28030,0.95166,-0.317383,0.0585938,0
28050,0.959961,-0.32666,0.0708008,0
28070,0.955566,-0.320801,0.0703125,0
28090,0.954102,-0.309082,0.0732422,0
28110,0.950195,-0.290039,0.104004,0
28130,0.963379,-0.271973,0.132812,0
28150,1.03857,-0.287598,0.12207,0
28170,1.00098,-0.316406,0.146973,0
28190,0.90918,-0.289062,0.213379,0
28210,0.874512,-0.278809,0.230957,0
28230,0.912598,-0.271484,0.240723,0
28250,0.923828,-0.291992,0.266602,0
28270,0.923828,-0.300781,0.313477,0
28290,0.912109,-0.320312,0.333984,0
28310,0.909668,-0.325684,0.331055,0
28330,0.862305,-0.317871,0.365723,0
28350,0.87793,-0.314941,0.412109,0
28370,0.843262,-0.359863,0.438965,0
28390,0.797363,-0.38623,0.466797,0
28410,0.760742,-0.353516,0.490234,0
28430,0.771484,-0.343262,0.52832,0
28450,0.75293,-0.356934,0.524414,0
28470,0.729004,-0.372559,0.570801,0
28490,0.709473,-0.396484,0.587402,0
28510,0.698242,-0.426758,0.523926,0
28530,0.613281,-0.450195,0.541992,0
28550,0.526367,-0.435059,0.572266,0
28570,0.466797,-0.472168,0.566406,0
28590,0.46582,-0.473633,0.586426,0
28610,0.491699,-0.479492,0.565918,0
28630,0.551758,-0.505371,0.565918,0
28650,0.578125,-0.48291,0.562012,0
28670,0.516602,-0.5,0.545898,0
28690,0.479004,-0.543457,0.544434,0
28710,0.498535,-0.557129,0.557617,0
28730,0.47168,-0.57373,0.507812,0
28750,0.450684,-0.571289,0.500488,0
28770,0.441406,-0.5625,0.48584,0
28790,0.43457,-0.570312,0.48291,0
28810,0.442383,-0.581543,0.474609,0
28830,0.440918,-0.611816,0.462891,0
28850,0.458496,-0.600586,0.46875,0
28870,0.453613,-0.619141,0.459961,0
28880,0.480957,-0.620605,0.468262,0
28900,0.494629,-0.634766,0.483887,0
28920,0.456055,-0.62207,0.46875,0
28940,0.452637,-0.680664,0.45166,0
28960,0.530762,-0.671875,0.447754,0
28980,0.472168,-0.62793,0.416992,0
29000,0.42334,-0.666504,0.38623,0
29020,0.453613,-0.66748,0.407715,0
29040,0.458496,-0.687012,0.407715,0
29060,0.395508,-0.698242,0.330566,0
29080,0.419434,-0.727539,0.334473,0
29100,0.427734,-0.717773,0.371582,0
29120,0.397949,-0.720215,0.338867,0
29140,0.430176,-0.741699,0.321777,0
29160,0.404785,-0.729492,0.328125,0
29180,0.373047,-0.734375,0.322754,0
29200,0.405762,-0.767578,0.316406,0
29220,0.427246,-0.788574,0.276855,0
29240,0.431152,-0.769531,0.259766,0
29260,0.415039,-0.773926,0.259766,0
29280,0.430176,-0.770508,0.259766,0
29300,0.460449,-0.794434,0.216797,0
29320,0.454102,-0.790039,0.212891,0
29340,0.458984,-0.779785,0.221191,0
29360,0.520996,-0.791992,0.206543,0
29380,0.576172,-0.797852,0.189453,0
29400,0.518555,-0.794434,0.152832,0
29420,0.486328,-0.776367,0.150391,0
29440,0.540039,-0.787598,0.167969,0
29460,0.587402,-0.776367,0.144043,0
29480,0.556641,-0.78125,0.0966797,0
29500,0.50293,-0.787598,0.078125,0
29520,0.54541,-0.779297,0.11377,0
29540,0.621582,-0.756348,0.127441,0
29560,0.611816,-0.727539,0.0727539,0
29580,0.503906,-0.751953,0.0224609,0
29600,0.500977,-0.772461,0.0214844,0
29620,0.599609,-0.74707,0.0761719,0
29640,0.679688,-0.705566,0.102051,0
29660,0.670898,-0.719238,-0.00830078,0
29680,0.686035,-0.755859,-0.0161133,0
29700,0.72998,-0.750977,0.0336914,0
29720,0.744141,-0.683105,0.0375977,0
29740,0.706055,-0.658203,-0.019043,0
29760,0.726074,-0.672852,-0.0751953,0
29780,0.786621,-0.671875,-0.0146484,0
29800,0.783691,-0.625977,0.0214844,0
29820,0.741699,-0.595703,-0.0302734,0
29840,0.780273,-0.601562,-0.118164,0
29860,0.837891,-0.602051,-0.0571289,0
29880,0.807129,-0.557129,0.0126953,0
29900,0.789551,-0.526367,-0.0385742,0
29920,0.843262,-0.533203,-0.132812,0
29940,0.904785,-0.51416,-0.0810547,0
29960,0.910645,-0.467285,-0.000488281,0
29980,0.872559,-0.42627,-0.0273438,0
30000,0.90918,-0.437012,-0.0703125,0
30020,0.940918,-0.427246,-0.0351562,0
30040,0.960938,-0.424316,-0.034668,0
30060,0.963867,-0.394043,-0.0400391,0
30080,0.967773,-0.368164,-0.0136719,0
30100,0.957031,-0.332031,0.00292969,0
30120,0.950195,-0.323242,0.00732422,0
30140,0.977051,-0.340332,0.0112305,0
30160,0.981934,-0.336426,0.0537109,0
30180,0.974609,-0.319824,0.0800781,0
30200,0.958984,-0.316895,0.101074,0
30220,0.955566,-0.312988,0.133789,0
30240,0.966309,-0.325684,0.166992,0
30260,0.932129,-0.310059,0.185059,0
30280,0.912109,-0.325195,0.196777,0
30300,0.942383,-0.342773,0.185547,0
30320,0.911133,-0.330078,0.214844,0
30340,0.90625,-0.374023,0.266113,0
30360,0.913086,-0.381836,0.283691,0
30380,0.895996,-0.373047,0.285156,0
30400,0.847656,-0.401855,0.293457,0
30420,0.805176,-0.399414,0.339355,0
30440,0.80127,-0.424805,0.368652,0
30460,0.81543,-0.449707,0.382324,0
30480,0.877441,-0.488281,0.374023,0
30500,0.847656,-0.466797,0.408691,0
30520,0.728516,-0.435059,0.428711,0
30540,0.679199,-0.464355,0.441895,0
30560,0.704102,-0.489258,0.44873,0
30580,0.690918,-0.520508,0.425781,0
30600,0.609863,-0.536133,0.431152,0
30620,0.567871,-0.562012,0.450195,0
30640,0.58252,-0.581543,0.450684,0
30660,0.559082,-0.56543,0.437988,0
30680,0.499023,-0.586426,0.394043,0
30700,0.461426,-0.588867,0.376953,0
30720,0.445801,-0.617676,0.397949,0
30740,0.46582,-0.603516,0.416992,0
30760,0.465332,-0.57666,0.388672,0
30780,0.462891,-0.625488,0.375977,0
30800,0.507324,-0.694336,0.385742,0
30820,0.516113,-0.689941,0.37207,0
30860,0.461426,-0.708008,0.310059,0
30870,0.535156,-0.737793,0.313965,0
30890,0.522461,-0.734863,0.324219,0
30910,0.528809,-0.725586,0.302246,0
30930,0.49707,-0.734863,0.276855,0
30950,0.493652,-0.744141,0.260254,0
30970,0.499512,-0.767578,0.266113,0
30990,0.492676,-0.756348,0.266113,0
31010,0.465332,-0.731934,0.219727,0
31030,0.421875,-0.731445,0.146973,0
31050,0.424805,-0.753906,0.168457,0
31070,0.450684,-0.771973,0.188965,0
31090,0.477051,-0.772949,0.174316,0
31110,0.473633,-0.762207,0.137207,0
31130,0.462891,-0.757324,0.112305,0
31150,0.452148,-0.776855,0.11084,0
31170,0.496094,-0.79248,0.117676,0
31190,0.523438,-0.807129,0.10791,0
31210,0.519531,-0.770508,0.0737305,0
31230,0.486816,-0.773926,0.081543,0
31250,0.506836,-0.794434,0.0922852,0
31270,0.546875,-0.814453,0.103027,0
31290,0.555176,-0.808105,0.0727539,0
31310,0.530762,-0.785645,0.0595703,0
31330,0.546875,-0.779785,0.0683594,0
31350,0.589844,-0.787109,0.0600586,0
31370,0.609863,-0.757324,0.0400391,0
31390,0.612305,-0.740234,0.0371094,0
31410,0.618652,-0.759277,0.0175781,0
31430,0.667969,-0.753906,0.00195312,0
31440,0.663086,-0.729004,-0.00683594,0
31460,0.628906,-0.693359,-0.0102539,0
31480,0.625488,-0.675293,-0.00439453,0
31500,0.677734,-0.663086,0.0161133,0
31520,0.69873,-0.660645,-0.0175781,0
31540,0.678711,-0.65918,-0.0678711,0
31560,0.706543,-0.648926,-0.0512695,0
31580,0.779297,-0.623047,0.000488281,0
31600,0.806152,-0.615723,-0.0224609,0
31620,0.779785,-0.630371,-0.0859375,0
31640,0.792969,-0.634766,-0.0922852,0
31660,0.849609,-0.593262,-0.0395508,0
31680,0.832031,-0.546875,-0.000976562,0
31700,0.84082,-0.550781,-0.0639648,0
31720,0.89209,-0.563477,-0.078125,0
31740,0.890137,-0.557617,-0.0478516,0
31760,0.882812,-0.540039,-0.0483398,0
31780,0.901367,-0.515625,-0.0600586,0
31800,0.906738,-0.499512,-0.0649414,2001
31820,0.899414,-0.505859,-0.0571289,0
31840,0.867676,-0.485352,-0.0400391,0
31860,0.852051,-0.474609,-0.0292969,0
31880,0.856445,-0.463867,-0.0141602,0
31900,0.844727,-0.464355,-0.0273438,0
31920,0.857422,-0.48291,-0.0473633,0
31940,0.864746,-0.494629,-0.0375977,0
31960,0.842773,-0.474609,-0.0297852,0
31980,0.815918,-0.470215,-0.0507812,0
32000,0.789551,-0.475098,-0.0454102,0
32020,0.779785,-0.483887,-0.0444336,0
32040,0.78418,-0.503418,-0.0478516,0
32060,0.770508,-0.504883,-0.0419922,0
32080,0.719727,-0.495605,-0.0302734,0
32100,0.664551,-0.478027,-0.0395508,0
32120,0.606934,-0.457031,-0.0214844,0
32140,0.610352,-0.463379,-0.0131836,0
32160,0.655273,-0.45166,0.012207,0
32180,0.638184,-0.410156,0.0527344,0
32200,0.549805,-0.393555,0.0727539,0
32220,0.545898,-0.421387,-0.00439453,0
32240,0.632324,-0.429199,-0.00878906,0
32260,0.660645,-0.396973,0.136719,0
32280,0.593262,-0.351074,0.209961,0
32300,0.5625,-0.35791,0.145508,0
32320,0.691895,-0.413574,0.074707,0
32340,0.766602,-0.396973,0.233398,0
32360,0.770996,-0.339355,0.334473,0
32380,0.826172,-0.418457,0.170898,0
32400,0.98877,-0.536133,0.065918,0
32420,1.00732,-0.572266,0.249023,0
32440,0.970703,-0.538574,0.328125,0
32460,0.99707,-0.534668,0.28125,0
32480,1.09277,-0.661621,0.225098,0
32500,1.06006,-0.761719,0.26709,0
32520,0.919434,-0.743164,0.357422,0
32540,0.866211,-0.723633,0.39209,0
32560,0.91748,-0.752441,0.391113,0
32580,0.941895,-0.813477,0.402344,0
32600,0.792969,-0.794922,0.479492,0
32620,0.706543,-0.760254,0.568359,0
32640,0.620117,-0.728027,0.592773,0
32660,0.591309,-0.698242,0.57959,0
32680,0.521973,-0.706055,0.574219,0
32700,0.425293,-0.694336,0.598145,0
32720,0.360352,-0.697266,0.600098,0
32740,0.337402,-0.728027,0.583984,0
32760,0.333496,-0.729004,0.593262,0
32780,0.270508,-0.688477,0.570312,0
32800,0.191895,-0.67627,0.550781,0
32820,0.176758,-0.695312,0.564941,0
32840,0.209961,-0.714355,0.578125,0
32860,0.228027,-0.67334,0.553711,0
32880,0.228027,-0.678223,0.537598,0
32900,0.242676,-0.703125,0.51416,0
32920,0.280273,-0.708496,0.523926,0
32940,0.318848,-0.712402,0.505371,0
32960,0.297363,-0.713379,0.506348,0
32980,0.286621,-0.702148,0.510742,0
33000,0.272461,-0.67627,0.525879,0
33020,0.210449,-0.657715,0.521973,0
33040,0.192871,-0.655273,0.534668,0
33060,0.246094,-0.666992,0.546875,0
33080,0.272949,-0.675293,0.552246,0
33100,0.294434,-0.677246,0.56543,0
33120,0.358887,-0.64502,0.583496,0
33140,0.383789,-0.640625,0.555176,0
33160,0.441895,-0.67334,0.523926,0
33180,0.508301,-0.686523,0.526367,0
33200,0.517578,-0.680176,0.537598,0
33220,0.492676,-0.669922,0.525391,0
33240,0.504883,-0.657227,0.520508,0
33260,0.536621,-0.682617,0.505859,0
33280,0.565918,-0.694336,0.496582,0
33300,0.551758,-0.681641,0.516113,0
33320,0.515625,-0.646484,0.521484,0
33340,0.477539,-0.627441,0.508789,0
33360,0.435547,-0.630371,0.508789,0
33380,0.39502,-0.631348,0.509277,0
33400,0.362305,-0.64209,0.516602,0
33420,0.353516,-0.639648,0.527344,0
33440,0.362793,-0.644531,0.535645,0
33460,0.390625,-0.647949,0.535156,0
33480,0.38916,-0.640625,0.540039,0
33500,0.362793,-0.655273,0.538086,0
33520,0.372559,-0.677246,0.52832,0
33540,0.384766,-0.683594,0.54248,0
33560,0.387695,-0.679199,0.552246,0
33580,0.384766,-0.67041,0.538086,0
33600,0.402344,-0.679199,0.541504,0
33620,0.40918,-0.67627,0.541016,0
33640,0.393555,-0.675293,0.548828,0
33660,0.394043,-0.665527,0.553223,0
33680,0.417969,-0.668945,0.534668,0
33700,0.390137,-0.667969,0.526367,0
33720,0.37207,-0.683105,0.531738,0
33740,0.378906,-0.655762,0.536621,0
33760,0.378418,-0.660156,0.519531,0
33780,0.370605,-0.670898,0.513672,2000
33800,0.373047,-0.651855,0.516602,0
33820,0.350098,-0.669434,0.542969,0
33840,0.363281,-0.677734,0.505859,0
33860,0.373047,-0.667969,0.497559,0
33880,0.373047,-0.661621,0.503906,0
33900,0.36377,-0.672852,0.497559,0
33920,0.353027,-0.680664,0.490723,0
33940,0.357422,-0.664551,0.501953,0
33960,0.396484,-0.673828,0.503418,0
33980,0.412598,-0.680664,0.500977,0
34000,0.392578,-0.66748,0.506348,0
34020,0.371094,-0.674316,0.496582,0
34040,0.380859,-0.689941,0.490234,0
34060,0.441406,-0.670898,0.466797,0
34080,0.467773,-0.677246,0.464355,0
34100,0.41748,-0.666992,0.46582,0
34120,0.422852,-0.669922,0.466797,0
34140,0.53418,-0.663086,0.500977,0
34160,0.583984,-0.662598,0.478027,0
34180,0.574219,-0.657227,0.443848,0
34200,0.535156,-0.628418,0.414551,0
34220,0.538574,-0.621094,0.392578,0
34240,0.547852,-0.674316,0.365234,0
34260,0.581055,-0.679688,0.345703,0
34280,0.62207,-0.623535,0.379883,0
34290,0.671875,-0.591797,0.395508,0
34310,0.680176,-0.600586,0.367676,0
34330,0.641602,-0.610352,0.337402,0
34350,0.649902,-0.600586,0.327148,0
34370,0.666992,-0.59375,0.319824,0
34390,0.713379,-0.56543,0.313477,0
34410,0.739258,-0.559082,0.292969,0
34430,0.709473,-0.541992,0.287598,0
34480,0.73877,-0.519531,0.258301,0
34500,0.770508,-0.499023,0.241211,0
34520,0.832031,-0.464844,0.237793,0
34540,0.830566,-0.427734,0.216309,0
34560,0.833496,-0.413574,0.205078,0
34580,0.839355,-0.420898,0.191406,0
34600,0.873535,-0.413574,0.173828,0
34620,0.893066,-0.391602,0.161621,0
34640,0.885254,-0.390137,0.167969,0
34660,0.888672,-0.386719,0.184082,0
34680,0.877441,-0.384766,0.201172,0
34700,0.86377,-0.379883,0.214355,0
34720,0.879395,-0.368164,0.237305,0
34740,0.885742,-0.351562,0.257812,0
34760,0.876953,-0.351074,0.273926,0
34780,0.870117,-0.356934,0.300781,0
34800,0.84375,-0.352539,0.324707,0
34820,0.827637,-0.343262,0.341309,0
34840,0.825195,-0.349121,0.360352,0
34850,0.814453,-0.359375,0.378906,0
34870,0.858887,-0.361816,0.393555,0
34890,0.834961,-0.370605,0.399902,0
34910,0.767578,-0.391602,0.415039,0
34930,0.700195,-0.385254,0.463379,0
34950,0.71582,-0.402832,0.480957,0
34970,0.738281,-0.404785,0.483398,0
34990,0.748535,-0.425781,0.455566,0
35010,0.753906,-0.441406,0.468262,0
35030,0.631836,-0.427246,0.53418,0
35050,0.61377,-0.416504,0.546387,0
35070,0.651855,-0.420898,0.555664,0
35090,0.713379,-0.453125,0.567871,0
35110,0.726074,-0.463867,0.586426,0
35130,0.657227,-0.440918,0.594727,0
35150,0.579102,-0.410156,0.597168,0
35170,0.578125,-0.400879,0.626465,0
35190,0.581543,-0.420898,0.637207,0
35210,0.568848,-0.42041,0.647461,0
35230,0.544922,-0.416992,0.63623,0
35250,0.549316,-0.42334,0.647461,0
35270,0.565918,-0.413574,0.655762,0
35290,0.562988,-0.427734,0.651367,0
35310,0.510742,-0.432617,0.650391,0
35330,0.490234,-0.449707,0.65332,0
35350,0.501953,-0.443359,0.678711,0
35370,0.480469,-0.450684,0.697266,0
35390,0.408691,-0.461426,0.680176,0
35410,0.409668,-0.452148,0.685059,0
35430,0.452637,-0.45752,0.715332,0
35450,0.466797,-0.455566,0.675781,0
35470,0.452148,-0.465332,0.666504,0
35490,0.399414,-0.484375,0.671387,0
35510,0.361328,-0.478516,0.673828,0
35530,0.374023,-0.519043,0.653809,0
35550,0.392578,-0.518555,0.662109,0
35570,0.350098,-0.531738,0.63623,0
35590,0.305664,-0.567871,0.658691,0
35610,0.328613,-0.566406,0.652344,0
35630,0.362793,-0.557129,0.666992,0
35650,0.340332,-0.551758,0.683105,0
35670,0.279785,-0.556152,0.651367,0
35690,0.360352,-0.583984,0.648926,0
35710,0.333984,-0.5625,0.653809,0
35730,0.244141,-0.542969,0.585938,0
35750,0.244629,-0.549805,0.599609,0
35770,0.257324,-0.579102,0.612305,0
35790,0.270996,-0.592285,0.62207,0
35810,0.258301,-0.578613,0.558594,0
35830,0.202637,-0.5625,0.508789,0
35850,0.214844,-0.595703,0.541992,0
35870,0.282715,-0.619141,0.598633,0
35890,0.299316,-0.625977,0.563477,0
35910,0.276855,-0.630859,0.506348,0
35930,0.287109,-0.637207,0.51123,0
35950,0.289062,-0.655762,0.546387,0
35970,0.313965,-0.669922,0.507812,0
35990,0.292969,-0.696777,0.45459,0
36010,0.289551,-0.717285,0.480469,0
36030,0.333496,-0.709473,0.515625,0
36050,0.389648,-0.739746,0.471191,0
36070,0.35791,-0.75,0.418457,0
36090,0.328125,-0.744141,0.418945,0
36110,0.342285,-0.760254,0.430664,0
36130,0.362793,-0.770996,0.402344,0
36150,0.348633,-0.789551,0.38916,0
36170,0.3125,-0.788086,0.368164,0
36190,0.307617,-0.78418,0.370117,0
36210,0.337891,-0.783691,0.371094,0
36220,0.323242,-0.777832,0.321777,0
36240,0.307129,-0.774902,0.307617,0
36260,0.333008,-0.776367,0.340332,0
36280,0.349121,-0.775391,0.32666,0
36300,0.36084,-0.789062,0.257812,0
36320,0.401855,-0.806641,0.279785,0
36340,0.467285,-0.782227,0.359375,0
36360,0.516113,-0.749512,0.339355,0
36380,0.48584,-0.776855,0.239258,0
36400,0.509766,-0.790527,0.236328,0
36420,0.546387,-0.771484,0.32373,0
36440,0.584961,-0.746582,0.303223,0
36460,0.57666,-0.763184,0.208984,0
36480,0.568848,-0.773438,0.211426,0
36500,0.591797,-0.716797,0.274902,0
36520,0.616211,-0.69873,0.282227,0
36540,0.60498,-0.678711,0.220703,0
36560,0.625,-0.708008,0.211914,0
36580,0.672852,-0.70752,0.252441,0
36600,0.683105,-0.664062,0.225586,0
36620,0.654297,-0.645996,0.176758,0
36640,0.702637,-0.636719,0.156738,0
36660,0.746582,-0.654297,0.196777,0
36680,0.783691,-0.628906,0.186523,0
36700,0.734375,-0.589355,0.133301,0
36720,0.775391,-0.604004,0.0449219,0
36740,0.884766,-0.588379,0.0961914,0
36760,0.867188,-0.554199,0.152344,0
36780,0.811523,-0.532715,0.0600586,0
36800,0.851562,-0.498535,-0.00390625,0
36820,0.870117,-0.498535,0.0170898,0
36840,0.898926,-0.468262,0.0268555,0
36860,0.883789,-0.450195,0.0292969,0
36880,0.87207,-0.429199,-0.00341797,0
36900,0.903809,-0.418457,0.0112305,0
36920,0.897949,-0.404785,0.0405273,0
36940,0.86084,-0.370605,0.0527344,0
36960,0.874512,-0.344238,0.0615234,0
36980,0.914551,-0.355469,0.046875,0
37000,0.921387,-0.345215,0.0673828,0
37020,0.916504,-0.331055,0.0908203,0
37040,0.92041,-0.310547,0.112305,0
37060,0.941406,-0.290039,0.113281,0
37080,0.967285,-0.273926,0.12793,0
37100,0.975586,-0.272461,0.155762,0
37120,0.949707,-0.28418,0.181152,0
37140,0.941406,-0.28418,0.180176,0
37160,0.952148,-0.289551,0.178711,0
37180,0.966309,-0.283203,0.206055,0
37200,0.937012,-0.291016,0.228516,0
37220,0.952637,-0.315918,0.259277,0
37240,0.924805,-0.33252,0.30957,0
37260,0.876465,-0.320312,0.35791,0
37280,0.868652,-0.327148,0.325684,0
37300,0.874512,-0.313965,0.34668,0
37320,0.837402,-0.334961,0.400391,0
37340,0.810059,-0.360352,0.422363,0
37360,0.788086,-0.381348,0.446289,0
37380,0.780762,-0.374023,0.419434,0
37400,0.825684,-0.385742,0.43457,0
37420,0.835938,-0.387207,0.48584,0
37440,0.783203,-0.389648,0.496582,0
37460,0.736328,-0.430176,0.513184,0
37480,0.723633,-0.449219,0.489258,0
37500,0.70459,-0.437012,0.498535,0
37520,0.696289,-0.445312,0.533203,0
37540,0.663574,-0.452637,0.518555,0
37560,0.627441,-0.458008,0.513184,0
37580,0.583496,-0.492676,0.538086,0
37600,0.57373,-0.486816,0.554199,0
37620,0.607422,-0.496582,0.549805,0
37640,0.584473,-0.501465,0.536133,0
37660,0.540527,-0.53418,0.534668,0
37680,0.520508,-0.575684,0.515137,0
37700,0.527832,-0.58252,0.492676,0
37720,0.474609,-0.526367,0.504395,0
37740,0.405273,-0.506348,0.529297,0
37760,0.444824,-0.548828,0.490234,0
37780,0.475098,-0.589355,0.465332,0
37800,0.447754,-0.576172,0.498047,0
37820,0.412598,-0.587402,0.51709,0
37840,0.42627,-0.615723,0.484375,0
37860,0.445801,-0.623535,0.460938,0
37880,0.404785,-0.636719,0.485352,0
37900,0.39209,-0.643066,0.494629,0
37920,0.416992,-0.648926,0.489746,0
37940,0.394043,-0.640137,0.469727,0
37960,0.410645,-0.67334,0.477539,0
37980,0.395508,-0.65332,0.466797,0
38000,0.369141,-0.658203,0.430176,0
38020,0.356445,-0.655762,0.367676,0
38040,0.374512,-0.655762,0.411133,0
38060,0.381348,-0.682617,0.437988,0
38080,0.376465,-0.698242,0.377441,0
38100,0.372559,-0.705566,0.32373,0
38120,0.377441,-0.674316,0.354004,0
38140,0.389648,-0.702148,0.409668,0
38160,0.432617,-0.724609,0.375977,0
38180,0.435059,-0.744629,0.309082,0
38200,0.438477,-0.746094,0.291504,0
38220,0.447754,-0.755859,0.306641,0
38240,0.452637,-0.728516,0.296387,0
38260,0.440918,-0.745605,0.254395,0
38280,0.452148,-0.737793,0.237305,0
38300,0.506348,-0.781738,0.243164,0
38320,0.51709,-0.769043,0.248047,0
38340,0.477539,-0.770508,0.208008,0
38360,0.463379,-0.782715,0.183594,0
38380,0.494141,-0.785156,0.228027,0
38400,0.553711,-0.775391,0.228027,0
38420,0.594727,-0.767578,0.186523,0
38440,0.580078,-0.774902,0.14502,0
38460,0.550293,-0.760742,0.168457,0
38480,0.585938,-0.763184,0.195801,0
38500,0.667969,-0.763184,0.15332,0
38520,0.682617,-0.765625,0.100586,0
38540,0.635742,-0.73877,0.0874023,0
38560,0.616211,-0.754883,0.0703125,0
38580,0.657715,-0.727539,0.100098,0
38600,0.691895,-0.712891,0.0957031,0
38620,0.674805,-0.713867,0.0444336,0
38640,0.658203,-0.707031,0.0410156,0
38660,0.686523,-0.712402,0.0615234,0
38680,0.699219,-0.697754,0.0605469,0
38700,0.678223,-0.673828,0.00683594,0
38720,0.654785,-0.660156,-0.027832,0
38740,0.666992,-0.64502,0.0200195,0
38760,0.716797,-0.621094,0.059082,0
38780,0.70459,-0.630859,-0.00146484,0
38800,0.743652,-0.657227,-0.0776367,0
38820,0.768555,-0.628418,-0.0273438,0
38840,0.777344,-0.587402,-0.0146484,0
38860,0.758301,-0.571777,0.00341797,0
38880,0.77832,-0.586426,-0.050293,0
38900,0.837891,-0.569824,-0.0512695,0
38920,0.827148,-0.529297,-0.0117188,0
38940,0.816406,-0.490234,0.00683594,0
38960,0.858887,-0.485352,-0.0546875,0
38980,0.907715,-0.5,-0.0727539,0
39000,0.90332,-0.475586,-0.0458984,0
39020,0.867188,-0.433105,-0.0239258,0
39040,0.928223,-0.398438,-0.0522461,0
39060,0.958008,-0.380859,-0.0371094,0
39080,0.930176,-0.377441,-0.0249023,0
39100,0.912598,-0.379395,-0.0449219,0
39120,0.922363,-0.36377,-0.0537109,0
39140,0.968262,-0.340332,-0.0214844,0
39160,0.972656,-0.310547,-0.00927734,0
39180,0.955566,-0.307129,0.00488281,0
39200,0.948242,-0.299316,0.0351562,0
39220,0.981934,-0.27002,0.0673828,0
39240,0.998047,-0.253418,0.065918,0
39260,0.981934,-0.246582,0.0605469,0
39280,0.969727,-0.269043,0.105469,0
39300,0.973633,-0.263184,0.141113,0
39320,0.962891,-0.249512,0.161621,0
39340,0.96582,-0.251465,0.169434,0
39360,0.956055,-0.257324,0.190918,0
39380,0.943359,-0.278809,0.205078,0
39400,0.914551,-0.295898,0.253418,0
39420,0.914551,-0.310059,0.259277,0
39440,0.919434,-0.295898,0.266113,0
39460,0.929199,-0.29248,0.277344,0
39480,0.932617,-0.303711,0.29248,0
39500,0.914062,-0.343262,0.344727,0
39520,0.88623,-0.359863,0.342773,0
39540,0.866699,-0.349609,0.322754,0
39560,0.84668,-0.317871,0.353516,0
39580,0.800781,-0.363281,0.382324,0
39600,0.770996,-0.399902,0.363281,0
39620,0.789062,-0.415527,0.379883,0
39630,0.782715,-0.401367,0.401367,0
39650,0.716797,-0.386719,0.395996,0
39670,0.686035,-0.387695,0.413086,0
39690,0.688965,-0.425781,0.437988,0
39710,0.708008,-0.460938,0.433105,0
39730,0.685059,-0.466797,0.407715,0
39750,0.634277,-0.459961,0.416504,0
39770,0.579102,-0.470703,0.416992,0
39790,0.635742,-0.486328,0.44043,0
39810,0.682129,-0.512695,0.450684,0
39830,0.658203,-0.529785,0.434082,0
39850,0.603027,-0.526855,0.414551,0
39870,0.599121,-0.563965,0.437012,0
39890,0.593262,-0.547852,0.458984,0
39910,0.558105,-0.578613,0.408203,0
39930,0.560547,-0.588379,0.384277,0
39950,0.545898,-0.586914,0.394531,0
39970,0.519043,-0.594238,0.400391,0
39990,0.52002,-0.630371,0.374023,0
40010,0.557617,-0.648438,0.367676,0
40030,0.556152,-0.641113,0.374512,0
40050,0.524902,-0.626953,0.361816,0
40070,0.486328,-0.631348,0.32666,0
40090,0.555176,-0.657715,0.330078,0
40110,0.566895,-0.695312,0.361328,0
40130,0.518066,-0.654785,0.329102,0
40150,0.501953,-0.640625,0.273926,0
40170,0.543945,-0.673828,0.285645,0
40190,0.57959,-0.685059,0.335938,0
40210,0.59082,-0.724609,0.312012,0
40230,0.586426,-0.708008,0.251465,0
40250,0.568848,-0.681152,0.247559,0
40270,0.58252,-0.69873,0.273926,0
40290,0.605957,-0.728516,0.249512,0
40310,0.599121,-0.743164,0.206055,0
40330,0.588379,-0.699707,0.207031,0
40350,0.57373,-0.703613,0.220215,0
40370,0.580566,-0.731934,0.216309,0
40390,0.562988,-0.730469,0.169922,0
40410,0.546387,-0.712402,0.134766,0
40430,0.569336,-0.71875,0.172852,0
40450,0.57373,-0.721191,0.163574,0
40470,0.568359,-0.735352,0.124023,0
40490,0.582031,-0.733887,0.0957031,0
40510,0.585449,-0.722168,0.0927734,0
40530,0.584473,-0.729004,0.108398,0
40550,0.583984,-0.725098,0.0830078,0
40570,0.585938,-0.733398,0.0698242,0
40590,0.607422,-0.745117,0.0644531,0
40610,0.657715,-0.745117,0.0800781,0
40630,0.688965,-0.738281,0.0380859,0
40650,0.665039,-0.743164,0.0161133,0
40670,0.636719,-0.709961,-0.00390625,0
40690,0.643555,-0.728516,0.0336914,0
40710,0.644531,-0.700195,0.0126953,0
40730,0.642578,-0.674316,0.00585938,0
40750,0.686523,-0.671875,-0.0224609,0
40770,0.737305,-0.684082,-0.03125,0
40790,0.740234,-0.660645,-0.0175781,0
40810,0.691895,-0.635254,-0.0141602,0
40830,0.675781,-0.640625,-0.0380859,0
40850,0.723633,-0.667969,-0.0766602,0
40870,0.760254,-0.643555,-0.0375977,0
40890,0.740723,-0.610352,-0.0356445,0
40910,0.660156,-0.612793,-0.0507812,0
40930,0.714355,-0.597656,-0.0463867,0
40950,0.814941,-0.59375,-0.0322266,0
40970,0.878906,-0.577148,-0.034668,0
40990,0.831543,-0.565918,-0.0678711,0
41010,0.803711,-0.565918,-0.11377,0
41030,0.817871,-0.564453,-0.0820312,0
41050,0.82959,-0.542969,-0.046875,0
41070,0.833008,-0.503418,-0.09375,0
41090,0.864746,-0.499023,-0.130371,0
41110,0.867676,-0.486328,-0.0615234,0
41130,0.849609,-0.468262,-0.0517578,0
41150,0.858887,-0.453613,-0.110352,0
41170,0.914062,-0.462891,-0.117676,2001
41190,0.9375,-0.46582,-0.103027,0
41210,0.911133,-0.435059,-0.106934,0
41230,0.905762,-0.422852,-0.114258,0
41250,0.923828,-0.423828,-0.11377,0
41270,0.929688,-0.419434,-0.0952148,0
41290,0.900391,-0.42041,-0.0859375,0
41310,0.876465,-0.424805,-0.109375,0
41330,0.87207,-0.416504,-0.110352,0
41350,0.849121,-0.411621,-0.100586,0
41370,0.820801,-0.408691,-0.11084,0
41390,0.770996,-0.414062,-0.0878906,0
41410,0.748535,-0.41748,-0.0839844,0
41430,0.73291,-0.41748,-0.0849609,0
41450,0.704102,-0.409668,-0.0737305,0
41470,0.668457,-0.402832,-0.0615234,0
41490,0.669922,-0.388184,-0.0605469,0
41510,0.703613,-0.402344,-0.0488281,0
41530,0.677246,-0.375977,-0.00830078,0
41550,0.60791,-0.357422,-0.00195312,0
41570,0.61377,-0.38916,-0.0512695,0
41590,0.662598,-0.400391,-0.00976562,0
41610,0.6875,-0.354004,0.0810547,0
41620,0.651855,-0.318848,0.123535,0
41640,0.666016,-0.398438,0.0527344,0
41660,0.802246,-0.494141,0.0415039,0
41680,0.848633,-0.490723,0.167969,0
41700,0.79834,-0.428711,0.265625,0
41720,0.785156,-0.464844,0.206055,0
41740,0.890625,-0.587402,0.0981445,0
41760,0.973145,-0.62207,0.237793,0
41780,0.89502,-0.572266,0.319824,0
41800,0.907227,-0.619141,0.269531,0
41830,0.845703,-0.733887,0.401855,0
41850,0.77832,-0.708496,0.453125,0
41870,0.772949,-0.694824,0.444336,0
41890,0.785156,-0.734863,0.430176,0
41910,0.766602,-0.762695,0.480957,0
41930,0.692383,-0.749023,0.515625,0
41950,0.60498,-0.710938,0.512695,0
41970,0.575684,-0.70459,0.496094,0
41990,0.57666,-0.729004,0.494629,0
42010,0.540039,-0.723145,0.509766,0
42030,0.460938,-0.744629,0.515625,0
42050,0.398438,-0.737793,0.523438,0
42070,0.402832,-0.720215,0.529297,0
42090,0.428711,-0.70459,0.520508,0
42110,0.445801,-0.692383,0.522461,0
42130,0.437012,-0.698242,0.518066,0
42150,0.472656,-0.695801,0.52832,0
42170,0.501953,-0.681641,0.516602,0
42190,0.484375,-0.651855,0.500977,0
42210,0.446289,-0.633789,0.486328,0
42230,0.422852,-0.649414,0.500977,0
42250,0.431641,-0.657227,0.515137,0
42270,0.425293,-0.669434,0.512207,0
42290,0.430664,-0.65332,0.510742,0
42310,0.437988,-0.632812,0.51709,0
42330,0.423828,-0.623047,0.523438,0
42350,0.416504,-0.629395,0.51709,0
42370,0.435059,-0.639648,0.525391,0
42390,0.447754,-0.637695,0.55127,0
42410,0.428711,-0.604492,0.530762,0
42430,0.434082,-0.617676,0.530762,0
42450,0.454102,-0.624512,0.536133,0
42470,0.450684,-0.638672,0.527832,0
42490,0.450195,-0.631348,0.526367,0
42510,0.455078,-0.63623,0.520996,0
42530,0.446289,-0.639648,0.523438,0
42550,0.438965,-0.64209,0.545898,0
42570,0.423828,-0.645508,0.533691,0
42590,0.442383,-0.653809,0.518555,2000
42610,0.441406,-0.645996,0.532715,0
42630,0.42334,-0.638184,0.521484,0
42650,0.421875,-0.636719,0.523438,0
42670,0.422852,-0.646484,0.521484,0
42690,0.428223,-0.64209,0.527832,0
42710,0.414062,-0.640625,0.536621,0
42730,0.410156,-0.646973,0.526855,0
42760,0.42334,-0.633301,0.52002,0
42780,0.407715,-0.634277,0.519531,0
42800,0.407227,-0.633301,0.507324,0
42820,0.420898,-0.639648,0.521973,0
42840,0.430664,-0.643555,0.520996,0
42860,0.430664,-0.650391,0.497559,0
42880,0.424316,-0.645996,0.506348,0
42900,0.44043,-0.646484,0.500977,0
42920,0.467285,-0.63623,0.503418,0
42940,0.473145,-0.642578,0.48584,0
42960,0.455078,-0.650391,0.472656,0
42980,0.470215,-0.646484,0.495605,0
43000,0.513184,-0.638672,0.496582,0
43020,0.521484,-0.629395,0.472656,0
43040,0.517578,-0.635742,0.462891,0
43060,0.553711,-0.628906,0.452148,0
43080,0.630859,-0.634277,0.439453,0
43100,0.600586,-0.632812,0.441895,0
43120,0.540039,-0.63623,0.426758,0
43140,0.509277,-0.630859,0.420898,0
43160,0.566406,-0.62793,0.431152,0
43180,0.641602,-0.633789,0.411133,0
43200,0.590332,-0.611816,0.419922,0
43220,0.519531,-0.606445,0.400391,0
43240,0.526855,-0.622559,0.380859,0
43260,0.550293,-0.661133,0.384277,0
43280,0.557129,-0.648926,0.40625,0
43300,0.525391,-0.632812,0.398926,0
43320,0.486328,-0.630371,0.399414,0
43340,0.558594,-0.635742,0.416504,0
43360,0.61084,-0.640625,0.421387,0
43380,0.582031,-0.633789,0.407715,0
43400,0.57666,-0.629395,0.38916,0
43420,0.584961,-0.634766,0.369629,0
43440,0.581055,-0.652832,0.373047,0
43460,0.575195,-0.664062,0.361816,0
43480,0.601074,-0.660156,0.356934,0
43490,0.685059,-0.618164,0.309082,0
43520,0.680664,-0.570801,0.303711,0
43540,0.701172,-0.55957,0.29541,0
43570,0.734863,-0.533691,0.280273,0
43590,0.720215,-0.507812,0.280273,0
43610,0.73291,-0.514648,0.259277,0
43630,0.76123,-0.518066,0.25293,0
43650,0.783691,-0.502441,0.241211,0
43670,0.791992,-0.48291,0.234863,0
43690,0.79248,-0.453125,0.227051,0
43710,0.809082,-0.435547,0.219727,0
43730,0.828125,-0.447754,0.198242,0
43750,0.836914,-0.430664,0.20166,0
43770,0.83252,-0.428711,0.210938,0
43790,0.817871,-0.414551,0.22168,0
43800,0.849609,-0.416504,0.208008,0
43820,0.856445,-0.403809,0.202637,0
43840,0.873535,-0.395996,0.202637,0
43860,0.884766,-0.394043,0.210938,0
43880,0.886719,-0.396484,0.21875,0
43900,0.876465,-0.388184,0.222656,0
43920,0.875,-0.382324,0.236816,0
43940,0.874512,-0.379395,0.259766,0
43960,0.878906,-0.367676,0.261719,0
43980,0.865723,-0.381836,0.271973,0
44000,0.870117,-0.396973,0.276855,0
44020,0.830078,-0.385742,0.333984,0
44040,0.786621,-0.370117,0.375977,0
44060,0.794434,-0.361816,0.378906,0
44080,0.841797,-0.368164,0.369629,0
44100,0.86084,-0.378418,0.391602,0
44120,0.759277,-0.369141,0.457031,0
44140,0.708984,-0.35498,0.481445,0
44160,0.734863,-0.363281,0.478027,0
44180,0.77832,-0.369141,0.45459,0
44200,0.777344,-0.39502,0.450195,0
44220,0.738281,-0.402344,0.483398,0
44240,0.668945,-0.383789,0.506348,0
44260,0.654785,-0.381836,0.492676,0
44280,0.696777,-0.391602,0.52002,0
44300,0.715332,-0.398926,0.525391,0
44320,0.681641,-0.39209,0.540527,0
44340,0.658203,-0.380371,0.563965,0
44360,0.63916,-0.372559,0.579102,0
44380,0.657227,-0.364746,0.591797,0
44400,0.64502,-0.364746,0.624023,0
44420,0.604004,-0.348633,0.63623,0
44440,0.603516,-0.375488,0.64209,0
44460,0.599609,-0.374023,0.63916,0
44480,0.609375,-0.379883,0.631836,0
44500,0.626953,-0.368652,0.640625,0
44520,0.583496,-0.373047,0.627441,0
44540,0.551758,-0.376953,0.622559,0
44560,0.538086,-0.398438,0.652832,0
44580,0.553223,-0.390625,0.665527,0
44600,0.569824,-0.40332,0.641113,0
44620,0.553223,-0.401367,0.641113,0
44640,0.522461,-0.421387,0.63916,0
44660,0.507812,-0.431641,0.63916,0
44680,0.539551,-0.456055,0.648926,0
44700,0.536621,-0.441895,0.63916,0
44720,0.504395,-0.463867,0.62793,0
44740,0.47168,-0.501953,0.61084,0
44760,0.436035,-0.493164,0.612793,0
44780,0.392578,-0.47998,0.620117,0
44800,0.419434,-0.508789,0.629883,0
44820,0.464844,-0.535645,0.614746,0
44840,0.468262,-0.553711,0.607422,0
44860,0.442383,-0.571777,0.611816,0
44880,0.437012,-0.570801,0.606934,0
44890,0.455078,-0.566406,0.616211,0
44910,0.40332,-0.581543,0.581055,0
44930,0.395996,-0.585938,0.571289,0
44950,0.388672,-0.587402,0.569824,0
44970,0.37793,-0.574219,0.571777,0
44990,0.345703,-0.575684,0.561035,0
45010,0.348145,-0.614746,0.544434,0
45030,0.339355,-0.604492,0.597168,0
45050,0.306152,-0.612793,0.606445,0
45070,0.345703,-0.627441,0.532227,0
45090,0.366211,-0.67041,0.51416,0
45110,0.33252,-0.629883,0.529785,0
45130,0.286621,-0.646973,0.511719,0
45150,0.342773,-0.704102,0.492188,0
45170,0.384277,-0.694824,0.525879,0
45190,0.316406,-0.664062,0.501953,0
45210,0.26123,-0.668945,0.439941,0
45230,0.237305,-0.699707,0.42334,0
45250,0.233887,-0.697266,0.436523,0
45270,0.224121,-0.702148,0.39502,0
45290,0.223145,-0.693359,0.367676,0
45310,0.229004,-0.712402,0.401855,0
45330,0.241211,-0.735352,0.393555,0
45350,0.265625,-0.766602,0.368652,0
45370,0.253418,-0.760254,0.37793,0
45390,0.26416,-0.743164,0.395508,0
45410,0.291016,-0.784668,0.396484,0
45430,0.339355,-0.780762,0.351562,0
45450,0.330078,-0.760742,0.348145,0
45470,0.368164,-0.780762,0.406738,0
45490,0.452637,-0.805664,0.400391,0
45510,0.493164,-0.793457,0.305176,0
45530,0.431641,-0.789062,0.287109,0
45550,0.385254,-0.785156,0.336426,0
45570,0.464355,-0.776855,0.372559,0
45590,0.575684,-0.765625,0.306641,0
45610,0.51416,-0.762207,0.248047,0
45630,0.455078,-0.774414,0.286133,0
45650,0.501465,-0.737793,0.334473,0
45670,0.628906,-0.719238,0.333984,0
45690,0.653809,-0.706055,0.260742,0
45710,0.605469,-0.73877,0.195312,0
45730,0.597168,-0.734375,0.233398,0
45750,0.668457,-0.688477,0.294922,0
45770,0.717285,-0.65625,0.24707,0
45790,0.701172,-0.646973,0.16748,0
45810,0.704102,-0.686035,0.151855,0
45830,0.702148,-0.691406,0.225586,0
45850,0.709961,-0.635742,0.235352,0
45870,0.647949,-0.59668,0.192871,0
45890,0.712402,-0.598633,0.15332,0
45910,0.790039,-0.593262,0.196777,0
45930,0.733398,-0.581543,0.210938,0
45950,0.72168,-0.555664,0.161133,0
45970,0.759766,-0.567871,0.108398,0
45990,0.890625,-0.545898,0.126953,0
46010,0.878418,-0.543945,0.154785,0
46030,0.843262,-0.489746,0.166016,0
46050,0.910156,-0.489746,0.116699,0
46070,0.943359,-0.482422,0.104492,0
46090,0.883301,-0.464355,0.133789,0
46110,0.862305,-0.432617,0.126465,0
46130,0.908203,-0.416992,0.10791,0
46150,0.959961,-0.400879,0.126953,0
46170,0.963867,-0.382324,0.131348,0
46190,0.953125,-0.376465,0.134277,0
46210,0.924316,-0.366699,0.151367,0
46230,0.930664,-0.344238,0.166992,0
46250,0.922852,-0.333496,0.171387,0
46270,0.912598,-0.330566,0.195312,0
46290,0.880859,-0.333008,0.222656,0
46310,0.873535,-0.330566,0.231445,0
46330,0.900879,-0.321289,0.266113,0
46350,0.908691,-0.324219,0.257324,0
46370,0.878418,-0.324219,0.287109,0
46390,0.843262,-0.328125,0.319336,0
46410,0.810547,-0.328125,0.362793,0
46430,0.825684,-0.32666,0.35498,0
46450,0.851562,-0.319336,0.354004,0
46470,0.859863,-0.341309,0.396973,0
46490,0.79834,-0.362793,0.442383,0
46510,0.779785,-0.361328,0.449707,0
46530,0.791504,-0.355469,0.449707,0
46550,0.811035,-0.368652,0.476074,0
46570,0.817871,-0.368164,0.496582,0
46590,0.76709,-0.35791,0.481934,0
46610,0.72168,-0.391113,0.506348,0
46630,0.734375,-0.399414,0.524414,0
46650,0.739746,-0.388184,0.553711,0
46670,0.710938,-0.382324,0.555176,0
46690,0.691895,-0.424805,0.557129,0
46710,0.69873,-0.449707,0.58252,0
46730,0.702148,-0.465332,0.591797,0
46750,0.678223,-0.469238,0.567383,0
46770,0.625488,-0.448242,0.584473,0
46790,0.561035,-0.470215,0.592773,0
46810,0.533691,-0.491211,0.547363,0
46830,0.52832,-0.495605,0.564453,0
46850,0.499512,-0.492676,0.573242,0
46860,0.450684,-0.513672,0.560059,0
46880,0.431641,-0.507324,0.569824,0
46900,0.368652,-0.518555,0.535645,0
46920,0.371582,-0.558594,0.493164,0
46940,0.425293,-0.571289,0.529297,0
46960,0.406738,-0.563965,0.524902,0
46980,0.374023,-0.562988,0.506348,0
47000,0.414551,-0.587891,0.496094,0
47020,0.454102,-0.61084,0.515625,0
47040,0.423828,-0.591309,0.521973,0
47060,0.364746,-0.599121,0.475098,0
47080,0.353516,-0.642578,0.445801,0
47100,0.414062,-0.67627,0.476074,0
47120,0.433594,-0.63623,0.481445,0
47140,0.393066,-0.638184,0.448242,0
47160,0.347168,-0.631348,0.410645,0
47180,0.364746,-0.661621,0.399902,0
47200,0.387207,-0.672852,0.428711,0
47220,0.418945,-0.688477,0.408691,0
47240,0.389648,-0.685547,0.340332,0
47260,0.352539,-0.657227,0.35498,0
47280,0.373535,-0.679688,0.408203,0
47300,0.450684,-0.70166,0.398926,0
47320,0.431152,-0.75,0.321289,0
47340,0.40625,-0.722168,0.283691,0
47360,0.382812,-0.702637,0.316895,0
47380,0.438965,-0.732422,0.354492,0
47400,0.496094,-0.762207,0.333008,0
47420,0.519043,-0.766602,0.29248,0
47440,0.50293,-0.757324,0.304199,0
47460,0.522461,-0.763672,0.299805,0
47480,0.520996,-0.753418,0.289062,0
47500,0.506348,-0.768555,0.245605,0
47520,0.554199,-0.792969,0.221191,0
47540,0.59668,-0.771973,0.271973,0
47560,0.588379,-0.76123,0.248047,0
47580,0.556152,-0.762207,0.199707,0
47600,0.554199,-0.771973,0.188965,0
47620,0.583496,-0.750977,0.197754,0
47640,0.623535,-0.737793,0.184082,0
47660,0.608398,-0.731445,0.147461,0
47680,0.553223,-0.749023,0.12207,0
47700,0.597656,-0.734375,0.159668,0
47720,0.682129,-0.726562,0.178223,0
47740,0.719727,-0.730957,0.0917969,0
47760,0.666992,-0.731445,0.0405273,0
47780,0.619629,-0.728516,0.0883789,0
47800,0.643066,-0.689941,0.0991211,0
47820,0.663086,-0.658203,0.0742188,0
47840,0.650879,-0.685059,0.0234375,0
47860,0.639648,-0.70459,-0.00976562,0
47880,0.661621,-0.681152,0.0224609,0
47900,0.690918,-0.652344,0.0375977,0
47920,0.692871,-0.627441,0.0341797,0
47940,0.720703,-0.651855,-0.0219727,0
47960,0.734375,-0.661621,-0.012207,0
47980,0.696289,-0.625488,0.00292969,0
48000,0.748535,-0.616211,-0.0112305,0
48020,0.794922,-0.623535,-0.0483398,0
48040,0.799805,-0.599121,-0.0307617,0
48060,0.748535,-0.583496,0.0146484,0
48080,0.734375,-0.553711,0.0151367,0
48100,0.853516,-0.539551,-0.00146484,0
48120,0.891602,-0.521484,0.0136719,0
48140,0.864258,-0.496582,-0.00292969,0
48160,0.870117,-0.496582,-0.0327148,0
48180,0.912598,-0.490723,-0.0297852,0
48200,0.959473,-0.45166,-0.00878906,0
48220,0.963867,-0.403809,-0.00488281,0
48240,0.918945,-0.382812,-0.027832,0
48260,0.911133,-0.367188,-0.0322266,0
48280,0.941895,-0.358887,-0.0214844,0
48300,0.959961,-0.32666,-0.00927734,0
48320,0.959473,-0.290039,-0.0102539,0
48340,0.96875,-0.27832,-0.00488281,0
48360,0.962891,-0.266602,0.0322266,0
48380,0.939941,-0.256836,0.0424805,0
48400,0.947266,-0.233887,0.0361328,0
48420,0.963379,-0.211914,0.0410156,0
48440,0.998047,-0.217773,0.0585938,0
48460,0.95459,-0.216797,0.0966797,0
48480,0.950684,-0.229004,0.114746,0
48500,0.977051,-0.228516,0.130859,0
48520,0.989746,-0.233887,0.15625,0
48540,0.975586,-0.239258,0.166504,0
48560,0.92627,-0.252441,0.213867,0
48580,0.930176,-0.256836,0.253418,0
48600,0.973145,-0.252441,0.256348,0
48620,1.01904,-0.257324,0.276855,0
48640,0.992188,-0.297852,0.283203,0
48660,0.908203,-0.341797,0.32373,0
48680,0.910645,-0.360352,0.367676,0
48700,0.945312,-0.362793,0.385742,0
48720,0.952637,-0.391602,0.414551,0
48740,0.90625,-0.362793,0.385254,0
48760,0.79834,-0.39209,0.420898,0
48780,0.76416,-0.408203,0.472168,0
48800,0.76123,-0.432617,0.458008,0
48820,0.728027,-0.42041,0.413574,0
48840,0.674805,-0.42334,0.438965,0
48860,0.669922,-0.457031,0.460938,0
48880,0.651367,-0.475586,0.408691,0
48900,0.579102,-0.507324,0.405273,0
48920,0.556641,-0.540527,0.453613,0
48940,0.583008,-0.552734,0.432617,0
48960,0.58252,-0.567871,0.411133,0
48980,0.558105,-0.57373,0.362305,0
49000,0.53125,-0.59375,0.358398,0
49020,0.556641,-0.638672,0.385742,0
49040,0.54541,-0.663086,0.332031,0
49060,0.547852,-0.655273,0.288574,0
49080,0.515137,-0.638672,0.311035,0
49100,0.503906,-0.668457,0.309082,0
49120,0.487793,-0.677246,0.236816,0
49140,0.47998,-0.681641,0.205078,0
49160,0.501465,-0.679688,0.258789,0
49180,0.513672,-0.681641,0.258789,0
49200,0.526855,-0.70459,0.202637,0
49220,0.539062,-0.741211,0.198242,0
49240,0.539551,-0.736816,0.223145,0
49260,0.575195,-0.779785,0.197266,0
49280,0.553711,-0.753418,0.15332,0
49300,0.521484,-0.745117,0.166504,0
49320,0.529297,-0.765625,0.174805,0
49340,0.539551,-0.764648,0.161621,0
49360,0.516113,-0.756348,0.126953,0
49380,0.470703,-0.731445,0.102051,0
49400,0.439941,-0.747559,0.106934,0
49420,0.466309,-0.776367,0.105957,0
49440,0.495605,-0.776855,0.0952148,0
49460,0.496582,-0.744629,0.0634766,0
49480,0.484375,-0.755859,0.0449219,0
49500,0.511719,-0.785156,0.0610352,0
49520,0.531738,-0.780762,0.0371094,0
49540,0.531738,-0.785156,0.0136719,0
49560,0.539062,-0.795898,0.0239258,0
49580,0.574219,-0.790527,0.0380859,0
49600,0.581055,-0.793457,0.012207,0
49620,0.53418,-0.768066,-0.0322266,0
49640,0.521484,-0.754883,-0.0200195,0
49660,0.55957,-0.750488,0.015625,0
49680,0.635742,-0.739746,0.0136719,0
49700,0.671875,-0.731934,-0.0117188,0
49720,0.65332,-0.755371,-0.0561523,0
49740,0.641602,-0.742676,-0.0473633,0
49760,0.630859,-0.721191,-0.0366211,0
49780,0.643066,-0.680176,-0.0400391,0
49800,0.720703,-0.6875,-0.046875,0
49820,0.777344,-0.686035,-0.0786133,0
49840,0.730957,-0.676758,-0.0913086,0
49860,0.713379,-0.662598,-0.0800781,0
49880,0.760742,-0.62793,-0.0566406,0
49900,0.815918,-0.606445,-0.0947266,0
49920,0.799316,-0.588867,-0.101074,0
49940,0.80127,-0.606445,-0.125,0
49960,0.833984,-0.582031,-0.116699,0
49980,0.859863,-0.52832,-0.11377,0
50000,0.864258,-0.536133,-0.14502,0
50020,0.842285,-0.547852,-0.154785,0
50040,0.830078,-0.529785,-0.140625,0
50060,0.847656,-0.51123,-0.134277,0
50080,0.853516,-0.490723,-0.139648,0
50100,0.854492,-0.483887,-0.147949,0
50120,0.867188,-0.483887,-0.132324,2001
50140,0.89209,-0.47998,-0.12207,0
50160,0.902344,-0.450195,-0.130859,0
50180,0.918945,-0.455078,-0.163574,0
50200,0.945801,-0.484863,-0.159668,0
50220,0.916016,-0.471191,-0.145508,0
50240,0.89502,-0.44873,-0.146484,0
50260,0.883301,-0.439941,-0.136719,0
50280,0.879883,-0.459473,-0.12793,0
50290,0.84668,-0.458984,-0.120605,0
50310,0.807129,-0.45752,-0.121582,0
50330,0.776367,-0.456055,-0.10791,0
50350,0.746094,-0.443359,-0.104004,0
50370,0.713867,-0.446289,-0.106934,0
50390,0.658691,-0.442871,-0.103516,0
50410,0.602539,-0.444824,-0.115723,0
50430,0.587402,-0.425781,-0.102539,0
50450,0.59082,-0.404297,-0.0761719,0
50470,0.574219,-0.383789,-0.0556641,0
50490,0.558105,-0.398438,-0.0893555,0
50510,0.623535,-0.446289,-0.119629,0
50530,0.731445,-0.481445,-0.0708008,0
50550,0.731934,-0.462891,0.00927734,0
50570,0.660156,-0.444336,0.0268555,0
50590,0.67627,-0.494629,-0.03125,0
50610,0.755371,-0.563965,0.019043,0
50630,0.709961,-0.52002,0.166016,0
50650,0.67334,-0.52002,0.195801,0
50670,0.765625,-0.621094,0.0869141,0
50690,0.87793,-0.6875,0.125488,0
50710,0.819336,-0.660156,0.235352,0
50730,0.754395,-0.693848,0.250977,0
50750,0.821777,-0.78125,0.226562,0
50770,0.874023,-0.80127,0.296875,0
50790,0.811523,-0.729492,0.338379,0
50810,0.77832,-0.741699,0.30127,0
50830,0.795898,-0.82666,0.29834,0
50850,0.751465,-0.851562,0.354492,0
50870,0.672363,-0.82373,0.408691,0
50890,0.618652,-0.793457,0.413574,0
50910,0.611328,-0.815918,0.405762,0
50930,0.597168,-0.814941,0.438477,0
50950,0.528809,-0.803223,0.452148,0
50970,0.451172,-0.811035,0.452148,0
50990,0.4375,-0.834473,0.460938,0
51010,0.446289,-0.811035,0.46875,0
51030,0.412598,-0.780762,0.477539,0
51050,0.393066,-0.776367,0.457031,0
51070,0.413086,-0.789062,0.470215,0
51090,0.431152,-0.777344,0.481445,0
51110,0.420898,-0.76123,0.458984,0
51130,0.408203,-0.77002,0.443848,0
51150,0.39209,-0.761719,0.456543,0
51170,0.385742,-0.73584,0.458008,0
51190,0.40918,-0.733887,0.44043,0
51210,0.413574,-0.718262,0.458008,0
51230,0.409668,-0.713867,0.484375,0
51250,0.39502,-0.708984,0.467285,0
51270,0.397949,-0.708496,0.474609,0
51290,0.411621,-0.697754,0.45752,0
51310,0.424316,-0.696289,0.452637,0
51330,0.413086,-0.696289,0.463867,0
51350,0.383789,-0.706543,0.458984,0
51370,0.384766,-0.712891,0.470215,0
51390,0.411621,-0.702148,0.464355,0
51410,0.398438,-0.70459,0.465332,0
51430,0.355469,-0.688477,0.483887,0
51450,0.411621,-0.70459,0.445312,0
51470,0.427734,-0.687012,0.483887,2000
51490,0.422852,-0.702148,0.472168,0
51510,0.422852,-0.692383,0.45459,0
51530,0.431641,-0.705078,0.473145,0
51550,0.445801,-0.733398,0.472656,0
51570,0.444824,-0.724121,0.466309,0
51590,0.424316,-0.702637,0.467285,0
51610,0.411133,-0.706055,0.468262,0
51630,0.405273,-0.709961,0.454102,0
51650,0.410645,-0.696777,0.44873,0
51670,0.39502,-0.696289,0.45752,0
51690,0.377441,-0.710938,0.454102,0
51710,0.390625,-0.709473,0.433105,0
51730,0.423828,-0.705566,0.436523,0
51750,0.445801,-0.692871,0.45752,0
51770,0.445312,-0.682617,0.439453,0
51790,0.439941,-0.713867,0.413574,0
51810,0.458984,-0.734375,0.401855,0
51830,0.478516,-0.711914,0.417969,0
51850,0.476562,-0.688477,0.428223,0
51870,0.466309,-0.681152,0.392578,0
51890,0.474121,-0.703613,0.362793,0
51910,0.523438,-0.716797,0.372559,0
51930,0.551758,-0.701172,0.397461,0
51950,0.540039,-0.709961,0.381836,0
51970,0.484863,-0.683594,0.369629,0
51990,0.505371,-0.690918,0.350586,0
52010,0.54248,-0.71582,0.348145,0
52030,0.560547,-0.723633,0.343262,0
52050,0.545898,-0.696289,0.332031,0
52070,0.528809,-0.697266,0.322754,0
52090,0.59375,-0.699707,0.304199,0
52110,0.659668,-0.682129,0.301758,0
52130,0.633301,-0.645508,0.302734,0
52160,0.647461,-0.65918,0.258301,0
52180,0.666016,-0.664551,0.227539,0
52220,0.666992,-0.625488,0.242188,0
52240,0.708984,-0.59375,0.229492,0
52250,0.748047,-0.583984,0.208984,0
52270,0.767578,-0.557617,0.195312,0
52290,0.742188,-0.53418,0.197754,0
52310,0.729004,-0.54541,0.181641,0
52330,0.764648,-0.544434,0.15918,0
52350,0.771973,-0.522949,0.154297,0
52370,0.775391,-0.507324,0.15625,0
52390,0.779297,-0.510742,0.148926,0
52410,0.807129,-0.518066,0.123535,0
52430,0.825195,-0.503418,0.112793,0
52450,0.83252,-0.480957,0.118164,0
52470,0.844238,-0.462891,0.125488,0
52490,0.857422,-0.440918,0.106445,0
52510,0.87207,-0.438965,0.081543,0
52530,0.876465,-0.413574,0.0805664,0
52550,0.887695,-0.402344,0.081543,0
52570,0.899414,-0.384277,0.0839844,0
52590,0.907715,-0.385254,0.0859375,0
52610,0.901855,-0.382812,0.0961914,0
52630,0.901855,-0.369141,0.121582,0
52650,0.911621,-0.36084,0.129395,0
52670,0.914062,-0.362793,0.145996,0
52690,0.919434,-0.345215,0.15918,0
52710,0.927246,-0.34375,0.167969,0
52730,0.905273,-0.345703,0.188477,0
52750,0.913086,-0.349121,0.204102,0
52770,0.899902,-0.35791,0.229004,0
52790,0.918457,-0.337402,0.273438,0
52810,0.861328,-0.337402,0.315918,0
52830,0.840332,-0.311523,0.325684,0
52850,0.869141,-0.336914,0.341309,0
52870,0.864258,-0.35498,0.368164,0
52890,0.833984,-0.353027,0.413086,0
52910,0.763672,-0.339844,0.434082,0
52930,0.78125,-0.350098,0.422852,0
52950,0.798828,-0.361816,0.416504,0
52970,0.82373,-0.377441,0.44873,0
52990,0.752441,-0.388184,0.509766,0
53010,0.687988,-0.368164,0.538574,0
53030,0.721191,-0.379395,0.49707,0
53050,0.75,-0.379395,0.492676,0
53070,0.745605,-0.412109,0.536621,0
53090,0.648926,-0.42334,0.588379,0
53110,0.586426,-0.402832,0.585938,0
53130,0.61377,-0.408691,0.571777,0
53150,0.634277,-0.418457,0.570801,0
53170,0.592285,-0.405762,0.604004,0
53190,0.539551,-0.423828,0.623047,0
53210,0.55957,-0.486816,0.614258,0
53230,0.627441,-0.487793,0.614746,0
53250,0.632324,-0.459473,0.657227,0
53270,0.545898,-0.452637,0.655273,0
53290,0.470703,-0.477051,0.628418,0
53310,0.459473,-0.488281,0.647949,0
53330,0.450684,-0.465332,0.648438,0
53350,0.36377,-0.467773,0.626465,0
53370,0.314941,-0.51416,0.628418,0
53390,0.37793,-0.535156,0.660156,0
53410,0.352539,-0.512695,0.630859,0
53430,0.279297,-0.501953,0.634277,0
53450,0.289062,-0.528809,0.649414,0
53470,0.308105,-0.557129,0.63623,0
53490,0.333984,-0.608887,0.623047,0
53510,0.336914,-0.607422,0.619141,0
53530,0.3125,-0.605469,0.604492,0
53550,0.293945,-0.61377,0.602051,0
53570,0.28418,-0.619629,0.600586,0
53590,0.306641,-0.612793,0.578613,0
53610,0.318848,-0.629395,0.587891,0
53630,0.327148,-0.617188,0.617188,0
53650,0.33252,-0.635742,0.58252,0
53670,0.281738,-0.65918,0.541992,0
53690,0.281738,-0.672852,0.544922,0
53710,0.284668,-0.643555,0.540039,0
53730,0.17627,-0.619629,0.470215,0
53750,0.137207,-0.645996,0.417969,0
53770,0.198242,-0.669922,0.457031,0
53790,0.276367,-0.709961,0.477539,0
53810,0.316895,-0.734863,0.431641,0
53830,0.287109,-0.724609,0.400391,0
53850,0.275879,-0.717285,0.415527,0
53870,0.333008,-0.746094,0.4375,0
53890,0.373535,-0.765625,0.40918,0
53910,0.367676,-0.797363,0.36377,0
53930,0.367676,-0.825195,0.371094,0
53950,0.390625,-0.803223,0.379395,0
53970,0.388184,-0.773438,0.385254,0
53990,0.345703,-0.757812,0.375,0
54010,0.335449,-0.783691,0.32373,0
54030,0.400391,-0.80957,0.323242,0
54050,0.459961,-0.762207,0.351562,0
54070,0.414062,-0.751465,0.330566,0
54090,0.351074,-0.781738,0.28125,0
54110,0.401367,-0.77832,0.331543,0
54130,0.469238,-0.748047,0.35791,0
54150,0.515625,-0.72168,0.305664,0
54170,0.477539,-0.741211,0.254395,0
54190,0.486328,-0.769531,0.237305,0
54210,0.553711,-0.743164,0.282715,0
54230,0.572754,-0.723633,0.265137,0
54250,0.567871,-0.740234,0.233398,0
54270,0.585449,-0.756348,0.226074,0
54290,0.658691,-0.750488,0.24707,0
54310,0.657715,-0.70166,0.208496,0
54330,0.596191,-0.688965,0.195801,0
54350,0.657227,-0.694336,0.178711,0
54370,0.748535,-0.666504,0.217285,0
54390,0.751465,-0.648438,0.215332,0
54410,0.730957,-0.634277,0.143555,0
54430,0.687012,-0.654785,0.111328,0
54450,0.777344,-0.662598,0.118652,0
54470,0.794922,-0.625,0.151855,0
54490,0.797363,-0.59082,0.134766,0
54510,0.797852,-0.57666,0.0600586,0
54540,0.84375,-0.499512,0.0913086,0
54560,0.843262,-0.468262,0.0356445,0
54580,0.897461,-0.484863,0.0141602,0
54600,0.895508,-0.438965,0.0654297,0
54620,0.88623,-0.407715,0.0673828,0
54640,0.904297,-0.396973,0.0209961,0
54660,0.908203,-0.40625,0.00537109,0
54680,0.911621,-0.37793,0.0498047,0
54700,0.933105,-0.357422,0.0751953,0
54720,0.954102,-0.355469,0.0551758,0
54740,0.944336,-0.356445,0.0566406,0
54760,0.908691,-0.337891,0.0952148,0
54780,0.917969,-0.334473,0.112305,0
54800,0.913086,-0.3125,0.138184,0
54820,0.905762,-0.304199,0.157715,0
54840,0.90332,-0.324219,0.177246,0
54860,0.842773,-0.310547,0.239258,0
54880,0.84082,-0.289062,0.219727,0
54900,0.880859,-0.28125,0.236328,0
54920,0.883301,-0.29248,0.25,0
54940,0.888184,-0.310059,0.289062,0
54960,0.854492,-0.31543,0.320801,0
54980,0.827148,-0.294434,0.312988,0
55000,0.854492,-0.288574,0.311035,0
55020,0.868164,-0.280273,0.338379,0
55040,0.845215,-0.291992,0.365723,0
55060,0.829102,-0.319336,0.390625,0
55080,0.838867,-0.331543,0.379883,0
55100,0.845215,-0.329102,0.38916,0
55120,0.844238,-0.320312,0.436523,0
55140,0.808594,-0.325195,0.483887,0
55160,0.828125,-0.336426,0.474121,0
55180,0.842285,-0.34375,0.460938,0
55200,0.816895,-0.332031,0.516113,0
55220,0.76416,-0.350586,0.554688,0
55240,0.754883,-0.366211,0.522949,0
55260,0.774902,-0.395996,0.508301,0
55280,0.760742,-0.39209,0.541504,0
55300,0.689453,-0.390137,0.576172,0
55320,0.63916,-0.396973,0.556641,0
55340,0.656738,-0.443848,0.57959,0
55360,0.700195,-0.435059,0.599609,0
55380,0.658203,-0.418457,0.592285,0
55400,0.582031,-0.422363,0.59082,0
55420,0.496094,-0.443848,0.598145,0
55440,0.483398,-0.458496,0.623047,0
55460,0.524902,-0.491699,0.599609,0
55480,0.492188,-0.46875,0.527344,0
55500,0.400391,-0.459961,0.516113,0
55520,0.430664,-0.478027,0.577637,0
55540,0.539551,-0.516602,0.590332,0
55560,0.500488,-0.497559,0.525879,0
55580,0.397949,-0.491211,0.532715,0
55600,0.402832,-0.530273,0.562012,0
55620,0.46582,-0.530762,0.58252,0
55640,0.443359,-0.543457,0.538574,0
55650,0.39209,-0.562012,0.514648,0
55670,0.416504,-0.582031,0.571289,0
55690,0.442383,-0.555664,0.581543,0
55710,0.361816,-0.543457,0.508301,0
55730,0.324707,-0.574707,0.495605,0
55750,0.436523,-0.595215,0.590332,0
55770,0.475586,-0.585938,0.551758,0
55790,0.43457,-0.572266,0.470215,0
55810,0.425293,-0.599609,0.469727,0
55830,0.431641,-0.640625,0.525391,0
55850,0.447754,-0.653809,0.489746,0
55870,0.416504,-0.639648,0.379883,0
55890,0.38623,-0.639648,0.358398,0
55910,0.418457,-0.65918,0.415527,0
55930,0.464844,-0.696777,0.437988,0
55950,0.473145,-0.709961,0.373535,0
55970,0.436523,-0.692383,0.3125,0
55990,0.44043,-0.70752,0.336914,0
56010,0.47998,-0.731934,0.399414,0
56030,0.519531,-0.749512,0.385254,0
56050,0.520508,-0.756836,0.302246,0
56070,0.47998,-0.759277,0.286621,0
56090,0.486816,-0.744629,0.328613,0
56110,0.513184,-0.733398,0.349121,0
56130,0.536621,-0.759277,0.289551,0
56150,0.553223,-0.754883,0.271484,0
56170,0.534668,-0.754395,0.262207,0
56190,0.513672,-0.756348,0.234375,0
56210,0.509766,-0.757324,0.225098,0
56230,0.498535,-0.723145,0.224121,0
56250,0.48877,-0.70752,0.22998,0
56270,0.520996,-0.724609,0.215332,0
56290,0.56543,-0.731445,0.206055,0
56310,0.5625,-0.728516,0.168945,0
56330,0.538574,-0.732422,0.143555,0
56350,0.557129,-0.723633,0.157715,0
56370,0.624023,-0.712891,0.143555,0
56390,0.656738,-0.70752,0.103027,0
56410,0.645508,-0.721191,0.0732422,0
56430,0.654297,-0.733398,0.065918,0
56450,0.6875,-0.69873,0.113281,0
56470,0.67627,-0.676758,0.0966797,0
56490,0.655762,-0.678223,0.0170898,0
56510,0.649902,-0.680176,0.000976562,0
56530,0.689941,-0.673828,0.0600586,0
56550,0.726074,-0.632812,0.106445,0
56570,0.719238,-0.630859,0.0541992,0
56590,0.721191,-0.624023,-0.0126953,0
56610,0.774414,-0.601562,0.0258789,0
56630,0.83252,-0.586426,0.0424805,0
56650,0.797363,-0.568848,-0.00439453,0
56670,0.772461,-0.587891,-0.0512695,0
56690,0.788574,-0.592773,-0.0302734,0
56710,0.878906,-0.555176,-0.000488281,0
56730,0.870605,-0.491211,0.00244141,0
56750,0.868164,-0.487305,-0.0541992,0
56770,0.862793,-0.500977,-0.043457,0
56790,0.868164,-0.467773,-0.0214844,0
56810,0.897949,-0.419434,-0.000488281,0
56830,0.917969,-0.387695,-0.0390625,0
56850,0.924316,-0.39209,-0.027832,0
56870,0.897461,-0.398926,-0.0239258,0
56890,0.905762,-0.367188,-0.0258789,0
56910,0.958984,-0.32666,-0.0292969,0
56930,0.963867,-0.307617,-0.0209961,0
56950,0.950195,-0.307617,-0.00830078,0
56970,0.952148,-0.299805,-0.00585938,0
56990,0.977539,-0.262207,0.0166016,0
57010,0.970215,-0.243164,0.0283203,0
57030,0.946777,-0.242676,0.0380859,0
57050,0.951172,-0.232422,0.0722656,0
57070,0.956055,-0.222656,0.129883,0
57090,0.949707,-0.20752,0.134277,0
57110,0.960938,-0.200195,0.135254,0
57130,0.97168,-0.189453,0.152832,0
57150,0.945801,-0.180664,0.190918,0
57170,0.938477,-0.175781,0.223633,0
57190,0.950684,-0.209473,0.220215,0
57210,0.973633,-0.215332,0.238281,0
57230,0.932129,-0.19873,0.269531,0
57250,0.915039,-0.19043,0.273438,0
57270,0.892578,-0.193359,0.305664,0
57290,0.897461,-0.210449,0.321777,0
57310,0.945801,-0.219727,0.331055,0
57330,0.939453,-0.224121,0.362793,0
57350,0.921387,-0.254395,0.353516,0
57370,0.909668,-0.275391,0.369629,0
57390,0.89502,-0.294922,0.428223,0
57410,0.921875,-0.310059,0.457031,0
57430,0.929688,-0.328613,0.439453,0
57450,0.858398,-0.329102,0.415039,0
57470,0.824707,-0.348633,0.45166,0
57490,0.785645,-0.369629,0.507812,0
57510,0.729004,-0.410156,0.484863,0
57530,0.730469,-0.389648,0.477539,0
57550,0.728027,-0.370605,0.499023,0
57570,0.657715,-0.390625,0.519043,0
57590,0.630859,-0.469238,0.48291,0
57610,0.644531,-0.456543,0.491699,0
57630,0.541016,-0.402832,0.500977,0
57640,0.447754,-0.45166,0.476074,0
57660,0.561523,-0.490234,0.476562,0
57680,0.567871,-0.495117,0.4375,0
57700,0.496582,-0.49707,0.456055,0
57720,0.481934,-0.561035,0.459473,0
57740,0.538086,-0.568848,0.43457,0
57760,0.545898,-0.583008,0.421387,0
57780,0.483887,-0.54541,0.38623,0
57800,0.450195,-0.595215,0.348633,0
57820,0.492188,-0.647949,0.35791,0
57840,0.521973,-0.677734,0.384277,0
57860,0.54541,-0.617188,0.3125,0
57880,0.504395,-0.623535,0.29541,0
57900,0.475098,-0.694336,0.319336,0
57920,0.521973,-0.741211,0.299316,0
57940,0.549316,-0.753418,0.23584,0
57960,0.489258,-0.681152,0.187012,0
57980,0.444824,-0.699707,0.241699,0
58000,0.511719,-0.769043,0.251953,0
58020,0.535156,-0.768555,0.175781,0
58040,0.485352,-0.697266,0.172363,0
58060,0.436523,-0.694824,0.206055,0
58080,0.512695,-0.779297,0.126953,0
58100,0.571777,-0.813965,0.119629,0
58120,0.51123,-0.745605,0.0966797,0
58140,0.459473,-0.716309,0.0717773,0
58160,0.466309,-0.75293,0.101562,0
58180,0.529297,-0.762207,0.116699,0
58200,0.568848,-0.773926,0.0751953,0
58220,0.538086,-0.763672,0.059082,0
58240,0.527832,-0.768555,0.059082,0
58260,0.562012,-0.771973,0.0869141,0
58280,0.602051,-0.732422,0.0981445,0
58300,0.609375,-0.750488,0.0673828,0
58320,0.662109,-0.76709,0.0327148,0
58340,0.698242,-0.768066,0.0297852,0
58360,0.6875,-0.712402,0.0722656,0
58380,0.643066,-0.661133,0.0483398,0
58400,0.641602,-0.678711,-0.0317383,0
58420,0.719727,-0.70459,-0.0307617,0
58440,0.786133,-0.69873,0.0390625,0
58460,0.778809,-0.665527,0.0170898,0
58480,0.737305,-0.625,-0.0410156,0
58500,0.770996,-0.649902,-0.090332,0
58520,0.810059,-0.651367,-0.0527344,0
58540,0.834473,-0.620117,-0.0205078,0
58560,0.805176,-0.594727,-0.0742188,0
58580,0.803223,-0.597168,-0.0966797,0
58600,0.845703,-0.591797,-0.0825195,0
58620,0.890625,-0.57373,-0.0825195,0
58640,0.867188,-0.557617,-0.102051,0
58660,0.811523,-0.547363,-0.123535,0
58680,0.821289,-0.532227,-0.108887,0
58700,0.888672,-0.525879,-0.0981445,0
58720,0.908203,-0.508301,-0.126953,0
58740,0.856934,-0.509277,-0.140625,0
58760,0.83252,-0.505371,-0.118652,0
58780,0.845215,-0.459473,-0.081543,0
58800,0.864746,-0.452637,-0.103027,0
58820,0.884277,-0.46875,-0.130371,0
58840,0.870117,-0.486816,-0.120605,0
58860,0.869629,-0.491211,-0.111816,2001
58880,0.878418,-0.456055,-0.130859,0
58900,0.874512,-0.447754,-0.130371,0
58920,0.874023,-0.463379,-0.124512,0
58940,0.877441,-0.474609,-0.104004,0
58960,0.849121,-0.463379,-0.0898438,0
58980,0.830078,-0.460449,-0.104004,0
59000,0.839355,-0.479492,-0.100098,0
59020,0.821777,-0.459473,-0.103516,0
59040,0.773926,-0.455566,-0.0854492,0
59060,0.758301,-0.469238,-0.0678711,0
59080,0.769043,-0.473633,-0.0961914,0
59100,0.754883,-0.475098,-0.0849609,0
59120,0.750488,-0.481445,-0.0922852,0
59140,0.73584,-0.482422,-0.0976562,0
59160,0.706055,-0.469238,-0.0854492,0
59180,0.668945,-0.466797,-0.0820312,0
59200,0.618652,-0.430664,-0.0551758,0
59220,0.543945,-0.38916,-0.0375977,0
59240,0.521484,-0.388672,-0.0249023,0
59260,0.549316,-0.408691,-0.0234375,0
59280,0.620605,-0.415527,-0.0185547,0
59300,0.601074,-0.38623,0.0117188,0
59320,0.55127,-0.396484,0.0234375,0
59340,0.60791,-0.475586,0.0107422,0
59360,0.740723,-0.544434,0.0512695,0
59380,0.769531,-0.543457,0.12207,0
59400,0.769043,-0.561035,0.159668,0
59420,0.884766,-0.650391,0.134766,0
59440,0.919434,-0.700195,0.200684,0
59460,0.872559,-0.700195,0.227051,0
59480,0.881836,-0.728027,0.216797,0
59500,0.951172,-0.824707,0.25,0
59520,0.866211,-0.845703,0.322266,0
59540,0.774902,-0.824707,0.353027,0
59560,0.777832,-0.784668,0.368164,0
59580,0.797363,-0.828125,0.365234,0
59600,0.749023,-0.8125,0.387695,0
59620,0.625,-0.769043,0.428711,0
59640,0.530273,-0.772461,0.43457,0
59660,0.517578,-0.816895,0.418457,0
59680,0.52002,-0.799805,0.436523,0
59700,0.489746,-0.765625,0.450195,0
59720,0.433105,-0.799805,0.436035,0
59740,0.407227,-0.830078,0.427246,0
59760,0.419434,-0.818359,0.45166,0
59780,0.422852,-0.77002,0.449219,0
59800,0.402344,-0.751953,0.431641,0
59820,0.404297,-0.763672,0.422852,0
59840,0.421875,-0.790527,0.438477,0
59860,0.436523,-0.784668,0.450684,0
59880,0.395996,-0.747559,0.435059,0
59900,0.373535,-0.742676,0.424805,0
59920,0.390625,-0.743652,0.443848,0
59940,0.397461,-0.733887,0.439453,0
59960,0.375977,-0.714355,0.444336,0
59980,0.383789,-0.72168,0.442383,0
60000,0.414062,-0.727539,0.459473,0
60020,0.437988,-0.718262,0.452148,0
60040,0.42334,-0.709961,0.440918,0
60060,0.390625,-0.709961,0.449219,0
60080,0.412598,-0.742188,0.453613,0
60100,0.458008,-0.717285,0.455078,2000
60120,0.468262,-0.713867,0.433594,0
60140,0.439453,-0.706055,0.442871,0
60160,0.410645,-0.6875,0.427734,0
60180,0.412109,-0.729492,0.44043,0
60200,0.426758,-0.745117,0.449219,0
60220,0.429688,-0.727539,0.447266,0
60240,0.418945,-0.717773,0.445312,0
60260,0.393066,-0.710449,0.445312,0
60280,0.377441,-0.715332,0.449219,0
60300,0.380859,-0.705078,0.445801,0
60320,0.394531,-0.727051,0.446289,0
60340,0.425781,-0.725586,0.446289,0
60360,0.446777,-0.710938,0.443359,0
60380,0.429199,-0.693359,0.420898,0
60400,0.425293,-0.708984,0.397949,0
60420,0.461914,-0.717285,0.413574,0
60440,0.494141,-0.709473,0.415527,0
60460,0.493164,-0.695801,0.398438,0
60480,0.487793,-0.708984,0.368652,0
60500,0.459473,-0.708496,0.378418,0
60520,0.489258,-0.697266,0.365723,0
60540,0.515137,-0.714844,0.350586,0
60560,0.53125,-0.702637,0.376465,0
60580,0.525879,-0.688477,0.39209,0
60600,0.541016,-0.683105,0.354004,0
60620,0.574707,-0.691895,0.342773,0
60640,0.560059,-0.692383,0.32666,0
60660,0.557617,-0.689941,0.32373,0
60680,0.553223,-0.68457,0.33252,0
60700,0.57373,-0.678711,0.324707,0
60720,0.621094,-0.679688,0.321289,0
60740,0.603027,-0.67627,0.303223,0
60760,0.625488,-0.674805,0.302246,0
60770,0.606934,-0.631836,0.295898,0
60790,0.637207,-0.640625,0.286621,0
60810,0.681152,-0.633301,0.279785,0
60830,0.71875,-0.614746,0.278809,0
60850,0.693848,-0.595215,0.26709,0
60870,0.671387,-0.574707,0.266113,0
60890,0.669434,-0.589844,0.250488,0
60910,0.691895,-0.589844,0.233887,0
60930,0.684082,-0.567383,0.23584,0
60950,0.733398,-0.558594,0.226562,0
60970,0.766113,-0.541504,0.214844,0
60990,0.779297,-0.532227,0.192871,0
61010,0.81543,-0.502441,0.18457,0
61020,0.826172,-0.478516,0.171875,0
61040,0.841309,-0.487793,0.135254,0
61060,0.853516,-0.490234,0.117188,0
61080,0.875977,-0.459473,0.11084,0
61100,0.870605,-0.442871,0.113281,0
61120,0.865234,-0.430176,0.102051,0
61140,0.879395,-0.430176,0.0820312,0
61160,0.896973,-0.42334,0.0883789,0
61180,0.883789,-0.411133,0.103516,0
61200,0.880371,-0.396973,0.127441,0
61220,0.867676,-0.388184,0.157227,0
61240,0.870605,-0.391602,0.178711,0
61260,0.884277,-0.37793,0.174805,0
61280,0.875488,-0.370605,0.191406,0
61300,0.881836,-0.359375,0.213379,0
61320,0.869141,-0.366699,0.237793,0
61340,0.870117,-0.342285,0.251953,0
61360,0.923828,-0.341309,0.242188,0
61380,0.879395,-0.344727,0.271484,0
61400,0.835938,-0.356445,0.30957,0
61420,0.832031,-0.345215,0.330566,0
61440,0.852051,-0.358887,0.351074,0
61460,0.845703,-0.368652,0.350586,0
61480,0.847656,-0.369141,0.361328,0
61500,0.789062,-0.351074,0.427734,0
61520,0.788086,-0.338867,0.442871,0
61540,0.803711,-0.348145,0.440918,0
61560,0.820801,-0.347656,0.447266,0
61580,0.810547,-0.367188,0.472656,0
61600,0.772949,-0.374023,0.506348,0
61620,0.72998,-0.354004,0.498535,0
61640,0.713379,-0.353027,0.509277,0
61660,0.723145,-0.361816,0.5625,0
61680,0.674316,-0.376465,0.59668,0
61700,0.644531,-0.407227,0.594727,0
61720,0.648926,-0.397949,0.599609,0
61740,0.637207,-0.370117,0.648438,0
61760,0.620605,-0.37207,0.669434,0
61780,0.60791,-0.404297,0.661621,0
61800,0.60498,-0.418945,0.672852,0
61820,0.575195,-0.402344,0.680664,0
61840,0.53418,-0.397461,0.671387,0
61860,0.505371,-0.405273,0.668945,0
61880,0.461914,-0.41748,0.657715,0
61900,0.455078,-0.411621,0.699219,0
61920,0.449707,-0.430176,0.702148,0
61940,0.464355,-0.411621,0.686035,0
61960,0.43457,-0.427734,0.693359,0
61980,0.389648,-0.436035,0.687012,0
62000,0.368652,-0.457031,0.70459,0
62020,0.39209,-0.47998,0.703125,0
62040,0.418457,-0.463867,0.726074,0
62060,0.418457,-0.48877,0.691895,0
62080,0.391113,-0.496582,0.664551,0
62100,0.354004,-0.513672,0.700195,0
62120,0.385254,-0.516602,0.704102,0
62140,0.389648,-0.494141,0.634277,0
62160,0.332031,-0.486816,0.648926,0
62180,0.29248,-0.491211,0.700195,0
62200,0.298828,-0.495117,0.635742,0
62220,0.259277,-0.462402,0.578613,0
62240,0.179199,-0.445801,0.581055,0
62260,0.175293,-0.501465,0.625488,0
62280,0.261719,-0.553711,0.621582,0
62300,0.314941,-0.577637,0.572754,0
62320,0.272949,-0.543457,0.586426,0
62340,0.242676,-0.578613,0.631348,0
62360,0.298828,-0.595703,0.626953,0
62380,0.289551,-0.630371,0.599121,0
62400,0.269531,-0.596191,0.563477,0
62420,0.261719,-0.618164,0.569824,0
62440,0.280273,-0.653809,0.582031,0
62460,0.280273,-0.654297,0.545898,0
62480,0.26416,-0.640625,0.479004,0
62500,0.249512,-0.680664,0.51123,0
62520,0.268066,-0.6875,0.561523,0
62540,0.288574,-0.693359,0.497559,0
62560,0.299805,-0.712891,0.438477,0
62580,0.285645,-0.727051,0.418945,0
62600,0.290527,-0.734863,0.452148,0
62620,0.33252,-0.759277,0.463867,0
62640,0.357422,-0.746582,0.422363,0
62660,0.318359,-0.740723,0.412598,0
62680,0.341309,-0.759277,0.423828,0
62700,0.373047,-0.764648,0.42041,0
62720,0.392578,-0.74707,0.385742,0
62740,0.346191,-0.746094,0.335449,0
62760,0.329102,-0.769043,0.350586,0
62780,0.399902,-0.753418,0.40918,0
62800,0.460938,-0.709473,0.379395,0
62820,0.423828,-0.69873,0.317871,0
62840,0.395996,-0.744141,0.302734,0
62860,0.441895,-0.750977,0.354492,0
62880,0.541992,-0.739746,0.352051,0
62900,0.565918,-0.72168,0.276367,0
62920,0.501953,-0.737305,0.231934,0
62940,0.550293,-0.756348,0.272949,0
62960,0.631836,-0.742188,0.338379,0
62980,0.595215,-0.690918,0.311035,0
63000,0.554688,-0.709961,0.242188,0
63010,0.587402,-0.70752,0.231934,0
63030,0.654785,-0.705566,0.279785,0
63050,0.686035,-0.693359,0.274414,0
63070,0.631836,-0.669922,0.251465,0
63090,0.61084,-0.693848,0.203613,0
63110,0.693848,-0.670898,0.241211,0
63130,0.776855,-0.627441,0.289551,0
63150,0.778809,-0.600586,0.245117,0
63170,0.734375,-0.597656,0.17627,0
63190,0.73584,-0.616211,0.19873,0
63210,0.760254,-0.606445,0.248535,0
63230,0.810547,-0.583008,0.179199,0
63250,0.790039,-0.547852,0.133301,0
63270,0.819824,-0.535645,0.14502,0
63290,0.856445,-0.493164,0.20166,0
63310,0.897461,-0.466797,0.182617,0
63330,0.868164,-0.449219,0.125488,0
63350,0.886719,-0.45752,0.0913086,0
63370,0.900391,-0.450684,0.144531,0
63390,0.882812,-0.404785,0.168457,0
63410,0.900391,-0.367188,0.152344,0
63430,0.925293,-0.354004,0.125,0
63450,0.943848,-0.367188,0.129883,0
63470,0.890137,-0.351074,0.177734,0
63490,0.890625,-0.325684,0.182129,0
63510,0.907227,-0.30127,0.180176,0
63530,0.921875,-0.291016,0.193359,0
63550,0.899902,-0.291016,0.213379,0
63570,0.885254,-0.260254,0.233887,0
63590,0.906738,-0.248535,0.242676,0
63610,0.894043,-0.236816,0.259277,0
63630,0.893066,-0.212402,0.259766,0
63650,0.899902,-0.213379,0.263184,0
63670,0.916504,-0.212402,0.282715,0
63690,0.924316,-0.200684,0.305176,0
63710,0.947754,-0.194824,0.312988,0
63730,0.909668,-0.202637,0.325195,0
63750,0.870605,-0.208008,0.340332,0
63770,0.904297,-0.206055,0.358887,0
63790,0.932129,-0.217773,0.380371,0
63810,0.90332,-0.232422,0.416992,0
63830,0.833008,-0.246582,0.450684,0
63850,0.834473,-0.251465,0.466797,0
63870,0.861816,-0.249023,0.473145,0
63890,0.850586,-0.249023,0.488281,0
63910,0.803223,-0.270996,0.50293,0
63930,0.78125,-0.300781,0.560059,0
63950,0.790527,-0.337891,0.586914,0
63970,0.799805,-0.33252,0.566406,0
63990,0.772949,-0.312012,0.563965,0
64010,0.743164,-0.324219,0.635254,0
64030,0.70752,-0.360352,0.656738,0
64050,0.682129,-0.36377,0.616211,0
64070,0.606445,-0.290527,0.580078,0
64090,0.515625,-0.273926,0.604492,0
64110,0.45459,-0.302734,0.609375,0
64130,0.430176,-0.374512,0.595703,0
64150,0.494141,-0.421387,0.609863,0
64170,0.578613,-0.407715,0.625,0
64190,0.57666,-0.37207,0.63916,0
64210,0.510254,-0.404785,0.617676,0
64230,0.504883,-0.449219,0.607422,0
64250,0.523926,-0.430664,0.626465,0
64270,0.500488,-0.401367,0.620117,0
64290,0.436035,-0.397461,0.61084,0
64310,0.428223,-0.438965,0.59082,0
64330,0.470703,-0.453125,0.625977,0
64350,0.411621,-0.454102,0.616699,0
64370,0.368652,-0.484863,0.585938,0
64390,0.413574,-0.506348,0.589355,0
64410,0.416016,-0.508789,0.586426,0
64430,0.361816,-0.473633,0.576172,0
64450,0.343262,-0.549316,0.550781,0
64470,0.387695,-0.537109,0.524414,0
64490,0.42627,-0.584961,0.555176,0
64510,0.437012,-0.546875,0.550293,0
64530,0.380859,-0.516602,0.518555,0
64550,0.333008,-0.5625,0.485352,0
64570,0.39209,-0.628906,0.504883,0
64590,0.471191,-0.655273,0.491211,0
64610,0.4375,-0.584473,0.466797,0
64630,0.384766,-0.606445,0.439941,0
64650,0.446777,-0.680664,0.439941,0
64670,0.502441,-0.711914,0.428711,0
64690,0.481445,-0.695312,0.40918,0
64710,0.415527,-0.663574,0.373535,0
64730,0.396973,-0.684082,0.380371,0
64750,0.469727,-0.732422,0.422363,0
64770,0.543457,-0.75,0.423828,0
64790,0.51416,-0.723145,0.334961,0
64810,0.461914,-0.733398,0.305664,0
64830,0.461426,-0.73584,0.320312,0
64850,0.502441,-0.741699,0.332031,0
64870,0.529297,-0.742188,0.298828,0
64890,0.501465,-0.731445,0.279785,0
64910,0.490723,-0.726562,0.284668,0
64930,0.509766,-0.736328,0.268555,0
64950,0.557617,-0.737793,0.256348,0
64970,0.570801,-0.733398,0.246094,0
64990,0.559082,-0.723633,0.202637,0
65010,0.549316,-0.756348,0.161621,0
65030,0.583984,-0.750488,0.165039,0
65050,0.600586,-0.714355,0.17627,0
65070,0.618652,-0.726074,0.147461,0
65090,0.674316,-0.743652,0.102051,0
65110,0.669434,-0.746582,0.0703125,0
65130,0.635742,-0.715332,0.0932617,0
65150,0.626465,-0.706055,0.107422,0
65170,0.657715,-0.712891,0.0688477,0
65190,0.65332,-0.700684,0.043457,0
65210,0.654785,-0.695312,0.0375977,0
65230,0.708984,-0.683105,0.059082,0
65250,0.732422,-0.658203,0.0463867,0
65270,0.695801,-0.666992,-0.0249023,0
65290,0.671875,-0.678711,-0.0249023,0
65310,0.70459,-0.655762,0.0258789,0
65330,0.756836,-0.587402,0.0454102,0
65350,0.767578,-0.588867,-0.0458984,0
65370,0.741699,-0.601562,-0.0737305,0
65390,0.745605,-0.592773,-0.0424805,0
65410,0.780273,-0.556152,-0.0180664,0
65430,0.858398,-0.529297,-0.0766602,0
65450,0.881836,-0.526367,-0.0917969,0
65470,0.875488,-0.536133,-0.0859375,0
65490,0.88916,-0.520996,-0.0712891,0
65510,0.891602,-0.460938,-0.0527344,0
65530,0.879883,-0.424316,-0.0585938,0
65550,0.89502,-0.413574,-0.0810547,0
65570,0.96582,-0.407715,-0.0605469,0
65590,0.936035,-0.378906,-0.0078125,0
65610,0.875488,-0.328125,-0.0151367,0
65630,0.880371,-0.320801,-0.0527344,0
65650,0.920898,-0.321289,-0.0527344,0
65670,0.956543,-0.293945,-0.015625,0
65690,0.9375,-0.26123,-0.0107422,0
65710,0.963379,-0.249512,-0.0244141,0
65730,0.995117,-0.236328,0.0126953,0
65750,0.994141,-0.225098,0.0317383,0
65770,0.992188,-0.225586,0.0200195,0
65790,0.974609,-0.211914,0.0522461,0
65810,0.983398,-0.19873,0.0820312,0
65830,1.00146,-0.19043,0.102539,0
65850,1.01611,-0.196289,0.134277,0
65870,1,-0.201172,0.159668,0
65890,0.982422,-0.20752,0.188965,0
65910,0.941895,-0.200684,0.215332,0
65930,0.928711,-0.216797,0.234375,0
65950,0.965332,-0.22168,0.238281,0
65970,0.967285,-0.249023,0.260254,0
65990,0.911621,-0.276855,0.293945,0
66010,0.879883,-0.295898,0.325195,0
66030,0.871094,-0.302734,0.332031,0
66050,0.871582,-0.299316,0.326172,0
66070,0.883301,-0.314941,0.355469,0
66090,0.899902,-0.325195,0.389648,0
66110,0.90625,-0.346191,0.416992,0
66130,0.901855,-0.338867,0.382812,0
66150,0.874023,-0.34082,0.374512,0
66170,0.846191,-0.374023,0.410645,0
66190,0.815918,-0.384277,0.462891,0
66210,0.789062,-0.398438,0.481934,0
66230,0.794922,-0.407227,0.456055,0
66250,0.778809,-0.429688,0.429199,0
66270,0.757324,-0.445801,0.469727,0
66290,0.708008,-0.439941,0.499023,0
66310,0.643555,-0.478027,0.428711,0
66330,0.650391,-0.467285,0.458008,0
66350,0.589355,-0.471191,0.470215,0
66370,0.547852,-0.482422,0.475098,0
66390,0.575684,-0.526367,0.416016,0
66410,0.586914,-0.527344,0.391602,0
66430,0.502441,-0.515625,0.438477,0
66440,0.488281,-0.54541,0.388184,0
66460,0.541504,-0.583496,0.316406,0
66480,0.472168,-0.543945,0.260254,0
