Timestamp, Acceleration x, Acceleration y, Acceleration z, Marker
40,-0.334473,-0.458008,0.759277,0
60,-0.335449,-0.452637,0.763672,0
80,-0.333008,-0.461914,0.761719,0
100,-0.329102,-0.463867,0.762207,0
120,-0.33252,-0.456543,0.765625,0
140,-0.330078,-0.459473,0.759277,0
160,-0.331543,-0.462891,0.77002,0
160,-0.33252,-0.453125,0.762207,0
160,-0.333008,-0.458496,0.765137,0
210,-0.33252,-0.459473,0.759277,0
230,-0.330566,-0.460449,0.765137,0
250,-0.331055,-0.460938,0.761719,0
270,-0.32959,-0.455078,0.759766,0
290,-0.332031,-0.455566,0.762207,0
310,-0.334961,-0.462402,0.765625,0
330,-0.333496,-0.461426,0.757812,0
350,-0.33252,-0.461914,0.767578,0
370,-0.334473,-0.45752,0.763184,0
390,-0.334473,-0.455078,0.762695,0
410,-0.33252,-0.458496,0.760742,0
430,-0.333008,-0.458008,0.76123,0
450,-0.330566,-0.457031,0.760254,0
470,-0.335938,-0.45752,0.76123,0
490,-0.332031,-0.456543,0.753906,0
510,-0.336914,-0.458008,0.760254,0
530,-0.336426,-0.459473,0.758301,0
550,-0.341309,-0.457031,0.76123,0
570,-0.33252,-0.459473,0.762207,0
590,-0.34082,-0.455078,0.765625,0
610,-0.33252,-0.452637,0.760742,0
630,-0.338379,-0.461914,0.759766,0
650,-0.340332,-0.45752,0.760254,0
670,-0.336914,-0.455078,0.755371,0
690,-0.337891,-0.456055,0.759766,0
710,-0.334473,-0.461426,0.763672,0
730,-0.339844,-0.45752,0.768066,0
750,-0.340332,-0.458008,0.765137,0
770,-0.336426,-0.456543,0.761719,0
790,-0.335938,-0.461426,0.757324,0
810,-0.336914,-0.459961,0.75293,0
830,-0.339844,-0.457031,0.75,0
850,-0.340332,-0.455078,0.762207,0
870,-0.341309,-0.463379,0.760742,0
890,-0.344238,-0.455078,0.761719,0
910,-0.341309,-0.460449,0.758301,0
930,-0.344238,-0.455566,0.754395,0
950,-0.336914,-0.458496,0.75,0
970,-0.337402,-0.461914,0.759766,0
990,-0.342285,-0.453125,0.76416,0
1010,-0.342285,-0.456543,0.757324,0
1030,-0.341309,-0.45752,0.760254,0
1050,-0.340332,-0.453613,0.762207,0
1070,-0.341309,-0.44873,0.759766,0
1090,-0.342773,-0.452148,0.75293,0
1110,-0.343262,-0.453613,0.754395,0
1130,-0.343262,-0.456055,0.760742,0
1150,-0.344727,-0.452637,0.76123,0
1160,-0.341797,-0.45166,0.757812,0
1180,-0.339355,-0.457031,0.757324,0
1200,-0.342773,-0.453613,0.760254,0
1220,-0.342285,-0.454102,0.762695,0
1240,-0.341309,-0.459961,0.757324,0
1260,-0.337891,-0.449219,0.762695,0
1280,-0.34082,-0.454102,0.758301,0
1300,-0.345215,-0.454102,0.755859,0
1320,-0.341797,-0.455078,0.755859,0
1340,-0.342773,-0.45752,0.758789,0
1360,-0.341309,-0.456543,0.763184,0
1380,-0.341797,-0.455566,0.76123,0
1400,-0.339844,-0.458496,0.768066,0
1420,-0.342285,-0.456543,0.760254,0
1440,-0.342773,-0.446289,0.762695,0
1460,-0.342285,-0.460938,0.757324,0
1480,-0.339355,-0.455078,0.764648,0
1500,-0.341309,-0.452148,0.756348,0
1520,-0.337402,-0.454102,0.761719,0
1540,-0.337891,-0.453613,0.769043,0
1560,-0.341309,-0.454102,0.770508,0
1580,-0.341309,-0.452148,0.76709,0
1600,-0.334961,-0.453125,0.760742,0
1620,-0.335938,-0.449707,0.763184,0
1640,-0.339844,-0.450195,0.757324,0
1660,-0.340332,-0.455078,0.760742,0
1680,-0.341309,-0.458984,0.765137,0
1700,-0.341309,-0.450684,0.762695,0
1720,-0.337891,-0.455078,0.765625,0
1740,-0.337891,-0.460938,0.765137,0
1760,-0.334473,-0.450195,0.760742,0
1780,-0.339844,-0.45752,0.760254,0
1800,-0.339355,-0.462402,0.776367,0
1820,-0.354004,-0.519531,0.756836,0
1840,-0.36377,-0.556152,0.763672,0
1860,-0.354492,-0.55127,0.773438,0
1880,-0.303223,-0.489746,0.817383,0
1900,-0.40918,-0.519043,0.768555,0
1920,-0.492676,-0.501465,0.713867,0
1940,-0.470215,-0.429688,0.717285,0
1960,-0.394531,-0.340332,0.831543,0
1980,-0.380371,-0.3125,0.716797,0
2000,-0.399902,-0.197754,0.79248,0
2020,-0.313965,-0.144043,0.891113,0
2040,-0.28418,-0.214355,0.915527,0
2060,-0.239258,-0.336914,0.890625,0
2080,-0.255859,-0.34668,0.907227,0
2100,-0.196289,-0.3125,0.947754,0
2120,-0.182617,-0.266602,0.943359,0
2140,-0.0859375,-0.244141,0.930664,0
2160,-0.0712891,-0.231934,0.885742,0
2180,-0.0961914,-0.305176,0.938477,0
2200,-0.0405273,-0.364746,0.927734,0
2220,0.0112305,-0.339355,0.934082,0
2240,0.0517578,-0.290527,0.922852,0
2260,0.0229492,-0.303711,0.897461,0
2280,0.0180664,-0.34668,0.874023,0
2300,0.0888672,-0.362793,0.895996,0
2320,0.146484,-0.32666,0.865234,0
2340,0.164062,-0.3125,0.817383,0
2360,0.128906,-0.321289,0.817871,0
2380,0.164551,-0.352539,0.828613,0
2400,0.164551,-0.348633,0.84375,0
2420,0.122559,-0.303711,0.722656,0
2440,0.112793,-0.32373,0.745117,0
2460,0.104004,-0.258301,0.793945,0
2480,0.0834961,-0.320801,0.816895,0
2500,0.121582,-0.373535,0.857422,0
2520,0.133789,-0.439941,0.782227,0
2540,0.134766,-0.48877,0.803711,0
2560,0.144043,-0.40625,0.908203,0
2580,0.0600586,-0.265625,0.888672,0
2600,0.0600586,-0.251953,0.826172,0
2620,0.118652,-0.310059,0.829102,0
2640,0.158691,-0.29834,0.861328,0
2660,0.15918,-0.30127,0.858887,0
2680,0.110352,-0.299316,0.804199,0
2700,0.141602,-0.292969,0.738281,0
2720,0.208008,-0.34082,0.762207,0
2740,0.244629,-0.384277,0.774414,0
2760,0.175781,-0.426758,0.702637,0
2780,0.0908203,-0.301758,0.819336,0
2800,0.12207,-0.199707,0.836914,0
2820,0.275879,-0.232422,0.784668,0
2840,0.29248,-0.306152,0.730957,0
2860,0.325195,-0.370117,0.726562,0
2880,0.310547,-0.332031,0.757812,0
2900,0.234375,-0.31543,0.802734,0
2920,0.296387,-0.416016,0.874023,0
2940,0.267578,-0.421875,0.869141,0
2960,0.194824,-0.345215,0.793457,0
2980,0.234863,-0.385742,0.794434,0
3000,0.29248,-0.435547,0.782715,0
3020,0.243164,-0.453125,0.768555,0
3040,0.219727,-0.425293,0.802246,0
3060,0.280762,-0.446289,0.852539,0
3080,0.226074,-0.379395,0.811523,0
3100,0.199219,-0.365723,0.766602,0
3120,0.293945,-0.384277,0.827637,0
3140,0.412109,-0.334473,0.742188,0
3160,0.363281,-0.384766,0.69873,0
3180,0.333984,-0.403809,0.734375,0
3200,0.424316,-0.382324,0.743164,0
3220,0.428223,-0.364258,0.734375,0
3240,0.407715,-0.401367,0.703613,0
3260,0.395996,-0.37793,0.723633,0
3280,0.416992,-0.319336,0.760742,0
3300,0.446289,-0.34375,0.726562,0
3320,0.422852,-0.327637,0.723633,0
3340,0.411133,-0.311035,0.753418,0
3360,0.443359,-0.312012,0.726074,0
3380,0.448242,-0.346191,0.710449,0
3400,0.395508,-0.333496,0.740723,0
3420,0.39502,-0.27002,0.762695,0
3440,0.441895,-0.32373,0.758301,0
3460,0.430664,-0.367676,0.72168,0
3480,0.391602,-0.289062,0.766113,0
3500,0.375977,-0.262207,0.748047,0
3520,0.413086,-0.291504,0.774902,0
3540,0.441895,-0.303711,0.780762,0
3560,0.399902,-0.304688,0.756348,0
3580,0.389648,-0.309082,0.765137,0
3600,0.349121,-0.304688,0.77002,0
3620,0.313965,-0.285645,0.774414,0
3640,0.32666,-0.322754,0.793457,0
3660,0.32373,-0.297363,0.822266,0
3680,0.331055,-0.286621,0.802734,0
3700,0.33252,-0.338379,0.820801,0
3720,0.33252,-0.285156,0.827148,0
3740,0.342773,-0.210449,0.776855,0
3760,0.329102,-0.280273,0.77002,0
3780,0.362793,-0.356934,0.76709,0
3800,0.318359,-0.332031,0.836426,0
3820,0.330566,-0.244141,0.830078,0
3840,0.341309,-0.227051,0.791016,0
3860,0.320312,-0.276367,0.834961,0
3880,0.273926,-0.30127,0.82373,0
3900,0.260254,-0.315918,0.825684,0
3920,0.250977,-0.286133,0.860352,0
3940,0.239746,-0.23877,0.874023,0
3960,0.234375,-0.20752,0.862793,0
3980,0.243652,-0.267578,0.837402,0
4000,0.217285,-0.303223,0.85498,0
4020,0.162109,-0.275879,0.873047,0
4040,0.178711,-0.290527,0.819824,0
4060,0.197754,-0.359863,0.860352,0
4080,0.202148,-0.335938,0.87207,0
4100,0.210938,-0.29541,0.853516,0
4110,0.208984,-0.291016,0.841797,0
4130,0.245605,-0.365723,0.834473,0
4150,0.243164,-0.343262,0.827148,0
4170,0.221191,-0.324219,0.83252,0
4190,0.239746,-0.323242,0.847168,0
4210,0.214844,-0.327637,0.844727,0
4230,0.177246,-0.312988,0.844727,0
4250,0.157227,-0.331543,0.833984,0
4270,0.167969,-0.338379,0.820312,0
4290,0.158203,-0.326172,0.828613,0
4310,0.191895,-0.320312,0.85498,0
4330,0.215332,-0.305664,0.855469,0
4350,0.215332,-0.235352,0.858398,0
4370,0.230957,-0.212402,0.876465,0
4390,0.245605,-0.264648,0.857422,0
4410,0.263184,-0.276367,0.86084,0
4430,0.261719,-0.219238,0.852539,0
4450,0.287598,-0.259766,0.864746,0
4470,0.303223,-0.294922,0.799316,0
4490,0.274902,-0.26709,0.769531,0
4510,0.279785,-0.231445,0.827148,0
4530,0.283203,-0.232422,0.908203,0
4550,0.282227,-0.198242,0.85791,0
4570,0.266113,-0.272949,0.771484,0
4590,0.280762,-0.283691,0.797852,0
4610,0.262207,-0.277832,0.827148,0
4630,0.238281,-0.246094,0.853516,0
4650,0.248535,-0.277344,0.841309,0
4670,0.256836,-0.334961,0.848145,0
4690,0.247559,-0.313965,0.835938,0
4710,0.233887,-0.316895,0.833008,0
4730,0.233398,-0.302734,0.846191,0
4750,0.242676,-0.305176,0.805664,0
4770,0.231934,-0.28418,0.799316,0
4790,0.205078,-0.263672,0.816406,0
4810,0.199707,-0.225098,0.845215,0
4830,0.201172,-0.291992,0.838867,0
4850,0.166992,-0.237793,0.776367,0
4870,0.151855,-0.102539,0.822266,0
4890,0.15332,-0.100586,0.835449,0
4910,0.199219,-0.144043,0.874512,0
4930,0.246582,-0.257812,0.833008,0
4950,0.29541,-0.291504,0.807617,0
4970,0.367676,-0.328613,0.789551,0
4990,0.313477,-0.406738,0.901855,0
5010,0.260254,-0.447754,0.959961,0
5030,0.299805,-0.412109,0.92334,0
5050,0.326172,-0.353516,0.924316,0
5070,0.344727,-0.3125,0.839355,0
5090,0.32373,-0.304199,0.749512,0
5110,0.282715,-0.270996,0.791992,0
5130,0.222656,-0.259277,0.794434,0
5150,0.190918,-0.268555,0.746582,0
5170,0.150879,-0.293945,0.787109,0
5190,0.108398,-0.320312,0.837891,0
5210,0.10791,-0.432617,0.898926,0
5230,0.10791,-0.357422,0.925781,0
5250,0.0795898,-0.334473,0.803711,0
5270,0.147949,-0.371582,0.86084,0
5290,0.133789,-0.421875,0.821777,0
5310,0.121094,-0.479492,0.756836,0
5330,0.0908203,-0.378906,0.856445,0
5350,0.104004,-0.280273,0.862305,0
5370,0.0966797,-0.314453,0.910156,0
5390,0.124512,-0.371582,0.89209,0
5410,0.147949,-0.367676,0.855957,0
5430,0.0986328,-0.266113,0.817871,0
5450,0.105957,-0.296875,0.859863,0
5470,0.130371,-0.357422,0.861328,0
5490,0.130859,-0.375488,0.846191,0
5510,0.164062,-0.338379,0.82666,0
5530,0.190918,-0.313965,0.830566,0
5550,0.194824,-0.335938,0.818848,0
5570,0.189941,-0.344238,0.838867,0
5590,0.186035,-0.315918,0.859375,0
5610,0.218262,-0.276855,0.859863,0
5630,0.219727,-0.245117,0.860352,0
5650,0.221191,-0.234863,0.859375,0
5670,0.222168,-0.247559,0.866211,0
5690,0.228027,-0.26416,0.894043,0
5710,0.228516,-0.252441,0.859375,0
5730,0.228516,-0.295898,0.810059,0
5750,0.250488,-0.302246,0.820801,0
5770,0.232422,-0.275879,0.86084,0
5790,0.239746,-0.290039,0.822266,0
5810,0.257812,-0.296875,0.822754,0
5830,0.256348,-0.317871,0.824707,0
5850,0.240723,-0.248535,0.833496,0
5870,0.257324,-0.29248,0.82666,0
5890,0.294434,-0.290039,0.825195,0
5910,0.278809,-0.241699,0.817383,0
5930,0.262695,-0.220703,0.825195,0
5950,0.258789,-0.270996,0.825684,0
5970,0.253418,-0.272949,0.84375,0
5990,0.268066,-0.245605,0.817871,0
6010,0.274414,-0.257812,0.827148,0
6030,0.234375,-0.241699,0.835449,0
6050,0.230469,-0.244629,0.85791,0
6070,0.259277,-0.284668,0.84668,0
6090,0.258789,-0.263672,0.838867,0
6100,0.254395,-0.231445,0.851074,0
6120,0.248047,-0.202148,0.864258,0
6140,0.266602,-0.241211,0.848145,0
6160,0.256348,-0.243652,0.837891,0
6180,0.266113,-0.251465,0.840332,0
6200,0.260254,-0.239746,0.825684,0
6220,0.250977,-0.253418,0.813477,0
6240,0.24707,-0.254395,0.817383,0
6260,0.239746,-0.263184,0.833984,0
6280,0.256836,-0.249512,0.847168,0
6300,0.25293,-0.263184,0.84375,0
6320,0.239746,-0.291992,0.84668,0
6340,0.249512,-0.273438,0.82959,0
6360,0.256348,-0.26123,0.852051,0
6380,0.23584,-0.276367,0.84375,0
6400,0.253418,-0.27002,0.837402,0
6420,0.28418,-0.255859,0.828613,0
6440,0.251465,-0.26416,0.827148,0
6460,0.249023,-0.284668,0.828613,0
6480,0.255859,-0.294434,0.816895,0
6500,0.235352,-0.286133,0.786133,0
6520,0.23291,-0.257812,0.808594,0
6540,0.24707,-0.276855,0.827637,0
6560,0.25,-0.280273,0.797852,0
6580,0.248535,-0.273926,0.798828,0
6600,0.247559,-0.277832,0.843262,0
6620,0.26416,-0.285645,0.827148,0
6640,0.236328,-0.283203,0.82666,0
6660,0.208008,-0.274414,0.839844,0
6680,0.179199,-0.277832,0.871582,0
6700,0.205566,-0.318848,0.847656,0
6720,0.172363,-0.325195,0.866699,0
6740,0.171387,-0.322266,0.860352,0
6760,0.232422,-0.29248,0.865723,0
6780,0.26123,-0.318848,0.851074,0
6800,0.255859,-0.338867,0.841309,0
6820,0.224609,-0.327148,0.853027,0
6840,0.208984,-0.299805,0.887695,0
6860,0.259766,-0.332031,0.890625,0
6880,0.274414,-0.404785,0.850098,0
6900,0.257812,-0.343262,0.841309,0
6920,0.259766,-0.326172,0.835938,0
6940,0.28125,-0.322754,0.832031,0
6960,0.274902,-0.31543,0.837402,0
6980,0.276855,-0.31543,0.867676,0
7000,0.277344,-0.331543,0.844727,0
7020,0.252441,-0.31543,0.827148,0
7040,0.233887,-0.32373,0.842773,0
7060,0.230957,-0.299316,0.85791,0
7080,0.249023,-0.282715,0.837402,0
7100,0.262695,-0.279297,0.818359,0
7120,0.283691,-0.306152,0.814453,0
7140,0.306152,-0.330078,0.804688,0
7160,0.288086,-0.323242,0.805664,0
7180,0.291504,-0.294434,0.808105,0
7200,0.344727,-0.301758,0.816406,0
7220,0.358887,-0.322266,0.816406,0
7240,0.386719,-0.359375,0.811523,0
7260,0.363281,-0.364258,0.800781,0
7280,0.326172,-0.327637,0.784668,0
7300,0.354004,-0.318848,0.79541,0
7320,0.357422,-0.330566,0.80127,0
7340,0.367676,-0.330566,0.776367,0
7360,0.361328,-0.323242,0.763672,0
7380,0.358398,-0.32959,0.76123,0
7400,0.36084,-0.34082,0.765137,0
7420,0.375488,-0.344238,0.739258,0
7440,0.403809,-0.367676,0.722168,0
7460,0.401855,-0.387207,0.71875,0
7480,0.402344,-0.38916,0.711914,0
7500,0.418457,-0.383789,0.723633,0
7520,0.410156,-0.365723,0.717773,0
7540,0.42627,-0.352051,0.709961,0
7560,0.473633,-0.373535,0.711914,0
7580,0.491211,-0.40332,0.705566,0
7600,0.458008,-0.409668,0.716309,0
7620,0.453613,-0.374512,0.72168,0
7640,0.486328,-0.367188,0.702637,0
7660,0.502441,-0.396484,0.686523,0
7680,0.51709,-0.405762,0.670898,0
7700,0.535645,-0.388672,0.684082,0
7720,0.541016,-0.437988,0.650391,0
7740,0.490723,-0.461426,0.668457,0
7760,0.453125,-0.377441,0.651855,0
7780,0.461914,-0.351562,0.641113,0
7800,0.463379,-0.442383,0.67334,0
7820,0.430176,-0.459961,0.643066,0
7840,0.392578,-0.470703,0.64502,0
7860,0.369629,-0.422852,0.646484,0
7880,0.42627,-0.398438,0.637207,0
7900,0.467773,-0.440918,0.633789,0
7920,0.444824,-0.425293,0.665039,0
7940,0.440918,-0.392578,0.603516,0
7960,0.460938,-0.384766,0.614258,0
7980,0.491211,-0.410645,0.625,0
8000,0.481934,-0.431152,0.638184,0
8020,0.498047,-0.410156,0.589844,0
8040,0.535645,-0.449219,0.567383,0
8060,0.53125,-0.470703,0.580566,0
8080,0.512695,-0.467773,0.60498,0
8100,0.512207,-0.441406,0.589355,0
8120,0.500977,-0.458984,0.56543,0
8140,0.492676,-0.474121,0.613281,0
8160,0.537109,-0.481934,0.605469,0
8180,0.551758,-0.48584,0.597656,0
8200,0.561035,-0.48877,0.583008,0
8220,0.535645,-0.478027,0.549805,0
8240,0.512207,-0.487793,0.57959,0
8260,0.547363,-0.498535,0.588867,0
8280,0.547852,-0.510742,0.578613,0
8300,0.548828,-0.503906,0.58252,0
8320,0.528809,-0.50293,0.585449,0
8340,0.524902,-0.515625,0.56543,0
8360,0.536621,-0.498535,0.572266,0
8380,0.530273,-0.480469,0.578613,0
8400,0.522461,-0.498535,0.58252,0
8420,0.520508,-0.498047,0.576172,0
8440,0.521973,-0.51123,0.56543,0
8460,0.528809,-0.515625,0.567383,0
8480,0.536133,-0.518555,0.570312,0
8500,0.52002,-0.496094,0.566895,0
8520,0.509277,-0.497559,0.575684,0
8540,0.517578,-0.494141,0.577637,0
8560,0.526855,-0.508789,0.584961,0
8580,0.523926,-0.504395,0.583496,0
8600,0.533203,-0.515137,0.55957,0
8620,0.543945,-0.509277,0.581055,0
8640,0.534668,-0.487305,0.564941,0
8660,0.517578,-0.49707,0.58252,0
8680,0.533691,-0.516113,0.58252,0
8700,0.51709,-0.518066,0.576172,0
8720,0.513672,-0.507324,0.569336,0
8740,0.522461,-0.505859,0.576172,0
8760,0.529785,-0.503906,0.557617,0
8780,0.515625,-0.513672,0.567383,0
8800,0.529297,-0.518066,0.568848,0
8820,0.539551,-0.515137,0.575684,0
8840,0.521484,-0.511719,0.570801,0
8860,0.503418,-0.510742,0.580078,0
8880,0.491699,-0.496582,0.577637,0
8900,0.495605,-0.490234,0.600098,0
8920,0.521484,-0.496582,0.602051,0
8940,0.538574,-0.508789,0.583008,0
8960,0.532715,-0.498047,0.587402,0
8980,0.546387,-0.492676,0.592285,0
9000,0.554199,-0.518555,0.577148,0
9020,0.566895,-0.517578,0.576172,0
9040,0.570312,-0.500977,0.564941,0
9060,0.561523,-0.51416,0.552734,0
9080,0.548828,-0.496094,0.554199,0
9100,0.556641,-0.500488,0.580078,0
9120,0.555664,-0.472168,0.598145,0
9140,0.539062,-0.460938,0.60791,0
9160,0.536133,-0.407227,0.611816,0
9180,0.527832,-0.342773,0.626465,0
9200,0.526367,-0.333984,0.62793,0
9220,0.520508,-0.355469,0.638184,0
9240,0.519531,-0.333984,0.650879,0
9260,0.544434,-0.333984,0.661133,0
9280,0.531738,-0.333984,0.653809,0
9300,0.507324,-0.303223,0.643555,0
9320,0.521973,-0.328613,0.666016,0
9340,0.512695,-0.364258,0.667969,0
9360,0.503418,-0.376953,0.673828,0
9380,0.499512,-0.37207,0.678223,0
9400,0.508301,-0.37207,0.678711,0
9420,0.515625,-0.372559,0.688965,0
9440,0.52832,-0.37793,0.655762,0
9460,0.524902,-0.359375,0.671875,0
9480,0.541016,-0.355469,0.672363,0
9500,0.53125,-0.376465,0.656738,0
9510,0.523926,-0.350098,0.658691,0
9530,0.523926,-0.353516,0.668945,0
9550,0.50293,-0.381836,0.674316,0
9570,0.492188,-0.371094,0.666992,0
9590,0.47998,-0.365723,0.668457,0
9610,0.492676,-0.372559,0.644531,0
9630,0.508301,-0.354004,0.638672,0
9650,0.519531,-0.336914,0.657227,0
9670,0.502441,-0.366211,0.647461,0
9690,0.475586,-0.428223,0.653809,0
9710,0.462891,-0.482422,0.674805,0
9730,0.497559,-0.491699,0.65625,0
9750,0.543945,-0.432617,0.670898,0
9770,0.53418,-0.369629,0.662109,0
9790,0.521484,-0.347168,0.655273,0
9810,0.507324,-0.40625,0.632812,0
9830,0.500488,-0.448242,0.651367,0
9850,0.514648,-0.47168,0.651855,0
9870,0.52832,-0.47998,0.658203,0
9890,0.51416,-0.434082,0.655273,0
9910,0.506348,-0.385742,0.644043,0
9930,0.501953,-0.390137,0.629883,0
9950,0.52002,-0.433594,0.634277,0
9970,0.522461,-0.465332,0.625488,0
9990,0.502441,-0.46582,0.612305,0
10010,0.477051,-0.439941,0.624512,0
10030,0.48291,-0.424805,0.622559,0
10050,0.493164,-0.434082,0.624512,0
10070,0.508789,-0.433594,0.626953,0
10090,0.521973,-0.435547,0.620605,0
10110,0.501953,-0.429199,0.609375,0
10130,0.5,-0.445801,0.616211,0
10150,0.516113,-0.469727,0.626953,0
10170,0.514648,-0.498535,0.628906,0
10190,0.48877,-0.486328,0.619141,0
10210,0.477539,-0.450195,0.632812,0
10230,0.48584,-0.444824,0.629395,0
10250,0.460938,-0.452148,0.65625,0
10270,0.456543,-0.451172,0.64502,0
10290,0.456055,-0.443359,0.640625,0
10310,0.464355,-0.429688,0.661621,0
10330,0.466797,-0.429199,0.641602,0
10350,0.458008,-0.448242,0.631836,0
10370,0.457031,-0.516602,0.617676,0
10390,0.462891,-0.488281,0.64502,0
10410,0.454102,-0.44043,0.643555,0
10430,0.467773,-0.462402,0.650879,0
10450,0.425781,-0.447266,0.665527,0
10470,0.408691,-0.422852,0.676758,0
10490,0.462402,-0.44873,0.663574,0
10510,0.468262,-0.477539,0.664062,0
10530,0.410645,-0.432129,0.649414,0
10550,0.427734,-0.394531,0.666016,0
10570,0.453125,-0.407227,0.702637,0
10590,0.458008,-0.41748,0.709473,0
10610,0.45166,-0.432617,0.688965,0
10630,0.452637,-0.446777,0.682129,0
10650,0.444336,-0.437988,0.675293,0
10670,0.427734,-0.39502,0.705566,0
10690,0.443359,-0.362793,0.733398,0
10710,0.446777,-0.373535,0.75293,0
10730,0.446289,-0.38623,0.734863,0
10750,0.459961,-0.344238,0.745605,0
10770,0.429688,-0.352051,0.750488,0
10790,0.401367,-0.342773,0.770996,0
10810,0.373535,-0.330078,0.796387,0
10830,0.359863,-0.319824,0.819336,0
10850,0.366211,-0.306152,0.827637,0
10870,0.341309,-0.236816,0.812012,0
10890,0.345703,-0.195801,0.800781,0
10910,0.34668,-0.239258,0.781738,0
10930,0.366211,-0.291016,0.769043,0
10950,0.36377,-0.330078,0.737793,0
10970,0.35498,-0.331055,0.725586,0
10990,0.321777,-0.331055,0.740723,0
11010,0.294434,-0.351074,0.84082,0
11030,0.271973,-0.373047,0.822754,0
11050,0.273926,-0.488281,0.841309,0
11070,0.29834,-0.566406,0.867188,0
11090,0.283691,-0.55127,0.749512,0
11110,0.257812,-0.478516,0.830566,0
11130,0.277832,-0.360352,0.766113,0
11150,0.225098,-0.0322266,0.774902,0
11170,0.332031,0.0473633,0.802246,0
11190,0.348145,-0.241699,0.754395,0
11210,0.420898,-0.442871,0.726074,0
11230,0.454102,-0.444824,0.783203,0
11250,0.382324,-0.430176,0.805664,0
11270,0.280762,-0.479004,0.782227,0
11290,0.283691,-0.526855,0.758301,0
11310,0.315918,-0.463867,0.740234,0
11330,0.378906,-0.318848,0.852051,0
11350,0.383789,-0.262695,0.79834,0
11370,0.317871,-0.143066,0.742676,0
11390,0.34375,-0.283691,0.748047,0
11410,0.404785,-0.439453,0.748047,0
11430,0.42334,-0.455078,0.778809,0
11450,0.355957,-0.451172,0.777832,0
11470,0.27832,-0.45166,0.764648,0
11490,0.276367,-0.541016,0.762207,0
11500,0.291992,-0.459473,0.73584,0
11520,0.376465,-0.29248,0.880371,0
11540,0.373535,-0.292969,0.793457,0
11560,0.276855,-0.0439453,0.756836,0
11580,0.310059,-0.0908203,0.78418,0
11600,0.436523,-0.38623,0.742676,0
11620,0.476562,-0.578125,0.763184,0
11640,0.311035,-0.54541,0.769531,0
11660,0.256836,-0.546875,0.689941,0
11680,0.275391,-0.469727,0.71582,0
11700,0.361328,-0.356934,0.862305,0
11720,0.375488,-0.355469,0.855957,0
11740,0.281738,-0.0947266,0.727051,0
11760,0.29541,-0.00292969,0.770508,0
11780,0.411621,-0.249512,0.746582,0
11800,0.527344,-0.45459,0.714355,0
11820,0.390625,-0.526367,0.731934,0
11840,0.283691,-0.483887,0.819824,0
11860,0.267578,-0.48584,0.754883,0
11880,0.307129,-0.5,0.721191,0
11900,0.377441,-0.358887,0.73877,0
11920,0.389648,-0.270996,0.822754,0
11940,0.351074,-0.227539,0.780273,0
11960,0.195801,-0.0283203,0.833008,0
11980,0.354004,-0.123047,0.837402,0
12000,0.566895,-0.427734,0.733398,0
12020,0.476074,-0.603516,0.696289,0
12040,0.307129,-0.643555,0.660156,0
12060,0.342773,-0.501953,0.693359,0
12080,0.397461,-0.333984,0.762695,0
12100,0.369629,-0.268066,0.907227,0
12120,0.313965,-0.229492,0.78418,0
12140,0.20166,0.0229492,0.874023,0
12160,0.321777,-0.156738,0.859375,0
12180,0.584473,-0.424805,0.730469,0
12200,0.562012,-0.553711,0.687012,0
12220,0.309082,-0.480469,0.716797,0
12240,0.28125,-0.436035,0.668457,0
12260,0.331543,-0.476562,0.714844,0
12280,0.354492,-0.354492,0.800293,0
12300,0.410156,-0.33252,0.869141,0
12320,0.374512,-0.144043,0.742188,0
12340,0.191895,0.116211,0.82959,0
12360,0.317871,-0.0620117,0.797852,0
12380,0.560059,-0.40332,0.724121,0
12400,0.528809,-0.570801,0.706055,0
12420,0.252441,-0.461426,0.742188,0
12440,0.228516,-0.507812,0.682617,0
12460,0.366211,-0.4375,0.803223,0
12480,0.441895,-0.333984,0.897949,0
12500,0.434082,-0.375,0.766602,0
12520,0.257324,0.0449219,0.76123,0
12540,0.309082,0.0732422,0.768555,0
12560,0.473633,-0.241211,0.674316,0
12580,0.580078,-0.482422,0.708984,0
12600,0.318359,-0.495605,0.733398,0
12620,0.190918,-0.567383,0.718262,0
12640,0.294434,-0.535156,0.836914,0
12660,0.425293,-0.360352,0.996582,0
12680,0.502441,-0.419434,0.740723,0
12700,0.320801,0.0722656,0.753418,0
12720,0.367676,0.170898,0.678711,0
12740,0.478027,-0.169434,0.647461,0
12760,0.563477,-0.491211,0.681641,0
12780,0.335449,-0.507812,0.712891,0
12800,0.183105,-0.536133,0.76123,0
12820,0.268066,-0.568848,0.852051,0
12840,0.403809,-0.413574,0.973145,0
12860,0.530273,-0.44873,0.814453,0
12880,0.3125,0.081543,0.69873,0
12900,0.34375,0.220215,0.684082,0
12920,0.477539,-0.144043,0.657227,0
12940,0.557129,-0.457031,0.699707,0
12960,0.337891,-0.499512,0.737793,0
12980,0.199707,-0.568359,0.746582,0
13000,0.277344,-0.57373,0.852051,0
13020,0.445312,-0.413574,0.994141,0
13040,0.519043,-0.427734,0.765625,0
13060,0.327637,0.081543,0.702148,0
13080,0.363281,0.225098,0.703125,0
13100,0.450684,-0.133301,0.665527,0
13120,0.583496,-0.44043,0.726074,0
13140,0.311523,-0.534668,0.749023,0
13160,0.170898,-0.668945,0.745605,0
13180,0.299316,-0.588379,0.834473,0
13200,0.487305,-0.413086,1.00781,0
13220,0.450684,-0.336914,0.733398,0
13240,0.254883,0.219727,0.755371,0
13260,0.417969,0.15918,0.663086,0
13280,0.549316,-0.234375,0.70752,0
13300,0.50293,-0.478027,0.744141,0
13320,0.238281,-0.490723,0.791504,0
13340,0.23877,-0.655273,0.763672,0
13360,0.377441,-0.531738,0.836426,0
13380,0.537598,-0.419434,0.916992,0
13400,0.342285,-0.027832,0.75293,0
13420,0.360352,0.228027,0.693359,0
13440,0.467773,-0.0146484,0.668945,0
13460,0.594727,-0.355957,0.72168,0
13480,0.377441,-0.524902,0.720215,0
13500,0.206543,-0.584961,0.703125,0
13520,0.307617,-0.589355,0.782715,0
13540,0.466309,-0.428711,0.902832,0
13560,0.314941,-0.0874023,0.829102,0
13580,0.297852,0.23291,0.747559,0
13600,0.472656,-0.0297852,0.639648,0
13620,0.614746,-0.357422,0.686523,0
13640,0.431152,-0.479004,0.713379,0
13660,0.232422,-0.550781,0.711426,0
13680,0.319336,-0.620117,0.807617,0
13700,0.45752,-0.443359,1.00146,0
13720,0.403809,-0.281738,0.782715,0
13740,0.303711,0.166016,0.762207,0
13760,0.490234,0.0605469,0.645508,0
13780,0.592773,-0.321289,0.665527,0
13800,0.432617,-0.495605,0.733398,0
13820,0.257324,-0.540527,0.734375,0
13840,0.29541,-0.57373,0.809082,0
13860,0.430176,-0.37793,0.918457,0
13880,0.438477,-0.299805,0.834961,0
13900,0.320801,0.101562,0.728516,0
13920,0.454102,0.0239258,0.664062,0
13940,0.509766,-0.355469,0.694336,0
13960,0.374512,-0.507812,0.773926,0
13980,0.268066,-0.587402,0.786621,0
14000,0.316406,-0.491699,0.791504,0
14020,0.447754,-0.350098,0.922852,0
14040,0.358398,-0.112793,0.771484,0
14060,0.349121,0.125,0.737305,0
14080,0.459961,-0.0820312,0.693359,0
14100,0.537598,-0.397949,0.689941,0
14120,0.422852,-0.492188,0.760742,0
14140,0.297363,-0.547852,0.727539,0
14160,0.347168,-0.505371,0.799316,0
14180,0.470215,-0.330566,0.91748,0
14200,0.465332,-0.303223,0.798828,0
14220,0.30127,0.0898438,0.739258,0
14240,0.406738,0.090332,0.734863,0
14260,0.529297,-0.266113,0.699219,0
14280,0.446289,-0.545898,0.743164,0
14300,0.280273,-0.556641,0.697754,0
14320,0.321777,-0.526367,0.73584,0
14340,0.501465,-0.311035,0.911133,0
14360,0.42334,-0.132324,0.819824,0
14380,0.328613,0.114258,0.760742,0
14400,0.475098,-0.109863,0.682129,0
14420,0.568359,-0.449219,0.71875,0
14440,0.418457,-0.526367,0.767578,0
14460,0.33252,-0.587891,0.665039,0
14480,0.399414,-0.408691,0.80127,0
14500,0.515625,-0.3125,0.835938,0
14520,0.305176,0.012207,0.819336,0
14540,0.353027,0.0546875,0.714355,0
14560,0.516113,-0.252441,0.688965,0
14580,0.489258,-0.498047,0.723145,0
14600,0.311035,-0.507812,0.688965,0
14620,0.283203,-0.519531,0.750977,0
14640,0.407227,-0.327637,0.868652,0
14660,0.40332,-0.177246,0.831055,0
14680,0.334961,0.00830078,0.79834,0
14700,0.425293,-0.104004,0.688965,0
14720,0.496094,-0.379883,0.685059,0
14740,0.428223,-0.480957,0.715332,0
14760,0.36084,-0.444824,0.760742,0
14780,0.352539,-0.328125,0.824219,0
14800,0.427246,-0.247559,0.819336,0
14820,0.464355,-0.255371,0.728516,0
14840,0.450684,-0.302246,0.695312,0
14860,0.441406,-0.329102,0.716797,0
14880,0.416504,-0.322754,0.779297,0
14900,0.424316,-0.314941,0.773438,0
14910,0.438965,-0.335938,0.763184,0
14930,0.421387,-0.291016,0.761719,0
14950,0.422852,-0.263672,0.747559,0
14970,0.439941,-0.307129,0.733887,0
14990,0.437012,-0.32373,0.731934,0
15010,0.44043,-0.288574,0.753418,0
15030,0.436523,-0.285156,0.739746,0
15050,0.44043,-0.312012,0.746582,0
15070,0.445312,-0.311523,0.745605,0
15090,0.433594,-0.29541,0.740234,0
15110,0.433105,-0.293945,0.73291,0
15130,0.435547,-0.305176,0.736816,0
15150,0.428711,-0.314453,0.755859,0
15170,0.416992,-0.308594,0.754395,0
15190,0.416504,-0.285156,0.76123,0
15210,0.446777,-0.308105,0.760254,0
15230,0.439941,-0.297363,0.713379,0
15250,0.424805,-0.330078,0.727539,0
15270,0.441406,-0.349121,0.748047,0
15290,0.443848,-0.339355,0.739746,0
15310,0.417969,-0.336914,0.757324,0
15330,0.40918,-0.300293,0.769531,0
15350,0.411621,-0.272461,0.744141,0
15370,0.427734,-0.27002,0.750977,0
15390,0.450195,-0.275391,0.794434,0
15410,0.431152,-0.289551,0.786621,0
15430,0.383789,-0.239258,0.736328,0
15450,0.466309,-0.270508,0.745117,0
15470,0.495117,-0.333496,0.733887,0
15490,0.473145,-0.348633,0.728027,0
15510,0.440918,-0.347168,0.740234,0
15530,0.406738,-0.357422,0.699219,0
15550,0.412109,-0.362305,0.685547,0
15570,0.393555,-0.339844,0.705566,0
15590,0.399414,-0.234863,0.782715,0
15610,0.475098,-0.277344,0.825195,0
15630,0.35791,-0.169922,0.780762,0
15650,0.355957,-0.0292969,0.82373,0
15670,0.502441,-0.225586,0.705566,0
15690,0.57959,-0.391602,0.661621,0
15710,0.507812,-0.390625,0.731445,0
15730,0.366699,-0.366211,0.802246,0
15750,0.374023,-0.34082,0.76416,0
15770,0.370117,-0.446289,0.722168,0
15790,0.408203,-0.352539,0.782715,0
15810,0.481934,-0.266113,0.868164,0
15830,0.40332,-0.175293,0.739746,0
15850,0.363281,0.0966797,0.772949,0
15870,0.487305,-0.143555,0.689941,0
15890,0.599121,-0.395508,0.692383,0
15910,0.465332,-0.458496,0.719238,0
15930,0.348633,-0.341797,0.776855,0
15950,0.348633,-0.421387,0.707031,0
15970,0.388672,-0.396484,0.758301,0
15990,0.479492,-0.270508,0.874023,0
16010,0.453125,-0.237793,0.75,0
16030,0.358398,0.0522461,0.764648,0
16050,0.442383,-0.0429688,0.726562,0
16070,0.566406,-0.338379,0.707031,0
16090,0.515137,-0.479004,0.72168,0
16110,0.368164,-0.425781,0.807617,0
16130,0.331055,-0.370605,0.69873,0
16150,0.38916,-0.422852,0.705078,0
16170,0.422852,-0.277832,0.802246,0
16190,0.477051,-0.306641,0.794434,0
16210,0.369629,-0.0615234,0.798828,0
16230,0.350098,0.0742188,0.806152,0
16250,0.501953,-0.204102,0.753418,0
16270,0.598145,-0.476562,0.73877,0
16290,0.421387,-0.497559,0.776855,0
16310,0.316406,-0.395996,0.668457,0
16330,0.366699,-0.458496,0.680176,0
16350,0.473633,-0.310059,0.797852,0
16370,0.490234,-0.290527,0.814453,0
16390,0.313477,-0.00195312,0.816406,0
16410,0.364746,0.046875,0.750488,0
16430,0.542969,-0.230957,0.732422,0
16450,0.587891,-0.478027,0.718262,0
16470,0.375977,-0.405762,0.762695,0
16490,0.310059,-0.395508,0.689941,0
16510,0.320801,-0.411621,0.737793,0
16530,0.450195,-0.298828,0.806152,0
16550,0.480469,-0.202148,0.834473,0
16570,0.40625,-0.00830078,0.767578,0
16590,0.431641,-0.0888672,0.736328,0
16610,0.490234,-0.351074,0.751465,0
16630,0.471191,-0.439941,0.761719,0
16650,0.373047,-0.356934,0.769531,0
16670,0.37207,-0.323242,0.760254,0
16690,0.416992,-0.294922,0.757324,0
16710,0.430176,-0.249023,0.748047,0
16730,0.462891,-0.220215,0.777832,0
16750,0.48291,-0.209473,0.768066,0
16770,0.449219,-0.223633,0.735352,0
16790,0.410645,-0.229004,0.759277,0
16810,0.410645,-0.263672,0.761719,0
16830,0.419434,-0.277344,0.75,0
16850,0.401855,-0.269043,0.758789,0
16870,0.389648,-0.246582,0.768555,0
16890,0.392578,-0.265625,0.789062,0
16910,0.420898,-0.26709,0.801758,0
16920,0.436035,-0.271973,0.777344,0
16940,0.425781,-0.276855,0.774902,0
16960,0.434082,-0.260742,0.782227,0
16980,0.425781,-0.24707,0.783691,0
17000,0.42627,-0.253906,0.775391,0
17020,0.430664,-0.255371,0.768066,0
17040,0.431641,-0.251465,0.766113,0
17060,0.437012,-0.254883,0.763672,0
17080,0.43457,-0.270508,0.762207,0
17100,0.426758,-0.276367,0.760254,0
17120,0.427734,-0.257324,0.762207,0
17140,0.436035,-0.268555,0.742676,0
17160,0.43457,-0.272461,0.747559,0
17180,0.42334,-0.262207,0.76123,0
17200,0.417969,-0.270508,0.77002,0
17220,0.41748,-0.269043,0.772949,0
17240,0.424805,-0.26709,0.762207,0
17260,0.425293,-0.266602,0.743652,0
17280,0.433105,-0.252441,0.749512,0
17300,0.415527,-0.231934,0.762207,0
17320,0.408691,-0.259766,0.796875,0
17340,0.438965,-0.261719,0.772461,0
17360,0.436523,-0.257812,0.765625,0
17380,0.435547,-0.256836,0.765137,0
17400,0.436035,-0.255859,0.754883,0
17420,0.43457,-0.271973,0.764648,0
17440,0.433594,-0.26416,0.771484,0
17460,0.435547,-0.244629,0.762207,0
17480,0.435547,-0.265625,0.75293,0
17500,0.438965,-0.291504,0.730957,0
17520,0.436523,-0.278809,0.76123,0
17540,0.433594,-0.266602,0.771973,0
17560,0.444824,-0.253418,0.788086,0
17580,0.435547,-0.265625,0.778809,0
17600,0.441406,-0.289062,0.770996,0
17620,0.455078,-0.271973,0.757324,0
17640,0.460938,-0.266113,0.714844,0
17660,0.433594,-0.278809,0.762695,0
17680,0.465332,-0.273926,0.745605,0
17700,0.442871,-0.264648,0.750488,0
17720,0.441895,-0.281738,0.723633,0
17740,0.470215,-0.279297,0.744141,0
17760,0.486328,-0.266113,0.741211,0
17780,0.474609,-0.290039,0.708008,0
17800,0.465332,-0.272949,0.708008,0
17820,0.473145,-0.264648,0.707031,0
17840,0.48584,-0.291992,0.71582,0
17860,0.488281,-0.324707,0.721191,0
17880,0.484375,-0.318848,0.719238,0
17900,0.5,-0.309082,0.712402,0
17920,0.503906,-0.319336,0.715332,0
17940,0.50293,-0.308105,0.703613,0
17960,0.506836,-0.30127,0.717773,0
17980,0.507324,-0.302246,0.709961,0
18000,0.509766,-0.298828,0.701172,0
18020,0.506348,-0.30127,0.691895,0
18040,0.500488,-0.30957,0.687988,0
18060,0.490723,-0.304199,0.696289,0
18080,0.480957,-0.291992,0.70752,0
18100,0.48291,-0.304199,0.709473,0
18120,0.486816,-0.309082,0.686523,0
18140,0.459961,-0.305176,0.709961,0
18160,0.481445,-0.311035,0.708008,0
18180,0.479004,-0.308105,0.716309,0
18200,0.476562,-0.308594,0.728516,0
18220,0.495117,-0.300293,0.740234,0
18240,0.487305,-0.307617,0.716309,0
18260,0.486816,-0.324219,0.704102,0
18280,0.48877,-0.32666,0.711914,0
18300,0.48584,-0.310059,0.722656,0
18320,0.487305,-0.310059,0.721191,0
18340,0.48584,-0.303711,0.723145,0
18360,0.481934,-0.32666,0.706543,0
18380,0.480469,-0.317871,0.710938,0
18400,0.491699,-0.306152,0.702637,0
18420,0.510742,-0.311523,0.696289,0
18440,0.497559,-0.307617,0.68457,0
18460,0.50293,-0.303711,0.69873,0
18480,0.494629,-0.319336,0.697754,0
18500,0.499023,-0.320801,0.705566,0
18520,0.51416,-0.32666,0.680176,0
18540,0.484863,-0.311035,0.702637,0
18560,0.482422,-0.316406,0.689453,0
18580,0.479004,-0.291504,0.708984,0
18600,0.484375,-0.305664,0.705078,0
18620,0.412598,-0.231445,0.677246,0
18640,0.436035,-0.242188,0.68457,0
18660,0.53418,-0.253906,0.744629,0
18680,0.517578,-0.294434,0.710938,0
18700,0.534668,-0.336914,0.683105,0
18720,0.490723,-0.32666,0.732422,0
18740,0.489258,-0.310059,0.709473,0
18760,0.501465,-0.361328,0.720703,0
18780,0.44873,-0.379395,0.723633,0
18800,0.409668,-0.346191,0.728027,0
18820,0.411621,-0.311035,0.72998,0
18840,0.422363,-0.331543,0.747559,0
18860,0.419922,-0.313477,0.777832,0
18880,0.397949,-0.292969,0.732422,0
18900,0.351074,-0.277344,0.714355,0
18920,0.340332,-0.275391,0.729004,0
18940,0.372559,-0.27002,0.748535,0
18960,0.380371,-0.268555,0.736328,0
18980,0.378418,-0.271484,0.745117,0
19000,0.361816,-0.257812,0.743164,0
19020,0.337891,-0.244629,0.762695,0
19040,0.375488,-0.252441,0.780762,0
19060,0.365234,-0.242188,0.811035,0
19080,0.350586,-0.226562,0.812012,0
19100,0.379395,-0.22168,0.892578,0
19120,0.362305,-0.223145,0.850586,0
19140,0.312012,-0.145996,0.813965,0
19160,0.381836,-0.223145,0.844727,0
19180,0.377441,-0.315918,0.814941,0
19200,0.236816,-0.213379,0.837891,0
19220,0.240234,-0.148926,0.844727,0
19240,0.312988,-0.21582,0.875,0
19260,0.334473,-0.284668,0.853516,0
19280,0.318359,-0.327637,0.830078,0
19300,0.307129,-0.294434,0.818359,0
19320,0.291016,-0.206543,0.817871,0
19340,0.317871,-0.186035,0.782227,0
19360,0.365234,-0.22168,0.791504,0
19380,0.359375,-0.242188,0.769531,0
19400,0.385254,-0.20166,0.778809,0
19420,0.480469,-0.287109,0.798828,0
19440,0.578125,-0.349609,0.864258,0
19460,0.530762,-0.192383,0.916016,0
19480,0.302734,-0.0151367,0.956055,0
19500,0.17334,-0.0410156,0.956543,0
19520,0.170898,-0.11377,0.928711,0
19540,0.183105,-0.182129,0.891602,0
19560,0.208984,-0.190918,0.859375,0
19580,0.213867,-0.17627,0.845215,0
19600,0.206543,-0.175781,0.849121,0
19620,0.205078,-0.163574,0.858887,0
19640,0.224121,-0.171875,0.863281,0
19660,0.220215,-0.162109,0.873535,0
19680,0.247559,-0.15918,0.882812,0
19700,0.256836,-0.16748,0.877441,0
19720,0.254395,-0.160645,0.864746,0
19740,0.26123,-0.152832,0.856934,0
19760,0.254395,-0.124512,0.863281,0
19780,0.244141,-0.119629,0.87793,0
19800,0.236816,-0.121582,0.882324,0
19820,0.243164,-0.141113,0.87793,0
19840,0.253906,-0.163574,0.867676,0
19860,0.254883,-0.169434,0.862793,0
19880,0.26709,-0.175293,0.865723,0
19900,0.259277,-0.167969,0.837402,0
19920,0.249512,-0.174316,0.837402,0
19940,0.243652,-0.17041,0.850098,0
19960,0.236816,-0.15625,0.857422,0
19980,0.239258,-0.162598,0.86377,0
20000,0.240234,-0.157227,0.870605,0
20020,0.251953,-0.149414,0.866211,0
20040,0.265625,-0.150391,0.880859,0
20060,0.264648,-0.130859,0.882812,0
20080,0.252441,-0.120117,0.868164,0
20100,0.268066,-0.149902,0.867676,0
20120,0.244629,-0.133301,0.862305,0
20140,0.231934,-0.138184,0.870117,0
20160,0.248047,-0.148926,0.874512,0
20180,0.250488,-0.141113,0.870605,0
20200,0.250488,-0.133301,0.868652,0
20220,0.259277,-0.130859,0.874512,0
20240,0.259277,-0.147949,0.859375,0
20260,0.253906,-0.140625,0.864746,0
20280,0.259766,-0.114746,0.864258,0
20300,0.25293,-0.134277,0.864258,0
20320,0.269043,-0.13623,0.880859,0
20330,0.293945,-0.138184,0.856934,0
20350,0.263672,-0.15918,0.852051,0
20370,0.26123,-0.161621,0.852051,0
20390,0.251465,-0.146973,0.851074,0
20410,0.248535,-0.154297,0.871582,0
20430,0.256348,-0.150391,0.87207,0
20450,0.271973,-0.13623,0.882324,0
20470,0.268555,-0.140625,0.880371,0
20490,0.253418,-0.131836,0.84668,0
20510,0.257324,-0.129883,0.868652,0
20530,0.263672,-0.141113,0.867676,0
20550,0.256348,-0.140137,0.860352,0
20570,0.281738,-0.144531,0.850586,0
20590,0.288086,-0.163086,0.840332,0
20610,0.269043,-0.15332,0.843262,0
20630,0.255371,-0.143066,0.859375,0
20650,0.260742,-0.158203,0.861816,0
20670,0.291992,-0.142578,0.856934,0
20690,0.283203,-0.14502,0.841309,0
20710,0.276367,-0.168457,0.851074,0
20730,0.27002,-0.13916,0.874023,0
20750,0.284668,-0.130859,0.87207,0
20770,0.27832,-0.133789,0.85791,0
20790,0.297852,-0.132812,0.851562,0
20810,0.300781,-0.142578,0.84668,0
20830,0.276855,-0.143555,0.830566,0
20850,0.289551,-0.13916,0.841797,0
20870,0.307129,-0.145508,0.839844,0
20890,0.301758,-0.14209,0.867188,0
20910,0.289062,-0.109375,0.862793,0
20930,0.31543,-0.135254,0.860352,0
20950,0.287109,-0.137695,0.851562,0
20970,0.295898,-0.145508,0.838379,0
20990,0.308105,-0.144531,0.84668,0
21010,0.315918,-0.111816,0.856934,0
21030,0.305664,-0.134766,0.851562,0
21050,0.302734,-0.158203,0.835938,0
21070,0.305176,-0.165039,0.831055,0
21090,0.293457,-0.162598,0.834473,0
21110,0.283203,-0.177734,0.837891,0
21130,0.312988,-0.174805,0.842773,0
21150,0.307129,-0.178711,0.837891,0
21170,0.309082,-0.183594,0.856445,0
21190,0.332031,-0.169922,0.83252,0
21210,0.316895,-0.184082,0.830078,0
21230,0.31543,-0.163086,0.833008,0
21250,0.313965,-0.179688,0.836426,0
21270,0.325195,-0.181152,0.832031,0
21290,0.321777,-0.170898,0.837891,0
21310,0.330566,-0.17627,0.843262,0
21330,0.34082,-0.205078,0.851562,0
21350,0.322754,-0.172852,0.842285,0
21370,0.335938,-0.19043,0.824219,0
21390,0.356445,-0.191895,0.843262,0
21410,0.384277,-0.176758,0.865234,0
21430,0.371094,-0.187988,0.850586,0
21450,0.348145,-0.182129,0.83252,0
21470,0.350098,-0.189453,0.829102,0
21490,0.371094,-0.19873,0.851074,0
21510,0.381348,-0.203613,0.866211,0
21530,0.384766,-0.183594,0.833008,0
21550,0.390137,-0.180176,0.817383,0
21570,0.406738,-0.176758,0.803711,0
21590,0.416504,-0.178711,0.802246,0
21610,0.412109,-0.199707,0.794434,0
21630,0.412109,-0.197266,0.785156,0
21650,0.427734,-0.197266,0.791992,0
21670,0.423828,-0.201172,0.789551,0
21690,0.412109,-0.220215,0.787109,0
21710,0.384277,-0.249512,0.784668,0
21730,0.385254,-0.257812,0.781738,0
21750,0.395508,-0.234863,0.785156,0
21770,0.41748,-0.218262,0.781738,0
21790,0.437988,-0.220703,0.764648,0
21810,0.434082,-0.254395,0.754883,0
21830,0.427734,-0.270996,0.74707,0
21850,0.444824,-0.274414,0.739746,0
21870,0.450684,-0.258789,0.733887,0
21890,0.453613,-0.252441,0.735352,0
21910,0.455078,-0.265137,0.736328,0
21930,0.441895,-0.26709,0.731445,0
21950,0.450195,-0.268555,0.733398,0
21970,0.462402,-0.275391,0.725098,0
21990,0.46875,-0.282715,0.718262,0
22010,0.475098,-0.258789,0.723145,0
22030,0.480957,-0.270996,0.727051,0
22050,0.464355,-0.275391,0.69873,0
22070,0.483887,-0.28125,0.695312,0
22090,0.510742,-0.28125,0.697266,0
22110,0.484863,-0.291992,0.700684,0
22130,0.473633,-0.248047,0.693848,0
22150,0.500488,-0.291504,0.71582,0
22170,0.500488,-0.301758,0.703613,0
22190,0.495117,-0.283691,0.70166,0
22210,0.501465,-0.264648,0.700684,0
22230,0.500488,-0.273926,0.714844,0
22250,0.508301,-0.300293,0.711426,0
22270,0.514648,-0.296875,0.694336,0
22290,0.515625,-0.279297,0.708008,0
22300,0.530762,-0.28125,0.691895,0
22320,0.506836,-0.305176,0.712402,0
22340,0.529785,-0.318359,0.720215,0
22360,0.551758,-0.308594,0.702637,0
22380,0.544434,-0.271484,0.70166,0
22400,0.477051,-0.262207,0.724609,0
22420,0.483398,-0.282715,0.694824,0
22440,0.497559,-0.285156,0.685059,0
22460,0.500977,-0.252441,0.701172,0
22480,0.48584,-0.25,0.732422,0
22500,0.483398,-0.271484,0.679199,0
22520,0.51416,-0.278809,0.678711,0
22540,0.502441,-0.248047,0.695801,0
22560,0.490723,-0.256836,0.695801,0
22580,0.511719,-0.289062,0.686523,0
22600,0.515625,-0.268066,0.692383,0
22620,0.513672,-0.293945,0.698242,0
22640,0.510254,-0.270508,0.720215,0
22660,0.51709,-0.247559,0.735352,0
22680,0.527344,-0.28418,0.692871,0
22700,0.543457,-0.29834,0.697266,0
22720,0.531738,-0.267578,0.709473,0
22740,0.537109,-0.279297,0.700195,0
22760,0.530762,-0.323242,0.683594,0
22780,0.53125,-0.29834,0.697754,0
22800,0.539062,-0.283203,0.714844,0
22820,0.540039,-0.276367,0.727051,0
22840,0.553711,-0.307617,0.704102,0
22860,0.541016,-0.322266,0.689453,0
22880,0.528809,-0.280762,0.699707,0
22900,0.531738,-0.275391,0.682617,0
22920,0.536621,-0.304199,0.685059,0
22940,0.535156,-0.304688,0.687988,0
22960,0.525879,-0.294922,0.689453,0
22980,0.527832,-0.294922,0.692383,0
23000,0.532227,-0.302734,0.696777,0
23020,0.518066,-0.316895,0.682129,0
23040,0.515137,-0.320801,0.693848,0
23060,0.516113,-0.302246,0.702148,0
23080,0.516113,-0.318359,0.686523,0
23100,0.518066,-0.318359,0.676758,0
23120,0.51123,-0.350586,0.692383,0
23140,0.512695,-0.304688,0.692383,0
23160,0.5,-0.306152,0.67627,0
23180,0.518066,-0.351074,0.691406,0
23200,0.548828,-0.304688,0.681641,0
23220,0.495117,-0.317383,0.670898,0
23240,0.508301,-0.341309,0.686523,0
23260,0.526855,-0.339844,0.693359,0
23280,0.527344,-0.341797,0.664551,0
23300,0.53418,-0.341797,0.658691,0
23320,0.532227,-0.344727,0.677246,0
23340,0.537109,-0.327637,0.660645,0
23360,0.529785,-0.337402,0.660156,0
23380,0.541992,-0.348145,0.65332,0
23400,0.539062,-0.327148,0.658203,0
23420,0.536621,-0.336914,0.660156,0
23440,0.546875,-0.338379,0.654297,0
23460,0.546387,-0.325684,0.645996,0
23480,0.556152,-0.356934,0.628418,0
23500,0.544434,-0.355469,0.633301,0
23520,0.546875,-0.358398,0.632812,0
23540,0.555664,-0.356934,0.660156,0
23560,0.549805,-0.318848,0.678711,0
23580,0.535156,-0.365723,0.643555,0
23600,0.549805,-0.388184,0.645508,0
23620,0.556152,-0.370117,0.643066,0
23640,0.532227,-0.375977,0.643066,0
23660,0.532227,-0.397949,0.647949,0
23680,0.550293,-0.403809,0.625977,0
23700,0.522461,-0.408203,0.639648,0
23720,0.504883,-0.393066,0.665039,0
23740,0.513184,-0.387695,0.638672,0
23760,0.517578,-0.414551,0.649902,0
23780,0.515625,-0.414551,0.647461,0
23800,0.497559,-0.375488,0.664062,0
23820,0.467773,-0.355957,0.658203,0
23840,0.473145,-0.390137,0.645508,0
23860,0.489746,-0.45166,0.65625,0
23880,0.491699,-0.45752,0.665039,0
23900,0.477539,-0.429688,0.663574,0
23920,0.476074,-0.44043,0.672363,0
23940,0.48877,-0.440918,0.677734,0
23960,0.490234,-0.43457,0.668945,0
23980,0.477539,-0.437012,0.668945,0
24000,0.474609,-0.449219,0.661621,0
24020,0.487305,-0.462402,0.656738,0
24040,0.485352,-0.450684,0.65332,0
24060,0.458496,-0.440918,0.644043,0
24080,0.435059,-0.447754,0.642578,0
24100,0.442383,-0.459473,0.65332,0
24120,0.446289,-0.462891,0.672363,0
24140,0.429199,-0.466309,0.671875,0
24160,0.416016,-0.459473,0.660645,0
24180,0.422852,-0.436035,0.660645,0
24200,0.413086,-0.45166,0.660156,0
24220,0.393066,-0.478027,0.674316,0
24240,0.40918,-0.486816,0.677246,0
24260,0.435547,-0.473145,0.66748,0
24280,0.427246,-0.476074,0.665527,0
24300,0.407715,-0.479492,0.652832,0
24320,0.397949,-0.478516,0.65332,0
24340,0.391113,-0.46582,0.658203,0
24360,0.393066,-0.5,0.666016,0
24380,0.399902,-0.520996,0.672852,0
24400,0.407227,-0.501953,0.672852,0
24420,0.402344,-0.495605,0.670898,0
24440,0.413574,-0.486328,0.67334,0
24460,0.420898,-0.479004,0.671875,0
24480,0.411621,-0.494141,0.665039,0
24500,0.405273,-0.492188,0.666992,0
24520,0.414062,-0.482422,0.666016,0
24540,0.417969,-0.502441,0.67041,0
24560,0.405273,-0.503418,0.658691,0
24580,0.412598,-0.500977,0.665039,0
24600,0.409668,-0.501953,0.661133,0
24620,0.394043,-0.489746,0.655762,0
24640,0.39209,-0.504395,0.665039,0
24660,0.405762,-0.494629,0.673828,0
24680,0.40332,-0.487305,0.655762,0
24700,0.407227,-0.49707,0.654785,0
24720,0.416016,-0.494629,0.663574,0
24740,0.398438,-0.487793,0.663574,0
24760,0.397461,-0.492188,0.659668,0
24780,0.411621,-0.5,0.665039,0
24800,0.415527,-0.492676,0.666504,0
24820,0.40332,-0.497559,0.652832,0
24840,0.398438,-0.493652,0.671875,0
24860,0.399414,-0.480469,0.673828,0
24880,0.382324,-0.492676,0.66748,0
24900,0.366699,-0.494629,0.675781,0
24920,0.382324,-0.482422,0.688477,0
24940,0.378418,-0.506348,0.686035,0
24960,0.368652,-0.5,0.676758,0
24980,0.376953,-0.51709,0.694336,0
25000,0.395996,-0.524902,0.699219,0
25020,0.38623,-0.516113,0.68457,0
25040,0.36377,-0.5,0.681641,0
25060,0.369629,-0.483398,0.682129,0
25080,0.370605,-0.501465,0.683105,0
25100,0.367676,-0.510742,0.679688,0
25120,0.368164,-0.498047,0.683105,0
25140,0.349609,-0.500977,0.695312,0
25160,0.348145,-0.488281,0.694336,0
25180,0.354004,-0.521973,0.690918,0
25200,0.339355,-0.516113,0.692871,0
25220,0.320801,-0.502441,0.693848,0
25240,0.347168,-0.503418,0.685059,0
25260,0.355957,-0.508789,0.684082,2000
25280,0.34375,-0.521973,0.70166,0
25300,0.338379,-0.496582,0.694824,0
25320,0.361816,-0.514648,0.688965,0
25340,0.358398,-0.515625,0.694336,0
25360,0.342773,-0.53418,0.691406,0
25380,0.34375,-0.535645,0.690918,0
25400,0.361328,-0.51709,0.688477,0
25420,0.36084,-0.51123,0.680176,0
25440,0.35791,-0.512207,0.683105,0
25460,0.368652,-0.516602,0.679688,0
25480,0.367676,-0.508301,0.673828,0
25500,0.356445,-0.508301,0.673828,0
25520,0.356934,-0.510742,0.679688,0
25540,0.361328,-0.519043,0.679199,0
25560,0.361328,-0.51709,0.672852,0
25580,0.35498,-0.508789,0.68457,0
25600,0.357422,-0.510742,0.677734,0
25620,0.359375,-0.508789,0.678223,0
25640,0.355469,-0.509766,0.681152,0
25660,0.357422,-0.506348,0.686035,0
25680,0.359375,-0.516113,0.680176,0
25700,0.354492,-0.521484,0.682129,0
25710,0.352539,-0.51123,0.688965,0
25730,0.362793,-0.506836,0.688965,0
25750,0.359863,-0.512207,0.683594,0
25770,0.351074,-0.518066,0.683105,0
25790,0.351074,-0.506836,0.689941,0
25810,0.356934,-0.51416,0.693848,0
25830,0.352051,-0.51123,0.683594,0
25850,0.339844,-0.508789,0.682617,0
25870,0.349121,-0.516602,0.683105,0
25890,0.356445,-0.506348,0.691406,0
25910,0.34082,-0.509766,0.681152,0
25930,0.34375,-0.521973,0.680664,0
25950,0.362305,-0.513672,0.687988,0
25970,0.364746,-0.51416,0.684082,0
25990,0.364746,-0.506836,0.682617,0
26010,0.361328,-0.503418,0.684082,0
26030,0.374512,-0.503906,0.687988,0
26050,0.376465,-0.506348,0.681641,0
26070,0.365723,-0.505371,0.67627,0
26090,0.365234,-0.49707,0.675781,0
26110,0.373047,-0.490723,0.683594,0
26130,0.371094,-0.492676,0.677246,0
26150,0.368164,-0.498535,0.679199,0
26170,0.366211,-0.507324,0.683105,0
26190,0.374512,-0.508301,0.679688,0
26210,0.393066,-0.503906,0.677246,0
26230,0.388672,-0.493164,0.679688,0
26250,0.374023,-0.500977,0.676758,0
26270,0.377441,-0.495605,0.680176,0
26290,0.394043,-0.48877,0.681152,0
26310,0.391602,-0.491699,0.666992,0
26330,0.387695,-0.489258,0.668457,0
26350,0.397949,-0.489746,0.67041,0
26370,0.413574,-0.494629,0.669434,0
26390,0.407715,-0.484375,0.668457,0
26410,0.402832,-0.481445,0.662598,0
26430,0.419434,-0.478516,0.674805,0
26450,0.415527,-0.481445,0.674316,0
26470,0.404297,-0.486328,0.666016,0
26490,0.418945,-0.489258,0.675781,0
26510,0.43457,-0.489746,0.678223,0
26530,0.435547,-0.474609,0.671875,0
26550,0.422852,-0.478027,0.666504,0
26570,0.424805,-0.474121,0.659668,0
26590,0.441406,-0.478027,0.667969,0
26610,0.444336,-0.471191,0.669434,0
26630,0.429199,-0.476562,0.659668,0
26650,0.438477,-0.477051,0.663574,0
26670,0.444336,-0.459473,0.668457,0
26690,0.453125,-0.445801,0.669922,0
26710,0.453125,-0.448242,0.657715,0
26730,0.447754,-0.451172,0.658203,0
26750,0.439941,-0.444824,0.65332,0
26770,0.443848,-0.462402,0.648926,0
26790,0.470215,-0.452148,0.647461,0
26810,0.476074,-0.445801,0.66748,0
26830,0.472656,-0.442383,0.655762,0
26850,0.475098,-0.449219,0.65625,0
26870,0.48877,-0.445312,0.659668,0
26890,0.490723,-0.450195,0.661133,0
26910,0.491699,-0.450195,0.652832,0
26930,0.495605,-0.448242,0.656738,0
26950,0.491211,-0.435547,0.654297,0
26970,0.493652,-0.434082,0.642578,0
26990,0.495117,-0.447266,0.646973,0
27010,0.500977,-0.44043,0.652344,0
27030,0.507812,-0.423828,0.653809,0
27050,0.504883,-0.426758,0.64209,0
27070,0.513184,-0.425293,0.629883,0
27090,0.519531,-0.425293,0.633789,0
27110,0.516113,-0.422852,0.632812,0
27130,0.521484,-0.427246,0.639648,0
27150,0.512695,-0.431152,0.629883,0
27170,0.509277,-0.419922,0.625488,0
27190,0.518066,-0.408203,0.637695,0
27210,0.519531,-0.408203,0.634766,0
27230,0.524902,-0.39502,0.638184,0
27250,0.528809,-0.402832,0.626465,0
27270,0.52832,-0.405762,0.62793,0
27290,0.521973,-0.408691,0.635254,0
27310,0.518555,-0.405762,0.625977,0
27330,0.533691,-0.398438,0.632812,0
27350,0.55957,-0.394531,0.629395,0
27370,0.557617,-0.392578,0.621582,0
27390,0.547363,-0.379883,0.622559,0
27410,0.568848,-0.38623,0.627441,0
27430,0.577637,-0.387695,0.625977,0
27450,0.569824,-0.381836,0.612305,0
27470,0.576172,-0.380859,0.612793,0
27490,0.594727,-0.383789,0.61084,0
27510,0.599121,-0.366211,0.613281,0
27530,0.592285,-0.374023,0.596191,0
27550,0.597168,-0.385742,0.599609,0
27570,0.599121,-0.375488,0.614258,0
27590,0.573242,-0.351562,0.617676,0
27610,0.571777,-0.343262,0.60791,0
27630,0.578613,-0.353516,0.606934,0
27650,0.578613,-0.360352,0.599121,0
27670,0.562988,-0.355469,0.609375,0
27690,0.580566,-0.344238,0.614258,0
27700,0.603027,-0.349121,0.621094,0
27720,0.593262,-0.342773,0.615234,0
27740,0.583984,-0.345703,0.60791,0
27760,0.581543,-0.353516,0.612305,0
27780,0.602051,-0.34375,0.631836,0
27800,0.599609,-0.341797,0.625,0
27820,0.586426,-0.331543,0.62207,0
27840,0.59375,-0.343262,0.619141,0
27860,0.603027,-0.347656,0.619141,0
27880,0.585449,-0.337891,0.620605,0
27900,0.59375,-0.331543,0.613281,0
27920,0.609375,-0.331543,0.608887,0
27940,0.602539,-0.323242,0.625,0
27960,0.59668,-0.319824,0.624023,0
27980,0.597656,-0.316406,0.620605,0
28000,0.588379,-0.306641,0.614258,0
28020,0.59668,-0.311035,0.624512,0
28040,0.612793,-0.302734,0.632812,0
28060,0.626465,-0.302246,0.621582,0
28080,0.603027,-0.297363,0.615234,0
28100,0.598145,-0.302246,0.617188,0
28120,0.624023,-0.297852,0.624512,0
28140,0.619141,-0.29248,0.621582,0
28160,0.608887,-0.289062,0.620117,0
28180,0.611816,-0.304199,0.620605,0
28200,0.610352,-0.305176,0.62793,0
28220,0.614746,-0.280762,0.635254,0
28240,0.623535,-0.278809,0.629883,0
28260,0.615723,-0.283691,0.620117,0
28280,0.609375,-0.276855,0.628906,0
28300,0.610352,-0.280273,0.624023,0
28320,0.625488,-0.274902,0.632324,0
28340,0.619629,-0.270996,0.628418,0
28360,0.603027,-0.272461,0.624512,0
28380,0.589355,-0.27002,0.62793,0
28400,0.584961,-0.277344,0.631348,0
28420,0.58252,-0.290527,0.631348,0
28440,0.574707,-0.283203,0.63623,0
28460,0.600098,-0.255371,0.649414,0
28480,0.592773,-0.259277,0.641113,0
28500,0.587402,-0.259277,0.645996,0
28520,0.595215,-0.261719,0.645996,0
28540,0.582031,-0.263184,0.646484,0
28560,0.584961,-0.257812,0.657715,0
28580,0.600586,-0.26709,0.665527,0
28600,0.607422,-0.266113,0.649902,0
28620,0.602051,-0.257812,0.656738,0
28640,0.59082,-0.262207,0.662109,0
28660,0.587402,-0.26416,0.659668,0
28680,0.576172,-0.26416,0.655762,0
28700,0.585449,-0.259766,0.668945,0
28720,0.577637,-0.253418,0.672363,0
28740,0.571289,-0.242676,0.665039,0
28760,0.553223,-0.241699,0.665039,0
28780,0.553711,-0.248535,0.656738,0
28800,0.566406,-0.24707,0.671875,0
28820,0.55957,-0.250488,0.67334,0
28840,0.561523,-0.254883,0.663086,0
28860,0.56543,-0.251953,0.671387,0
28880,0.562988,-0.251465,0.682129,0
28900,0.578613,-0.248535,0.691406,0
28920,0.566895,-0.249512,0.705078,0
28940,0.558105,-0.237793,0.696777,0
28960,0.568359,-0.237793,0.690918,0
28980,0.574707,-0.239258,0.6875,0
29000,0.566895,-0.225098,0.699707,0
29020,0.559082,-0.217285,0.709473,0
29040,0.548828,-0.22998,0.703613,0
29060,0.540039,-0.220703,0.693848,0
29080,0.546875,-0.222168,0.691895,0
29100,0.546875,-0.214355,0.703125,0
29120,0.550781,-0.205078,0.709961,0
29140,0.544434,-0.21582,0.698242,0
29160,0.551758,-0.225586,0.694336,0
29180,0.556641,-0.217773,0.703125,0
29200,0.537598,-0.214355,0.70166,0
29220,0.536133,-0.21582,0.70166,0
29240,0.538574,-0.217773,0.706543,0
29260,0.544434,-0.21875,0.718262,0
29280,0.543457,-0.212402,0.719727,0
29300,0.537598,-0.205566,0.717773,0
29320,0.537598,-0.222168,0.703613,0
29340,0.55127,-0.214355,0.713867,0
29360,0.542969,-0.20752,0.717285,0
29380,0.538086,-0.215332,0.727051,0
29400,0.53125,-0.222168,0.732422,0
29420,0.521484,-0.211914,0.733398,0
29440,0.518555,-0.211914,0.722168,0
29460,0.533691,-0.215332,0.711426,0
29480,0.532715,-0.205566,0.710938,0
29500,0.537598,-0.203613,0.720215,0
29520,0.541016,-0.208984,0.731445,0
29540,0.54834,-0.21582,0.721191,0
29560,0.553223,-0.216309,0.723145,0
29580,0.556152,-0.212402,0.720215,0
29600,0.541504,-0.211914,0.717285,0
29620,0.550781,-0.215332,0.719727,0
29640,0.564453,-0.223633,0.70752,0
29660,0.562988,-0.229492,0.703613,0
29680,0.571289,-0.222168,0.706055,0
29700,0.567383,-0.229492,0.709961,0
29720,0.541992,-0.223145,0.711914,0
29740,0.543457,-0.231445,0.701172,0
29760,0.537598,-0.223633,0.717285,0
29780,0.532227,-0.207031,0.714355,0
29800,0.508301,-0.213867,0.722168,0
29820,0.515137,-0.228027,0.70459,0
29840,0.515137,-0.213379,0.707031,0
29860,0.510254,-0.197754,0.703613,0
29880,0.51416,-0.209473,0.709473,0
29900,0.509766,-0.214355,0.711426,0
29920,0.499512,-0.219238,0.714844,0
29940,0.5,-0.220703,0.708008,0
29960,0.521484,-0.22998,0.714355,0
29980,0.522461,-0.226074,0.707031,0
30000,0.503418,-0.214844,0.723633,0
30020,0.495117,-0.20459,0.725098,0
30040,0.513184,-0.209961,0.709473,0
30060,0.532227,-0.216797,0.719238,0
30080,0.51416,-0.202637,0.719238,0
30100,0.501465,-0.216309,0.723633,0
30120,0.513184,-0.227539,0.725098,0
30140,0.518066,-0.231445,0.71875,0
30160,0.519043,-0.209961,0.712891,0
30180,0.51416,-0.197754,0.708008,0
30200,0.495605,-0.212402,0.723633,0
30220,0.495117,-0.222168,0.734375,0
30240,0.51709,-0.240234,0.739258,0
30260,0.549316,-0.225098,0.727539,0
30280,0.540039,-0.208984,0.742188,0
30300,0.509277,-0.197754,0.743164,0
30320,0.524902,-0.225586,0.745117,0
30340,0.525879,-0.23877,0.734863,0
30360,0.493652,-0.214355,0.737305,0
30380,0.483887,-0.231934,0.734375,0
30400,0.500977,-0.217285,0.734375,0
30420,0.499512,-0.217285,0.747559,0
30440,0.475098,-0.209961,0.754395,0
30460,0.45166,-0.217285,0.742676,0
30480,0.469238,-0.25,0.74707,0
30500,0.493652,-0.241699,0.740234,0
30520,0.492188,-0.233398,0.744629,0
30540,0.481934,-0.232422,0.733887,0
30560,0.484375,-0.231445,0.748047,0
30580,0.473145,-0.225098,0.751465,0
30600,0.474121,-0.216309,0.741211,0
30620,0.491211,-0.230957,0.740723,0
30640,0.48291,-0.237793,0.73877,0
30660,0.45459,-0.238281,0.730957,0
30680,0.462891,-0.253418,0.730469,0
30700,0.479004,-0.24707,0.753418,0
30720,0.479492,-0.237305,0.744141,0
30740,0.476074,-0.227539,0.743164,0
30760,0.461914,-0.228516,0.743652,0
30780,0.467773,-0.236328,0.761719,0
30800,0.472656,-0.244141,0.75,0
30820,0.479492,-0.262695,0.744629,0
30840,0.490723,-0.24707,0.752441,0
30860,0.470215,-0.241211,0.751953,0
30880,0.461914,-0.254883,0.737793,0
30900,0.494141,-0.264648,0.749023,0
30920,0.498047,-0.263184,0.750977,0
30940,0.474121,-0.241699,0.738281,0
30960,0.470703,-0.252441,0.751953,0
30980,0.445312,-0.247559,0.750488,0
31000,0.424805,-0.268066,0.736328,0
31020,0.471191,-0.266602,0.73291,0
31040,0.494141,-0.251953,0.745605,0
31060,0.462891,-0.230469,0.743164,0
31080,0.436035,-0.261719,0.728027,0
31100,0.463867,-0.291016,0.733887,0
31110,0.48291,-0.282227,0.750488,0
31130,0.47168,-0.258789,0.729492,0
31150,0.478516,-0.276855,0.733887,0
31170,0.462891,-0.275879,0.736816,0
31190,0.436523,-0.279297,0.731445,0
31210,0.416504,-0.286621,0.746582,0
31230,0.430176,-0.28125,0.742676,0
31250,0.4375,-0.280762,0.739746,0
31270,0.410156,-0.260254,0.728516,0
31290,0.432129,-0.260742,0.73584,0
31310,0.442383,-0.291992,0.744629,0
31330,0.423828,-0.29834,0.745117,0
31350,0.416016,-0.311523,0.74707,0
31370,0.43457,-0.309082,0.752441,0
31390,0.452637,-0.299316,0.755859,0
31410,0.45166,-0.295898,0.760742,0
31430,0.446777,-0.305176,0.771973,0
31450,0.452637,-0.297363,0.770996,0
31470,0.415527,-0.294922,0.771484,0
31490,0.399414,-0.312988,0.758789,0
31510,0.441406,-0.309082,0.754883,0
31530,0.447754,-0.296875,0.755859,0
31550,0.402832,-0.287598,0.750977,0
31570,0.407715,-0.30957,0.742676,0
31590,0.433594,-0.319824,0.755859,0
31610,0.41748,-0.314941,0.746094,0
31630,0.42041,-0.333984,0.724609,0
31650,0.451172,-0.322266,0.759277,0
31670,0.426758,-0.302734,0.748047,0
31690,0.400879,-0.316406,0.736328,0
31710,0.436523,-0.339355,0.750488,0
31730,0.447266,-0.32373,0.759277,0
31750,0.393066,-0.319824,0.74707,0
31770,0.380371,-0.330566,0.737305,0
31790,0.428711,-0.326172,0.747559,0
31810,0.408691,-0.32373,0.750977,0
31830,0.369141,-0.325684,0.744629,0
31850,0.38916,-0.34082,0.752441,0
31870,0.397949,-0.345703,0.744141,0
31890,0.39209,-0.351562,0.743652,0
31910,0.400879,-0.345215,0.750488,0
31950,0.384277,-0.354004,0.746582,0
31970,0.372559,-0.359863,0.739746,0
31990,0.397461,-0.364258,0.73877,0
32010,0.397949,-0.356934,0.740723,0
32030,0.361816,-0.356445,0.720703,0
32050,0.376465,-0.360352,0.730469,0
32070,0.383789,-0.353516,0.734863,0
32090,0.379883,-0.373047,0.723633,0
32110,0.412598,-0.369141,0.744141,0
32130,0.416992,-0.360352,0.760742,0
32150,0.404785,-0.384766,0.730957,0
32170,0.427734,-0.386719,0.745605,0
32190,0.430664,-0.369629,0.75293,0
32210,0.378418,-0.372559,0.731445,0
32230,0.414551,-0.390137,0.738281,0
32250,0.43457,-0.38623,0.755859,0
32270,0.380371,-0.365723,0.741211,0
32290,0.390137,-0.379395,0.72998,0
32310,0.434082,-0.391602,0.744141,0
32330,0.396973,-0.371094,0.737793,0
32350,0.37793,-0.367676,0.742188,0
32370,0.379883,-0.380859,0.734375,0
32390,0.398926,-0.38623,0.729004,0
32410,0.420898,-0.387695,0.721191,0
32430,0.408203,-0.387207,0.730469,0
32450,0.379395,-0.381348,0.725586,0
32470,0.359375,-0.379883,0.722656,0
32490,0.355469,-0.37793,0.722168,0
32510,0.363281,-0.375488,0.718262,0
32530,0.378906,-0.380371,0.72168,0
32550,0.402832,-0.383301,0.724609,0
32570,0.374512,-0.386719,0.71582,0
32590,0.366699,-0.404297,0.717773,0
32610,0.40625,-0.402344,0.729492,0
32630,0.413086,-0.396973,0.723145,0
32650,0.404297,-0.406738,0.725098,0
32670,0.416016,-0.410156,0.734375,0
32690,0.41748,-0.408691,0.734375,0
32710,0.413574,-0.410645,0.736328,0
32730,0.399414,-0.40625,0.725098,0
32750,0.394043,-0.415527,0.712402,0
32770,0.400879,-0.414062,0.71875,0
32790,0.399902,-0.409668,0.71582,0
32810,0.396484,-0.421875,0.71582,0
32830,0.414062,-0.42041,0.719727,0
32850,0.405273,-0.404297,0.711914,0
32870,0.388184,-0.421875,0.702148,0
32890,0.414551,-0.416504,0.714844,0
32910,0.436523,-0.415039,0.722168,0
32930,0.411133,-0.422852,0.705078,0
32950,0.413086,-0.419434,0.705078,0
32970,0.435547,-0.420898,0.708008,0
32990,0.433594,-0.416504,0.706543,0
33010,0.415527,-0.42334,0.694336,0
33030,0.415527,-0.427246,0.686523,0
33050,0.413574,-0.416504,0.692871,0
33070,0.40332,-0.416504,0.691406,0
33090,0.418457,-0.438965,0.679199,0
33100,0.440918,-0.432129,0.70166,0
33120,0.444336,-0.411133,0.703125,0
33140,0.442383,-0.435059,0.683105,0
33160,0.442871,-0.445801,0.685547,0
33180,0.447754,-0.439941,0.686035,0
33200,0.445312,-0.444824,0.683594,0
33220,0.437988,-0.442871,0.679199,0
33240,0.437988,-0.441895,0.67334,0
33260,0.446289,-0.441406,0.682129,0
33280,0.447754,-0.444824,0.679199,0
33300,0.449707,-0.445801,0.669434,0
33320,0.460449,-0.449707,0.668945,0
33340,0.447266,-0.448242,0.658691,0
33360,0.451172,-0.451172,0.657227,0
33380,0.458496,-0.452637,0.665527,0
33400,0.453125,-0.446289,0.658691,0
33420,0.466797,-0.449707,0.65332,0
33440,0.487305,-0.452637,0.654785,0
33460,0.472168,-0.45459,0.648438,0
33480,0.460449,-0.466309,0.64502,0
33500,0.45459,-0.455078,0.637695,0
33520,0.458496,-0.460449,0.634277,0
33540,0.472168,-0.47168,0.638672,0
33560,0.497559,-0.466797,0.645996,0
33580,0.515625,-0.462402,0.644531,0
33600,0.49707,-0.467285,0.632324,0
33620,0.503906,-0.453125,0.625,0
33640,0.518066,-0.455078,0.632812,0
33660,0.519043,-0.455566,0.625977,0
33680,0.509277,-0.45459,0.612305,0
33700,0.503418,-0.461426,0.607422,0
33720,0.51709,-0.44873,0.611816,0
33740,0.511719,-0.443359,0.611328,0
33770,0.528809,-0.459473,0.59668,0
33800,0.540527,-0.467773,0.598145,0
33820,0.547852,-0.475586,0.59668,0
33840,0.543945,-0.474609,0.595703,0
33860,0.538086,-0.476562,0.584473,0
33880,0.54541,-0.478516,0.587891,0
33900,0.552246,-0.479492,0.592285,0
33920,0.546387,-0.474609,0.579102,0
33940,0.541016,-0.466797,0.572266,0
33960,0.544922,-0.47168,0.584961,0
33980,0.54541,-0.472656,0.574707,0
34000,0.544434,-0.47998,0.576172,0
34020,0.54248,-0.477051,0.580078,0
34040,0.539062,-0.474121,0.562988,0
34060,0.547363,-0.480469,0.563965,0
34080,0.564453,-0.476562,0.573242,0
34100,0.563477,-0.46582,0.576172,0
34120,0.547852,-0.463867,0.578613,0
34140,0.550293,-0.478516,0.561035,0
34160,0.560547,-0.487305,0.564453,0
34180,0.567383,-0.475586,0.561035,0
34200,0.568848,-0.479004,0.558594,0
34220,0.570312,-0.472656,0.557617,0
34240,0.567383,-0.475098,0.558594,0
34260,0.569824,-0.483887,0.550781,0
34280,0.586426,-0.480469,0.55957,0
34300,0.584961,-0.475098,0.556641,0
34320,0.581055,-0.458496,0.556641,0
34340,0.59375,-0.472168,0.544434,0
34360,0.589355,-0.481445,0.547852,0
34380,0.569824,-0.472168,0.547363,0
34400,0.572754,-0.465332,0.541992,0
34420,0.58252,-0.46582,0.536621,0
34440,0.589355,-0.462402,0.538574,0
34460,0.577148,-0.465332,0.544434,0
34480,0.566406,-0.471191,0.539062,0
34500,0.58252,-0.45459,0.543945,0
34520,0.594727,-0.459961,0.535645,0
34540,0.599121,-0.472168,0.537598,0
34560,0.597656,-0.461914,0.53418,0
34580,0.589844,-0.45166,0.535156,0
34600,0.598633,-0.464844,0.539062,0
34620,0.610352,-0.44873,0.549805,0
34640,0.608887,-0.445312,0.535156,0
34660,0.603516,-0.447754,0.521973,0
34680,0.616699,-0.464355,0.522461,0
34700,0.633789,-0.448242,0.539062,0
34720,0.634277,-0.437988,0.533691,0
34740,0.630859,-0.434082,0.525391,0
34760,0.637207,-0.44043,0.516602,0
34780,0.648926,-0.431152,0.520996,0
34800,0.655273,-0.428223,0.51416,0
34820,0.655762,-0.425293,0.518066,0
34840,0.666016,-0.421387,0.506348,0
34860,0.651855,-0.431152,0.504883,0
34880,0.637207,-0.432617,0.50293,0
34900,0.658203,-0.432617,0.506836,0
34920,0.665039,-0.413574,0.511719,0
34940,0.655273,-0.404297,0.504883,0
34960,0.65918,-0.408203,0.5,0
34980,0.67041,-0.397949,0.515137,0
35000,0.659668,-0.399414,0.513672,0
35020,0.651367,-0.409668,0.510254,0
35040,0.661621,-0.398438,0.513672,0
35060,0.689453,-0.393066,0.503418,0
35080,0.6875,-0.397461,0.499023,0
35100,0.67627,-0.389648,0.500488,0
35120,0.683105,-0.389648,0.497559,0
35140,0.693848,-0.396484,0.500977,0
35160,0.692383,-0.393066,0.497559,0
35180,0.686035,-0.377441,0.50293,0
35200,0.689453,-0.380371,0.492676,0
35220,0.699219,-0.385254,0.486816,0
35240,0.699219,-0.368652,0.474121,0
35260,0.699219,-0.375488,0.476074,0
35280,0.70459,-0.374023,0.491699,0
35300,0.698242,-0.37207,0.494629,0
35320,0.688477,-0.370117,0.496582,0
35340,0.677734,-0.34668,0.492188,0
35360,0.691895,-0.34082,0.488281,0
35380,0.689941,-0.340332,0.48584,0
35400,0.697266,-0.338867,0.493164,0
35420,0.696777,-0.318359,0.499023,0
35440,0.695312,-0.312988,0.493164,0
35460,0.709961,-0.318848,0.484375,0
35480,0.740234,-0.32666,0.49707,0
35500,0.741211,-0.322266,0.487793,0
35520,0.748047,-0.313965,0.48877,0
35540,0.748047,-0.320312,0.491699,0
35560,0.758789,-0.316895,0.48584,0
35580,0.759766,-0.319824,0.483398,0
35600,0.746094,-0.306641,0.481445,0
35620,0.724121,-0.290527,0.487305,0
35640,0.720703,-0.299316,0.481934,0
35660,0.712402,-0.308594,0.48584,0
35680,0.72998,-0.304199,0.496582,0
35700,0.720703,-0.286621,0.495117,0
35720,0.719727,-0.291016,0.476074,0
35740,0.715332,-0.282227,0.48877,0
35760,0.715332,-0.292969,0.491699,0
35780,0.730957,-0.293457,0.506836,0
35800,0.750977,-0.289062,0.496094,0
35820,0.734863,-0.277832,0.49707,0
35840,0.745117,-0.275391,0.500977,0
35860,0.750977,-0.28125,0.504883,0
35880,0.720215,-0.269531,0.508789,0
35900,0.715332,-0.260742,0.507324,0
35920,0.719238,-0.257324,0.51709,0
35940,0.743652,-0.26123,0.520508,0
35960,0.734863,-0.249023,0.504883,0
35980,0.722656,-0.26123,0.51123,0
36000,0.705566,-0.264648,0.516113,0
36020,0.705078,-0.257324,0.521484,0
36040,0.704102,-0.262207,0.519531,0
36060,0.725098,-0.257812,0.520996,0
36080,0.735352,-0.241699,0.530762,0
36100,0.734375,-0.223633,0.532227,0
36120,0.719727,-0.241699,0.533203,0
36140,0.709473,-0.257324,0.520996,0
36160,0.723633,-0.253906,0.532227,0
36180,0.729004,-0.230469,0.538574,0
36200,0.725586,-0.23877,0.532715,0
36220,0.726562,-0.242188,0.524414,0
36240,0.714844,-0.248047,0.527344,0
36260,0.713867,-0.263184,0.549805,0
36280,0.705078,-0.25,0.546387,0
36300,0.698242,-0.250977,0.53125,0
36320,0.726562,-0.286133,0.520508,0
36340,0.730469,-0.268555,0.530762,0
36360,0.6875,-0.23584,0.550781,0
36380,0.658691,-0.224609,0.558594,0
36400,0.682129,-0.239258,0.572266,0
36420,0.712402,-0.249512,0.575684,0
36440,0.700195,-0.236816,0.564941,0
36460,0.686523,-0.231934,0.573242,0
36470,0.682129,-0.236328,0.586914,0
36490,0.682129,-0.223145,0.59082,0
36510,0.68457,-0.227051,0.575195,0
36530,0.695801,-0.224609,0.572266,0
36550,0.692871,-0.20752,0.583008,0
36570,0.680664,-0.205078,0.599121,0
36590,0.657227,-0.214355,0.59375,0
36610,0.678223,-0.229492,0.602539,0
36630,0.707031,-0.221191,0.595215,0
36650,0.674805,-0.210449,0.613281,0
36670,0.630859,-0.21875,0.620605,0
36690,0.652832,-0.231934,0.609375,0
36710,0.663086,-0.23584,0.632812,0
36730,0.644043,-0.208984,0.625977,0
36750,0.62793,-0.208008,0.624512,0
36770,0.632812,-0.213379,0.627441,0
36790,0.625488,-0.211914,0.642578,0
36810,0.619629,-0.238281,0.637207,0
36830,0.621582,-0.246582,0.62207,0
36850,0.646484,-0.259277,0.625488,0
36870,0.645996,-0.250977,0.638672,0
36890,0.629883,-0.245605,0.645508,0
36910,0.624512,-0.226074,0.65625,0
36930,0.625977,-0.224121,0.657715,0
36950,0.618164,-0.217285,0.642578,0
36970,0.612305,-0.227051,0.650391,0
36990,0.585449,-0.223145,0.645996,0
37010,0.594727,-0.216309,0.643555,0
37030,0.604492,-0.225586,0.646973,0
37050,0.615234,-0.234863,0.629883,0
37070,0.633301,-0.240234,0.63916,0
37090,0.626953,-0.24707,0.629395,0
37110,0.606934,-0.251465,0.626465,0
37130,0.620605,-0.250488,0.626953,0
37150,0.637695,-0.24707,0.626953,0
37170,0.629883,-0.222656,0.633301,0
37190,0.620605,-0.239258,0.619629,0
37210,0.633301,-0.264648,0.62207,0
37230,0.617676,-0.239258,0.658203,0
37250,0.572266,-0.243652,0.638672,0
37270,0.594238,-0.262207,0.641602,0
37290,0.621582,-0.26416,0.639648,0
37310,0.578125,-0.262695,0.651367,0
37330,0.567383,-0.267578,0.654785,0
37350,0.589844,-0.26709,0.648438,0
37370,0.591309,-0.265137,0.65625,0
37390,0.557129,-0.255859,0.663086,0
37390,0.59375,-0.271973,0.655762,0
37410,0.575195,-0.257324,0.66748,0
37430,0.535645,-0.272949,0.662109,0
37450,0.550293,-0.274902,0.666016,0
37470,0.580566,-0.25293,0.675781,0
37490,0.570801,-0.240723,0.673828,0
37510,0.556641,-0.258301,0.666992,0
37530,0.553711,-0.275391,0.653809,0
37550,0.535645,-0.286133,0.658203,0
37580,0.556641,-0.27832,0.688477,0
37600,0.539062,-0.283203,0.681641,0
37620,0.561035,-0.288086,0.68457,0
37640,0.557617,-0.28418,0.676758,0
37660,0.525879,-0.29248,0.673828,0
37680,0.516602,-0.287598,0.693848,0
37700,0.512207,-0.280762,0.687988,0
37720,0.51709,-0.291504,0.682129,0
37740,0.52832,-0.311035,0.677246,0
37760,0.516113,-0.290039,0.69043,0
37780,0.490234,-0.282715,0.699219,0
37800,0.494141,-0.302246,0.693848,0
37820,0.52002,-0.316406,0.687988,0
37840,0.511719,-0.306152,0.70459,0
37860,0.49707,-0.302734,0.692383,0
37880,0.515137,-0.31543,0.707031,0
37900,0.509766,-0.314453,0.711426,0
37920,0.468262,-0.328613,0.694336,0
37940,0.500488,-0.338379,0.702637,0
37960,0.535645,-0.328613,0.729492,0
37980,0.483398,-0.319336,0.718262,0
38000,0.451172,-0.34082,0.708008,0
38020,0.496582,-0.341309,0.717773,0
38040,0.500488,-0.320312,0.725098,0
38060,0.46582,-0.320312,0.711914,0
38080,0.484863,-0.326172,0.715332,0
38100,0.496582,-0.32666,0.724609,0
38120,0.472168,-0.331543,0.706055,0
38140,0.474121,-0.34375,0.696289,0
38160,0.51123,-0.343262,0.700195,0
38180,0.48291,-0.335449,0.709473,0
38200,0.430664,-0.330078,0.695801,0
38220,0.445312,-0.34375,0.692871,0
38240,0.474609,-0.347656,0.689453,0
38260,0.474121,-0.350586,0.688477,0
38270,0.466797,-0.337891,0.703613,0
38300,0.456543,-0.34082,0.695312,0
38320,0.480469,-0.35791,0.694824,0
38330,0.48584,-0.364258,0.70459,0
38350,0.458496,-0.352051,0.705566,0
38370,0.437988,-0.355469,0.691406,0
38390,0.439453,-0.364746,0.681152,0
38410,0.457031,-0.355957,0.687988,0
38430,0.480957,-0.369141,0.699707,0
38450,0.481934,-0.378418,0.692871,0
38470,0.5,-0.376465,0.697266,0
38490,0.504883,-0.380859,0.70459,0
38510,0.473145,-0.379883,0.70166,0
38530,0.461914,-0.404297,0.689941,0
38550,0.490723,-0.401855,0.689453,0
38570,0.465332,-0.396973,0.679199,0
38590,0.416992,-0.385254,0.674805,0
38610,0.432617,-0.401855,0.666016,0
38630,0.466797,-0.383301,0.679688,0
38650,0.460449,-0.388184,0.681152,0
38670,0.476074,-0.40332,0.682617,0
38690,0.487305,-0.398926,0.686523,0
38710,0.459961,-0.398438,0.680664,0
38730,0.484863,-0.412598,0.681152,0
38750,0.5,-0.394043,0.685547,0
38770,0.463379,-0.402832,0.668945,0
38790,0.487793,-0.401367,0.677246,0
38810,0.492188,-0.397949,0.682617,0
38830,0.438965,-0.399902,0.668457,0
38850,0.437988,-0.414062,0.65625,0
38870,0.503418,-0.418457,0.675293,0
38890,0.518555,-0.411133,0.678223,0
38910,0.470215,-0.398926,0.667969,0
38930,0.45752,-0.419434,0.657227,0
38950,0.486328,-0.431152,0.660645,0
38970,0.481445,-0.432617,0.649902,0
38990,0.461426,-0.427734,0.640137,0
39010,0.5,-0.425293,0.651855,0
39030,0.541504,-0.428223,0.66748,0
39050,0.507324,-0.431152,0.654785,0
39070,0.474609,-0.437988,0.643066,0
39090,0.496094,-0.438965,0.652344,0
39110,0.503418,-0.440918,0.643555,0
39130,0.498535,-0.439941,0.635742,0
39150,0.509277,-0.439453,0.634766,0
39170,0.496582,-0.4375,0.618164,0
39190,0.473633,-0.4375,0.625,0
39210,0.474609,-0.4375,0.620117,0
39230,0.493164,-0.461914,0.611328,0
39250,0.528809,-0.460449,0.631348,0
39270,0.52832,-0.441895,0.62793,0
39290,0.517578,-0.43457,0.620117,0
39310,0.51709,-0.44043,0.621582,0
39330,0.541504,-0.44873,0.635742,0
39350,0.554688,-0.445801,0.618164,0
39370,0.531738,-0.442383,0.604004,0
39390,0.53125,-0.449219,0.597168,0
39410,0.55127,-0.448242,0.602051,0
39430,0.539551,-0.452148,0.592285,0
39450,0.507324,-0.457031,0.575684,0
39470,0.541992,-0.46582,0.582031,0
39490,0.568848,-0.453125,0.600098,0
39510,0.552246,-0.451172,0.59375,0
39530,0.537598,-0.458984,0.586914,0
39550,0.543457,-0.475586,0.58252,0
39570,0.529785,-0.458496,0.580078,0
39590,0.516113,-0.459961,0.563477,0
39610,0.540527,-0.473633,0.5625,0
39630,0.561523,-0.470703,0.563477,0
39650,0.553711,-0.462891,0.560059,0
39670,0.571289,-0.478027,0.55127,0
39690,0.589355,-0.475586,0.564453,0
39710,0.57666,-0.478516,0.557129,0
39730,0.575195,-0.493164,0.562988,0
39750,0.597168,-0.493652,0.561035,0
39770,0.602539,-0.485352,0.544922,0
39790,0.584961,-0.478516,0.546387,0
39810,0.582031,-0.475098,0.539062,0
39830,0.585449,-0.48877,0.533203,0
39850,0.569824,-0.491699,0.531738,0
39870,0.557617,-0.501953,0.526367,0
39890,0.566895,-0.498535,0.526855,0
39910,0.587402,-0.493164,0.53418,0
39930,0.567871,-0.497559,0.520508,0
39950,0.563965,-0.51416,0.515625,0
39970,0.57373,-0.51123,0.523926,0
39990,0.569824,-0.513184,0.509766,0
40010,0.560059,-0.51709,0.510254,0
40030,0.580078,-0.520996,0.509277,0
40050,0.58252,-0.515625,0.504395,0
40070,0.560547,-0.51416,0.500488,0
40090,0.566406,-0.509766,0.501953,0
40110,0.599121,-0.525879,0.509277,0
40130,0.609863,-0.53125,0.496582,0
40150,0.592285,-0.529785,0.495605,0
40170,0.595215,-0.519531,0.499512,0
40190,0.620117,-0.511719,0.499023,0
40210,0.623047,-0.518066,0.480469,0
40230,0.606445,-0.52832,0.472168,0
40250,0.613281,-0.523926,0.477051,0
40270,0.625977,-0.522461,0.477051,0
40290,0.608398,-0.517578,0.475586,0
40310,0.592285,-0.505859,0.465332,0
40330,0.60791,-0.508301,0.455566,0
40350,0.624512,-0.516113,0.465332,0
40370,0.615723,-0.502441,0.459961,0
40390,0.608398,-0.500977,0.456543,0
40410,0.65918,-0.512207,0.450684,0
40430,0.647461,-0.514648,0.446777,0
40450,0.659668,-0.52002,0.442383,0
40470,0.685059,-0.51416,0.44873,0
40490,0.67041,-0.51123,0.445801,0
40510,0.63916,-0.514648,0.43457,0
40530,0.63916,-0.498535,0.433594,0
40550,0.660645,-0.487793,0.428223,0
40570,0.666992,-0.500488,0.42041,0
40590,0.666504,-0.496094,0.416992,0
40610,0.67334,-0.496094,0.424316,0
40630,0.67627,-0.490234,0.421387,0
40650,0.660156,-0.496094,0.411133,0
40670,0.664551,-0.504883,0.411621,0
40690,0.679688,-0.491699,0.413574,0
40710,0.666016,-0.470215,0.402832,0
40730,0.65918,-0.483398,0.39209,0
40750,0.713867,-0.506348,0.396484,0
40770,0.740234,-0.491211,0.401367,0
40790,0.703125,-0.488281,0.396973,0
40810,0.708496,-0.488281,0.390625,0
40830,0.73291,-0.493652,0.39502,0
40850,0.73584,-0.489746,0.388672,0
40870,0.71875,-0.478027,0.382324,0
40890,0.715332,-0.46875,0.373047,0
40910,0.742676,-0.469238,0.374512,0
40930,0.746582,-0.474609,0.371582,0
40950,0.731445,-0.449219,0.367676,0
40970,0.715332,-0.446289,0.370117,0
40990,0.733398,-0.4375,0.358398,0
41010,0.766602,-0.448242,0.35498,0
41030,0.761719,-0.43457,0.352539,0
41050,0.72998,-0.422363,0.357422,0
41070,0.744629,-0.430664,0.338379,0
41090,0.76709,-0.420898,0.34668,0
41110,0.768555,-0.414062,0.339355,0
41130,0.76123,-0.41748,0.330566,0
41150,0.788574,-0.430664,0.326172,0
41170,0.764648,-0.435059,0.324707,0
41190,0.745117,-0.423828,0.325684,0
41210,0.777832,-0.424805,0.334473,0
41230,0.794434,-0.415039,0.319824,0
41250,0.795898,-0.400879,0.318848,0
41270,0.784668,-0.394043,0.324219,0
41290,0.774902,-0.407715,0.316406,0
41310,0.797363,-0.404785,0.319824,0
41330,0.818848,-0.389648,0.327637,0
41350,0.803223,-0.388672,0.309082,0
41370,0.793457,-0.382812,0.307617,0
41390,0.805664,-0.378906,0.327637,0
41410,0.819336,-0.373047,0.331543,0
41430,0.818848,-0.370117,0.314941,0
41450,0.821777,-0.37207,0.316406,0
41470,0.82959,-0.355957,0.33252,0
41490,0.821777,-0.344238,0.333008,0
41510,0.789551,-0.352051,0.312012,0
41530,0.794434,-0.351562,0.306152,0
41550,0.830078,-0.344727,0.324219,0
41570,0.819336,-0.34082,0.319336,0
41590,0.803711,-0.326172,0.3125,0
41610,0.822266,-0.332031,0.320312,0
41630,0.840332,-0.326172,0.319824,0
41650,0.819824,-0.306641,0.327637,0
41670,0.794922,-0.308105,0.323242,0
41690,0.81543,-0.311523,0.315918,0
41710,0.833496,-0.307129,0.32373,0
41730,0.83252,-0.303711,0.331055,0
41750,0.830566,-0.302734,0.330078,0
41770,0.848633,-0.3125,0.323242,0
41780,0.810547,-0.303223,0.34082,0
41800,0.811523,-0.277832,0.339844,0
41820,0.835449,-0.290039,0.330566,0
41840,0.847168,-0.291504,0.333008,0
41860,0.830566,-0.276367,0.342773,0
41880,0.821289,-0.268066,0.350586,0
41900,0.833984,-0.267578,0.351074,0
41920,0.834961,-0.261719,0.338867,0
41940,0.838867,-0.269043,0.329102,0
41960,0.84375,-0.270996,0.347168,0
41980,0.82666,-0.263184,0.345703,0
42000,0.819824,-0.259766,0.341797,0
42020,0.831055,-0.257324,0.342773,0
42040,0.842285,-0.248047,0.347656,0
42060,0.826172,-0.242676,0.353516,0
42080,0.814941,-0.232422,0.351562,0
42100,0.835449,-0.23291,0.351074,0
42120,0.847656,-0.234863,0.353516,0
42140,0.849121,-0.227051,0.358398,0
42160,0.848145,-0.25293,0.368164,0
42180,0.861328,-0.245117,0.353516,0
42200,0.881348,-0.240234,0.368164,0
42220,0.857422,-0.253906,0.370117,0
42240,0.854492,-0.244141,0.350586,0
42260,0.867676,-0.243652,0.372559,0
42280,0.859375,-0.230469,0.373535,0
42300,0.852051,-0.217773,0.356445,0
42320,0.868164,-0.225098,0.374512,0
42340,0.816895,-0.233887,0.385742,0
42360,0.790039,-0.231445,0.377441,0
42380,0.803711,-0.226074,0.387207,0
42400,0.848145,-0.225586,0.404785,0
42420,0.859375,-0.231445,0.402832,0
42440,0.819824,-0.237793,0.407715,0
42460,0.812988,-0.237305,0.418945,0
42480,0.814941,-0.225586,0.425781,0
42500,0.80127,-0.234863,0.399902,0
42520,0.782715,-0.224121,0.402832,0
42540,0.782227,-0.223145,0.417969,0
42580,0.772461,-0.241211,0.430664,0
42600,0.769531,-0.223145,0.421387,0
42620,0.780273,-0.20166,0.425293,0
42640,0.811035,-0.213379,0.42627,0
42660,0.799316,-0.230957,0.448242,0
42680,0.738281,-0.230957,0.454102,0
42700,0.736328,-0.241699,0.439453,0
42720,0.782227,-0.231445,0.4375,0
42740,0.778809,-0.231445,0.443848,0
42760,0.774414,-0.235352,0.454102,0
42770,0.768066,-0.25293,0.460449,0
42790,0.76123,-0.248535,0.47168,0
42810,0.757812,-0.223145,0.48877,0
42830,0.759766,-0.227051,0.480957,0
42850,0.767578,-0.242676,0.48291,0
42870,0.740723,-0.25,0.475586,0
42890,0.713867,-0.244141,0.488281,0
42910,0.716309,-0.260742,0.477051,0
42930,0.773926,-0.269531,0.465332,0
42950,0.782715,-0.263672,0.494141,0
42970,0.724609,-0.246582,0.502441,0
42990,0.722656,-0.255371,0.496582,0
43010,0.760742,-0.272949,0.503906,0
43030,0.75293,-0.267578,0.50293,0
43050,0.713379,-0.265625,0.503906,0
43070,0.720703,-0.269531,0.512207,0
43090,0.737793,-0.266113,0.514648,0
43110,0.736816,-0.26416,0.501953,0
43130,0.726562,-0.276367,0.512695,0
43150,0.720215,-0.287598,0.509277,0
43170,0.72168,-0.297852,0.508789,0
43190,0.722656,-0.293457,0.521484,0
43210,0.706055,-0.277344,0.509766,0
43230,0.700684,-0.271484,0.51123,0
43250,0.717773,-0.27832,0.513672,0
43270,0.717285,-0.282227,0.518066,0
43290,0.702148,-0.285156,0.521973,0
43310,0.688477,-0.28418,0.525391,0
43330,0.681152,-0.293457,0.520508,0
43350,0.686035,-0.28418,0.546387,0
43370,0.69873,-0.281738,0.546875,0
43390,0.702148,-0.283203,0.539062,0
43410,0.694336,-0.279297,0.551758,0
43430,0.669434,-0.285645,0.549316,0
43450,0.676758,-0.305176,0.553711,0
43470,0.712891,-0.304688,0.555176,0
43490,0.701172,-0.301758,0.554199,0
43510,0.685547,-0.299316,0.563965,0
43530,0.668457,-0.303223,0.5625,0
43550,0.676758,-0.3125,0.558105,0
43570,0.685059,-0.314941,0.543457,0
43590,0.669922,-0.333008,0.557129,0
43610,0.679199,-0.35791,0.569824,0
43630,0.686523,-0.347656,0.59375,0
43650,0.627441,-0.332031,0.57666,0
43670,0.606934,-0.330566,0.560547,0
43690,0.634766,-0.330566,0.570801,0
43710,0.629883,-0.338867,0.58252,0
43730,0.608887,-0.34668,0.570312,0
43740,0.606445,-0.353027,0.564941,0
43760,0.615723,-0.350586,0.576172,0
43780,0.587402,-0.36084,0.569824,0
43800,0.592773,-0.367676,0.565918,0
43820,0.616699,-0.365723,0.567871,0
43840,0.62207,-0.373535,0.570312,0
43860,0.633789,-0.382324,0.57666,0
43880,0.619629,-0.404297,0.580566,0
43900,0.612793,-0.400391,0.591797,0
43920,0.615723,-0.396973,0.595703,0
43940,0.619629,-0.406738,0.597168,0
43960,0.60791,-0.403809,0.595215,0
43980,0.578613,-0.408203,0.592285,0
44000,0.583496,-0.403809,0.598145,0
44020,0.571777,-0.404785,0.584473,0
44040,0.55957,-0.411621,0.584961,0
44060,0.594727,-0.429199,0.594238,0
44080,0.603027,-0.431641,0.59668,0
44100,0.563477,-0.432129,0.599609,0
44120,0.549805,-0.41748,0.595703,0
44140,0.585449,-0.415527,0.589355,0
44160,0.586426,-0.41748,0.59082,0
44180,0.539551,-0.411621,0.583496,0
44200,0.520508,-0.412109,0.57666,0
44220,0.549316,-0.42334,0.571289,0
44240,0.569336,-0.413574,0.571777,0
44260,0.558594,-0.426758,0.566895,0
44280,0.56543,-0.431152,0.584473,0
44300,0.573242,-0.428711,0.590332,0
44320,0.568359,-0.42334,0.577148,0
44340,0.591309,-0.42627,0.574219,0
44360,0.599609,-0.425781,0.579102,0
44380,0.560547,-0.437012,0.57373,0
44400,0.569824,-0.442871,0.587402,0
44420,0.603516,-0.45166,0.585938,0
44440,0.570801,-0.438477,0.588867,0
44460,0.519043,-0.438477,0.563965,0
44480,0.575195,-0.463867,0.569824,0
44500,0.619141,-0.458984,0.590332,0
44520,0.563965,-0.432617,0.594238,0
44540,0.515625,-0.430664,0.591797,0
44560,0.54541,-0.440918,0.593262,0
44580,0.567383,-0.462891,0.583008,0
44600,0.537598,-0.476074,0.575684,0
44620,0.555176,-0.465332,0.576172,0
44640,0.585449,-0.45752,0.580566,0
44660,0.569336,-0.44873,0.572754,0
44680,0.549316,-0.452637,0.560547,0
44700,0.561523,-0.484375,0.55127,0
44720,0.582031,-0.500977,0.554199,0
44740,0.554199,-0.476562,0.556152,0
44760,0.561523,-0.484863,0.54834,0
44780,0.596191,-0.494141,0.553223,0
44800,0.587891,-0.47168,0.562012,0
44820,0.543945,-0.47998,0.545898,0
44840,0.554688,-0.51416,0.54248,0
44860,0.583496,-0.505371,0.549805,0
44880,0.542969,-0.502441,0.54248,0
44900,0.51416,-0.526367,0.512207,0
44920,0.539062,-0.515137,0.508789,0
44940,0.557617,-0.520996,0.513672,0
44960,0.555664,-0.519531,0.533203,0
44980,0.553223,-0.531738,0.517578,0
45000,0.547852,-0.561523,0.52002,0
45020,0.564453,-0.555176,0.521484,0
45040,0.56543,-0.547363,0.510742,0
45060,0.558105,-0.557129,0.507812,0
45080,0.566895,-0.562988,0.509277,0
45100,0.58252,-0.562012,0.517578,0
45120,0.572754,-0.552734,0.498535,0
45140,0.548828,-0.540039,0.480469,0
45160,0.563477,-0.5625,0.472168,0
45180,0.57666,-0.563965,0.483887,0
45200,0.574707,-0.5625,0.479492,0
45220,0.59375,-0.541992,0.46582,0
45240,0.624023,-0.523926,0.476074,0
45260,0.634766,-0.543457,0.460938,0
45280,0.620605,-0.571289,0.464844,0
45300,0.598633,-0.564453,0.462891,0
45320,0.599121,-0.548828,0.453613,0
45340,0.643555,-0.54248,0.446289,0
45360,0.648438,-0.546387,0.445312,0
45380,0.625488,-0.563477,0.431641,0
45400,0.623047,-0.568359,0.438965,0
45420,0.629395,-0.576172,0.436035,0
45440,0.619629,-0.570312,0.442383,0
45460,0.588379,-0.563965,0.427246,0
45480,0.574707,-0.555176,0.411133,0
45500,0.590332,-0.57959,0.419922,0
45520,0.606934,-0.581543,0.416992,0
45540,0.592285,-0.580078,0.40625,0
45560,0.580078,-0.573242,0.413574,0
45580,0.591309,-0.583496,0.41748,0
45600,0.596191,-0.587402,0.407715,0
45620,0.573242,-0.589355,0.395508,0
45640,0.587402,-0.589844,0.396973,0
45660,0.61377,-0.584473,0.405762,0
45680,0.616699,-0.588867,0.391602,0
45700,0.597168,-0.598633,0.39209,0
45720,0.594238,-0.599121,0.378906,0
45740,0.608887,-0.586914,0.38623,0
45760,0.628906,-0.597656,0.381836,0
45780,0.63916,-0.606445,0.376953,0
45800,0.631836,-0.589844,0.38916,0
45820,0.633789,-0.572266,0.380859,0
45840,0.654785,-0.591797,0.383301,0
45860,0.663574,-0.591797,0.383301,0
45880,0.648438,-0.586914,0.374512,0
45900,0.628906,-0.578613,0.368164,0
45920,0.625977,-0.557617,0.357422,0
45940,0.664062,-0.556152,0.362305,0
45960,0.660156,-0.563965,0.355957,0
45980,0.647461,-0.560547,0.356445,0
46000,0.649414,-0.572266,0.34375,0
46020,0.66748,-0.580566,0.34668,0
46040,0.658203,-0.583984,0.352051,0
46060,0.649902,-0.578613,0.34375,0
46080,0.671387,-0.549805,0.333984,0
46100,0.67041,-0.545898,0.330078,0
46120,0.667969,-0.553223,0.327637,0
46140,0.682617,-0.561523,0.330078,0
46160,0.690918,-0.554199,0.324707,0
46180,0.67627,-0.55957,0.319824,0
46200,0.685059,-0.558105,0.30957,0
46220,0.709961,-0.54541,0.318359,0
46240,0.714844,-0.531738,0.308105,0
46260,0.70166,-0.525879,0.287109,0
46280,0.71875,-0.545898,0.289062,0
46300,0.73291,-0.561523,0.297852,0
46320,0.737793,-0.557129,0.301758,0
46340,0.731934,-0.556152,0.300293,0
46360,0.744629,-0.536621,0.291504,0
46380,0.744141,-0.53125,0.291504,0
46400,0.73291,-0.521484,0.28125,0
46420,0.742676,-0.507812,0.269043,0
46440,0.74707,-0.518066,0.285156,0
46460,0.730469,-0.509766,0.283203,0
46480,0.73291,-0.507812,0.271973,0
46500,0.753418,-0.518066,0.262695,0
46520,0.777344,-0.505859,0.274414,0
46540,0.762207,-0.484863,0.270508,0
46560,0.767578,-0.485352,0.253906,0
46580,0.77002,-0.481934,0.262207,0
46600,0.765625,-0.474609,0.250488,0
46620,0.765137,-0.475586,0.241699,0
46640,0.796387,-0.463867,0.248047,0
46660,0.797363,-0.484863,0.236816,0
46680,0.768555,-0.501953,0.236816,0
46700,0.770508,-0.48291,0.258301,0
46720,0.786133,-0.458984,0.245605,0
46740,0.812012,-0.457031,0.23584,0
46760,0.807129,-0.457031,0.241211,0
46780,0.790527,-0.478516,0.245117,0
46800,0.803711,-0.473633,0.242676,0
46820,0.823242,-0.453125,0.23877,0
46840,0.820801,-0.438965,0.242676,0
46860,0.797852,-0.435059,0.244141,0
46880,0.79541,-0.434082,0.23584,0
46900,0.811035,-0.436035,0.230469,0
46920,0.831055,-0.428223,0.226074,0
46940,0.825684,-0.421387,0.220215,0
46960,0.817383,-0.424805,0.228027,2001
46980,0.810547,-0.428711,0.22168,0
47000,0.814941,-0.425293,0.220215,0
47020,0.837402,-0.411621,0.20459,0
47040,0.850586,-0.398926,0.194336,0
47060,0.846191,-0.407227,0.202148,0
47080,0.846191,-0.413086,0.208008,0
47100,0.844727,-0.414062,0.22168,0
47120,0.844727,-0.400391,0.223633,0
47140,0.842773,-0.374023,0.197266,0
47150,0.84375,-0.37793,0.186523,0
47170,0.823242,-0.398926,0.192871,0
47190,0.811523,-0.387207,0.217285,0
47210,0.818359,-0.388184,0.209473,0
47230,0.814941,-0.373535,0.227539,0
47250,0.799805,-0.359863,0.216797,0
47270,0.794922,-0.364746,0.209473,0
47290,0.79834,-0.367676,0.22168,0
47310,0.800781,-0.37793,0.212402,0
47330,0.799316,-0.375,0.205078,0
47350,0.794434,-0.368652,0.203125,0
47370,0.803223,-0.364258,0.216797,0
47390,0.771484,-0.367188,0.213867,0
47410,0.741211,-0.382324,0.205566,0
47430,0.742676,-0.387695,0.223145,0
47450,0.758789,-0.389648,0.224121,0
47470,0.72998,-0.394043,0.225098,0
47490,0.699707,-0.376953,0.226074,0
47510,0.750977,-0.411133,0.225586,0
47530,0.804688,-0.435059,0.274414,0
47550,0.763672,-0.430176,0.301758,0
47570,0.69043,-0.388184,0.299805,0
47590,0.647461,-0.396973,0.272949,0
47610,0.750488,-0.423828,0.276367,0
47630,0.784668,-0.426758,0.354004,0
47650,0.691406,-0.407227,0.336426,0
47670,0.643066,-0.425781,0.330078,0
47690,0.712891,-0.48877,0.366699,0
47710,0.708008,-0.493164,0.393555,0
47730,0.666016,-0.493164,0.40332,0
47750,0.661621,-0.48877,0.385254,0
47770,0.681641,-0.513184,0.433594,0
47790,0.680176,-0.555176,0.473145,0
47810,0.686035,-0.553223,0.464355,0
47830,0.646484,-0.557129,0.490723,0
47850,0.650391,-0.593262,0.527344,0
47870,0.630859,-0.62207,0.52832,0
47890,0.588867,-0.602539,0.535156,0
47910,0.579102,-0.583496,0.575195,0
47930,0.577637,-0.566895,0.585449,0
47950,0.541992,-0.573242,0.589355,0
47970,0.5,-0.611816,0.55957,0
47990,0.52832,-0.630859,0.567383,0
48010,0.543945,-0.612305,0.589844,0
48030,0.523438,-0.550293,0.625488,0
48050,0.494629,-0.569824,0.638672,0
48070,0.474609,-0.599121,0.641602,0
48090,0.441406,-0.597168,0.628418,0
48110,0.436523,-0.611328,0.617676,0
48130,0.454102,-0.59668,0.641113,0
48150,0.460938,-0.562988,0.64209,0
48170,0.444824,-0.560547,0.640137,0
48190,0.466797,-0.563965,0.623535,0
48210,0.461914,-0.59668,0.647949,0
48230,0.437012,-0.59668,0.660156,0
48250,0.424316,-0.59082,0.639648,0
48270,0.453125,-0.577637,0.630859,0
48290,0.445312,-0.568359,0.631348,0
48310,0.413574,-0.546875,0.626953,0
48330,0.401367,-0.57373,0.620117,0
48350,0.400879,-0.5625,0.616699,0
48370,0.396484,-0.566895,0.632324,0
48390,0.386719,-0.569824,0.616699,0
48410,0.387207,-0.54834,0.633301,0
48430,0.399414,-0.54834,0.633301,0
48450,0.39209,-0.568359,0.632812,0
48470,0.379883,-0.54541,0.641113,0
48490,0.378906,-0.561523,0.651367,0
48510,0.391113,-0.568359,0.645996,0
48530,0.376465,-0.561523,0.630371,0
48550,0.355469,-0.560059,0.632324,0
48570,0.364258,-0.558105,0.648438,0
48590,0.370117,-0.552246,0.651855,0
48610,0.36084,-0.553711,0.651367,0
48630,0.34375,-0.555664,0.63623,0
48650,0.360352,-0.546875,0.645996,0
48670,0.370605,-0.543945,0.652832,0
48690,0.352539,-0.53418,0.64209,0
48710,0.342773,-0.553711,0.639648,0
48730,0.359863,-0.562012,0.65332,0
48750,0.368652,-0.566895,0.656738,0
48770,0.381348,-0.578125,0.65625,0
48790,0.375977,-0.57666,0.642578,0
48810,0.358887,-0.54834,0.643555,0
48830,0.369141,-0.55127,0.65332,0
48850,0.352539,-0.568848,0.650391,0
48870,0.352051,-0.575684,0.643066,0
48890,0.346191,-0.569824,0.641602,2000
48910,0.349609,-0.573242,0.640625,0
48930,0.359863,-0.560547,0.643555,0
48950,0.354004,-0.580566,0.652832,0
48970,0.341797,-0.587891,0.641113,0
48990,0.34668,-0.57373,0.643555,0
49010,0.349609,-0.575195,0.646484,0
49030,0.344238,-0.562988,0.633301,0
49050,0.349121,-0.568359,0.648438,0
49070,0.370605,-0.577637,0.637695,0
49090,0.373047,-0.568848,0.641113,0
49110,0.351562,-0.552734,0.644531,0
49130,0.353027,-0.555664,0.642578,0
49140,0.350586,-0.561523,0.637207,0
49160,0.358887,-0.555176,0.63623,0
49180,0.366211,-0.554199,0.639648,0
49200,0.372559,-0.564941,0.640625,0
49220,0.37207,-0.57373,0.64209,0
49240,0.370605,-0.553711,0.646484,0
49260,0.382324,-0.546387,0.640137,0
49280,0.39209,-0.555664,0.640137,0
49300,0.378418,-0.558594,0.633301,0
49320,0.381348,-0.553711,0.639648,0
49340,0.400391,-0.557617,0.652344,0
49360,0.392578,-0.553223,0.637207,0
49380,0.385254,-0.555176,0.629883,0
49400,0.39502,-0.564453,0.63623,0
49420,0.405762,-0.54834,0.633789,0
49440,0.400391,-0.546875,0.632324,0
49460,0.397949,-0.557129,0.625,0
49480,0.405762,-0.564453,0.628906,0
49500,0.415527,-0.552246,0.626465,0
49520,0.407715,-0.541016,0.631348,0
49540,0.408691,-0.54834,0.624512,0
49560,0.423828,-0.551758,0.619629,0
49580,0.429199,-0.540039,0.62207,0
49600,0.424805,-0.530762,0.625,0
49620,0.426758,-0.539062,0.619141,0
49640,0.433594,-0.523438,0.615234,0
49660,0.435547,-0.535156,0.615723,0
49680,0.437988,-0.539551,0.611816,0
49700,0.438965,-0.537109,0.601562,0
49720,0.441406,-0.53125,0.60791,0
49740,0.434082,-0.529297,0.612305,0
49760,0.444824,-0.533691,0.606934,0
49780,0.449707,-0.54248,0.603516,0
49800,0.453613,-0.535156,0.606445,0
49820,0.460938,-0.521484,0.607422,0
49840,0.461914,-0.538086,0.602051,0
49860,0.473633,-0.544434,0.596191,0
49880,0.472168,-0.548828,0.603516,0
49900,0.462402,-0.540039,0.608887,0
49920,0.459473,-0.534668,0.603516,0
49940,0.464844,-0.544434,0.604492,0
49960,0.468262,-0.541992,0.605469,0
49980,0.476074,-0.538086,0.594238,0
50000,0.48291,-0.533203,0.59082,0
50020,0.48584,-0.541992,0.590332,0
50040,0.480469,-0.54541,0.59082,0
50060,0.473145,-0.539062,0.60791,0
50080,0.464844,-0.534668,0.603027,0
50100,0.462891,-0.546387,0.599121,0
50120,0.470703,-0.538574,0.590332,0
50140,0.479492,-0.531738,0.598633,0
50160,0.475586,-0.535156,0.587402,0
50180,0.473145,-0.536621,0.585449,0
50200,0.472656,-0.531738,0.587402,0
50220,0.48877,-0.538086,0.59668,0
50240,0.482422,-0.524414,0.582031,0
50260,0.481934,-0.52002,0.577637,0
50280,0.487305,-0.526855,0.585938,0
50300,0.49707,-0.537109,0.589355,0
50320,0.484863,-0.533691,0.581055,0
50340,0.486816,-0.527344,0.580078,0
50360,0.492676,-0.535645,0.571289,0
50380,0.511719,-0.535156,0.576172,0
50400,0.511719,-0.528809,0.577148,0
50420,0.501465,-0.518555,0.557129,0
50440,0.502441,-0.521973,0.5625,0
50460,0.509277,-0.510742,0.57959,0
50480,0.532715,-0.500977,0.575195,0
50500,0.537109,-0.526367,0.563965,0
50520,0.516113,-0.525391,0.568359,0
50540,0.499512,-0.502441,0.569336,0
50560,0.509277,-0.520508,0.562988,0
50580,0.530273,-0.532715,0.568848,0
50600,0.523926,-0.525879,0.56543,0
50620,0.524414,-0.526855,0.556641,0
50640,0.513672,-0.520508,0.554688,0
50660,0.533691,-0.528809,0.555176,0
50680,0.556641,-0.570801,0.563477,0
50700,0.53418,-0.555664,0.568359,0
50720,0.524902,-0.535156,0.58252,0
50740,0.502441,-0.533691,0.572754,0
50760,0.519043,-0.529785,0.570312,0
50780,0.536621,-0.525879,0.556152,0
50800,0.544922,-0.523438,0.547852,0
50820,0.527832,-0.525879,0.542969,0
50840,0.52002,-0.524902,0.541016,0
50860,0.534668,-0.527344,0.546875,0
50880,0.543945,-0.519531,0.548828,0
50900,0.541504,-0.501953,0.547852,0
50920,0.526367,-0.498535,0.538574,0
50940,0.532715,-0.504883,0.540039,0
50960,0.555176,-0.509766,0.544922,0
50980,0.561035,-0.510254,0.540039,0
51000,0.544922,-0.508301,0.543945,0
51020,0.537109,-0.504395,0.543457,0
51040,0.54834,-0.507324,0.545898,0
51060,0.567871,-0.51123,0.548828,0
51080,0.568359,-0.508789,0.556641,0
51100,0.551758,-0.504395,0.538086,0
51120,0.542969,-0.513672,0.53418,0
51140,0.557129,-0.516113,0.535156,0
51160,0.567871,-0.517578,0.54541,0
51180,0.572754,-0.509277,0.546875,0
51200,0.557617,-0.506348,0.538086,0
51220,0.542969,-0.513184,0.534668,0
51240,0.562012,-0.52832,0.542969,0
51260,0.582031,-0.500977,0.562988,0
51280,0.587891,-0.498535,0.559082,0
51300,0.566895,-0.496094,0.545898,0
51320,0.548828,-0.492676,0.54541,0
51340,0.539551,-0.487793,0.546875,0
51360,0.540039,-0.490234,0.548828,0
51380,0.57666,-0.487305,0.558594,0
51400,0.582031,-0.48291,0.567383,0
51420,0.563965,-0.489258,0.556641,0
51440,0.553223,-0.483887,0.55127,0
51460,0.572754,-0.476074,0.561523,0
51480,0.601074,-0.456055,0.570801,0
51500,0.595215,-0.461426,0.557129,0
51520,0.592773,-0.458984,0.550293,0
51540,0.57959,-0.459473,0.543945,0
51560,0.565918,-0.467773,0.54248,0
51580,0.57373,-0.476074,0.547852,0
51600,0.577637,-0.479492,0.541504,0
51620,0.584961,-0.458984,0.551758,0
51640,0.601074,-0.449707,0.554199,0
51660,0.585449,-0.444336,0.552246,0
51680,0.581055,-0.45459,0.558105,0
51700,0.594727,-0.459961,0.557617,0
51720,0.589355,-0.458984,0.550293,0
51740,0.584473,-0.458008,0.557617,0
51760,0.589355,-0.459473,0.547363,0
51780,0.598145,-0.460938,0.55127,0
51800,0.611328,-0.456543,0.548828,0
51820,0.600098,-0.453613,0.544434,0
51840,0.583008,-0.447754,0.543457,0
51860,0.584473,-0.450684,0.549316,0
51880,0.60498,-0.445801,0.546875,0
51900,0.627441,-0.432129,0.547363,0
51920,0.625,-0.421875,0.542969,0
51940,0.597656,-0.40918,0.540039,0
51960,0.59375,-0.433594,0.541016,0
51980,0.598145,-0.431152,0.552734,0
52000,0.585938,-0.431152,0.563477,0
52020,0.565918,-0.412598,0.557129,0
52040,0.575684,-0.415039,0.565918,0
52060,0.608398,-0.40918,0.586426,0
52080,0.624512,-0.395996,0.584961,0
52100,0.623047,-0.387695,0.583496,0
52120,0.603027,-0.39502,0.579102,0
52140,0.570801,-0.391113,0.57373,0
52160,0.578613,-0.392578,0.572266,0
52180,0.578125,-0.397461,0.583008,0
52200,0.587891,-0.382812,0.59668,0
52220,0.597656,-0.375,0.623047,0
52240,0.581543,-0.387695,0.605469,0
52260,0.578613,-0.381836,0.609863,0
52280,0.597656,-0.374512,0.606445,0
52300,0.601074,-0.358398,0.620605,0
52320,0.59375,-0.373047,0.620605,0
52340,0.584961,-0.38623,0.631836,0
52360,0.588379,-0.375488,0.635742,0
52380,0.588867,-0.382324,0.63916,0
52400,0.570801,-0.364258,0.631836,0
52420,0.54834,-0.365723,0.644531,0
52440,0.574219,-0.372559,0.652832,0
52460,0.558105,-0.35498,0.658691,0
52480,0.554688,-0.345215,0.66748,0
52500,0.552734,-0.356934,0.682617,0
52520,0.540039,-0.332031,0.68457,0
52540,0.519531,-0.338379,0.688965,0
52550,0.52002,-0.324707,0.673828,0
52570,0.547363,-0.31543,0.672363,0
52590,0.532227,-0.302246,0.679199,0
52610,0.509766,-0.311523,0.696777,0
52630,0.51416,-0.333008,0.683594,0
52650,0.508301,-0.355469,0.704102,0
52670,0.499023,-0.345703,0.698242,0
52690,0.509766,-0.32666,0.703613,0
52710,0.538086,-0.319336,0.693848,0
52730,0.545898,-0.319824,0.693359,0
52750,0.558594,-0.314941,0.690918,0
52770,0.546875,-0.312012,0.706543,0
52790,0.509766,-0.291504,0.70752,0
52810,0.505371,-0.328125,0.713867,0
52830,0.52002,-0.317871,0.699707,0
52850,0.510742,-0.286621,0.712402,0
52870,0.507324,-0.269531,0.708496,0
52890,0.493164,-0.277344,0.689453,0
52910,0.520996,-0.289062,0.700684,0
52930,0.516602,-0.275879,0.705078,0
52950,0.50293,-0.291992,0.702148,0
52970,0.514648,-0.277832,0.706543,0
52990,0.500488,-0.268066,0.712402,0
53010,0.484863,-0.271973,0.699219,0
53030,0.510742,-0.298828,0.689453,0
53050,0.527344,-0.299805,0.727539,0
53070,0.492188,-0.265137,0.732422,0
53090,0.455078,-0.275391,0.717773,0
53110,0.467773,-0.299805,0.737793,0
53130,0.477051,-0.313477,0.73584,0
53150,0.470703,-0.315918,0.722168,0
53170,0.487305,-0.303223,0.722656,0
53190,0.469238,-0.273926,0.741211,0
53210,0.42627,-0.290527,0.736328,0
53230,0.439453,-0.331055,0.741211,0
53250,0.45752,-0.333008,0.74707,0
53270,0.45752,-0.312012,0.725586,0
53290,0.474609,-0.294434,0.740723,0
53310,0.479004,-0.296387,0.746094,0
53330,0.435547,-0.315918,0.745117,0
53350,0.4375,-0.327637,0.733398,0
53370,0.46582,-0.323242,0.73877,0
53390,0.470703,-0.307129,0.751465,0
53410,0.458496,-0.29834,0.730469,0
53430,0.442383,-0.302246,0.72998,0
53450,0.433594,-0.313477,0.730469,0
53470,0.453125,-0.306152,0.729492,0
53490,0.475098,-0.315918,0.738281,0
53510,0.446289,-0.307129,0.727539,0
53530,0.40332,-0.310059,0.725098,0
53550,0.424316,-0.307129,0.736816,0
53570,0.445801,-0.303711,0.742676,0
53590,0.4375,-0.306641,0.744141,0
53610,0.432617,-0.320801,0.739258,0
53630,0.421875,-0.316895,0.743652,0
53650,0.39502,-0.311523,0.748535,0
53670,0.399414,-0.344238,0.733887,0
53690,0.44043,-0.343262,0.751953,0
53710,0.432129,-0.328125,0.740723,0
53730,0.392578,-0.334473,0.73291,0
53750,0.393066,-0.343262,0.742676,0
53770,0.414062,-0.345703,0.762207,0
53790,0.383789,-0.358398,0.75293,0
53810,0.380371,-0.361816,0.751465,0
53830,0.421875,-0.351074,0.749023,0
53850,0.400879,-0.34082,0.760742,0
53870,0.328613,-0.339844,0.745605,0
53890,0.352539,-0.370117,0.755371,0
53910,0.42041,-0.370605,0.776367,0
53930,0.400391,-0.35791,0.755859,0
53950,0.351562,-0.36084,0.742188,0
53970,0.35791,-0.365234,0.759766,0
53990,0.399414,-0.377441,0.754395,0
54010,0.400879,-0.381348,0.75,0
54030,0.400879,-0.373047,0.737793,0
54050,0.405273,-0.347656,0.744141,0
54070,0.380859,-0.352539,0.769531,0
54090,0.348145,-0.367676,0.754395,0
54110,0.362793,-0.394531,0.749512,0
54130,0.390137,-0.383301,0.763184,0
54150,0.372559,-0.364258,0.746582,0
54170,0.372559,-0.361816,0.746094,0
54190,0.385254,-0.369141,0.745117,0
54210,0.36377,-0.369141,0.751465,0
54230,0.338867,-0.383789,0.745605,0
54250,0.365234,-0.385742,0.741699,0
54270,0.38916,-0.379395,0.741211,0
54290,0.376465,-0.383301,0.729492,0
54310,0.376465,-0.386719,0.729492,0
54330,0.394043,-0.394531,0.747559,0
54350,0.365723,-0.378906,0.742676,0
54370,0.34082,-0.392578,0.719727,0
54390,0.382324,-0.399902,0.715332,0
54410,0.387207,-0.370117,0.733398,0
54430,0.356445,-0.378418,0.727539,0
54450,0.406738,-0.418945,0.713379,0
54470,0.448242,-0.387207,0.733887,0
54490,0.416504,-0.366211,0.73291,0
54510,0.376465,-0.417969,0.729492,0
54530,0.394043,-0.447266,0.724609,0
54540,0.390137,-0.433105,0.726074,0
54560,0.368164,-0.423828,0.729004,0
54580,0.391113,-0.423828,0.725586,0
54600,0.378418,-0.41748,0.722656,0
54620,0.331543,-0.431641,0.725586,0
54650,0.359375,-0.456543,0.71582,0
54670,0.338867,-0.436523,0.71582,0
54690,0.316406,-0.439453,0.712402,0
54710,0.34082,-0.450684,0.725098,0
54730,0.352051,-0.460449,0.705078,0
54750,0.327637,-0.450195,0.711914,0
54770,0.351562,-0.458008,0.707031,0
54790,0.38916,-0.463379,0.716309,0
54810,0.370605,-0.456055,0.711914,0
54830,0.347656,-0.446289,0.702148,0
54850,0.375,-0.45459,0.712891,0
54870,0.384766,-0.45752,0.716309,0
54890,0.367188,-0.456543,0.699219,0
54910,0.391602,-0.465332,0.70166,0
54930,0.418457,-0.472656,0.711426,0
54950,0.380371,-0.468262,0.692383,0
54970,0.358887,-0.466309,0.706055,0
54990,0.367676,-0.455566,0.695312,0
55010,0.35498,-0.465332,0.693848,0
55030,0.32959,-0.475098,0.691895,0
55050,0.35498,-0.474609,0.685059,0
55070,0.385742,-0.493652,0.694824,0
55090,0.349121,-0.498535,0.675293,0
55110,0.32959,-0.488281,0.681641,0
55130,0.382324,-0.499023,0.686035,0
55150,0.391113,-0.51123,0.67334,0
55170,0.36377,-0.509766,0.674316,0
55190,0.378418,-0.509277,0.686523,0
55210,0.386719,-0.514648,0.678711,0
55230,0.369141,-0.518066,0.668945,0
55250,0.359863,-0.517578,0.658203,0
55270,0.380859,-0.504395,0.673828,0
55290,0.387695,-0.526855,0.673828,0
55310,0.374023,-0.535645,0.657227,0
55330,0.369141,-0.535156,0.65625,0
55350,0.38916,-0.518066,0.664062,0
55370,0.398438,-0.519043,0.650391,0
55390,0.378906,-0.527832,0.634277,0
55410,0.356934,-0.508301,0.641113,0
55430,0.373535,-0.501953,0.668945,0
55450,0.410645,-0.513184,0.640625,0
55470,0.405273,-0.549805,0.627441,0
55490,0.403809,-0.553223,0.627441,0
55510,0.421875,-0.53125,0.621094,0
55530,0.419922,-0.558105,0.611328,0
55550,0.411133,-0.553223,0.617676,0
55570,0.414062,-0.542969,0.625488,0
55590,0.44043,-0.542969,0.628906,0
55610,0.463867,-0.568359,0.624023,0
55630,0.470703,-0.59668,0.629395,0
55650,0.45166,-0.60498,0.625,0
55670,0.439941,-0.581055,0.612793,0
55690,0.445801,-0.560547,0.601074,0
55710,0.437012,-0.554199,0.590332,0
55730,0.421387,-0.544922,0.580566,0
55750,0.419434,-0.535645,0.578613,0
55770,0.42627,-0.554688,0.57666,0
55790,0.441895,-0.565918,0.570801,0
55810,0.439941,-0.555664,0.581055,0
55830,0.431641,-0.558594,0.564941,0
55850,0.44043,-0.563965,0.56543,0
55870,0.467773,-0.561035,0.555664,0
55890,0.478516,-0.544434,0.555176,0
55910,0.510742,-0.571289,0.543457,0
55930,0.497559,-0.582031,0.55127,0
55950,0.512695,-0.570312,0.535156,0
55970,0.504395,-0.56543,0.539551,0
55990,0.503906,-0.570801,0.558105,0
56010,0.529297,-0.569336,0.554688,0
56030,0.539062,-0.582031,0.544434,0
56050,0.522949,-0.583496,0.535645,0
56070,0.520508,-0.589844,0.532227,0
56090,0.53418,-0.588867,0.552734,0
56110,0.52832,-0.58252,0.53125,0
56130,0.509766,-0.559082,0.509766,0
56150,0.506348,-0.563965,0.519043,0
56170,0.497559,-0.574707,0.533203,0
56190,0.508301,-0.580566,0.519531,0
56210,0.505859,-0.57666,0.514648,0
56230,0.517578,-0.558105,0.516602,0
56250,0.527832,-0.564453,0.532227,0
56270,0.536621,-0.581543,0.51123,0
56290,0.529297,-0.585938,0.502441,0
56310,0.524414,-0.589355,0.494141,0
56330,0.538574,-0.59668,0.496582,0
56350,0.560059,-0.603027,0.485352,0
56370,0.560059,-0.589355,0.491211,0
56390,0.527344,-0.570312,0.487305,0
56410,0.528809,-0.580078,0.501465,0
56430,0.554199,-0.581543,0.489258,0
56450,0.565918,-0.57373,0.48291,0
56470,0.553223,-0.570801,0.481934,0
56490,0.550781,-0.575684,0.477539,0
56510,0.551758,-0.587402,0.461426,0
56530,0.553711,-0.594727,0.463379,0
56550,0.570801,-0.572754,0.459473,0
56570,0.580566,-0.564941,0.458984,0
56590,0.569336,-0.564941,0.46582,0
56610,0.575684,-0.568848,0.463379,0
56630,0.571289,-0.559082,0.452637,0
56650,0.588379,-0.56543,0.447266,0
56670,0.617188,-0.578125,0.439453,0
56690,0.600586,-0.550293,0.430176,0
56710,0.579102,-0.550293,0.428223,0
56730,0.566406,-0.550293,0.428711,0
56750,0.57373,-0.54834,0.432617,0
56770,0.596191,-0.539062,0.431641,0
56790,0.616211,-0.556641,0.427246,0
56810,0.646484,-0.560059,0.431152,0
56830,0.645508,-0.556152,0.432129,0
56850,0.638672,-0.54834,0.442383,0
56870,0.624023,-0.552246,0.438477,0
56890,0.633789,-0.552246,0.446777,0
56910,0.663086,-0.537598,0.439453,0
56930,0.663574,-0.530762,0.432129,0
56950,0.648438,-0.525391,0.418457,0
56970,0.651367,-0.515625,0.434082,0
56990,0.664062,-0.516113,0.436523,0
57010,0.65918,-0.509277,0.435059,0
57030,0.642578,-0.498535,0.427246,0
57050,0.648926,-0.49707,0.424316,0
57070,0.666016,-0.502441,0.418457,0
57090,0.663574,-0.507324,0.414062,0
57110,0.657715,-0.489258,0.430176,0
57130,0.689453,-0.483398,0.439941,0
57150,0.675293,-0.480469,0.447754,0
57170,0.67334,-0.475586,0.424805,0
57190,0.683594,-0.47998,0.422363,0
57210,0.679199,-0.458496,0.429199,0
57230,0.696777,-0.443848,0.427246,0
57250,0.710938,-0.463379,0.415039,0
57270,0.700195,-0.474121,0.422852,0
57290,0.692871,-0.474609,0.427246,0
57310,0.69873,-0.478516,0.428711,0
57330,0.724609,-0.460449,0.429199,0
57350,0.726074,-0.445801,0.42334,0
57370,0.699707,-0.446289,0.429199,0
57390,0.697266,-0.438477,0.430176,0
57410,0.701172,-0.435059,0.424316,0
57430,0.70459,-0.431152,0.422852,0
57450,0.702148,-0.42041,0.416016,0
57470,0.712402,-0.426758,0.440918,0
57490,0.697266,-0.425781,0.442871,0
57510,0.696289,-0.40332,0.439453,0
57530,0.708496,-0.410645,0.419434,0
57550,0.749023,-0.408691,0.420898,0
57570,0.760254,-0.404785,0.436035,0
57590,0.713379,-0.402832,0.431152,0
57610,0.708984,-0.410156,0.435547,0
57630,0.745605,-0.398926,0.439453,0
57650,0.755371,-0.391602,0.436035,0
57670,0.738281,-0.385254,0.44043,0
57690,0.751465,-0.387695,0.438965,0
57710,0.734863,-0.402832,0.436523,0
57730,0.718262,-0.395996,0.436035,0
57750,0.730469,-0.392578,0.440918,0
57770,0.73291,-0.382324,0.429688,0
57790,0.740234,-0.375,0.42627,0
57810,0.743652,-0.374512,0.426758,0
57830,0.74707,-0.380859,0.443359,0
57850,0.737793,-0.366211,0.434082,0
57870,0.736816,-0.375,0.42041,0
57890,0.738281,-0.384766,0.428223,0
57910,0.741211,-0.375488,0.435059,0
57920,0.754395,-0.367188,0.429199,0
57940,0.762207,-0.367676,0.430664,0
57960,0.752441,-0.36377,0.437012,0
57980,0.734863,-0.358398,0.437988,0
58000,0.747559,-0.350586,0.441895,0
58020,0.753418,-0.347168,0.446777,0
58040,0.751953,-0.341797,0.437988,0
58060,0.755859,-0.349121,0.435547,0
58080,0.729004,-0.331543,0.453125,0
58100,0.71875,-0.333496,0.439941,0
58120,0.700195,-0.318848,0.442383,0
58140,0.720703,-0.3125,0.436035,0
58160,0.730957,-0.321289,0.4375,0
58180,0.741211,-0.32373,0.442383,0
58200,0.754395,-0.339355,0.448242,0
58220,0.780273,-0.345703,0.452637,0
58240,0.766602,-0.336426,0.46582,0
58260,0.748047,-0.337891,0.460938,0
58280,0.743164,-0.30957,0.468262,0
58300,0.748047,-0.295898,0.458008,0
58320,0.755371,-0.298828,0.460938,0
58340,0.771484,-0.3125,0.481445,0
58360,0.749023,-0.3125,0.485352,0
58380,0.737793,-0.312988,0.489746,0
58400,0.713379,-0.293457,0.48291,0
58420,0.723633,-0.29248,0.48584,0
58440,0.758789,-0.296875,0.496094,0
58460,0.731934,-0.29248,0.496582,0
58480,0.70166,-0.298828,0.506348,0
58500,0.714355,-0.295898,0.504395,0
58520,0.736816,-0.296875,0.511719,0
58540,0.727051,-0.295898,0.525879,0
58560,0.744141,-0.278809,0.510742,0
58580,0.716309,-0.278809,0.523438,0
58600,0.707031,-0.285156,0.546387,0
58620,0.706055,-0.280273,0.538574,0
58640,0.708008,-0.288574,0.513672,0
58660,0.71582,-0.290039,0.509766,0
58680,0.710938,-0.270508,0.536621,0
58700,0.696777,-0.282227,0.550293,0
58720,0.689453,-0.29541,0.532227,0
58740,0.723145,-0.290527,0.532227,0
58760,0.72168,-0.283691,0.541504,0
58780,0.695312,-0.280273,0.553711,0
58800,0.674805,-0.286621,0.54541,0
58820,0.690918,-0.278809,0.549805,0
58840,0.709473,-0.276367,0.549805,0
58860,0.70752,-0.263184,0.549805,0
58880,0.669922,-0.270508,0.561523,0
58900,0.674316,-0.27832,0.570312,0
58920,0.685547,-0.283203,0.583008,0
58940,0.678223,-0.282227,0.563965,0
58960,0.691895,-0.260742,0.55127,0
58980,0.710449,-0.255859,0.564453,0
59000,0.670898,-0.247559,0.578125,0
59020,0.650879,-0.276367,0.559082,0
59040,0.680176,-0.301758,0.564941,0
59060,0.699707,-0.272949,0.572266,0
59080,0.67627,-0.276367,0.57959,0
59100,0.633301,-0.282715,0.57666,0
59120,0.643555,-0.290039,0.583984,0
59140,0.638184,-0.290039,0.589355,0
59150,0.643555,-0.274414,0.564941,0
59170,0.65625,-0.268555,0.590332,0
59190,0.620605,-0.265625,0.591797,0
59210,0.615234,-0.292969,0.584473,0
59230,0.655273,-0.300293,0.600586,0
59250,0.661133,-0.29541,0.633301,0
59270,0.614258,-0.296875,0.61084,0
59290,0.638672,-0.319824,0.602539,0
59310,0.666504,-0.286621,0.61377,0
59330,0.639648,-0.275391,0.614746,0
59350,0.603516,-0.286621,0.621582,0
59370,0.620605,-0.291016,0.638672,0
59410,0.64209,-0.281738,0.617676,0
59450,0.588867,-0.251953,0.656738,0
59470,0.5625,-0.287109,0.616211,0
59490,0.581055,-0.278809,0.64209,0
59510,0.59082,-0.287109,0.633301,0
59530,0.578125,-0.268555,0.650879,0
59550,0.546387,-0.286621,0.654785,0
59570,0.597168,-0.318359,0.648926,0
59590,0.621582,-0.306152,0.656738,0
59610,0.577148,-0.297852,0.666016,0
59630,0.57373,-0.313477,0.657715,0
59650,0.610352,-0.307129,0.679199,0
59670,0.597656,-0.308105,0.671875,0
59690,0.552734,-0.330566,0.656738,0
59710,0.574707,-0.318848,0.670898,0
59730,0.595215,-0.302734,0.679199,0
59750,0.525879,-0.306152,0.659668,0
59770,0.523438,-0.318848,0.645508,0
59790,0.545898,-0.318359,0.648438,0
59810,0.523438,-0.310059,0.663574,0
59820,0.535645,-0.304688,0.668945,0
59840,0.536133,-0.287598,0.65918,0
59860,0.501953,-0.273438,0.662109,0
59880,0.508789,-0.346191,0.677246,0
59900,0.554688,-0.351074,0.69873,0
59920,0.572754,-0.384277,0.681641,0
59940,0.552246,-0.345215,0.658203,0
59960,0.541992,-0.305664,0.662109,0
59980,0.547363,-0.326172,0.675293,0
60000,0.530762,-0.370117,0.67334,0
60020,0.48584,-0.373535,0.669434,0
60040,0.460938,-0.345215,0.660156,0
60060,0.511719,-0.352539,0.656738,0
60080,0.575684,-0.337402,0.699707,0
60100,0.506836,-0.341309,0.707031,0
60120,0.422852,-0.383789,0.658203,0
60140,0.480469,-0.417969,0.667969,0
60160,0.496094,-0.388184,0.66748,0
60180,0.435547,-0.366211,0.641602,0
60200,0.438965,-0.392578,0.651855,0
60220,0.487793,-0.397461,0.675293,0
60240,0.472656,-0.372559,0.659668,0
60260,0.48584,-0.390625,0.63916,0
60280,0.527832,-0.411133,0.674805,0
60300,0.486816,-0.407715,0.674805,0
60320,0.4375,-0.397461,0.660645,0
60340,0.477539,-0.41748,0.663086,0
60360,0.523438,-0.420898,0.672852,0
60380,0.49707,-0.411621,0.65625,0
60400,0.425293,-0.407227,0.638672,0
60420,0.456543,-0.444824,0.647949,0
60440,0.499512,-0.435059,0.679688,0
60460,0.416504,-0.431152,0.64209,0
60480,0.436523,-0.443848,0.631836,0
60500,0.514648,-0.466797,0.670898,0
60520,0.494629,-0.46875,0.66748,0
60540,0.433594,-0.460938,0.649902,0
60560,0.449219,-0.467285,0.65332,0
60580,0.513672,-0.474609,0.670898,0
60600,0.506348,-0.486328,0.657715,0
60620,0.437012,-0.476074,0.626953,0
60640,0.410645,-0.479492,0.637695,0
60660,0.482422,-0.509277,0.651855,0
60680,0.484863,-0.492188,0.645508,0
60700,0.405273,-0.458008,0.617676,0
60720,0.375,-0.463867,0.614746,0
60740,0.427734,-0.504883,0.620117,0
60760,0.471191,-0.50293,0.638672,0
60780,0.442871,-0.498535,0.624512,0
60800,0.416016,-0.493652,0.624512,0
60820,0.465332,-0.521484,0.625488,0
60840,0.481445,-0.524414,0.632812,0
60860,0.425781,-0.518066,0.616699,0
60880,0.430664,-0.530273,0.615723,0
60900,0.472656,-0.53418,0.615234,0
60920,0.458496,-0.522949,0.592773,0
60940,0.449707,-0.525879,0.581543,0
60960,0.476562,-0.533691,0.601074,0
60980,0.486328,-0.532715,0.600098,0
61000,0.472168,-0.566406,0.591309,0
61020,0.474609,-0.564941,0.605957,0
61040,0.466309,-0.544922,0.601562,0
61060,0.464355,-0.537598,0.603027,0
61080,0.467773,-0.533203,0.614258,0
61100,0.461426,-0.552246,0.609863,0
61120,0.459473,-0.573242,0.600586,0
61140,0.444824,-0.547363,0.591797,0
61160,0.412109,-0.528809,0.583984,0
61180,0.428711,-0.559082,0.585449,0
61200,0.436035,-0.572754,0.580078,0
61220,0.402344,-0.570312,0.57959,0
61240,0.414551,-0.564453,0.570312,0
61260,0.445801,-0.555664,0.579102,0
61280,0.448242,-0.571289,0.581543,0
61300,0.411621,-0.584473,0.569824,0
61320,0.421875,-0.613281,0.55957,0
61340,0.450195,-0.607422,0.562012,0
61360,0.465332,-0.594238,0.564453,0
61380,0.474609,-0.590332,0.556152,0
61400,0.447754,-0.598633,0.561523,0
61420,0.439941,-0.621582,0.547852,0
61440,0.486816,-0.633789,0.552734,0
61460,0.500488,-0.600586,0.546387,0
61480,0.462891,-0.589355,0.516113,0
61500,0.465332,-0.601074,0.517578,0
61520,0.477051,-0.618652,0.525391,0
61540,0.460938,-0.633301,0.522949,0
61560,0.463379,-0.618164,0.51123,0
61580,0.463867,-0.594238,0.506836,0
61600,0.483398,-0.615723,0.508301,0
61620,0.504395,-0.618164,0.52002,0
61640,0.489746,-0.610352,0.495605,0
61660,0.478027,-0.624023,0.487305,0
61680,0.496582,-0.632812,0.51123,0
61700,0.491211,-0.628906,0.501465,0
61720,0.47168,-0.615723,0.493164,0
61740,0.47168,-0.612305,0.484863,0
61760,0.488281,-0.618652,0.491211,0
61780,0.499023,-0.623535,0.48877,0
61800,0.478516,-0.621582,0.477539,0
61820,0.470215,-0.600586,0.461914,0
61840,0.499512,-0.613281,0.470703,0
61860,0.534668,-0.62207,0.476074,0
61880,0.529785,-0.628418,0.467285,0
61900,0.522461,-0.616699,0.460449,0
61920,0.55127,-0.62207,0.478027,0
61940,0.585449,-0.60498,0.478516,0
61960,0.558594,-0.609375,0.45752,0
61980,0.550293,-0.602051,0.462402,0
62000,0.568848,-0.61084,0.468262,0
62020,0.59082,-0.606934,0.451172,0
62040,0.571777,-0.60791,0.444336,0
62060,0.583496,-0.626953,0.443359,0
62080,0.604492,-0.615723,0.470703,0
62100,0.596191,-0.587402,0.4375,0
62120,0.581055,-0.570312,0.429688,0
62140,0.578125,-0.572266,0.42334,0
62160,0.561523,-0.60791,0.431152,0
62180,0.567383,-0.627441,0.432617,0
62200,0.585449,-0.599609,0.417969,0
62220,0.596191,-0.567383,0.408203,0
62240,0.600098,-0.582031,0.408203,0
62260,0.594727,-0.613281,0.397461,0
62280,0.586426,-0.617676,0.402832,0
62300,0.585938,-0.607422,0.401367,0
62320,0.611328,-0.602539,0.400879,0
62340,0.626465,-0.593262,0.398438,0
62360,0.609375,-0.584961,0.391602,0
62380,0.599121,-0.586914,0.390625,0
62400,0.599121,-0.594238,0.38623,0
62420,0.611816,-0.59668,0.384277,0
62440,0.615234,-0.586914,0.373047,0
62460,0.625,-0.585449,0.375488,0
62480,0.638672,-0.560059,0.379395,0
62500,0.647949,-0.569824,0.36377,0
62520,0.643555,-0.587402,0.37793,0
62540,0.656738,-0.598633,0.367188,0
62560,0.650391,-0.602539,0.361328,0
62580,0.67627,-0.59375,0.369141,0
62600,0.681152,-0.580078,0.352051,0
62620,0.652832,-0.569824,0.356445,0
62640,0.650879,-0.577637,0.353027,0
62660,0.660645,-0.575195,0.355469,0
62680,0.649902,-0.575684,0.353027,0
62700,0.635254,-0.553711,0.347168,0
62720,0.65332,-0.555664,0.341797,0
62740,0.666016,-0.563965,0.340332,0
62760,0.664551,-0.553223,0.338379,0
62780,0.669922,-0.553223,0.337402,0
62800,0.687012,-0.549805,0.331543,0
62820,0.695801,-0.54248,0.335938,0
62840,0.715332,-0.557129,0.325195,0
62860,0.722656,-0.555176,0.320801,0
62880,0.72168,-0.543457,0.326172,0
62900,0.704102,-0.534668,0.327148,0
62920,0.722168,-0.532715,0.304688,0
62940,0.737305,-0.52832,0.316895,0
62960,0.75293,-0.523926,0.313477,0
62980,0.75,-0.537109,0.300293,0
63000,0.743164,-0.538574,0.308105,0
63020,0.756348,-0.53418,0.315918,0
63040,0.759277,-0.515137,0.307129,0
63060,0.733887,-0.49707,0.31543,0
63080,0.731445,-0.495605,0.307617,0
63100,0.743164,-0.490234,0.298828,0
63120,0.736816,-0.481445,0.304688,0
63140,0.722168,-0.46875,0.30127,0
63160,0.740234,-0.466309,0.302734,0
63180,0.759277,-0.46875,0.300293,0
63200,0.760742,-0.473633,0.291992,0
63220,0.769531,-0.485352,0.287598,0
63230,0.789062,-0.499023,0.286621,0
63250,0.762207,-0.477539,0.283203,0
63270,0.753418,-0.454102,0.286621,0
63290,0.779785,-0.455566,0.290039,0
63310,0.787109,-0.440918,0.302246,0
63330,0.786621,-0.429688,0.300781,0
63350,0.772461,-0.429688,0.291504,0
63370,0.760742,-0.418945,0.288086,0
63390,0.765137,-0.415527,0.289062,0
63410,0.783691,-0.419434,0.290039,0
63430,0.782227,-0.415039,0.290039,0
63450,0.779785,-0.414062,0.29248,0
63470,0.804688,-0.408691,0.294434,0
63490,0.821289,-0.39502,0.28125,0
63510,0.829102,-0.386719,0.275879,0
63530,0.835449,-0.374512,0.270508,0
63550,0.84082,-0.373047,0.274902,0
63570,0.833008,-0.366699,0.279297,0
63590,0.831543,-0.359863,0.272461,0
63610,0.830566,-0.346191,0.272461,0
63630,0.850098,-0.345703,0.281738,0
63650,0.85498,-0.342285,0.276855,0
63670,0.850586,-0.34668,0.275879,0
63690,0.861816,-0.318848,0.28418,0
63710,0.853027,-0.30127,0.284668,0
63730,0.850586,-0.310059,0.271973,0
63750,0.858398,-0.321777,0.277832,0
63770,0.852539,-0.325684,0.286621,0
63790,0.830566,-0.314941,0.289062,0
63810,0.837891,-0.286133,0.282227,0
63830,0.840332,-0.279297,0.279297,0
63850,0.843262,-0.28418,0.277344,0
63870,0.850586,-0.280762,0.283203,0
63890,0.856445,-0.288574,0.286621,0
63910,0.864746,-0.292969,0.282227,0
63930,0.872559,-0.28418,0.277832,0
63950,0.879883,-0.288086,0.290039,0
63970,0.870117,-0.268066,0.294922,0
63990,0.857422,-0.254883,0.291504,0
64010,0.868652,-0.256348,0.28125,0
64030,0.865723,-0.259277,0.29541,0
64050,0.84668,-0.265625,0.293945,0
64070,0.856934,-0.254395,0.279297,0
64090,0.87207,-0.246094,0.300293,0
64110,0.87207,-0.237305,0.298828,0
64130,0.851562,-0.245605,0.303223,0
64150,0.84668,-0.251953,0.302734,0
64170,0.86377,-0.262207,0.299316,0
64190,0.856445,-0.246582,0.322754,0
64210,0.833008,-0.234375,0.31543,0
64230,0.853516,-0.245117,0.298828,0
64250,0.859863,-0.237305,0.317383,0
64270,0.842285,-0.220703,0.327148,0
64290,0.841797,-0.239746,0.331055,0
64310,0.850098,-0.23291,0.327637,0
64330,0.85498,-0.223633,0.334961,0
64350,0.854004,-0.222656,0.336914,0
64370,0.854004,-0.214844,0.341797,0
64390,0.844238,-0.241211,0.344727,0
64410,0.837402,-0.233887,0.347656,0
64430,0.866699,-0.217773,0.344727,0
64450,0.862305,-0.211426,0.350586,0
64470,0.841309,-0.222656,0.350098,0
64490,0.863281,-0.228516,0.356934,0
64510,0.859863,-0.227051,0.379883,0
64530,0.824219,-0.22168,0.383301,0
64550,0.849121,-0.217773,0.367676,0
64570,0.879395,-0.220215,0.375977,0
64590,0.842773,-0.197754,0.393555,0
64610,0.799805,-0.214355,0.390137,0
64630,0.820312,-0.240723,0.391602,0
64650,0.837402,-0.239746,0.393066,0
64670,0.79834,-0.220215,0.408203,0
64690,0.789551,-0.216309,0.402832,0
64710,0.8125,-0.186035,0.394043,0
64730,0.824219,-0.207031,0.416504,0
64750,0.794434,-0.228516,0.410645,0
64770,0.786133,-0.254883,0.444824,0
64790,0.799316,-0.246094,0.435059,0
64810,0.806641,-0.204102,0.422363,0
64830,0.795898,-0.207031,0.42627,0
64850,0.797852,-0.225586,0.43457,0
64870,0.778809,-0.239258,0.458008,0
64890,0.744141,-0.250488,0.450684,0
64910,0.769531,-0.241699,0.442871,0
64930,0.802246,-0.212402,0.463867,0
64950,0.790039,-0.211914,0.456543,0
64970,0.764648,-0.225586,0.454102,0
64990,0.757812,-0.250488,0.469727,0
65010,0.785645,-0.251465,0.476562,0
65030,0.783203,-0.236328,0.487305,0
65050,0.742188,-0.224121,0.479004,0
65070,0.751465,-0.237793,0.480469,0
65090,0.749512,-0.232422,0.494629,0
65110,0.716797,-0.228516,0.497559,0
65130,0.731934,-0.260742,0.484863,0
65150,0.776855,-0.25293,0.495605,0
65170,0.745605,-0.248535,0.503418,0
65190,0.711914,-0.251953,0.503906,0
65210,0.744141,-0.263672,0.518066,0
65220,0.745605,-0.256836,0.52002,0
65240,0.715332,-0.26709,0.504883,0
65260,0.731934,-0.244629,0.509766,0
65280,0.75,-0.249023,0.513184,0
65300,0.71582,-0.276367,0.509277,0
65320,0.712402,-0.316895,0.512207,0
65340,0.731934,-0.306641,0.538574,0
65360,0.702148,-0.275879,0.540039,0
65380,0.700195,-0.273926,0.524414,0
65400,0.718262,-0.268555,0.544434,0
65420,0.687012,-0.286621,0.555664,0
65440,0.64209,-0.308105,0.533691,0
65460,0.663574,-0.311035,0.541992,0
65480,0.686035,-0.296875,0.552734,0
65500,0.668457,-0.287598,0.55127,0
65520,0.694824,-0.313965,0.543457,0
65540,0.694336,-0.322266,0.558594,0
65560,0.64502,-0.319824,0.561523,0
65580,0.644531,-0.335938,0.575684,0
65600,0.647949,-0.323242,0.572266,0
65620,0.626465,-0.311035,0.560547,0
65640,0.630859,-0.329102,0.550781,0
65660,0.637695,-0.342285,0.573242,0
65680,0.61084,-0.359375,0.578613,0
65700,0.608887,-0.365234,0.567383,0
65720,0.618652,-0.35498,0.567383,0
65740,0.616211,-0.354492,0.57666,0
65760,0.610352,-0.367676,0.578125,0
65780,0.620117,-0.390137,0.567871,0
65800,0.603516,-0.388184,0.569824,0
65820,0.600586,-0.394531,0.561035,0
65840,0.615723,-0.393066,0.559082,0
65860,0.601562,-0.396484,0.55957,0
65880,0.574219,-0.40918,0.55957,0
65900,0.612793,-0.444824,0.54248,0
65920,0.633789,-0.451172,0.55127,0
65940,0.592285,-0.430176,0.556641,0
65960,0.591309,-0.43457,0.544434,0
65980,0.651855,-0.438477,0.54541,0
66000,0.645996,-0.444824,0.553711,0
66020,0.579102,-0.453613,0.539062,0
66040,0.564941,-0.461426,0.521973,0
66060,0.606934,-0.468262,0.537598,0
66080,0.611328,-0.466309,0.54541,0
66100,0.599609,-0.45166,0.536133,0
66120,0.597656,-0.443848,0.538574,0
66140,0.606934,-0.45752,0.54248,0
66160,0.616699,-0.462402,0.549805,0
66180,0.602051,-0.458984,0.53125,0
66200,0.610352,-0.450195,0.52832,0
66220,0.595703,-0.45166,0.51709,0
66240,0.572754,-0.474121,0.51709,0
66260,0.599121,-0.481934,0.508301,0
66280,0.59375,-0.476562,0.518066,0
66300,0.587891,-0.470703,0.510742,0
66320,0.605469,-0.463379,0.509766,0
66340,0.59082,-0.482422,0.516113,0
66360,0.563477,-0.490723,0.511719,0
66380,0.59375,-0.493652,0.512207,0
66400,0.605957,-0.491699,0.512207,0
66420,0.57666,-0.489258,0.521484,0
66440,0.586914,-0.508301,0.525391,0
66460,0.613281,-0.513184,0.524902,0
66480,0.584961,-0.516602,0.519531,0
66500,0.555664,-0.517578,0.515137,0
66520,0.562988,-0.522949,0.516113,0
66540,0.563477,-0.520508,0.515137,0
66560,0.583496,-0.527344,0.518066,0
66580,0.562988,-0.52832,0.513184,0
66600,0.555176,-0.52832,0.508789,0
66620,0.57373,-0.530762,0.518066,0
66640,0.574707,-0.524902,0.506348,0
66660,0.565918,-0.533203,0.497559,0
66680,0.562012,-0.540039,0.500977,0
66700,0.556641,-0.533691,0.499512,0
66720,0.562988,-0.549316,0.494629,0
66740,0.567871,-0.563965,0.479004,0
66760,0.555664,-0.549805,0.478027,0
66780,0.556152,-0.549805,0.493164,0
66800,0.568848,-0.553711,0.494141,0
66820,0.554688,-0.550781,0.487793,0
66840,0.577148,-0.567383,0.473633,0
66860,0.586914,-0.569824,0.48584,0
66880,0.561523,-0.589844,0.477051,0
66900,0.562988,-0.583984,0.466797,0
66920,0.578613,-0.582031,0.46875,0
66940,0.57666,-0.568848,0.467285,0
66960,0.557617,-0.586914,0.458984,0
66980,0.583984,-0.621582,0.461914,0
67000,0.598633,-0.614258,0.468262,0
67020,0.554199,-0.599121,0.450684,0
67040,0.573242,-0.594727,0.435547,0
67060,0.615723,-0.585938,0.453125,0
67080,0.591309,-0.583496,0.435059,0
67100,0.57666,-0.600586,0.424805,0
67120,0.609375,-0.624512,0.425781,0
67140,0.601562,-0.626953,0.412109,0
67160,0.580078,-0.614258,0.409668,0
67180,0.571777,-0.591797,0.401367,0
67200,0.586426,-0.594727,0.385254,0
67220,0.599121,-0.599121,0.39209,0
67240,0.591797,-0.615723,0.39209,0
67260,0.602051,-0.613281,0.382324,0
67280,0.614746,-0.609863,0.382812,0
67300,0.597168,-0.628418,0.371094,0
67320,0.595215,-0.625977,0.360352,0
67340,0.591797,-0.614258,0.359863,0
67360,0.591309,-0.608398,0.359375,0
67380,0.601562,-0.616211,0.362305,0
67400,0.622559,-0.62793,0.370117,0
67420,0.605469,-0.61377,0.36084,0
