Timestamp, Acceleration x, Acceleration y, Acceleration z, Marker
20,-0.643555,-0.306152,0.655273,0
50,-0.649902,-0.30957,0.641602,0
70,-0.652344,-0.305176,0.647461,0
90,-0.652832,-0.291504,0.642578,0
110,-0.660645,-0.294434,0.640625,0
130,-0.663574,-0.296387,0.639648,0
140,-0.663086,-0.294434,0.63916,0
140,-0.65918,-0.299805,0.635254,0
180,-0.658203,-0.302246,0.644531,0
200,-0.653809,-0.296387,0.644531,0
220,-0.65332,-0.302734,0.641602,0
240,-0.657227,-0.309082,0.635742,0
260,-0.704102,-0.357422,0.618652,0
280,-0.69873,-0.435547,0.56543,0
300,-0.741211,-0.402344,0.569824,0
320,-0.865723,-0.370605,0.577637,0
340,-0.897949,-0.341309,0.57666,0
360,-0.922852,-0.325684,0.657715,0
380,-0.876465,-0.37207,0.779785,0
400,-0.705566,-0.46875,0.932129,0
420,-0.499023,-0.51123,0.962402,0
440,-0.297363,-0.483887,0.957031,0
460,-0.236816,-0.374023,0.984375,0
480,-0.186035,-0.355469,0.968262,0
500,-0.059082,-0.358887,0.936035,0
520,0.0341797,-0.390137,0.96582,0
540,0.0922852,-0.424316,0.929688,0
560,0.120605,-0.428223,0.881348,0
580,0.241211,-0.433105,0.869629,0
600,0.260742,-0.430176,0.82666,0
600,0.348633,-0.456055,0.769531,0
620,0.366211,-0.455566,0.780273,0
660,0.400391,-0.453125,0.704102,0
680,0.211426,-0.366211,0.614746,0
700,0.352539,-0.351562,0.483887,0
720,0.504883,-0.392578,0.671387,0
740,0.453125,-0.36377,0.564453,0
760,0.427246,-0.333984,0.536133,0
780,0.513184,-0.358398,0.44873,0
800,0.57666,-0.380371,0.398926,0
820,0.643555,-0.337402,0.341797,0
840,0.672363,-0.314453,0.299316,0
860,0.730957,-0.311035,0.291992,0
880,0.755371,-0.286621,0.262207,0
900,0.740723,-0.28125,0.187012,0
920,0.813477,-0.322754,0.180176,0
940,0.819336,-0.27832,0.164062,0
960,0.914551,-0.26123,0.138184,0
980,0.898926,-0.256348,0.117188,0
1000,0.911133,-0.233398,0.078125,0
1020,0.940918,-0.26416,0.0649414,0
1040,0.882812,-0.24707,0.0791016,0
1060,0.879395,-0.22998,0.0644531,0
1080,0.891113,-0.223633,0.0424805,0
1100,0.913086,-0.240723,0.0454102,0
1120,0.87207,-0.241211,0.0517578,0
1140,0.846191,-0.23584,0.0644531,0
1160,0.876953,-0.248535,0.0532227,0
1180,0.928711,-0.253906,0.0571289,0
1200,0.865234,-0.19873,0.0546875,0
1220,0.889648,-0.22168,0.046875,0
1240,0.914551,-0.207031,0.0395508,0
1260,0.927734,-0.20166,0.0161133,0
1280,0.937012,-0.236816,-0.015625,0
1300,0.930176,-0.237305,-0.0288086,0
1320,0.970703,-0.272461,-0.0351562,0
1340,0.930664,-0.259277,-0.0556641,0
1360,0.878418,-0.248047,-0.03125,0
1380,0.841797,-0.223633,0.00488281,0
1400,0.910156,-0.199219,0.0273438,0
1420,0.923828,-0.183105,-0.0258789,0
1440,0.949707,-0.184082,-0.0454102,0
1450,0.968262,-0.205078,-0.0366211,0
1470,0.986816,-0.188477,-0.0336914,0
1490,0.985352,-0.17627,-0.0634766,0
1510,0.998535,-0.208008,-0.0541992,0
1530,0.992188,-0.223145,-0.0541992,0
1550,0.992676,-0.214355,-0.0576172,0
1570,0.980957,-0.221191,-0.0532227,0
1590,0.986816,-0.211426,-0.0410156,0
1610,0.987793,-0.217285,-0.0292969,0
1630,0.993164,-0.219727,-0.0180664,0
1650,0.977051,-0.22998,-0.0161133,0
1670,0.955566,-0.241211,0.0253906,0
1690,0.922363,-0.234863,0.0395508,0
1710,0.893555,-0.227051,0.03125,0
1730,0.885742,-0.20752,0.0288086,0
1750,0.871094,-0.211426,0.0141602,0
1770,0.851562,-0.191406,0.00585938,0
1790,0.859863,-0.175781,0.00830078,0
1810,0.894043,-0.162109,0.00634766,0
1830,0.891602,-0.164062,0.0131836,0
1850,0.893555,-0.182129,0.00390625,0
1870,0.916016,-0.203613,-0.0107422,0
1880,0.95459,-0.208496,-0.019043,0
1900,0.958984,-0.215332,-0.0214844,0
1920,0.988281,-0.245117,-0.0268555,0
1940,0.992188,-0.241211,-0.0483398,0
1960,0.980469,-0.240234,-0.0561523,0
1980,0.98584,-0.247559,-0.0429688,0
2000,0.946777,-0.230957,-0.0273438,0
2020,0.944336,-0.249023,-0.0380859,0
2040,0.923828,-0.248047,-0.0229492,0
2060,0.913574,-0.244141,-0.0078125,0
2080,0.910645,-0.233887,-0.0429688,0
2100,0.902832,-0.240234,-0.0385742,0
2120,0.932617,-0.247559,-0.0576172,0
2140,0.946289,-0.244629,-0.0629883,0
2160,0.940918,-0.223145,-0.0742188,0
2180,0.971191,-0.196289,-0.0708008,0
2200,0.938965,-0.219727,-0.0629883,0
2220,0.930176,-0.228027,-0.0581055,0
2240,0.932129,-0.21875,-0.0664062,0
2260,0.95752,-0.229492,-0.0717773,0
2280,0.956055,-0.23291,-0.0810547,0
2300,0.945312,-0.241699,-0.074707,0
2320,0.94873,-0.26123,-0.0957031,0
2340,0.942871,-0.272461,-0.09375,0
2360,0.916992,-0.296875,-0.078125,0
2380,0.858398,-0.305664,-0.0717773,0
2400,0.807617,-0.280762,-0.0639648,0
2420,0.747559,-0.260254,-0.0351562,0
2440,0.680664,-0.253418,-0.0195312,0
2460,0.683105,-0.225586,0.0439453,0
2480,0.644531,-0.183105,0.0703125,0
2500,0.606445,-0.163574,0.104492,0
2520,0.577637,-0.140137,0.139648,0
2540,0.650391,-0.110352,0.200195,0
2560,0.745605,-0.125977,0.24707,0
2580,0.768555,-0.208984,0.247559,0
2600,0.8125,-0.226074,0.315918,0
2620,0.897461,-0.199707,0.374512,0
2640,0.967773,-0.226562,0.447754,0
2660,0.885254,-0.288086,0.491211,0
2680,0.762695,-0.325684,0.49707,0
2700,0.677246,-0.331055,0.634277,0
2720,0.610352,-0.350586,0.745117,0
2740,0.552246,-0.37793,0.799805,0
2760,0.381348,-0.373535,0.838867,0
2780,0.271484,-0.378418,0.89209,0
2800,0.174316,-0.357422,0.949219,0
2820,0.140137,-0.403809,0.936035,0
2840,0.0454102,-0.431152,0.942383,0
2860,-0.142578,-0.386719,0.879395,0
2880,-0.299316,-0.416016,0.880859,0
2900,-0.28418,-0.459961,0.914062,0
2920,-0.298828,-0.484863,0.817871,0
2940,-0.37793,-0.458496,0.753418,0
2960,-0.459961,-0.464355,0.79541,0
2980,-0.461914,-0.449707,0.780273,0
3000,-0.459473,-0.469727,0.722168,0
3020,-0.521973,-0.489258,0.679199,0
3040,-0.548828,-0.489746,0.693848,0
3060,-0.575195,-0.481934,0.723145,0
3080,-0.583984,-0.462891,0.704102,0
3100,-0.587891,-0.437012,0.680664,0
3120,-0.598633,-0.418457,0.669434,0
3140,-0.615234,-0.397461,0.666016,0
3160,-0.679688,-0.376953,0.703613,0
3180,-0.680664,-0.331543,0.714355,0
3200,-0.609863,-0.37207,0.730469,0
3220,-0.537598,-0.44873,0.731934,0
3240,-0.53418,-0.418457,0.709961,0
3260,-0.559082,-0.337402,0.67334,0
3280,-0.553711,-0.292969,0.666016,0
3300,-0.57959,-0.281738,0.654785,0
3320,-0.611328,-0.305664,0.633301,0
3340,-0.632324,-0.306152,0.64209,0
3360,-0.630859,-0.351074,0.660645,0
3380,-0.621582,-0.421875,0.696289,0
3400,-0.57959,-0.397461,0.715332,0
3420,-0.584473,-0.344727,0.699219,0
3440,-0.599121,-0.312988,0.703125,0
3460,-0.596191,-0.306152,0.669434,0
3480,-0.615234,-0.328125,0.647949,0
3500,-0.645996,-0.37207,0.649902,0
3520,-0.637695,-0.382324,0.645996,0
3540,-0.637695,-0.385254,0.651855,0
3560,-0.643555,-0.374023,0.641113,0
3580,-0.644043,-0.359863,0.638672,0
3600,-0.648926,-0.354492,0.640137,0
3620,-0.647461,-0.35791,0.641113,0
3640,-0.63623,-0.354492,0.641113,0
3660,-0.633301,-0.343262,0.644531,0
3680,-0.630371,-0.319824,0.657715,0
3700,-0.626465,-0.310547,0.660156,0
3720,-0.625,-0.303711,0.657715,0
3740,-0.622559,-0.307129,0.658203,0
3760,-0.628906,-0.290527,0.662598,0
3780,-0.63623,-0.287109,0.665527,0
3800,-0.646484,-0.289551,0.665527,0
3820,-0.648438,-0.294434,0.655762,0
3840,-0.652344,-0.299316,0.640137,0
3860,-0.650879,-0.302734,0.634766,0
3880,-0.659668,-0.302246,0.630859,0
3900,-0.657227,-0.30957,0.635254,0
3920,-0.656738,-0.317383,0.635742,0
3940,-0.652344,-0.324707,0.644531,0
3960,-0.645508,-0.333008,0.645996,0
3980,-0.641113,-0.328613,0.643066,0
4000,-0.631836,-0.328613,0.646973,0
4010,-0.630371,-0.326172,0.647461,0
4030,-0.62793,-0.322754,0.645508,0
4050,-0.617676,-0.327637,0.649414,0
4070,-0.620605,-0.329102,0.648926,0
4090,-0.623535,-0.334961,0.652832,0
4110,-0.624512,-0.327148,0.65918,0
4130,-0.626953,-0.324219,0.652344,0
4150,-0.623535,-0.331055,0.647949,0
4170,-0.624512,-0.333496,0.654297,0
4190,-0.633301,-0.335449,0.646484,0
4210,-0.638672,-0.328125,0.648926,0
4230,-0.63623,-0.321777,0.64502,0
4250,-0.637695,-0.323242,0.634277,0
4270,-0.634277,-0.32373,0.640137,0
4290,-0.63623,-0.319824,0.646973,0
4310,-0.641113,-0.321777,0.657227,0
4330,-0.643066,-0.325195,0.658691,0
4350,-0.634766,-0.32959,0.656738,0
4370,-0.630371,-0.333984,0.652832,0
4390,-0.62793,-0.322266,0.65625,0
4410,-0.62793,-0.326172,0.650879,0
4430,-0.632324,-0.324219,0.649902,0
4450,-0.630371,-0.32373,0.652832,0
4470,-0.630859,-0.321289,0.658691,0
4490,-0.630371,-0.317383,0.655273,0
4510,-0.630371,-0.323242,0.65332,0
4530,-0.631348,-0.325195,0.654785,0
4550,-0.632812,-0.317871,0.657715,0
4570,-0.62793,-0.319824,0.662598,0
4590,-0.629395,-0.320312,0.657715,0
4610,-0.626953,-0.32373,0.660156,0
4630,-0.628906,-0.330078,0.657227,0
4650,-0.624512,-0.319336,0.650391,0
4670,-0.624023,-0.314941,0.652832,0
4690,-0.628906,-0.320801,0.645996,0
4710,-0.628906,-0.32959,0.646484,0
4730,-0.633301,-0.328125,0.65625,0
4750,-0.628906,-0.328125,0.65625,0
4770,-0.625977,-0.324219,0.659668,0
4790,-0.630859,-0.333008,0.655273,0
4810,-0.627441,-0.343262,0.655273,0
4830,-0.632812,-0.333008,0.658203,0
4850,-0.634766,-0.325684,0.644043,0
4870,-0.630859,-0.319824,0.650879,0
4890,-0.635254,-0.322266,0.644531,0
4910,-0.627441,-0.319824,0.645508,0
4930,-0.626465,-0.31543,0.64502,0
4950,-0.630371,-0.320312,0.648926,0
4970,-0.637695,-0.314941,0.648438,0
4990,-0.634277,-0.324219,0.646484,0
5010,-0.632324,-0.319824,0.651855,0
5030,-0.628418,-0.32373,0.655762,0
5050,-0.632812,-0.325195,0.650391,0
5070,-0.634277,-0.322266,0.647461,0
5090,-0.63623,-0.328125,0.644531,0
5110,-0.639648,-0.327637,0.640625,0
5130,-0.63623,-0.320801,0.640625,0
5150,-0.628418,-0.32373,0.64209,0
5170,-0.623047,-0.322754,0.645508,0
5190,-0.625977,-0.330078,0.657227,0
5210,-0.633301,-0.333008,0.660645,0
5230,-0.629395,-0.337891,0.652832,0
5250,-0.628906,-0.335938,0.655273,0
5270,-0.640137,-0.32959,0.647949,0
5290,-0.641113,-0.33252,0.64502,0
5310,-0.634277,-0.335938,0.646973,0
5330,-0.62793,-0.336914,0.648438,0
5350,-0.633789,-0.326172,0.652832,0
5370,-0.629883,-0.326172,0.651367,0
5390,-0.634766,-0.316895,0.655273,0
5410,-0.628418,-0.318848,0.655762,0
5430,-0.630859,-0.325684,0.647461,0
5450,-0.636719,-0.322266,0.640625,0
5470,-0.630371,-0.321777,0.644043,0
5490,-0.63916,-0.316406,0.64502,0
5510,-0.643555,-0.324707,0.645996,0
5530,-0.640137,-0.325684,0.650391,0
5550,-0.642578,-0.327637,0.637695,0
5570,-0.638184,-0.32666,0.644531,0
5590,-0.635742,-0.33252,0.640137,0
5610,-0.636719,-0.339355,0.645508,0
5630,-0.63916,-0.337402,0.648926,0
5650,-0.635254,-0.337402,0.645508,0
5670,-0.63916,-0.341797,0.645996,0
5690,-0.635254,-0.33252,0.645996,0
5710,-0.641113,-0.325195,0.644043,0
5730,-0.635254,-0.32959,0.641602,0
5750,-0.634766,-0.325684,0.645508,0
5770,-0.633301,-0.322754,0.64502,0
5790,-0.638184,-0.324707,0.645996,0
5810,-0.649902,-0.325684,0.648926,0
5830,-0.65625,-0.320312,0.640137,0
5850,-0.658691,-0.324219,0.645996,0
5870,-0.663086,-0.322754,0.649414,0
5890,-0.665039,-0.322754,0.649414,0
5910,-0.665527,-0.324219,0.64209,0
5930,-0.665039,-0.318848,0.626953,0
5950,-0.65332,-0.314453,0.624023,0
5970,-0.64502,-0.322266,0.619629,0
5990,-0.654297,-0.337891,0.629883,0
6010,-0.653809,-0.346191,0.65918,0
6030,-0.65332,-0.355957,0.661133,0
6050,-0.642578,-0.370605,0.650879,0
6070,-0.629395,-0.370605,0.64502,0
6090,-0.608398,-0.362305,0.63623,0
6110,-0.602539,-0.351074,0.635742,0
6130,-0.597168,-0.355957,0.639648,0
6150,-0.599121,-0.356445,0.656738,0
6170,-0.608887,-0.359863,0.662109,0
6190,-0.61084,-0.346191,0.672852,0
6210,-0.617676,-0.32959,0.652832,0
6230,-0.631348,-0.338867,0.651855,0
6250,-0.635742,-0.345215,0.626465,0
6270,-0.642578,-0.356445,0.60498,0
6290,-0.634277,-0.350586,0.600586,0
6310,-0.633301,-0.342285,0.593262,0
6330,-0.631348,-0.333008,0.602051,0
6350,-0.631348,-0.337891,0.594727,0
6370,-0.636719,-0.334961,0.622559,0
6390,-0.642578,-0.337402,0.63916,0
6410,-0.649902,-0.341797,0.637695,0
6430,-0.648926,-0.348145,0.63623,0
6450,-0.638184,-0.353027,0.63916,0
6470,-0.64502,-0.339844,0.635254,0
6490,-0.660156,-0.335938,0.642578,0
6510,-0.681152,-0.338867,0.629883,0
6530,-0.69873,-0.342773,0.622559,0
6550,-0.687012,-0.366699,0.597656,0
6570,-0.672363,-0.381836,0.592285,0
6580,-0.658203,-0.32959,0.583496,0
6600,-0.638672,-0.336426,0.579102,0
6620,-0.595215,-0.366211,0.598633,0
6640,-0.570312,-0.380859,0.613281,0
6660,-0.576172,-0.376953,0.633789,0
6680,-0.562012,-0.360352,0.681641,0
6700,-0.534668,-0.350098,0.715332,0
6720,-0.509766,-0.352051,0.731445,0
6740,-0.508301,-0.34668,0.754395,0
6760,-0.53418,-0.349121,0.755371,0
6780,-0.572754,-0.36377,0.725098,0
6800,-0.600098,-0.361328,0.708008,0
6820,-0.603027,-0.327148,0.690918,0
6840,-0.610352,-0.288574,0.675293,0
6860,-0.646484,-0.249512,0.639648,0
6880,-0.681152,-0.238281,0.615723,0
6900,-0.694824,-0.265137,0.593262,0
6920,-0.699219,-0.294922,0.589844,0
6940,-0.701172,-0.288574,0.631836,0
6960,-0.677734,-0.284668,0.642578,0
6980,-0.67041,-0.313477,0.663086,0
7000,-0.69873,-0.3125,0.668457,0
7020,-0.680664,-0.322266,0.632812,0
7040,-0.641113,-0.389648,0.61377,0
7060,-0.655273,-0.444336,0.603027,0
7080,-0.641602,-0.347168,0.64209,0
7100,-0.58252,-0.26709,0.623047,0
7120,-0.564453,-0.29541,0.622559,0
7140,-0.566406,-0.303223,0.708984,0
7160,-0.570312,-0.326172,0.731445,0
7180,-0.581055,-0.332031,0.746094,0
7200,-0.586914,-0.318359,0.73877,0
7220,-0.59082,-0.303711,0.704102,0
7240,-0.595215,-0.277832,0.684082,0
7260,-0.618652,-0.26123,0.690918,0
7280,-0.640137,-0.258789,0.690918,0
7300,-0.648438,-0.270508,0.681641,0
7320,-0.649414,-0.286133,0.657715,0
7340,-0.657227,-0.290527,0.652832,0
7360,-0.658203,-0.281738,0.63916,0
7380,-0.658691,-0.282227,0.640625,0
7400,-0.660645,-0.297852,0.634766,0
7420,-0.650391,-0.3125,0.631836,0
7440,-0.635742,-0.325684,0.635742,0
7460,-0.619629,-0.333984,0.630371,0
7480,-0.60498,-0.324707,0.632324,0
7500,-0.57666,-0.324219,0.64209,0
7520,-0.556152,-0.335449,0.679688,0
7540,-0.551758,-0.336426,0.728027,0
7560,-0.563965,-0.330078,0.749512,0
7580,-0.586426,-0.32666,0.764648,0
7600,-0.625,-0.317383,0.757324,0
7620,-0.664551,-0.289551,0.722656,0
7640,-0.694336,-0.269531,0.665039,0
7660,-0.704102,-0.250977,0.615234,0
7680,-0.70752,-0.257812,0.589844,0
7700,-0.710449,-0.272461,0.561523,0
7720,-0.676758,-0.307129,0.551758,0
7740,-0.634766,-0.32666,0.562988,0
7760,-0.605469,-0.344727,0.57959,0
7780,-0.557129,-0.348633,0.631348,0
7800,-0.524902,-0.351074,0.703125,0
7820,-0.516602,-0.341309,0.757324,0
7840,-0.541992,-0.34082,0.779297,0
7860,-0.616211,-0.32959,0.755859,0
7880,-0.547363,-0.308105,0.767578,0
7900,-0.526367,-0.175781,0.759766,0
7920,-0.644043,-0.203613,0.69873,0
7940,-0.630859,-0.313477,0.687012,0
7960,-0.651367,-0.366211,0.653809,0
7980,-0.708984,-0.35791,0.60498,0
8000,-0.703613,-0.29834,0.563965,0
8020,-0.690918,-0.260742,0.556152,0
8040,-0.669434,-0.270508,0.577637,0
8060,-0.660156,-0.290527,0.619141,0
8080,-0.658203,-0.307129,0.65625,0
8100,-0.628906,-0.315918,0.671875,0
8120,-0.614258,-0.314941,0.674316,0
8140,-0.609375,-0.32373,0.677246,0
8160,-0.629395,-0.342773,0.669922,0
8180,-0.633789,-0.347168,0.664551,0
8200,-0.646484,-0.339844,0.659668,0
8220,-0.651367,-0.325195,0.650391,0
8240,-0.650391,-0.309082,0.641602,0
8260,-0.644531,-0.304688,0.646973,0
8280,-0.655762,-0.308105,0.656738,0
8300,-0.645508,-0.31543,0.648926,0
8320,-0.631836,-0.332031,0.650391,0
8340,-0.632324,-0.322266,0.650879,0
8360,-0.625,-0.308594,0.658691,0
8380,-0.620117,-0.302246,0.655273,0
8400,-0.625488,-0.307129,0.652344,0
8420,-0.624023,-0.31543,0.655762,0
8440,-0.62793,-0.325195,0.654785,0
8460,-0.62793,-0.32666,0.651855,0
8480,-0.632812,-0.323242,0.649414,0
8500,-0.641602,-0.318848,0.647949,0
8520,-0.643066,-0.308594,0.648438,0
8540,-0.63916,-0.315918,0.637695,0
8560,-0.641113,-0.322754,0.646973,0
8580,-0.646973,-0.319824,0.64502,0
8600,-0.645508,-0.31543,0.641602,0
8620,-0.64502,-0.296875,0.642578,0
8640,-0.643555,-0.296875,0.64209,0
8660,-0.647461,-0.312988,0.641602,0
8680,-0.637695,-0.334961,0.646973,0
8700,-0.638672,-0.352051,0.648926,0
8720,-0.648438,-0.33252,0.648438,0
8740,-0.649414,-0.313477,0.63916,0
8760,-0.63623,-0.317871,0.643066,0
8780,-0.625977,-0.321289,0.65332,0
8800,-0.628418,-0.326172,0.673828,0
8820,-0.626953,-0.325195,0.681152,0
8840,-0.631348,-0.327637,0.666992,0
8860,-0.644531,-0.30957,0.64502,0
8880,-0.652344,-0.300293,0.62207,0
8900,-0.634277,-0.291016,0.635254,0
8920,-0.614746,-0.311523,0.65625,0
8940,-0.611816,-0.333008,0.663086,0
8960,-0.625488,-0.344727,0.664551,0
8980,-0.636719,-0.32373,0.653809,0
9000,-0.636719,-0.314453,0.638184,0
9020,-0.630859,-0.325684,0.634766,0
9040,-0.62793,-0.339355,0.638672,0
9060,-0.631348,-0.338867,0.652832,0
9080,-0.638184,-0.327148,0.658203,0
9100,-0.639648,-0.317871,0.65332,0
9120,-0.645996,-0.320312,0.650391,0
9140,-0.641602,-0.313965,0.656738,0
9150,-0.659668,-0.337402,0.658691,0
9170,-0.658203,-0.312988,0.649414,0
9190,-0.643066,-0.303711,0.643066,0
9210,-0.632812,-0.314941,0.635742,0
9230,-0.644043,-0.300293,0.640625,0
9250,-0.652344,-0.296387,0.647949,0
9270,-0.654785,-0.303223,0.653809,0
9290,-0.644531,-0.305664,0.657715,0
9310,-0.63623,-0.306641,0.656738,0
9330,-0.628418,-0.320801,0.645508,0
9350,-0.617676,-0.31543,0.640625,0
9370,-0.611816,-0.316406,0.640625,0
9390,-0.612305,-0.327148,0.641113,0
9410,-0.611328,-0.324219,0.648926,0
9430,-0.616699,-0.333496,0.664062,0
9450,-0.61377,-0.344727,0.671387,0
9470,-0.615723,-0.345703,0.675781,0
9490,-0.61377,-0.357422,0.67041,0
9510,-0.614258,-0.355469,0.672363,0
9530,-0.625,-0.34082,0.661621,0
9550,-0.629395,-0.333496,0.655762,0
9570,-0.635742,-0.321289,0.647949,0
9590,-0.632812,-0.312988,0.643066,0
9610,-0.629883,-0.304688,0.644043,0
9630,-0.631836,-0.30957,0.637695,0
9650,-0.629395,-0.301758,0.654297,0
9670,-0.631348,-0.307617,0.652832,0
9690,-0.631348,-0.3125,0.660156,0
9710,-0.628906,-0.319824,0.664062,0
9730,-0.626465,-0.325195,0.658203,0
9750,-0.630371,-0.327637,0.65625,0
9770,-0.629395,-0.331055,0.650879,0
9790,-0.624512,-0.326172,0.655273,0
9810,-0.623535,-0.327148,0.665039,0
9830,-0.62207,-0.32373,0.658691,0
9850,-0.625488,-0.320312,0.658203,0
9870,-0.629883,-0.321289,0.663086,0
9890,-0.631348,-0.321777,0.657227,0
9910,-0.629395,-0.321777,0.652344,0
9930,-0.632812,-0.321289,0.651367,0
9950,-0.634766,-0.317871,0.649902,0
9970,-0.634277,-0.313477,0.652832,0
9990,-0.632812,-0.310547,0.658203,0
10010,-0.628418,-0.3125,0.658691,0
10030,-0.629395,-0.316406,0.65625,0
10050,-0.628906,-0.316895,0.662109,0
10070,-0.625977,-0.318359,0.655273,0
10090,-0.627441,-0.311035,0.651367,0
10110,-0.630859,-0.320801,0.660645,0
10130,-0.63623,-0.320801,0.660156,0
10150,-0.632324,-0.318848,0.655273,0
10170,-0.632324,-0.318848,0.654785,0
10190,-0.630859,-0.324219,0.654297,0
10210,-0.629395,-0.317871,0.648438,0
10230,-0.62793,-0.31543,0.658691,0
10250,-0.634766,-0.315918,0.664551,0
10270,-0.630371,-0.31543,0.659668,0
10290,-0.630371,-0.317871,0.650391,0
10310,-0.631836,-0.312988,0.657227,0
10330,-0.634766,-0.310059,0.660645,0
10350,-0.632812,-0.310059,0.65625,0
10370,-0.634277,-0.319336,0.652344,0
10390,-0.628906,-0.320312,0.651367,0
10410,-0.62793,-0.3125,0.652832,0
10430,-0.628418,-0.316895,0.652832,0
10450,-0.633789,-0.318848,0.652832,0
10470,-0.630859,-0.315918,0.653809,0
10490,-0.625977,-0.314453,0.655273,0
10510,-0.627441,-0.314453,0.658691,0
10530,-0.624512,-0.314941,0.660645,0
10550,-0.629395,-0.322754,0.665039,0
10570,-0.631348,-0.327637,0.651367,0
10590,-0.628418,-0.317383,0.651367,0
10610,-0.630859,-0.31543,0.649414,0
10630,-0.629883,-0.3125,0.660156,0
10650,-0.630371,-0.316406,0.65918,0
10670,-0.629883,-0.317383,0.655273,0
10690,-0.62793,-0.315918,0.65332,0
10710,-0.628906,-0.311035,0.651367,0
10730,-0.626465,-0.318359,0.652832,0
10750,-0.627441,-0.318359,0.657715,0
10770,-0.628418,-0.31543,0.657227,0
10790,-0.632812,-0.324707,0.659668,0
10810,-0.635254,-0.315918,0.65918,0
10830,-0.637207,-0.31543,0.656738,0
10850,-0.640625,-0.314941,0.655273,0
10870,-0.641113,-0.32373,0.651367,0
10890,-0.638184,-0.316406,0.649414,0
10910,-0.639648,-0.31543,0.651367,0
10930,-0.634277,-0.312988,0.656738,0
10950,-0.632324,-0.319336,0.658691,0
10970,-0.633301,-0.314941,0.651855,0
10990,-0.636719,-0.318848,0.65625,0
11010,-0.638184,-0.320312,0.650391,0
11030,-0.634766,-0.318848,0.648926,0
11050,-0.633789,-0.32666,0.647949,0
11070,-0.633301,-0.32666,0.653809,0
11090,-0.633301,-0.327637,0.648926,0
11110,-0.637695,-0.320801,0.653809,0
11130,-0.635254,-0.327148,0.657227,0
11150,-0.640137,-0.325684,0.664062,0
11170,-0.635742,-0.33252,0.65918,0
11190,-0.630859,-0.331055,0.657715,0
11210,-0.631836,-0.326172,0.654297,0
11230,-0.632324,-0.319824,0.654785,0
11250,-0.630371,-0.321777,0.640625,0
11270,-0.638672,-0.3125,0.63623,0
11290,-0.638672,-0.303711,0.645508,0
11310,-0.641602,-0.313965,0.641113,0
11330,-0.64209,-0.310547,0.647949,0
11350,-0.641602,-0.32373,0.645508,0
11370,-0.636719,-0.342285,0.635742,0
11390,-0.632324,-0.34082,0.641113,0
11410,-0.633301,-0.337891,0.642578,0
11430,-0.63916,-0.333496,0.64502,0
11450,-0.637695,-0.333984,0.640137,0
11470,-0.629395,-0.332031,0.650879,0
11490,-0.632324,-0.334473,0.649414,0
11510,-0.625977,-0.328125,0.641602,0
11530,-0.623047,-0.335449,0.647461,0
11550,-0.620117,-0.340332,0.65625,0
11570,-0.620605,-0.335449,0.65332,0
11590,-0.621582,-0.339844,0.656738,0
11610,-0.620117,-0.340332,0.649414,0
11630,-0.615723,-0.340332,0.649902,0
11650,-0.615723,-0.338379,0.644043,0
11670,-0.622559,-0.339355,0.649414,0
11690,-0.624023,-0.338867,0.650391,0
11710,-0.624023,-0.34375,0.647949,0
11720,-0.624512,-0.339355,0.651367,0
11740,-0.626465,-0.333008,0.649902,0
11760,-0.62793,-0.335938,0.651855,0
11780,-0.626465,-0.347656,0.647461,0
11800,-0.631348,-0.349121,0.648438,0
11820,-0.624512,-0.338867,0.644043,0
11840,-0.622559,-0.335449,0.641602,0
11860,-0.620605,-0.344238,0.647461,0
11880,-0.612793,-0.347168,0.64502,0
11900,-0.616699,-0.347656,0.645508,0
11920,-0.617676,-0.348145,0.64209,0
11940,-0.628418,-0.338867,0.646973,0
11960,-0.637207,-0.351074,0.647949,0
11980,-0.660156,-0.394043,0.643066,0
12000,-0.666504,-0.40625,0.65625,0
12020,-0.619629,-0.371582,0.661621,0
12040,-0.608398,-0.352539,0.656738,0
12060,-0.650879,-0.366699,0.658691,0
12080,-0.633789,-0.359863,0.748047,0
12100,-0.60791,-0.349609,0.737793,0
12120,-0.610352,-0.377441,0.67627,0
12140,-0.602539,-0.361816,0.665527,0
12160,-0.632324,-0.333496,0.65918,0
12180,-0.633789,-0.324707,0.691406,0
12200,-0.585938,-0.346191,0.74707,0
12220,-0.532227,-0.380371,0.77002,0
12240,-0.504883,-0.382324,0.765625,0
12260,-0.483398,-0.370605,0.770996,0
12280,-0.467773,-0.364258,0.768066,0
12300,-0.453125,-0.366211,0.744141,0
12320,-0.417969,-0.356445,0.739258,0
12340,-0.394531,-0.302734,0.751953,0
12360,-0.387207,-0.318848,0.768066,0
12380,-0.376953,-0.369141,0.808594,0
12400,-0.347656,-0.381348,0.802246,0
12420,-0.321289,-0.370605,0.794922,0
12440,-0.31543,-0.354004,0.807129,0
12460,-0.290527,-0.35498,0.806641,0
12480,-0.262207,-0.348145,0.794922,0
12500,-0.242676,-0.360352,0.782715,0
12520,-0.237793,-0.373535,0.80127,0
12540,-0.223145,-0.394043,0.804688,0
12560,-0.207031,-0.417969,0.8125,0
12580,-0.169922,-0.428223,0.807617,0
12600,-0.152344,-0.431152,0.803711,0
12620,-0.155273,-0.431152,0.8125,0
12640,-0.150391,-0.439941,0.802246,0
12660,-0.128906,-0.452148,0.795898,0
12680,-0.10498,-0.453613,0.80957,0
12700,-0.0996094,-0.434082,0.799805,0
12720,-0.104492,-0.429688,0.804688,0
12740,-0.0834961,-0.433594,0.810059,0
12760,-0.078125,-0.446777,0.800781,0
12780,-0.0795898,-0.467773,0.78418,0
12800,-0.0703125,-0.468262,0.787109,0
12820,-0.0493164,-0.463379,0.791016,0
12840,-0.0380859,-0.475586,0.774902,0
12860,-0.0371094,-0.488281,0.763672,0
12880,-0.0302734,-0.487305,0.76123,0
12900,-0.0322266,-0.495117,0.773438,0
12920,-0.0356445,-0.496582,0.774902,0
12940,-0.0444336,-0.494629,0.796875,0
12960,-0.0458984,-0.5,0.771973,0
12980,-0.0463867,-0.497559,0.761719,0
13000,-0.0258789,-0.492188,0.762695,0
13020,-0.00683594,-0.482422,0.757812,0
13040,-0.00195312,-0.487305,0.750977,0
13060,0.00878906,-0.482422,0.774414,0
13080,0.0258789,-0.488281,0.785156,0
13100,0.0419922,-0.509766,0.77832,0
13120,0.050293,-0.504883,0.76123,0
13140,0.0419922,-0.489258,0.775391,0
13160,0.0454102,-0.487305,0.779785,0
13180,0.050293,-0.49707,0.775879,0
13200,0.0483398,-0.494629,0.783691,0
13220,0.0454102,-0.484375,0.780762,0
13240,0.050293,-0.477051,0.783691,0
13260,0.0639648,-0.46875,0.779785,0
13280,0.0668945,-0.481445,0.767578,0
13300,0.0722656,-0.475586,0.768555,0
13320,0.0820312,-0.467773,0.771973,0
13340,0.0849609,-0.463379,0.776367,0
13360,0.101074,-0.480957,0.76709,0
13380,0.116699,-0.483887,0.767578,0
13400,0.129883,-0.462891,0.79834,0
13420,0.150879,-0.45752,0.793945,0
13440,0.171387,-0.477051,0.758301,0
13460,0.173828,-0.478027,0.746582,0
13480,0.167969,-0.46875,0.749512,0
13500,0.148926,-0.469727,0.755859,0
13520,0.137695,-0.491699,0.775391,0
13540,0.120605,-0.506348,0.78418,0
13560,0.11084,-0.519043,0.778809,0
13580,0.100098,-0.536621,0.746094,0
13600,0.0961914,-0.532227,0.734863,0
13620,0.102051,-0.523438,0.743164,0
13640,0.0908203,-0.523926,0.75,0
13660,0.0810547,-0.539062,0.725586,0
13680,0.0878906,-0.536621,0.730469,0
13700,0.112305,-0.519043,0.746094,0
13720,0.132324,-0.499023,0.743164,0
13740,0.145508,-0.504395,0.740234,0
13760,0.158691,-0.499512,0.744141,0
13780,0.166992,-0.492676,0.741699,0
13800,0.15918,-0.491699,0.741699,0
13820,0.161621,-0.500488,0.748535,0
13840,0.167969,-0.505371,0.750488,0
13860,0.150879,-0.501465,0.749512,0
13880,0.153809,-0.500488,0.750977,0
13900,0.154785,-0.493652,0.749512,0
13920,0.144531,-0.496094,0.753906,0
13940,0.13623,-0.473145,0.759277,0
13960,0.133301,-0.480469,0.753906,0
13980,0.124023,-0.48291,0.767578,0
14000,0.129883,-0.477051,0.773926,0
14020,0.14209,-0.485352,0.769043,0
14040,0.140137,-0.481445,0.76416,0
14060,0.140625,-0.478516,0.77002,0
14080,0.146484,-0.470215,0.774902,0
14100,0.141602,-0.480469,0.778809,0
14120,0.148438,-0.480957,0.772949,0
14140,0.14502,-0.476074,0.776367,0
14160,0.13916,-0.473145,0.786133,0
14180,0.130371,-0.474121,0.782227,0
14200,0.132812,-0.482422,0.780273,0
14220,0.137695,-0.476074,0.794434,0
14240,0.140625,-0.471191,0.798828,0
14260,0.135254,-0.479492,0.786621,0
14280,0.135254,-0.483887,0.781738,0
14290,0.132324,-0.484863,0.777344,0
14310,0.13623,-0.476074,0.783691,0
14330,0.125488,-0.48877,0.776367,0
14350,0.116699,-0.483398,0.76709,0
14370,0.106445,-0.476562,0.76123,0
14390,0.0986328,-0.466797,0.757812,0
14410,0.0791016,-0.464844,0.753906,0
14430,0.0698242,-0.468262,0.752441,0
14450,0.0708008,-0.466797,0.767578,0
14470,0.078125,-0.457031,0.775391,0
14490,0.0761719,-0.462402,0.754883,0
14510,0.0678711,-0.45166,0.765625,0
14530,0.0688477,-0.4375,0.791016,0
14550,0.0673828,-0.428711,0.801758,0
14570,0.0639648,-0.439453,0.782715,0
14590,0.03125,-0.427246,0.766602,0
14610,-0.00244141,-0.400879,0.734375,0
14630,-0.0258789,-0.369141,0.712402,0
14650,-0.0478516,-0.354492,0.723145,0
14670,-0.0493164,-0.342285,0.770508,0
14690,-0.0219727,-0.34668,0.805664,0
14710,0.00878906,-0.362793,0.790527,0
14730,-0.00439453,-0.362305,0.821777,0
14750,-0.0219727,-0.331055,0.86084,0
14770,-0.0493164,-0.362793,0.858887,0
14790,-0.0795898,-0.375,0.863281,0
14810,-0.117188,-0.37207,0.905273,0
14830,-0.151367,-0.373535,0.896484,0
14850,-0.192871,-0.38916,0.900879,0
14870,-0.203613,-0.405273,0.928223,0
14890,-0.205566,-0.422852,0.936035,0
14910,-0.202148,-0.433105,0.911621,0
14930,-0.207031,-0.42334,0.908691,0
14950,-0.160645,-0.401855,0.927734,0
14970,-0.12793,-0.378906,0.936035,0
14990,-0.130859,-0.386719,0.908691,0
15010,-0.15625,-0.383789,0.897461,0
15030,-0.150391,-0.367676,0.888184,0
15050,-0.161133,-0.348633,0.889648,0
15070,-0.172852,-0.340332,0.879883,0
15090,-0.183105,-0.331055,0.882812,0
15110,-0.182129,-0.322266,0.878418,0
15130,-0.174805,-0.319336,0.875977,0
15150,-0.179199,-0.3125,0.867188,0
15170,-0.181641,-0.310059,0.86084,0
15190,-0.175781,-0.312988,0.840332,0
15210,-0.158203,-0.323242,0.842285,0
15230,-0.140137,-0.316895,0.837891,0
15250,-0.135742,-0.317383,0.828125,0
15270,-0.130859,-0.328125,0.838867,0
15290,-0.117188,-0.336914,0.837891,0
15310,-0.105469,-0.342285,0.836426,0
15330,-0.115234,-0.343262,0.831055,0
15350,-0.0952148,-0.344238,0.831055,0
15370,-0.0844727,-0.343262,0.835938,0
15390,-0.0908203,-0.349609,0.82373,0
15410,-0.0844727,-0.351074,0.813477,0
15430,-0.0678711,-0.356445,0.82666,0
15450,-0.0541992,-0.362793,0.834961,0
15470,-0.0473633,-0.374023,0.82666,0
15490,-0.0405273,-0.370117,0.833984,0
15510,-0.0288086,-0.380859,0.842285,0
15530,-0.019043,-0.388672,0.844238,0
15550,-0.00976562,-0.39209,0.831543,0
15570,-0.00488281,-0.38916,0.810547,0
15590,0.0126953,-0.391602,0.802734,0
15610,0.0209961,-0.385742,0.805176,0
15630,0.0302734,-0.390137,0.806641,0
15650,0.0454102,-0.40625,0.806641,0
15670,0.0605469,-0.410156,0.816895,0
15690,0.0600586,-0.402832,0.834473,0
15710,0.0600586,-0.407227,0.84375,0
15730,0.0615234,-0.40625,0.838379,0
15750,0.0649414,-0.432617,0.824707,0
15770,0.0639648,-0.443359,0.819824,0
15790,0.0791016,-0.446777,0.82373,0
15810,0.0776367,-0.445801,0.850098,0
15830,0.0771484,-0.462891,0.851562,0
15850,0.0942383,-0.480957,0.824707,0
15870,0.106934,-0.483398,0.775879,0
15890,0.128418,-0.469727,0.768555,0
15910,0.157715,-0.454102,0.780273,0
15930,0.166016,-0.441406,0.780762,0
15950,0.154297,-0.459473,0.761719,0
15970,0.155273,-0.488281,0.772461,0
15990,0.150391,-0.478027,0.783203,0
16010,0.134766,-0.465332,0.778809,0
16030,0.124023,-0.464355,0.77832,0
16050,0.137207,-0.479004,0.763672,0
16070,0.146484,-0.489746,0.739746,0
16090,0.155762,-0.500977,0.729004,0
16110,0.17334,-0.495605,0.743652,0
16130,0.185059,-0.502441,0.724609,0
16150,0.202637,-0.515137,0.720703,0
16170,0.206543,-0.520996,0.714844,0
16190,0.220215,-0.543457,0.713379,0
16210,0.239258,-0.550293,0.72168,0
16230,0.237793,-0.545898,0.723145,0
16250,0.244629,-0.556641,0.714844,0
16270,0.255859,-0.574219,0.744141,0
16290,0.291504,-0.571289,0.760254,0
16310,0.307129,-0.563965,0.717285,0
16330,0.324707,-0.582031,0.699707,0
16350,0.314453,-0.552246,0.727051,0
16370,0.294922,-0.537109,0.720703,0
16390,0.26416,-0.532227,0.707031,0
16410,0.227051,-0.558105,0.677734,0
16430,0.209473,-0.575684,0.658691,0
16450,0.225098,-0.583496,0.651855,0
16470,0.242188,-0.577148,0.645996,0
16490,0.249512,-0.563477,0.624023,0
16510,0.266113,-0.545898,0.645996,0
16530,0.258789,-0.518066,0.644043,0
16550,0.245117,-0.513184,0.634277,0
16570,0.251465,-0.512695,0.652344,0
16590,0.263184,-0.516113,0.682617,0
16610,0.26709,-0.523438,0.692383,0
16630,0.274414,-0.529297,0.679199,0
16650,0.302734,-0.510254,0.703125,0
16670,0.342773,-0.501953,0.741699,0
16690,0.352051,-0.52002,0.685547,0
16710,0.340332,-0.532715,0.645996,0
16730,0.369141,-0.520996,0.667969,0
16750,0.365723,-0.508301,0.702637,0
16770,0.359863,-0.565918,0.727539,0
16790,0.369141,-0.564941,0.709961,0
16810,0.418457,-0.496582,0.67334,0
16830,0.455566,-0.566406,0.634766,0
16850,0.438965,-0.589355,0.646484,0
16860,0.430664,-0.578613,0.573242,0
16880,0.414062,-0.588867,0.60791,0
16890,0.371582,-0.609375,0.601562,0
16910,0.366211,-0.630371,0.59375,0
16930,0.337402,-0.535645,0.637695,0
16950,0.303711,-0.567383,0.626465,0
16970,0.32666,-0.560547,0.637207,0
16990,0.351562,-0.571777,0.676758,0
17010,0.36084,-0.549805,0.666016,0
17030,0.378418,-0.569336,0.650879,0
17050,0.386719,-0.527344,0.673828,0
17070,0.40332,-0.458496,0.63916,0
17090,0.410156,-0.514648,0.63623,0
17110,0.428711,-0.606934,0.602051,0
17130,0.432129,-0.583496,0.507812,0
17150,0.289062,-0.560547,0.671875,0
17170,0.271973,-0.460938,0.67041,0
17190,0.365234,-0.385254,0.611328,0
17210,0.324219,-0.435059,0.666016,0
17230,0.25,-0.602539,0.668457,0
17250,0.256348,-0.658691,0.683105,0
17270,0.301758,-0.714844,0.714355,0
17290,0.330566,-0.566406,0.63916,0
17310,0.376465,-0.493652,0.665039,0
17330,0.480957,-0.476074,0.628906,0
17350,0.573242,-0.520996,0.591797,0
17370,0.482422,-0.566406,0.633301,0
17390,0.481445,-0.563477,0.627441,0
17410,0.599121,-0.614746,0.569824,0
17430,0.600586,-0.582031,0.566895,0
17450,0.542969,-0.510254,0.569824,0
17470,0.519043,-0.446289,0.536621,0
17490,0.496582,-0.48291,0.539551,0
17510,0.525879,-0.521484,0.499023,0
17530,0.404785,-0.517578,0.469727,0
17550,0.265625,-0.467773,0.54834,0
17570,0.366211,-0.375,0.600586,0
17590,0.429199,-0.337891,0.613281,0
17610,0.425781,-0.372559,0.598633,0
17630,0.465332,-0.437012,0.591797,0
17650,0.456055,-0.39502,0.625488,0
17670,0.484375,-0.469727,0.602539,0
17690,0.513184,-0.478027,0.615234,0
17710,0.522461,-0.462891,0.611328,0
17730,0.520996,-0.469238,0.602051,0
17750,0.512695,-0.467285,0.636719,0
17770,0.556641,-0.428223,0.699707,0
17790,0.60791,-0.395996,0.647461,0
17810,0.564941,-0.425293,0.59082,0
17830,0.547852,-0.412109,0.627441,0
17850,0.568359,-0.370605,0.651855,0
17870,0.623047,-0.329102,0.632812,0
17890,0.591797,-0.316895,0.609863,0
17910,0.591309,-0.36084,0.596191,0
17930,0.584473,-0.356934,0.59668,0
17950,0.586914,-0.351074,0.629395,0
17970,0.572754,-0.346191,0.619141,0
17990,0.562988,-0.358887,0.611328,0
18010,0.58252,-0.365234,0.645996,0
18030,0.602539,-0.392578,0.65332,0
18050,0.584961,-0.40332,0.63623,0
18070,0.592285,-0.389648,0.658203,0
18090,0.590332,-0.367188,0.663574,0
18110,0.583984,-0.386719,0.643066,0
18130,0.567383,-0.382812,0.634766,0
18150,0.56543,-0.402832,0.630371,0
18170,0.54248,-0.369141,0.646484,0
18190,0.500977,-0.39502,0.650391,0
18210,0.522949,-0.383301,0.640137,0
18230,0.544922,-0.360352,0.653809,0
18250,0.546875,-0.374023,0.638184,0
18270,0.516602,-0.368652,0.649902,0
18290,0.540039,-0.38916,0.644043,0
18310,0.572266,-0.390625,0.630859,0
18330,0.554199,-0.374023,0.640137,0
18350,0.568359,-0.418945,0.625,0
18370,0.557129,-0.373535,0.643555,0
18390,0.508789,-0.314941,0.630371,0
18410,0.60498,-0.394531,0.563965,0
18430,0.560547,-0.445801,0.494141,0
18450,0.453613,-0.417969,0.572754,0
18470,0.476562,-0.340332,0.612305,0
18490,0.415527,-0.254395,0.614746,0
18510,0.50293,-0.277344,0.67041,0
18530,0.550293,-0.320801,0.64502,0
18550,0.543945,-0.357422,0.61377,0
18570,0.533203,-0.391602,0.602051,0
18590,0.534668,-0.392578,0.618652,0
18610,0.535645,-0.439941,0.641113,0
18630,0.548828,-0.446777,0.643555,0
18650,0.558105,-0.457031,0.649414,0
18670,0.569336,-0.431152,0.666016,0
18690,0.562988,-0.397461,0.666016,0
18710,0.567871,-0.412598,0.681641,0
18730,0.548828,-0.42334,0.66748,0
18750,0.509766,-0.442871,0.650391,0
18770,0.555664,-0.414551,0.661621,0
18790,0.583008,-0.349609,0.629883,0
18810,0.539551,-0.334473,0.58252,0
18830,0.524414,-0.396973,0.564941,0
18850,0.544434,-0.401855,0.624023,0
18870,0.52002,-0.40625,0.601562,0
18890,0.504883,-0.355469,0.604492,0
18910,0.560547,-0.352051,0.602539,0
18930,0.580078,-0.358887,0.611816,0
18950,0.589844,-0.393066,0.597656,0
18970,0.591309,-0.463379,0.597656,0
18990,0.549316,-0.476562,0.595703,0
19010,0.558594,-0.476562,0.616211,0
19030,0.602051,-0.460938,0.625,0
19050,0.59668,-0.429199,0.600586,0
19070,0.606445,-0.433594,0.570312,0
19090,0.618164,-0.462402,0.553711,0
19110,0.604492,-0.461426,0.553711,0
19130,0.601074,-0.44873,0.556641,0
19150,0.608398,-0.410645,0.556152,0
19170,0.603516,-0.399902,0.564453,0
19190,0.61377,-0.427734,0.547852,0
19210,0.622559,-0.436523,0.53125,0
19230,0.606934,-0.446289,0.550781,0
19250,0.592285,-0.438477,0.559082,0
19270,0.594727,-0.442871,0.558594,0
19290,0.602051,-0.466797,0.560547,0
19310,0.588379,-0.46875,0.56543,0
19330,0.570312,-0.481445,0.549316,0
19350,0.571777,-0.476074,0.55957,0
19370,0.53418,-0.447266,0.5625,0
19390,0.520996,-0.45752,0.558105,0
19410,0.540527,-0.443848,0.569824,0
19420,0.523926,-0.45752,0.57373,0
19440,0.526367,-0.436523,0.584473,0
19460,0.532227,-0.448242,0.562988,0
19480,0.530273,-0.45752,0.581543,0
19500,0.536133,-0.456055,0.564941,0
19520,0.525879,-0.458496,0.571289,0
19540,0.519043,-0.457031,0.564453,0
19560,0.537598,-0.466309,0.561035,0
19580,0.545898,-0.455078,0.565918,0
19600,0.546875,-0.452637,0.557617,0
19620,0.547363,-0.463867,0.572754,0
19640,0.547852,-0.454102,0.569824,0
19660,0.562988,-0.453125,0.558594,0
19680,0.561035,-0.45166,0.560547,0
19700,0.562012,-0.446777,0.562988,0
19720,0.569336,-0.447266,0.564941,0
19740,0.568848,-0.447754,0.55957,0
19760,0.57373,-0.458496,0.559082,0
19780,0.567871,-0.473145,0.561523,0
19800,0.564941,-0.478516,0.574219,0
19820,0.564941,-0.470703,0.566895,0
19840,0.560547,-0.461426,0.562012,0
19860,0.554688,-0.47168,0.568359,0
19880,0.557129,-0.461426,0.577637,0
19900,0.562988,-0.456055,0.576172,0
19920,0.556641,-0.45752,0.567871,0
19940,0.553711,-0.459961,0.563477,0
19960,0.553711,-0.466309,0.557617,0
19980,0.556641,-0.468262,0.570801,0
20000,0.561523,-0.461426,0.581543,0
20020,0.548828,-0.470215,0.554199,0
20040,0.547363,-0.477539,0.571289,0
20060,0.551758,-0.475098,0.573242,0
20080,0.54541,-0.46875,0.560059,0
20100,0.54248,-0.463379,0.557129,0
20120,0.547363,-0.460449,0.578125,0
20140,0.553223,-0.464355,0.579102,0
20160,0.549805,-0.449219,0.560059,0
20180,0.546387,-0.450684,0.561035,0
20200,0.555664,-0.476562,0.563477,0
20220,0.538574,-0.473633,0.556152,0
20240,0.530273,-0.466797,0.550781,0
20260,0.536621,-0.464355,0.556641,0
20280,0.54834,-0.462891,0.571289,0
20300,0.538574,-0.462402,0.565918,0
20320,0.527344,-0.472656,0.570312,0
20340,0.528809,-0.480469,0.573242,0
20360,0.518555,-0.478516,0.573242,0
20380,0.522461,-0.470215,0.569336,0
20400,0.529785,-0.457031,0.566895,0
20420,0.534668,-0.464844,0.579102,0
20440,0.547363,-0.477051,0.573242,0
20460,0.555176,-0.471191,0.562012,0
20480,0.55957,-0.460938,0.568359,0
20500,0.565918,-0.45166,0.569824,0
20520,0.570801,-0.455078,0.57373,0
20540,0.555176,-0.470215,0.561035,0
20560,0.552246,-0.467285,0.570801,0
20580,0.55957,-0.451172,0.581543,0
20600,0.549316,-0.450684,0.569336,0
20620,0.54248,-0.460938,0.578613,0
20640,0.553223,-0.460938,0.585938,0
20660,0.563477,-0.468262,0.575195,0
20680,0.550293,-0.461914,0.558594,0
20700,0.552734,-0.452148,0.564941,0
20720,0.568848,-0.446289,0.580078,0
20740,0.564941,-0.438477,0.588379,0
20760,0.554199,-0.446777,0.561035,0
20780,0.547852,-0.443359,0.562988,0
20800,0.566406,-0.445801,0.579102,0
20820,0.566895,-0.451172,0.558594,0
20840,0.552246,-0.443359,0.582031,0
20860,0.580078,-0.424316,0.598145,0
20880,0.585938,-0.43457,0.567383,0
20900,0.588379,-0.424805,0.568359,0
20920,0.591309,-0.412109,0.59375,0
20940,0.59375,-0.409668,0.591309,0
20960,0.612305,-0.407227,0.567383,0
20980,0.616211,-0.396484,0.569336,0
21000,0.615234,-0.382812,0.581055,0
21020,0.635254,-0.386719,0.587891,0
21040,0.629395,-0.396484,0.591309,0
21060,0.621582,-0.398926,0.581543,0
21080,0.631836,-0.383789,0.594727,0
21100,0.638184,-0.381836,0.578613,0
21120,0.631348,-0.389648,0.572266,0
21140,0.625488,-0.407227,0.578613,0
21160,0.629883,-0.405762,0.587402,0
21180,0.644043,-0.441895,0.58252,0
21200,0.626465,-0.416504,0.583496,0
21220,0.618164,-0.442871,0.563965,0
21240,0.606445,-0.426758,0.576172,0
21260,0.593262,-0.44873,0.558105,0
21280,0.593262,-0.458496,0.575195,0
21300,0.574219,-0.453125,0.570312,0
21320,0.552246,-0.450684,0.566406,0
21340,0.554688,-0.461426,0.560059,0
21360,0.54248,-0.464355,0.553711,0
21380,0.523438,-0.461914,0.563965,0
21400,0.529785,-0.465332,0.550781,0
21420,0.539062,-0.468262,0.559082,0
21440,0.526367,-0.467285,0.560547,0
21460,0.519043,-0.474609,0.563477,0
21480,0.525879,-0.477539,0.562012,0
21500,0.523926,-0.476074,0.556152,0
21520,0.518066,-0.478516,0.567871,0
21540,0.517578,-0.476562,0.560547,0
21560,0.522461,-0.466309,0.578613,0
21580,0.529785,-0.458984,0.580566,0
21600,0.535645,-0.467773,0.575684,0
21620,0.539062,-0.462402,0.580566,0
21640,0.541992,-0.455566,0.583984,0
21660,0.548828,-0.453125,0.581055,0
21680,0.550781,-0.467773,0.569824,0
21700,0.552246,-0.462891,0.569824,0
21720,0.562012,-0.463379,0.571289,0
21740,0.571289,-0.464844,0.577148,0
21760,0.564453,-0.456055,0.561523,0
21780,0.571289,-0.46582,0.569824,0
21800,0.584961,-0.46875,0.572754,0
21820,0.56543,-0.45166,0.570801,0
21840,0.562988,-0.457031,0.562012,0
21860,0.564941,-0.462891,0.571777,0
21880,0.558105,-0.445312,0.574707,0
21900,0.558105,-0.4375,0.56543,0
21920,0.571777,-0.439453,0.564941,0
21940,0.550293,-0.454102,0.555176,0
21960,0.528809,-0.456055,0.561035,0
21980,0.532227,-0.482422,0.572266,0
21990,0.530273,-0.478516,0.578125,0
22010,0.525391,-0.462402,0.566406,0
22030,0.520996,-0.443359,0.58252,0
22050,0.538086,-0.459961,0.588867,0
22070,0.536621,-0.45166,0.58252,0
22090,0.521484,-0.45166,0.572266,0
22110,0.528809,-0.438965,0.583496,0
22130,0.530762,-0.446777,0.601074,0
22150,0.530273,-0.469238,0.58252,0
22170,0.509766,-0.467285,0.575684,0
22190,0.51416,-0.464355,0.582031,0
22210,0.523926,-0.472656,0.589355,0
22230,0.51123,-0.482422,0.588867,0
22250,0.526367,-0.494141,0.569824,0
22270,0.506836,-0.461426,0.587891,0
22290,0.509277,-0.483398,0.581055,0
22310,0.512695,-0.493164,0.569824,0
22330,0.502441,-0.474121,0.583496,0
22350,0.510742,-0.473633,0.589355,0
22370,0.535156,-0.478027,0.575195,0
22390,0.541992,-0.459473,0.57666,0
22410,0.54834,-0.46582,0.592285,0
22430,0.554199,-0.46875,0.597168,0
22450,0.554199,-0.469238,0.571777,0
22470,0.546387,-0.467285,0.57373,0
22490,0.552734,-0.451172,0.595703,0
22510,0.5625,-0.447266,0.591309,0
22530,0.557617,-0.45166,0.577637,0
22550,0.552734,-0.446777,0.569824,0
22570,0.569824,-0.432617,0.599121,0
22590,0.558594,-0.44873,0.58252,0
22610,0.537598,-0.460938,0.587402,0
22630,0.55957,-0.425293,0.619141,0
22650,0.566406,-0.421387,0.596191,0
22670,0.552246,-0.424805,0.581543,0
22690,0.5625,-0.427734,0.617188,0
22710,0.594727,-0.425293,0.608398,0
22730,0.608887,-0.413574,0.597168,0
22750,0.598145,-0.412598,0.595215,0
22770,0.614746,-0.411621,0.61084,0
22790,0.627441,-0.413086,0.618652,0
22810,0.632812,-0.415039,0.607422,0
22830,0.638672,-0.37207,0.603027,0
22850,0.634277,-0.374023,0.607422,0
22870,0.62207,-0.394531,0.595215,0
22890,0.628906,-0.379883,0.616211,0
22910,0.629883,-0.393066,0.595703,0
22930,0.612305,-0.382324,0.59375,0
22950,0.60791,-0.373047,0.603027,0
22970,0.575684,-0.388672,0.589844,0
22990,0.570312,-0.405273,0.594238,0
23010,0.564453,-0.424805,0.598633,0
23030,0.541016,-0.429688,0.61377,0
23050,0.51709,-0.446289,0.59668,0
23070,0.530273,-0.472168,0.590332,0
23090,0.522949,-0.473633,0.590332,0
23110,0.49707,-0.459961,0.587891,0
23130,0.5,-0.470703,0.587891,0
23150,0.496094,-0.460449,0.581543,0
23170,0.48877,-0.46582,0.57666,0
23190,0.481445,-0.472656,0.580078,0
23210,0.501953,-0.470215,0.571289,0
23230,0.509766,-0.481934,0.569824,0
23250,0.506836,-0.48291,0.557129,0
23270,0.510742,-0.481934,0.570312,0
23290,0.51416,-0.464844,0.583496,0
23310,0.520996,-0.476074,0.567871,0
23330,0.528809,-0.463867,0.578125,0
23350,0.51709,-0.461914,0.588379,0
23370,0.521484,-0.468262,0.580078,0
23390,0.53418,-0.472168,0.585449,0
23410,0.526855,-0.475586,0.594238,0
23430,0.539062,-0.484863,0.592285,0
23450,0.558594,-0.487793,0.591797,0
23470,0.554688,-0.452148,0.624512,0
23490,0.547363,-0.450684,0.628906,0
23510,0.5625,-0.452637,0.619629,0
23530,0.556641,-0.454102,0.602539,0
23550,0.53125,-0.457031,0.597168,0
23570,0.514648,-0.46875,0.599609,0
23590,0.509766,-0.481445,0.60498,0
23610,0.501465,-0.467285,0.605469,0
23630,0.491699,-0.448242,0.612305,0
23650,0.470215,-0.448242,0.600586,0
23670,0.466797,-0.463867,0.604004,0
23690,0.478027,-0.456543,0.606934,0
23710,0.464355,-0.460449,0.59668,0
23730,0.454102,-0.479004,0.616211,0
23750,0.470215,-0.476074,0.614746,0
23770,0.483398,-0.449707,0.609863,0
23790,0.449707,-0.470703,0.595215,0
23810,0.45166,-0.452148,0.611328,0
23830,0.452637,-0.475098,0.606934,0
23850,0.477051,-0.507812,0.592285,0
23870,0.45752,-0.523438,0.624512,0
23890,0.46582,-0.492188,0.620117,0
23910,0.476074,-0.458984,0.62207,0
23930,0.480469,-0.444336,0.607422,0
23950,0.475586,-0.463867,0.604492,0
23970,0.463867,-0.472656,0.607422,0
23990,0.473633,-0.470703,0.614258,0
24010,0.486816,-0.468262,0.612305,0
24030,0.478516,-0.478516,0.598145,0
24050,0.476074,-0.493164,0.60791,0
24070,0.488281,-0.490723,0.616211,0
24090,0.486328,-0.475586,0.61084,0
24110,0.466309,-0.48584,0.608398,0
24130,0.474609,-0.48877,0.615723,0
24150,0.471191,-0.496582,0.614746,0
24170,0.45459,-0.509277,0.606934,0
24190,0.460938,-0.504883,0.612305,0
24210,0.466797,-0.494629,0.627441,0
24230,0.469238,-0.500488,0.620605,0
24250,0.461426,-0.502441,0.622559,0
24270,0.482422,-0.488281,0.622559,0
24290,0.491211,-0.472656,0.639648,0
24310,0.489746,-0.490234,0.628418,0
24330,0.492676,-0.490723,0.615723,0
24350,0.478027,-0.486816,0.618652,0
24370,0.479492,-0.501953,0.615723,0
24390,0.47168,-0.502441,0.630859,0
24410,0.465332,-0.498535,0.641602,0
24430,0.46875,-0.495117,0.626465,0
24450,0.46875,-0.471191,0.63916,0
24470,0.473633,-0.471191,0.631348,0
24490,0.480957,-0.48291,0.623047,0
24510,0.474121,-0.474121,0.635742,0
24530,0.484863,-0.444336,0.657227,0
24550,0.509277,-0.455078,0.641602,0
24560,0.495605,-0.455566,0.634766,0
24580,0.498535,-0.438477,0.661621,0
24600,0.521973,-0.427246,0.67334,0
24620,0.537109,-0.427734,0.663574,0
24640,0.529785,-0.452148,0.655762,0
24660,0.548828,-0.391602,0.678711,0
24680,0.568359,-0.37207,0.665039,0
24700,0.581543,-0.371094,0.650879,0
24720,0.599609,-0.399414,0.635254,0
24740,0.586426,-0.425781,0.628418,0
24760,0.578613,-0.431152,0.627441,0
24780,0.574707,-0.436035,0.625977,0
24800,0.567871,-0.467773,0.592773,0
24820,0.543457,-0.458984,0.591797,0
24840,0.524902,-0.486328,0.595215,0
24860,0.489746,-0.504395,0.605469,0
24880,0.46582,-0.52002,0.606934,0
24900,0.45459,-0.530273,0.598633,0
24920,0.450684,-0.531738,0.583984,0
24940,0.432129,-0.536133,0.599609,0
24960,0.409668,-0.500977,0.625,0
24980,0.408691,-0.509766,0.62207,0
25000,0.400391,-0.50293,0.61377,0
25020,0.383301,-0.496582,0.628906,0
25040,0.38623,-0.507324,0.628906,0
25060,0.407715,-0.516602,0.625488,0
25080,0.419922,-0.52832,0.620605,0
25100,0.422852,-0.527832,0.613281,0
25120,0.415039,-0.532715,0.609375,0
25140,0.419434,-0.528809,0.601562,0
25160,0.436523,-0.513184,0.604492,0
25180,0.440918,-0.527344,0.608398,0
25200,0.430664,-0.532715,0.615234,0
25220,0.431152,-0.527344,0.624512,0
25240,0.429199,-0.507324,0.62793,0
25260,0.416016,-0.513184,0.620605,0
25280,0.43457,-0.530762,0.62793,0
25300,0.455078,-0.509277,0.635254,0
25320,0.42334,-0.518555,0.646484,0
25340,0.427246,-0.511719,0.643555,0
25360,0.425781,-0.52002,0.637695,0
25380,0.412109,-0.524414,0.645996,0
25400,0.413574,-0.527832,0.638184,0
25420,0.414551,-0.529785,0.635742,0
25440,0.40625,-0.498047,0.649414,0
25460,0.401367,-0.505371,0.64209,0
25480,0.398438,-0.531738,0.629883,0
25500,0.386719,-0.510742,0.63623,0
25520,0.373047,-0.509766,0.627441,0
25540,0.376953,-0.510254,0.601074,0
25560,0.351074,-0.500488,0.620605,0
25580,0.369141,-0.520508,0.61377,0
25600,0.375,-0.527832,0.602051,0
25620,0.347168,-0.523438,0.601562,0
25640,0.35498,-0.51709,0.621582,0
25660,0.382812,-0.528809,0.608398,0
25680,0.363281,-0.503906,0.625977,0
25700,0.36377,-0.53125,0.620117,0
25720,0.404297,-0.540527,0.624023,0
25740,0.393066,-0.540039,0.623047,0
25760,0.378418,-0.526855,0.624512,0
25780,0.395996,-0.522461,0.64502,0
25800,0.388184,-0.536621,0.624512,0
25820,0.384277,-0.549316,0.646973,0
25840,0.415527,-0.541016,0.640625,0
25860,0.397461,-0.549316,0.635254,0
25880,0.38916,-0.556152,0.650391,0
25900,0.421387,-0.552246,0.655762,0
25920,0.42627,-0.541016,0.652832,0
25940,0.410156,-0.521973,0.656738,0
25960,0.42334,-0.526367,0.660156,0
25980,0.436523,-0.538086,0.648926,0
26000,0.39502,-0.552734,0.642578,0
26020,0.391113,-0.538574,0.658691,0
26040,0.408203,-0.520996,0.65332,0
26060,0.406738,-0.518066,0.64502,0
26080,0.384766,-0.521484,0.651855,0
26100,0.400879,-0.515137,0.656738,0
26120,0.410645,-0.537109,0.652344,0
26140,0.411621,-0.525879,0.655762,0
26160,0.414062,-0.504395,0.659668,0
26180,0.407715,-0.47998,0.664062,0
26200,0.411621,-0.478027,0.663086,0
26220,0.42041,-0.48584,0.65332,0
26240,0.407227,-0.498047,0.650391,0
26260,0.413086,-0.474609,0.662598,0
26280,0.424805,-0.474121,0.666992,0
26300,0.421387,-0.480469,0.666016,0
26320,0.422852,-0.48877,0.666992,0
26340,0.442383,-0.481934,0.679199,0
26360,0.455078,-0.471191,0.687012,0
26380,0.470215,-0.489746,0.669922,0
26400,0.491211,-0.452637,0.696777,0
26420,0.498535,-0.450195,0.694824,0
26440,0.505371,-0.461426,0.668457,0
26460,0.510254,-0.472656,0.666016,0
26480,0.516602,-0.482422,0.674316,0
26500,0.47998,-0.515137,0.652344,0
26520,0.470703,-0.50293,0.651367,0
26540,0.438965,-0.505371,0.633301,0
26560,0.407715,-0.52002,0.642578,0
26580,0.383789,-0.518066,0.639648,0
26600,0.376953,-0.526855,0.645508,0
26620,0.394531,-0.521973,0.638184,0
26640,0.377441,-0.510254,0.645996,0
26660,0.347656,-0.529297,0.639648,0
26680,0.337402,-0.536621,0.630859,0
26700,0.352051,-0.516113,0.629395,0
26720,0.341309,-0.526855,0.623535,0
26740,0.34082,-0.530273,0.630859,0
26760,0.357422,-0.534668,0.624512,0
26780,0.365234,-0.529297,0.620605,0
26800,0.38623,-0.536133,0.631836,0
26820,0.405273,-0.550781,0.640625,0
26840,0.40625,-0.550781,0.628906,0
26860,0.399902,-0.532715,0.635742,0
26880,0.397461,-0.520508,0.637695,0
26900,0.396973,-0.526855,0.637207,0
26920,0.39209,-0.540527,0.636719,0
26940,0.40332,-0.552734,0.645996,0
26960,0.416016,-0.547852,0.64209,0
26980,0.406738,-0.53125,0.63916,0
27000,0.391113,-0.531738,0.637695,2000
27020,0.415527,-0.53418,0.648438,0
27040,0.445312,-0.532715,0.660156,0
27060,0.432129,-0.529297,0.642578,0
27080,0.408203,-0.523926,0.648926,0
27100,0.39209,-0.529785,0.64502,0
27120,0.367188,-0.537598,0.646973,0
27140,0.339355,-0.513672,0.631836,0
27150,0.301758,-0.520508,0.637207,0
27170,0.299805,-0.522461,0.621582,0
27190,0.272461,-0.527832,0.605957,0
27210,0.26416,-0.51709,0.603516,0
27230,0.271484,-0.515137,0.611328,0
27250,0.257812,-0.524902,0.605957,0
27270,0.272949,-0.546387,0.607422,0
27290,0.298828,-0.533691,0.637207,0
27310,0.310059,-0.522949,0.632324,0
27330,0.338379,-0.533203,0.633789,0
27350,0.354492,-0.509766,0.660645,0
27370,0.339844,-0.537598,0.65332,0
27390,0.379395,-0.538086,0.652344,0
27410,0.396973,-0.532227,0.65332,0
27430,0.370605,-0.538086,0.657227,0
27450,0.367676,-0.543457,0.672852,0
27470,0.389648,-0.533203,0.671875,0
27490,0.400391,-0.532715,0.660156,0
27510,0.385742,-0.517578,0.646484,0
27530,0.375,-0.53418,0.650391,0
27550,0.391602,-0.523438,0.68457,0
27570,0.405273,-0.550293,0.661133,0
27590,0.406738,-0.54834,0.652344,0
27610,0.387207,-0.523438,0.649414,0
27630,0.376953,-0.513184,0.666504,0
27650,0.404785,-0.54248,0.660645,0
27670,0.411621,-0.541016,0.662109,0
27690,0.405762,-0.525879,0.67041,0
27710,0.404297,-0.505859,0.674805,0
27730,0.412109,-0.526367,0.661133,0
27750,0.408691,-0.529785,0.667969,0
27770,0.39209,-0.517578,0.662109,0
27790,0.390137,-0.535645,0.641602,0
27810,0.381348,-0.525391,0.635254,0
27830,0.376953,-0.495605,0.661133,0
27850,0.385254,-0.510254,0.665039,0
27870,0.41748,-0.522461,0.664062,0
27890,0.410645,-0.516113,0.633301,0
27910,0.387695,-0.501465,0.660645,0
27930,0.399902,-0.495117,0.677734,0
27950,0.397949,-0.515625,0.647949,0
27970,0.394531,-0.503906,0.647949,0
27990,0.399414,-0.496582,0.666016,0
28010,0.397949,-0.51709,0.650879,0
28030,0.376465,-0.508301,0.63916,0
28050,0.37793,-0.51416,0.656738,0
28070,0.410156,-0.501953,0.667969,0
28090,0.404297,-0.495117,0.672363,0
28110,0.388184,-0.503906,0.678223,0
28130,0.401855,-0.492188,0.692871,0
28150,0.423828,-0.497559,0.688477,0
28170,0.408691,-0.513184,0.682617,0
28190,0.393066,-0.523438,0.675781,0
28210,0.413086,-0.500488,0.70166,0
28230,0.405762,-0.504395,0.694824,0
28250,0.404785,-0.502441,0.687988,0
28270,0.416016,-0.48584,0.700195,0
28290,0.414062,-0.491699,0.697266,0
28310,0.425293,-0.506836,0.694824,0
28330,0.414062,-0.494629,0.69873,0
28350,0.417969,-0.47168,0.708984,0
28370,0.428223,-0.48291,0.690918,0
28390,0.418945,-0.487793,0.691406,0
28410,0.425781,-0.489258,0.693848,0
28430,0.439453,-0.476562,0.704102,0
28450,0.434082,-0.472656,0.688965,0
28470,0.427246,-0.467285,0.708496,0
28490,0.454102,-0.458496,0.702148,0
28510,0.467285,-0.461426,0.685547,0
28530,0.446289,-0.464844,0.681641,0
28550,0.442383,-0.444336,0.700684,0
28570,0.44873,-0.442383,0.682617,0
28590,0.449707,-0.448242,0.686523,0
28610,0.46875,-0.445801,0.678223,0
28630,0.476074,-0.443359,0.683105,0
28650,0.448242,-0.427246,0.672852,0
28670,0.45752,-0.432617,0.680176,0
28690,0.484863,-0.436035,0.667969,0
28710,0.48877,-0.428223,0.672363,0
28730,0.494141,-0.409668,0.678223,0
28750,0.495117,-0.431152,0.674805,0
28770,0.490234,-0.393555,0.682129,0
28790,0.462402,-0.38623,0.66748,0
28810,0.459473,-0.390625,0.663574,0
28830,0.486328,-0.394043,0.648926,0
28850,0.484375,-0.376953,0.643555,0
28870,0.462891,-0.397461,0.637695,0
28890,0.474609,-0.395508,0.634766,0
28910,0.48877,-0.380371,0.620117,0
28930,0.476074,-0.384277,0.617676,0
28950,0.458984,-0.397949,0.612305,0
28970,0.488281,-0.413086,0.605957,0
28990,0.49707,-0.396973,0.611328,0
29010,0.470215,-0.408691,0.592773,0
29030,0.492676,-0.433105,0.582031,0
29050,0.532227,-0.432129,0.57959,0
29070,0.510254,-0.44043,0.583008,0
29090,0.508789,-0.449707,0.576172,0
29110,0.541016,-0.458496,0.594727,0
29130,0.538086,-0.45752,0.594238,0
29150,0.539551,-0.47168,0.598145,0
29170,0.529297,-0.480957,0.58252,0
29190,0.51709,-0.495605,0.57666,0
29210,0.527832,-0.511719,0.580566,0
29230,0.515137,-0.501953,0.580078,0
29250,0.480469,-0.503418,0.571289,0
29270,0.5,-0.511719,0.571289,0
29290,0.501953,-0.525879,0.56543,0
29310,0.505859,-0.531738,0.556641,0
29330,0.508301,-0.533691,0.556152,0
29350,0.495117,-0.54834,0.550293,0
29370,0.496582,-0.529297,0.549805,0
29390,0.490234,-0.532227,0.538574,0
29410,0.462402,-0.563965,0.529785,0
29430,0.460938,-0.582031,0.522949,0
29450,0.48584,-0.581543,0.509277,0
29470,0.467285,-0.578125,0.499023,0
29490,0.442383,-0.594727,0.5,0
29510,0.450684,-0.615723,0.494141,0
29530,0.465332,-0.625,0.476074,0
29550,0.445312,-0.639648,0.45459,0
29570,0.437012,-0.606934,0.464355,0
29590,0.44043,-0.639648,0.449707,0
29610,0.462891,-0.651855,0.430176,0
29630,0.461426,-0.661621,0.441406,0
29650,0.467773,-0.647461,0.438477,0
29670,0.475098,-0.674316,0.422852,0
29690,0.507324,-0.694824,0.424805,0
29710,0.483887,-0.666016,0.438965,0
29730,0.470703,-0.663574,0.453125,0
29740,0.498047,-0.685059,0.42334,0
29760,0.530762,-0.656738,0.422363,0
29780,0.499023,-0.606445,0.428711,0
29800,0.512207,-0.650879,0.428223,0
29820,0.556641,-0.641602,0.418457,0
29840,0.570801,-0.614746,0.403809,0
29860,0.556152,-0.591797,0.424316,0
29880,0.571289,-0.61377,0.407715,0
29900,0.597656,-0.620605,0.398926,0
29920,0.609375,-0.606445,0.426758,0
29940,0.62793,-0.579102,0.439453,0
29960,0.647949,-0.591797,0.411621,0
29980,0.652832,-0.587402,0.401367,0
30000,0.646484,-0.549805,0.430176,0
30020,0.658691,-0.536133,0.436523,0
30040,0.664551,-0.546875,0.397949,0
30060,0.669434,-0.547852,0.413086,0
30080,0.699707,-0.513672,0.419922,0
30100,0.702637,-0.531738,0.40625,0
30120,0.688965,-0.520996,0.42041,0
30140,0.702637,-0.474609,0.439941,0
30160,0.714844,-0.458496,0.418457,0
30180,0.720703,-0.493652,0.421387,0
30200,0.722656,-0.469727,0.40625,0
30220,0.732422,-0.473145,0.422363,0
30240,0.741699,-0.456055,0.429688,0
30260,0.753418,-0.456543,0.413574,0
30280,0.771484,-0.419434,0.421387,0
30300,0.745605,-0.408691,0.426758,0
30320,0.739746,-0.413086,0.431641,0
30340,0.783203,-0.40625,0.44873,0
30360,0.76416,-0.368164,0.421875,0
30380,0.746582,-0.365234,0.436523,0
30400,0.78418,-0.39209,0.431152,0
30420,0.8125,-0.374512,0.449219,0
30440,0.791992,-0.345703,0.459961,0
30460,0.782715,-0.324219,0.460938,0
30480,0.775879,-0.339844,0.450684,0
30500,0.771973,-0.339355,0.486328,0
30520,0.77002,-0.310547,0.493164,0
30540,0.776367,-0.30127,0.486328,0
30560,0.775391,-0.316406,0.487793,0
30580,0.742188,-0.314453,0.462891,0
30600,0.72168,-0.317383,0.48291,0
30620,0.721191,-0.320801,0.476562,0
30640,0.708984,-0.304688,0.458496,0
30660,0.688965,-0.31543,0.460938,0
30680,0.68457,-0.309082,0.452148,0
30700,0.696777,-0.307617,0.460449,0
30720,0.690918,-0.325195,0.450195,0
30740,0.682129,-0.365723,0.450684,0
30760,0.712402,-0.361328,0.453613,0
30780,0.722656,-0.365234,0.441895,0
30800,0.691895,-0.385742,0.445801,0
30820,0.696289,-0.423828,0.4375,0
30840,0.693359,-0.435059,0.442383,0
30860,0.684082,-0.44873,0.435059,0
30880,0.665527,-0.464844,0.428711,0
30900,0.656738,-0.476074,0.429688,0
30920,0.642578,-0.496582,0.413086,0
30940,0.634766,-0.505371,0.424316,0
30960,0.635742,-0.507324,0.406738,0
30980,0.634766,-0.539551,0.399414,0
31000,0.632812,-0.562012,0.398926,0
31020,0.633789,-0.579102,0.38916,0
31040,0.621582,-0.571289,0.375,0
31060,0.594727,-0.596191,0.353027,0
31080,0.574707,-0.605469,0.36084,0
31100,0.57959,-0.606934,0.351074,0
31120,0.601074,-0.616211,0.324707,0
31140,0.564941,-0.644531,0.304199,0
31160,0.538086,-0.668945,0.300293,0
31180,0.58252,-0.682129,0.283691,0
31200,0.62793,-0.680176,0.280762,0
31220,0.601074,-0.699707,0.26709,0
31240,0.556152,-0.661133,0.266602,0
31260,0.554199,-0.674805,0.240723,0
31280,0.613281,-0.712402,0.243652,0
31300,0.642578,-0.695312,0.229492,0
31320,0.598633,-0.655762,0.223145,0
31340,0.589355,-0.670898,0.196289,0
31360,0.604492,-0.688477,0.210449,0
31380,0.643555,-0.666016,0.229004,0
31400,0.676758,-0.637695,0.216797,0
31420,0.638184,-0.625977,0.203125,0
31440,0.655273,-0.631836,0.205566,0
31460,0.711914,-0.563477,0.231445,0
31480,0.734375,-0.558594,0.208984,0
31500,0.700195,-0.583008,0.188965,0
31520,0.734863,-0.557617,0.194336,0
31540,0.77832,-0.526367,0.211914,0
31560,0.797852,-0.538086,0.206543,0
31580,0.79248,-0.515137,0.191895,0
31600,0.816406,-0.470703,0.226562,0
31620,0.828125,-0.420898,0.22998,0
31640,0.849609,-0.427734,0.224121,0
31660,0.86084,-0.429688,0.209473,0
31680,0.862793,-0.375977,0.235352,0
31700,0.890625,-0.345703,0.256836,0
31720,0.918945,-0.338379,0.231445,0
31740,0.898438,-0.341797,0.208496,0
31760,0.875488,-0.293945,0.23877,0
31780,0.874512,-0.290039,0.26416,0
31800,0.868652,-0.267578,0.258789,0
31820,0.827637,-0.23584,0.236816,0
31840,0.850586,-0.245117,0.273438,0
31860,0.868164,-0.250977,0.310059,0
31880,0.878906,-0.229492,0.322266,0
31900,0.869629,-0.243652,0.305176,0
31920,0.875977,-0.222656,0.352539,0
31940,0.89502,-0.213867,0.348633,0
31960,0.86084,-0.225586,0.359863,0
31980,0.851562,-0.21582,0.378906,0
32000,0.859863,-0.236328,0.376953,0
32020,0.856934,-0.254395,0.409668,0
32040,0.887207,-0.274414,0.417969,0
32060,0.862793,-0.26123,0.400879,0
32080,0.82666,-0.287109,0.44043,0
32100,0.83252,-0.290527,0.427734,0
32120,0.817383,-0.275879,0.44043,0
32140,0.816895,-0.302246,0.425781,0
32160,0.833496,-0.307617,0.428711,0
32180,0.823242,-0.333008,0.411621,0
32200,0.808594,-0.361816,0.416016,0
32220,0.805176,-0.369629,0.408691,0
32240,0.793457,-0.379395,0.394531,0
32260,0.76709,-0.393066,0.373047,0
32280,0.758301,-0.41748,0.362305,0
32300,0.760742,-0.413574,0.362305,0
32310,0.73877,-0.433594,0.353516,0
32330,0.736816,-0.480957,0.342773,0
32350,0.73291,-0.489258,0.319824,0
32370,0.708008,-0.523926,0.316895,0
32390,0.710938,-0.536133,0.296387,0
32410,0.697754,-0.547363,0.282715,0
32430,0.65918,-0.556641,0.266113,0
32450,0.658203,-0.564453,0.240723,0
32470,0.672363,-0.583008,0.225586,0
32490,0.664062,-0.580078,0.21875,0
32510,0.643066,-0.580078,0.196289,0
32530,0.65918,-0.611328,0.197754,0
32550,0.694336,-0.600098,0.171387,0
32570,0.694824,-0.60791,0.177246,0
32590,0.697754,-0.634766,0.163086,0
32610,0.737793,-0.629883,0.155273,0
32630,0.72998,-0.616211,0.143066,0
32650,0.717773,-0.606934,0.146973,0
32670,0.738281,-0.590332,0.164062,0
32690,0.735352,-0.581055,0.144531,0
32710,0.726074,-0.556641,0.147461,0
32730,0.733887,-0.532227,0.141113,0
32750,0.747559,-0.509277,0.137695,0
32770,0.786133,-0.538574,0.134766,0
32790,0.794922,-0.500488,0.152344,0
32810,0.776367,-0.468262,0.135742,0
32830,0.791504,-0.470215,0.135254,0
32850,0.813477,-0.463379,0.133301,0
32870,0.813965,-0.425781,0.149414,2001
32890,0.80957,-0.427246,0.127441,0
32910,0.837402,-0.425781,0.135254,0
32930,0.825684,-0.394531,0.149414,0
32950,0.827148,-0.389648,0.141602,0
32970,0.848145,-0.382324,0.146484,0
32990,0.868164,-0.371582,0.140625,0
33010,0.862793,-0.371094,0.130371,0
33030,0.844727,-0.384277,0.147949,0
33050,0.865723,-0.362305,0.152832,0
33070,0.845703,-0.34668,0.14502,0
33090,0.828125,-0.352051,0.133789,0
33110,0.861816,-0.366211,0.14209,0
33130,0.848145,-0.360352,0.153809,0
33150,0.841797,-0.365234,0.156738,0
33170,0.865723,-0.347656,0.145996,0
33190,0.853516,-0.367188,0.17334,0
33210,0.816406,-0.374512,0.143555,0
33230,0.808594,-0.369629,0.139648,0
33250,0.802734,-0.354004,0.133301,0
33270,0.791016,-0.345215,0.117188,0
33290,0.779785,-0.352539,0.119141,0
33310,0.809082,-0.37793,0.135254,0
33330,0.841309,-0.395508,0.148926,0
33350,0.825195,-0.407715,0.158203,0
33370,0.820801,-0.429688,0.134766,0
33390,0.810059,-0.407715,0.150391,0
33410,0.82666,-0.397461,0.161621,0
33430,0.824707,-0.353516,0.158691,0
33450,0.774902,-0.355957,0.160645,0
33470,0.757812,-0.338379,0.190918,0
33490,0.773926,-0.357422,0.174316,0
33510,0.733398,-0.373535,0.16748,0
33530,0.642578,-0.356445,0.165039,0
33550,0.606934,-0.347168,0.176758,0
33570,0.657715,-0.361328,0.154785,0
33590,0.682129,-0.36377,0.188965,0
33610,0.643555,-0.379395,0.173828,0
33630,0.637695,-0.377441,0.206055,0
33650,0.682129,-0.431152,0.224609,0
33670,0.744629,-0.439941,0.260742,0
33690,0.76123,-0.425781,0.294922,0
33710,0.733398,-0.436523,0.347656,0
33730,0.778809,-0.463379,0.409668,0
33750,0.827148,-0.428223,0.467285,0
33770,0.782715,-0.391602,0.46582,0
33790,0.745117,-0.427734,0.467285,0
33810,0.793945,-0.504883,0.519043,0
33830,0.795898,-0.550781,0.53418,0
33850,0.73584,-0.522461,0.544922,0
33870,0.698242,-0.526855,0.588867,0
33890,0.642578,-0.57959,0.606934,0
33910,0.566406,-0.572266,0.598633,0
33930,0.509277,-0.518555,0.611816,0
33950,0.486328,-0.543945,0.614746,0
33970,0.457031,-0.597656,0.596191,0
33990,0.469238,-0.613281,0.597656,0
34010,0.465332,-0.546875,0.619629,0
34030,0.391602,-0.541504,0.639648,0
34050,0.36377,-0.649902,0.618652,0
34070,0.442871,-0.659668,0.640137,0
34090,0.461426,-0.625,0.652832,0
34110,0.390625,-0.612305,0.656738,0
34130,0.382324,-0.645508,0.647461,0
34150,0.47168,-0.594238,0.683594,0
34170,0.470703,-0.572266,0.695801,0
34190,0.397949,-0.580566,0.621582,0
34210,0.413086,-0.566406,0.654297,0
34230,0.451172,-0.561523,0.661133,0
34250,0.466309,-0.549805,0.633301,0
34270,0.472168,-0.574707,0.611328,0
34290,0.512695,-0.643555,0.616211,0
34310,0.572266,-0.572266,0.631836,0
34330,0.546387,-0.529785,0.627441,0
34350,0.520508,-0.587891,0.617676,0
34370,0.505371,-0.595703,0.625,0
34390,0.478027,-0.548828,0.616699,0
34410,0.467773,-0.553223,0.598633,0
34430,0.472656,-0.561523,0.589844,0
34450,0.50293,-0.546875,0.609375,0
34470,0.516113,-0.531738,0.602051,0
34490,0.519043,-0.51123,0.615723,0
34510,0.521973,-0.481934,0.624512,0
34530,0.530762,-0.501953,0.604004,0
34550,0.54248,-0.516113,0.583496,0
34570,0.530762,-0.532227,0.592773,0
34590,0.520508,-0.550293,0.592773,0
34610,0.504395,-0.544434,0.579102,0
34630,0.484375,-0.545898,0.570312,0
34650,0.48584,-0.547363,0.587891,0
34670,0.489258,-0.537109,0.565918,0
34690,0.473633,-0.54541,0.544922,0
34710,0.46582,-0.567383,0.550781,0
34730,0.461426,-0.548828,0.556641,0
34750,0.463867,-0.526855,0.549316,0
34770,0.456055,-0.531738,0.538574,0
34790,0.455566,-0.563477,0.557617,0
34810,0.485352,-0.558105,0.547363,0
34830,0.488281,-0.552734,0.533203,0
34850,0.484863,-0.55957,0.540527,0
34870,0.476074,-0.571777,0.548828,0
34890,0.473633,-0.583984,0.536621,0
34900,0.458008,-0.572266,0.546387,0
34920,0.447266,-0.563965,0.553711,0
34940,0.422852,-0.562012,0.54541,0
34960,0.402832,-0.566406,0.542969,0
34980,0.387695,-0.566895,0.552734,0
35000,0.398438,-0.582031,0.544922,0
35020,0.384766,-0.590332,0.526367,0
35040,0.374023,-0.575684,0.533691,0
35060,0.390137,-0.566406,0.556152,0
35080,0.398926,-0.606445,0.523438,0
35100,0.39502,-0.619629,0.515137,0
35120,0.429688,-0.583008,0.54541,0
35140,0.442871,-0.587891,0.533691,0
35160,0.446289,-0.596191,0.542969,0
35180,0.45752,-0.586426,0.547852,0
35200,0.464355,-0.570312,0.534668,0
35220,0.461426,-0.586914,0.543457,0
35240,0.480957,-0.59375,0.572266,0
35260,0.5,-0.597656,0.541992,0
35280,0.486328,-0.618164,0.522461,0
35300,0.479492,-0.59375,0.563477,0
35320,0.48877,-0.589844,0.564941,0
35340,0.457031,-0.59375,0.541504,0
35360,0.431152,-0.611328,0.541016,0
35380,0.437012,-0.60498,0.565918,0
35400,0.43457,-0.599121,0.522461,0
35420,0.397949,-0.619629,0.526367,0
35440,0.447754,-0.592285,0.588867,0
35460,0.508301,-0.575684,0.558594,0
35480,0.48291,-0.575195,0.52832,0
35500,0.473145,-0.555664,0.55127,0
35520,0.516113,-0.562012,0.575684,0
35540,0.535156,-0.55957,0.53418,0
35560,0.522461,-0.581055,0.538574,0
35580,0.547852,-0.540039,0.579102,0
35600,0.58252,-0.538086,0.574219,0
35620,0.581543,-0.538574,0.543945,0
35640,0.587891,-0.560547,0.557129,0
35660,0.628418,-0.528809,0.597656,0
35680,0.65625,-0.506836,0.595215,0
35700,0.666016,-0.515625,0.535156,0
35720,0.666992,-0.501465,0.562012,0
35740,0.641113,-0.458496,0.554199,0
35760,0.629395,-0.447754,0.570801,0
35780,0.601074,-0.499023,0.567383,0
35800,0.609863,-0.566406,0.57666,0
35820,0.584961,-0.574707,0.546875,0
35840,0.531738,-0.580078,0.54248,0
35860,0.526855,-0.571289,0.561523,0
35880,0.520996,-0.579102,0.561523,0
35900,0.458984,-0.577637,0.5,0
35920,0.426758,-0.59082,0.529785,0
35940,0.463867,-0.594238,0.531738,0
35960,0.436035,-0.590332,0.51416,0
35980,0.378906,-0.583496,0.510742,0
36000,0.395996,-0.625488,0.528809,0
36020,0.425293,-0.641602,0.499023,0
36040,0.422363,-0.64502,0.486816,0
36060,0.385254,-0.626953,0.493652,0
36080,0.395508,-0.648926,0.491211,0
36100,0.419434,-0.641113,0.482422,0
36120,0.416504,-0.625488,0.490234,0
36140,0.431641,-0.636719,0.489746,0
36160,0.445801,-0.619629,0.52002,0
36180,0.479492,-0.622559,0.51123,0
36200,0.470703,-0.609863,0.487793,0
36220,0.421387,-0.628906,0.51709,0
36240,0.45166,-0.62793,0.503906,0
36260,0.459473,-0.612793,0.487793,0
36280,0.40625,-0.616211,0.5,0
36300,0.399902,-0.616211,0.51123,0
36320,0.41748,-0.634766,0.474121,0
36340,0.399414,-0.617188,0.492188,0
36360,0.375977,-0.634277,0.495605,0
36380,0.398438,-0.606445,0.507324,0
36400,0.401367,-0.594727,0.512695,0
36420,0.407227,-0.598145,0.519531,0
36440,0.432129,-0.621094,0.506348,0
36460,0.44873,-0.619629,0.48877,0
36480,0.427734,-0.630859,0.496582,0
36500,0.42334,-0.630859,0.518555,0
36520,0.447754,-0.612305,0.520996,0
36540,0.455078,-0.628906,0.523926,0
36560,0.458496,-0.623535,0.549805,0
36580,0.484863,-0.632812,0.520996,0
36600,0.48291,-0.629883,0.513184,0
36620,0.46875,-0.623047,0.529785,0
36640,0.478027,-0.620117,0.563477,0
36660,0.491699,-0.617676,0.536621,0
36680,0.499023,-0.623047,0.513672,0
36700,0.476074,-0.592773,0.543457,0
36720,0.477539,-0.611328,0.556641,0
36740,0.47998,-0.609863,0.541504,0
36760,0.451172,-0.611328,0.519531,0
36780,0.445312,-0.604492,0.536133,0
36800,0.489258,-0.633301,0.54248,0
36820,0.514648,-0.635254,0.540039,0
36840,0.511719,-0.610352,0.553223,0
36860,0.546387,-0.620605,0.567871,0
36880,0.570312,-0.587891,0.55957,0
36900,0.550293,-0.582031,0.547363,0
36920,0.562988,-0.581543,0.541504,0
36940,0.560059,-0.572266,0.558105,0
36960,0.549316,-0.5625,0.557129,0
36980,0.52832,-0.575684,0.552246,0
37000,0.512695,-0.581543,0.558105,0
37020,0.519531,-0.600098,0.54834,0
37040,0.51416,-0.592773,0.532715,0
37060,0.480957,-0.600098,0.533203,0
37080,0.476074,-0.585938,0.54541,0
37100,0.489746,-0.586914,0.530273,0
37120,0.496582,-0.586426,0.529785,0
37140,0.46875,-0.609863,0.520508,0
37160,0.475586,-0.599121,0.536621,0
37180,0.485352,-0.607422,0.521973,0
37200,0.443848,-0.606934,0.524902,0
37220,0.407227,-0.644043,0.522461,0
37240,0.430664,-0.648438,0.514648,0
37260,0.395996,-0.649414,0.50293,0
37280,0.361816,-0.658691,0.512695,0
37300,0.373047,-0.660156,0.523926,0
37320,0.369629,-0.646973,0.521484,0
37340,0.332031,-0.632324,0.529785,0
37360,0.334473,-0.644043,0.515625,0
37380,0.357422,-0.666992,0.501465,0
37400,0.352539,-0.647461,0.513672,0
37420,0.362305,-0.665039,0.524414,0
37440,0.387695,-0.666016,0.505859,0
37460,0.353027,-0.689941,0.512695,0
37480,0.357422,-0.685547,0.53418,0
37490,0.394531,-0.670898,0.537109,0
37510,0.390137,-0.65332,0.495117,0
37530,0.349609,-0.660645,0.527344,0
37550,0.370117,-0.692871,0.523926,0
37570,0.388672,-0.65332,0.527832,0
37590,0.36084,-0.639648,0.503418,0
37610,0.344727,-0.661133,0.51709,0
37630,0.353027,-0.662109,0.54834,0
37650,0.378418,-0.648926,0.518066,2000
37670,0.348633,-0.671387,0.513184,0
37690,0.337891,-0.65918,0.536133,0
37710,0.358398,-0.657715,0.5625,0
37730,0.383789,-0.636719,0.551758,0
37750,0.373047,-0.670898,0.51709,0
37770,0.358887,-0.689941,0.519531,0
37790,0.361328,-0.688477,0.557617,0
37810,0.37793,-0.663574,0.568359,0
37830,0.385742,-0.675293,0.523926,0
37850,0.351562,-0.69043,0.509277,0
37870,0.310059,-0.668457,0.553223,0
37890,0.358887,-0.691895,0.521484,0
37910,0.348145,-0.634277,0.500488,0
37930,0.327637,-0.623535,0.515625,0
37950,0.362305,-0.666992,0.546387,0
37970,0.378418,-0.664551,0.55957,0
37990,0.378906,-0.645996,0.51123,0
38010,0.325684,-0.658691,0.49707,0
38030,0.317871,-0.643555,0.569336,0
38050,0.353027,-0.666992,0.533203,0
38070,0.323242,-0.648926,0.534668,0
38090,0.295898,-0.633789,0.554199,0
38110,0.350586,-0.644531,0.524414,0
38130,0.363281,-0.638184,0.508301,0
38150,0.32373,-0.644531,0.513184,0
38170,0.316406,-0.651367,0.565918,0
38190,0.383301,-0.671875,0.534668,0
38210,0.393555,-0.678223,0.504883,0
38230,0.352051,-0.660645,0.549316,0
38250,0.366699,-0.665039,0.565918,0
38270,0.394043,-0.675781,0.515625,0
38290,0.364258,-0.665039,0.54248,0
38310,0.370605,-0.661133,0.588867,0
38330,0.443359,-0.667969,0.580078,0
38350,0.402832,-0.649414,0.550781,0
38370,0.326172,-0.67627,0.53418,0
38390,0.325684,-0.692383,0.569824,0
38410,0.362793,-0.689453,0.566406,0
38430,0.362793,-0.657715,0.540527,0
38450,0.317383,-0.677734,0.546387,0
38470,0.331543,-0.660645,0.589355,0
38480,0.385742,-0.679688,0.564941,0
38500,0.362305,-0.6875,0.536133,0
38500,0.324219,-0.671875,0.540527,0
38520,0.326172,-0.693359,0.57373,0
38570,0.371582,-0.69043,0.568848,0
38590,0.365723,-0.658691,0.527344,0
38610,0.312988,-0.666016,0.556152,0
38630,0.342773,-0.646484,0.608887,0
38650,0.394531,-0.664551,0.553711,0
38670,0.336426,-0.669922,0.53418,0
38690,0.31543,-0.647461,0.589355,0
38710,0.371094,-0.657227,0.568359,0
38730,0.365723,-0.656738,0.540039,0
38750,0.331543,-0.65918,0.571289,0
38770,0.368652,-0.638672,0.609375,0
38790,0.399902,-0.632812,0.577637,0
38810,0.36377,-0.65918,0.549316,0
38830,0.337402,-0.67041,0.55957,0
38850,0.358887,-0.639648,0.610352,0
38870,0.39502,-0.644531,0.575684,0
38890,0.380371,-0.67334,0.55127,0
38910,0.359375,-0.684082,0.591309,0
38930,0.392578,-0.63916,0.622559,0
38950,0.407715,-0.631348,0.581543,0
38970,0.37793,-0.64209,0.563477,0
38990,0.350098,-0.638672,0.57373,0
39010,0.380371,-0.652832,0.61084,0
39030,0.40918,-0.65625,0.594238,0
39050,0.376953,-0.640137,0.562012,0
39070,0.367188,-0.632812,0.620117,0
39090,0.410156,-0.636719,0.607422,0
39110,0.43457,-0.618164,0.589355,0
39130,0.398438,-0.659668,0.57373,0
39150,0.44043,-0.655762,0.62207,0
39170,0.466797,-0.620117,0.611328,0
39190,0.47168,-0.640137,0.587891,0
39210,0.462891,-0.635254,0.617676,0
39230,0.465332,-0.602539,0.615234,0
39250,0.460938,-0.618164,0.591309,0
39270,0.431641,-0.625,0.591309,0
39290,0.449219,-0.628418,0.588379,0
39310,0.467285,-0.621582,0.60498,0
39330,0.481445,-0.625,0.583008,0
39350,0.494629,-0.631348,0.587402,0
39370,0.468262,-0.597168,0.610352,0
39390,0.483398,-0.591309,0.57959,0
39410,0.500977,-0.586914,0.562012,0
39430,0.487305,-0.582031,0.588379,0
39450,0.471191,-0.601562,0.587891,0
39470,0.510742,-0.572266,0.57666,0
39490,0.498535,-0.518555,0.560059,0
39510,0.453613,-0.518555,0.569336,0
39530,0.496582,-0.543457,0.550293,0
39550,0.506836,-0.547852,0.569824,0
39570,0.465332,-0.524414,0.548828,0
39590,0.470703,-0.505859,0.538574,0
39610,0.471191,-0.545898,0.506836,0
39630,0.440918,-0.588379,0.498047,0
39650,0.397461,-0.608398,0.469727,0
39670,0.436523,-0.581543,0.474609,0
39690,0.441406,-0.578613,0.458496,0
39710,0.403809,-0.604004,0.446777,0
39730,0.378418,-0.60791,0.443359,0
39750,0.413574,-0.629395,0.41748,0
39770,0.425293,-0.657227,0.424805,0
39790,0.39502,-0.655762,0.426758,0
39810,0.370605,-0.692871,0.367676,0
39830,0.415527,-0.686523,0.386719,0
39850,0.408203,-0.70166,0.390625,0
39870,0.404297,-0.722656,0.377441,0
39890,0.397949,-0.741699,0.370117,0
39910,0.388672,-0.738281,0.361816,0
39930,0.396973,-0.746582,0.355957,0
39950,0.404785,-0.767578,0.336914,0
39970,0.390625,-0.762207,0.32959,0
39990,0.364258,-0.788086,0.333496,0
40010,0.378906,-0.811523,0.313965,0
40030,0.40332,-0.818359,0.296387,0
40050,0.359375,-0.81543,0.277832,0
40070,0.32373,-0.825195,0.269531,0
40080,0.333496,-0.852539,0.254395,0
40100,0.335938,-0.875977,0.244141,0
40120,0.313965,-0.894531,0.205566,0
40140,0.289551,-0.86084,0.194336,0
40160,0.274414,-0.872559,0.21582,0
40180,0.321289,-0.911621,0.195801,0
40200,0.309082,-0.910156,0.181641,0
40220,0.256348,-0.889648,0.187988,0
40240,0.249512,-0.885742,0.193359,0
40260,0.311523,-0.924805,0.191895,0
40280,0.344727,-0.869141,0.211914,0
40300,0.308594,-0.807617,0.229004,0
40320,0.327148,-0.8125,0.243164,0
40340,0.395996,-0.886719,0.196289,0
40360,0.435059,-0.835449,0.221191,0
40380,0.445312,-0.78125,0.266113,0
40400,0.487305,-0.837402,0.268555,0
40420,0.507812,-0.880859,0.239746,0
40440,0.480957,-0.875977,0.249023,0
40460,0.508789,-0.796875,0.293457,0
40480,0.560547,-0.782227,0.28125,0
40500,0.562012,-0.790039,0.259766,0
40520,0.546875,-0.750488,0.27832,0
40540,0.577637,-0.748535,0.286621,0
40560,0.598633,-0.741699,0.257812,0
40580,0.591309,-0.709473,0.264648,0
40600,0.597656,-0.699219,0.299316,0
40620,0.642578,-0.691895,0.275391,0
40640,0.65625,-0.708008,0.253906,0
40660,0.64209,-0.699219,0.272949,0
40680,0.641602,-0.701172,0.287598,0
40700,0.640137,-0.679199,0.284668,0
40720,0.640625,-0.675293,0.269043,0
40740,0.669434,-0.647949,0.29248,0
40760,0.677246,-0.672852,0.309082,0
40780,0.687012,-0.675293,0.283203,0
40800,0.712402,-0.64209,0.294922,0
40820,0.724609,-0.599121,0.310547,0
40840,0.729492,-0.584961,0.326172,0
40860,0.746094,-0.591309,0.304199,0
40880,0.764648,-0.585938,0.279785,0
40900,0.77002,-0.59668,0.32666,0
40920,0.769531,-0.532715,0.331055,0
40940,0.788574,-0.554688,0.331055,0
40960,0.787598,-0.59668,0.314941,0
40980,0.771973,-0.556641,0.331543,0
41000,0.75293,-0.501465,0.381348,0
41020,0.76416,-0.539551,0.367188,0
41040,0.758301,-0.525879,0.351562,0
41060,0.705078,-0.518555,0.345703,0
41080,0.687988,-0.532715,0.347168,0
41100,0.688965,-0.548828,0.330566,0
41120,0.708008,-0.51709,0.345215,0
41140,0.684082,-0.51709,0.340332,0
41160,0.664062,-0.533691,0.322266,0
41180,0.675293,-0.542969,0.3125,0
41200,0.668457,-0.507812,0.29834,0
41220,0.629883,-0.508301,0.290527,0
41240,0.634277,-0.555176,0.251465,0
41260,0.650391,-0.586426,0.226074,0
41280,0.647461,-0.560547,0.253418,0
41300,0.641113,-0.57666,0.248047,0
41320,0.663086,-0.626465,0.227051,0
41340,0.660645,-0.64502,0.219727,0
41360,0.625,-0.651855,0.228516,0
41380,0.616211,-0.67627,0.222656,0
41400,0.632324,-0.674805,0.197266,0
41420,0.593262,-0.706055,0.186035,0
41440,0.572754,-0.709473,0.219238,0
41460,0.594238,-0.760742,0.190918,0
41480,0.60791,-0.727539,0.163086,0
41500,0.539551,-0.763184,0.147461,0
41520,0.537598,-0.774414,0.16748,0
41540,0.552246,-0.773926,0.144531,0
41560,0.530273,-0.76123,0.117188,0
41580,0.517578,-0.800781,0.0805664,0
41600,0.494629,-0.771973,0.0795898,0
41620,0.474609,-0.787598,0.0371094,0
41640,0.460938,-0.835449,0.012207,0
41660,0.454102,-0.810059,-0.019043,0
41680,0.416504,-0.754395,-0.03125,0
41700,0.413574,-0.82959,-0.0629883,0
41720,0.447754,-0.887695,-0.0678711,0
41740,0.474609,-0.84082,-0.0620117,0
41760,0.46875,-0.78418,-0.0415039,0
41780,0.476562,-0.791016,-0.0371094,0
41800,0.502441,-0.822266,-0.0537109,0
41820,0.536133,-0.808594,-0.0224609,0
41840,0.578613,-0.733887,-0.0185547,0
41860,0.55957,-0.708984,-0.0146484,0
41880,0.616211,-0.744629,-0.0327148,0
41900,0.701172,-0.719238,-0.00341797,0
41920,0.716309,-0.710449,-0.00488281,0
41940,0.687012,-0.710449,-0.0332031,0
41960,0.710938,-0.703613,-0.0078125,0
41980,0.767578,-0.670898,0.0356445,0
42000,0.796387,-0.663086,0.0263672,0
42020,0.75293,-0.666992,0.0151367,0
42040,0.780273,-0.65332,0.0385742,0
42060,0.820312,-0.58252,0.0605469,0
42080,0.837402,-0.606934,0.0786133,0
42100,0.836914,-0.595215,0.0581055,0
42120,0.883301,-0.534668,0.0893555,0
42140,0.885254,-0.507324,0.114258,0
42160,0.877441,-0.525391,0.0908203,0
42180,0.90918,-0.536133,0.115723,0
42200,0.940918,-0.472168,0.147949,0
42220,0.975098,-0.466797,0.196289,0
42240,0.935547,-0.446777,0.155762,0
42260,0.931152,-0.44873,0.1875,0
42280,0.943359,-0.418945,0.20752,0
42300,0.929199,-0.388184,0.217773,0
42320,0.897461,-0.399902,0.206055,0
42340,0.89209,-0.457031,0.230469,0
42360,0.876465,-0.398438,0.249023,0
42380,0.825684,-0.346191,0.246582,0
42400,0.859375,-0.401855,0.257324,0
42420,0.868652,-0.487793,0.227539,0
42440,0.770508,-0.404297,0.289062,0
42460,0.79248,-0.412109,0.230957,0
42480,0.850586,-0.418457,0.221191,0
42500,0.774414,-0.441895,0.218262,0
42520,0.705566,-0.467285,0.24707,0
42540,0.76709,-0.492188,0.202148,0
42560,0.76416,-0.481445,0.183105,0
42580,0.722168,-0.536621,0.166504,0
42600,0.697266,-0.569336,0.175781,0
42620,0.716309,-0.604004,0.122559,0
42640,0.722168,-0.561523,0.117676,0
42660,0.654785,-0.594727,0.0908203,0
42670,0.651367,-0.663574,0.105469,0
42690,0.661621,-0.694824,0.0644531,0
42710,0.665039,-0.666016,0.050293,0
42730,0.611816,-0.682617,0.0429688,0
42750,0.582031,-0.724609,0.0439453,0
42770,0.596191,-0.75,-0.00390625,0
42790,0.587402,-0.749023,-0.0151367,0
42810,0.566895,-0.787598,-0.0322266,0
42830,0.587891,-0.830078,-0.0537109,0
42850,0.583496,-0.833984,-0.0546875,0
42870,0.56543,-0.817871,-0.0800781,0
42890,0.579102,-0.79248,-0.0805664,0
42910,0.604492,-0.770996,-0.0874023,0
42930,0.575684,-0.77002,-0.108398,0
42950,0.566895,-0.776367,-0.128418,0
42970,0.591309,-0.776855,-0.144531,0
42990,0.585938,-0.76123,-0.157715,0
43010,0.557129,-0.749512,-0.177734,0
43030,0.588867,-0.810547,-0.192383,0
43050,0.632812,-0.770508,-0.17041,0
43070,0.621094,-0.723633,-0.185059,0
43090,0.620605,-0.731445,-0.167969,0
43110,0.670898,-0.71875,-0.152832,0
43130,0.674316,-0.675293,-0.14209,0
43150,0.702637,-0.629883,-0.152344,0
43170,0.742676,-0.618164,-0.118652,0
43190,0.756348,-0.633789,-0.108398,0
43210,0.765625,-0.600586,-0.113281,0
43230,0.794434,-0.567383,-0.097168,0
43250,0.78418,-0.570801,-0.0795898,0
43270,0.791016,-0.584961,-0.0883789,0
43290,0.808105,-0.552734,-0.0786133,0
43310,0.803711,-0.506836,-0.0869141,0
43330,0.80127,-0.526367,-0.0644531,0
43350,0.814941,-0.54834,-0.0800781,0
43370,0.810059,-0.519043,-0.0683594,0
43390,0.806152,-0.48291,-0.0600586,0
43410,0.81543,-0.512695,-0.0834961,0
43430,0.812012,-0.539551,-0.0776367,0
43450,0.803711,-0.544922,-0.059082,0
43470,0.815918,-0.474609,-0.0878906,0
43490,0.814453,-0.442383,-0.0512695,0
43510,0.811523,-0.523438,-0.0527344,0
43530,0.833496,-0.597656,-0.0527344,0
43550,0.835449,-0.555664,-0.0507812,0
43570,0.85791,-0.52002,-0.0561523,0
43590,0.837402,-0.534668,-0.0512695,0
43610,0.826172,-0.576172,-0.0625,0
43630,0.811523,-0.552734,-0.0771484,0
43650,0.796387,-0.560547,-0.0805664,0
43670,0.777344,-0.574219,-0.074707,0
43690,0.763184,-0.540527,-0.065918,0
43710,0.78418,-0.540527,-0.0722656,0
43730,0.78125,-0.543945,-0.0834961,0
43750,0.760742,-0.545898,-0.0634766,0
43770,0.785156,-0.542969,-0.074707,0
43790,0.800781,-0.557129,-0.0805664,0
43810,0.803711,-0.556641,-0.0932617,0
43830,0.814941,-0.556641,-0.0727539,2001
43850,0.811523,-0.578613,-0.0805664,0
43870,0.809082,-0.594727,-0.0810547,0
43890,0.810059,-0.60498,-0.0966797,0
43910,0.781738,-0.587402,-0.0874023,0
43930,0.776367,-0.563477,-0.0766602,0
43950,0.77002,-0.556152,-0.0932617,0
43970,0.803223,-0.55957,-0.078125,0
43990,0.788086,-0.588379,-0.0732422,0
44010,0.769531,-0.591797,-0.0839844,0
44030,0.79248,-0.568359,-0.0849609,0
44050,0.778809,-0.583496,-0.100098,0
44070,0.754395,-0.631348,-0.0947266,0
44090,0.78125,-0.588379,-0.0908203,0
44110,0.778809,-0.553223,-0.0966797,0
44130,0.768066,-0.552246,-0.09375,0
44150,0.770508,-0.602051,-0.104004,0
44170,0.751953,-0.586426,-0.102539,0
44190,0.74707,-0.556152,-0.11377,0
44210,0.73877,-0.551758,-0.119141,0
44230,0.709473,-0.54834,-0.0966797,0
44250,0.697754,-0.56543,-0.10791,0
44270,0.691406,-0.558594,-0.116211,0
44290,0.702148,-0.538574,-0.0927734,0
44310,0.697754,-0.539062,-0.0878906,0
44330,0.711914,-0.571289,-0.09375,0
44350,0.723145,-0.543457,-0.0717773,0
44370,0.738281,-0.533203,-0.0878906,0
44390,0.75,-0.522949,-0.0722656,0
44410,0.749512,-0.527832,-0.0610352,0
44430,0.733887,-0.522949,-0.0566406,0
44450,0.673828,-0.484863,-0.0307617,0
44470,0.664062,-0.487793,-0.00732422,0
44490,0.683594,-0.495117,0.00927734,0
44510,0.675781,-0.507324,0.0371094,0
44530,0.67627,-0.51123,0.0532227,0
44550,0.701172,-0.503906,0.0498047,0
44570,0.709961,-0.481934,0.0942383,0
44590,0.723633,-0.521973,0.100098,0
44610,0.764648,-0.557129,0.117188,0
44630,0.760254,-0.526367,0.155762,0
44650,0.71875,-0.566406,0.184082,0
44670,0.763672,-0.577637,0.171875,0
44690,0.769043,-0.565918,0.195312,0
44710,0.732422,-0.603027,0.236328,0
44730,0.715332,-0.659668,0.25293,0
44750,0.76416,-0.676758,0.256348,0
44770,0.782227,-0.628906,0.258789,0
44790,0.733887,-0.620605,0.246094,0
44810,0.69043,-0.638672,0.313965,0
44830,0.694336,-0.65625,0.352051,0
44850,0.686035,-0.648438,0.319336,0
44870,0.63623,-0.625,0.316895,0
44890,0.578125,-0.627441,0.375488,0
44910,0.552246,-0.633301,0.417969,0
44930,0.56543,-0.644531,0.417969,0
44950,0.544434,-0.662109,0.416992,0
44970,0.504883,-0.634766,0.460449,0
44990,0.514648,-0.677734,0.507812,0
45010,0.572266,-0.725586,0.462891,0
45030,0.581543,-0.710449,0.474121,0
45050,0.546387,-0.684082,0.480957,0
45070,0.563477,-0.669434,0.550293,0
45090,0.569336,-0.724609,0.529297,0
45110,0.546387,-0.721191,0.494629,0
45130,0.535645,-0.67041,0.526367,0
45150,0.534668,-0.674316,0.537598,0
45170,0.561523,-0.685059,0.561035,0
45190,0.55127,-0.674316,0.5625,0
45210,0.510742,-0.676758,0.561035,0
45230,0.51416,-0.73291,0.566895,0
45250,0.529297,-0.70752,0.571777,0
45260,0.486328,-0.664551,0.549805,0
45280,0.455566,-0.647949,0.581055,0
45300,0.465332,-0.650391,0.592773,0
45320,0.479004,-0.638672,0.594727,0
45340,0.444824,-0.610352,0.560059,0
45360,0.465332,-0.626953,0.566895,0
45380,0.480957,-0.648438,0.571289,0
45400,0.479004,-0.63623,0.566406,0
45420,0.446289,-0.608398,0.564453,0
45440,0.417969,-0.602051,0.581055,0
45460,0.419434,-0.654297,0.548828,0
45480,0.389648,-0.616211,0.535645,0
45500,0.373535,-0.609375,0.537598,0
45520,0.372559,-0.623047,0.543457,0
45540,0.403809,-0.634277,0.534668,0
45560,0.416504,-0.634766,0.505859,0
45580,0.402344,-0.62793,0.525879,0
45600,0.428223,-0.624023,0.553711,0
45620,0.449707,-0.631836,0.523438,0
45640,0.432617,-0.621094,0.51123,0
45660,0.438965,-0.626953,0.521484,0
45680,0.435547,-0.637207,0.51416,0
45700,0.474609,-0.652344,0.5,0
45720,0.480469,-0.64209,0.492676,0
45740,0.473145,-0.654785,0.476562,0
45760,0.457031,-0.648926,0.500488,0
45780,0.465332,-0.650879,0.519531,0
45800,0.446777,-0.637207,0.498535,0
45820,0.426758,-0.641113,0.505859,0
45840,0.425781,-0.645508,0.539551,0
45860,0.403809,-0.640137,0.518066,0
45880,0.394043,-0.654785,0.489258,0
45900,0.387695,-0.634766,0.48584,0
45920,0.393555,-0.61084,0.469238,0
45940,0.394043,-0.634766,0.46875,0
45960,0.394531,-0.656738,0.481445,0
45980,0.422363,-0.664062,0.50293,0
46000,0.432129,-0.662109,0.510742,0
46020,0.414551,-0.678223,0.517578,0
46040,0.426758,-0.687012,0.534668,0
46060,0.441406,-0.695801,0.53125,0
46080,0.425781,-0.705078,0.510254,0
46100,0.427734,-0.693848,0.512695,0
46120,0.432129,-0.67041,0.49707,0
46140,0.416016,-0.667969,0.47998,0
46160,0.425781,-0.680664,0.46875,0
46180,0.413574,-0.655762,0.487305,0
46200,0.413086,-0.647461,0.480957,0
46220,0.426758,-0.644531,0.494141,0
46240,0.419434,-0.657715,0.504395,0
46260,0.391113,-0.662598,0.535645,0
46280,0.401855,-0.679199,0.51709,0
46300,0.392578,-0.6875,0.489746,0
46320,0.371094,-0.672852,0.476562,0
46340,0.372559,-0.667969,0.47998,0
46360,0.400879,-0.635742,0.512695,0
46380,0.430664,-0.657715,0.470703,0
46400,0.438965,-0.660645,0.456543,0
46420,0.445801,-0.648926,0.485352,0
46440,0.489746,-0.645508,0.487793,0
46460,0.478516,-0.654297,0.478027,0
46480,0.439941,-0.670898,0.48291,0
46500,0.435547,-0.707031,0.486328,0
46520,0.440918,-0.702148,0.495605,0
46540,0.422363,-0.692871,0.476074,0
46560,0.397461,-0.681152,0.509277,0
46580,0.426758,-0.709473,0.501465,0
46600,0.44873,-0.702148,0.481445,0
46620,0.434082,-0.667969,0.478516,0
46640,0.432129,-0.679199,0.499023,0
46660,0.445801,-0.712891,0.470215,0
46680,0.432617,-0.694336,0.47168,0
46700,0.419434,-0.685059,0.469238,0
46720,0.431641,-0.696289,0.47998,0
46740,0.443848,-0.702637,0.466309,0
46760,0.443848,-0.698242,0.466309,0
46780,0.432617,-0.675781,0.470215,0
46800,0.433594,-0.676758,0.466309,0
46820,0.414062,-0.703613,0.477051,0
46840,0.424805,-0.689453,0.479004,0
46860,0.437988,-0.687012,0.474609,0
46880,0.407715,-0.696777,0.473145,0
46900,0.40625,-0.705566,0.506836,0
46920,0.427246,-0.691895,0.487305,2000
46940,0.406738,-0.669922,0.489258,0
46960,0.400391,-0.693359,0.488281,0
46980,0.403809,-0.69873,0.478516,0
47000,0.35791,-0.671875,0.485352,0
47020,0.336426,-0.689941,0.484375,0
47040,0.336914,-0.701172,0.464355,0
47060,0.323242,-0.724121,0.481445,0
47080,0.333008,-0.741211,0.465332,0
47100,0.334961,-0.739258,0.461426,0
47120,0.341309,-0.729492,0.470703,0
47140,0.349609,-0.715332,0.449707,0
47160,0.367188,-0.702637,0.446289,0
47180,0.364258,-0.683105,0.439453,0
47200,0.372559,-0.699219,0.445801,0
47220,0.387207,-0.715332,0.462402,0
47240,0.418945,-0.728516,0.454102,0
47260,0.414062,-0.732422,0.436035,0
47280,0.399902,-0.73877,0.455078,0
47300,0.405762,-0.744629,0.447754,0
47320,0.394531,-0.733398,0.423828,0
47340,0.384766,-0.744629,0.428711,0
47360,0.382812,-0.744141,0.447754,0
47380,0.408203,-0.715332,0.45752,0
47400,0.413574,-0.697754,0.412598,0
47420,0.376465,-0.716797,0.402344,0
47440,0.34668,-0.758301,0.399414,0
47460,0.356934,-0.779297,0.444824,0
47480,0.36084,-0.777832,0.429688,0
47500,0.352051,-0.755371,0.408691,0
47520,0.384277,-0.711426,0.445801,0
47540,0.478027,-0.702637,0.441406,0
47560,0.51709,-0.693848,0.395996,0
47580,0.459961,-0.692383,0.369141,0
47600,0.444336,-0.703125,0.416504,0
47620,0.45459,-0.738281,0.421387,0
47640,0.417969,-0.75,0.38916,0
47660,0.412109,-0.749512,0.419434,0
47680,0.419434,-0.758301,0.421387,0
47700,0.439453,-0.774902,0.454102,0
47720,0.452637,-0.760742,0.447754,0
47740,0.456055,-0.778809,0.402832,0
47760,0.409668,-0.771973,0.391113,0
47780,0.422363,-0.739746,0.431641,0
47800,0.441895,-0.751465,0.421875,0
47820,0.393555,-0.776855,0.358398,0
47840,0.403809,-0.761719,0.383789,0
47850,0.436523,-0.730957,0.40918,0
47870,0.45752,-0.743164,0.402832,0
47890,0.45752,-0.745117,0.365234,0
47910,0.407227,-0.738281,0.378906,0
47930,0.458496,-0.719238,0.416504,0
47950,0.45459,-0.744141,0.369629,0
47970,0.419434,-0.740234,0.356934,0
47990,0.419922,-0.743652,0.383301,0
48010,0.446777,-0.737793,0.379883,0
48030,0.470703,-0.720703,0.418457,0
48050,0.492676,-0.72168,0.381348,0
48070,0.504395,-0.708008,0.361328,0
48090,0.53418,-0.702637,0.374023,0
48110,0.569336,-0.709473,0.391602,0
48130,0.570801,-0.710938,0.378418,0
48150,0.54248,-0.707031,0.36377,0
48170,0.567383,-0.700195,0.390625,0
48190,0.606934,-0.6875,0.394043,0
48210,0.568848,-0.684082,0.404785,0
48230,0.571777,-0.725586,0.398438,0
48250,0.587891,-0.726074,0.423828,0
48270,0.623047,-0.728027,0.416504,0
48290,0.615234,-0.742676,0.398438,0
48310,0.565918,-0.691406,0.419922,0
48330,0.615234,-0.644531,0.414062,0
48350,0.671875,-0.649414,0.45752,0
48370,0.630371,-0.638184,0.40332,0
48390,0.563477,-0.644043,0.425293,0
48410,0.571289,-0.681641,0.420898,0
48430,0.586426,-0.709473,0.44043,0
48450,0.578613,-0.690918,0.412598,0
48470,0.52832,-0.663086,0.447266,0
48490,0.508301,-0.653809,0.428223,0
48510,0.514648,-0.682617,0.411133,0
48530,0.498047,-0.706055,0.412598,0
48550,0.458008,-0.690918,0.468262,0
48570,0.476562,-0.712402,0.396484,0
48590,0.487793,-0.727539,0.396484,0
48610,0.458984,-0.722168,0.385742,0
48630,0.434082,-0.726562,0.397949,0
48650,0.45752,-0.720215,0.362793,0
48670,0.461914,-0.700684,0.37207,0
48690,0.436035,-0.684082,0.396973,0
48710,0.435059,-0.70752,0.383301,0
48730,0.450684,-0.733887,0.359375,0
48750,0.416016,-0.746094,0.361816,0
48770,0.408203,-0.75293,0.370605,0
48790,0.423828,-0.747559,0.331055,0
48810,0.395996,-0.75293,0.307617,0
48830,0.380859,-0.769043,0.338867,0
48850,0.412598,-0.76123,0.342285,0
48870,0.422363,-0.750488,0.294434,0
48890,0.36377,-0.737305,0.269043,0
48910,0.361328,-0.80127,0.305664,0
48930,0.40625,-0.822754,0.299316,0
48950,0.383789,-0.789062,0.262695,0
48970,0.342285,-0.809082,0.266113,0
48990,0.354004,-0.833496,0.298828,0
49010,0.378906,-0.8125,0.27002,0
49030,0.362793,-0.805664,0.245117,0
49050,0.307129,-0.829102,0.22998,0
49070,0.290527,-0.868652,0.239258,0
49090,0.294922,-0.847656,0.238281,0
49110,0.292969,-0.862305,0.21582,0
49130,0.284668,-0.87793,0.23291,0
49150,0.299805,-0.862305,0.241699,0
49170,0.317383,-0.908203,0.211426,0
49190,0.315918,-0.905762,0.192383,0
49210,0.287109,-0.89502,0.205566,0
49230,0.29248,-0.883301,0.191895,0
49250,0.293945,-0.893066,0.17334,0
49270,0.290527,-0.908691,0.151367,0
49290,0.251953,-0.915039,0.129883,0
49310,0.241699,-0.92041,0.13623,0
49330,0.267578,-0.949707,0.129883,0
49350,0.296875,-0.935547,0.157227,0
49370,0.310059,-0.884277,0.182129,0
49390,0.336914,-0.884766,0.147461,0
49410,0.356934,-0.881836,0.146484,0
49430,0.36084,-0.891602,0.136719,0
49450,0.364258,-0.88623,0.168945,0
49470,0.395508,-0.852539,0.168945,0
49490,0.412598,-0.834473,0.122559,0
49510,0.378906,-0.84375,0.135254,0
49530,0.367676,-0.845215,0.125488,0
49550,0.442871,-0.873047,0.138672,0
49570,0.483398,-0.83252,0.120605,0
49590,0.483887,-0.812988,0.101562,0
49610,0.48291,-0.825195,0.134277,0
49630,0.503906,-0.810547,0.11084,0
49650,0.541016,-0.793945,0.0751953,0
49670,0.566406,-0.786133,0.0908203,0
49690,0.549316,-0.769531,0.129395,0
49710,0.609863,-0.72998,0.114746,0
49730,0.619141,-0.727051,0.0722656,0
49750,0.615234,-0.713867,0.0615234,0
49770,0.606934,-0.701172,0.0820312,0
49790,0.671387,-0.741211,0.0703125,0
49810,0.68457,-0.742188,0.0439453,0
49830,0.662109,-0.724609,0.0571289,0
49850,0.664062,-0.725586,0.0688477,0
49870,0.731934,-0.73584,0.074707,0
49890,0.76416,-0.708984,0.0761719,0
49910,0.750488,-0.71582,0.0712891,0
49930,0.750977,-0.683594,0.0634766,0
49950,0.803223,-0.687012,0.0673828,0
49970,0.817383,-0.655273,0.103516,0
49990,0.808105,-0.645996,0.0908203,0
50010,0.80957,-0.637207,0.0722656,0
50030,0.850098,-0.643066,0.0883789,0
50050,0.899414,-0.60791,0.15332,0
50070,0.81543,-0.571289,0.108887,0
50090,0.847656,-0.57373,0.119141,0
50110,0.902832,-0.572754,0.140625,0
50130,0.855469,-0.600586,0.179688,0
50150,0.802246,-0.568848,0.143555,0
50170,0.790527,-0.578125,0.148438,0
50190,0.814453,-0.573242,0.199707,0
50210,0.804688,-0.581543,0.167969,0
50230,0.737793,-0.56543,0.226562,0
50250,0.73584,-0.546387,0.204102,0
50270,0.777832,-0.536133,0.209961,0
50290,0.796387,-0.564941,0.223145,0
50310,0.712891,-0.570801,0.174805,0
50330,0.665527,-0.555176,0.199219,0
50350,0.728516,-0.550781,0.205566,0
50370,0.740234,-0.569824,0.167969,0
50390,0.669922,-0.633789,0.151367,0
50410,0.649902,-0.636719,0.186035,0
50430,0.682129,-0.624023,0.171387,0
50440,0.686035,-0.680664,0.142578,0
50460,0.634277,-0.677246,0.118652,0
50480,0.600098,-0.709961,0.138672,0
50500,0.602051,-0.729492,0.15625,0
50520,0.583008,-0.723633,0.118652,0
50540,0.548828,-0.741699,0.118164,0
50560,0.530273,-0.748535,0.102539,0
50580,0.537598,-0.797363,0.106934,0
50600,0.523926,-0.831055,0.0898438,0
50620,0.495117,-0.814941,0.0766602,0
50640,0.478027,-0.834961,0.0522461,0
50660,0.493652,-0.847656,0.0546875,0
50680,0.437988,-0.859863,0.0317383,0
50700,0.395508,-0.842285,0.0239258,0
50720,0.398926,-0.850098,-0.00927734,0
50740,0.370117,-0.855469,-0.027832,0
50760,0.303223,-0.881348,-0.0410156,0
50780,0.307129,-0.883789,-0.0419922,0
50800,0.337402,-0.897461,-0.0527344,0
50820,0.366211,-0.912109,-0.0678711,0
50840,0.387695,-0.919434,-0.074707,0
50860,0.393066,-0.90332,-0.0786133,0
50880,0.391113,-0.876465,-0.0820312,0
50900,0.408691,-0.867676,-0.102539,0
50920,0.424805,-0.882324,-0.103027,0
50940,0.437012,-0.855957,-0.105957,0
50960,0.465332,-0.835938,-0.10791,0
50980,0.473145,-0.83252,-0.110352,0
51000,0.526855,-0.797852,-0.101562,0
51020,0.564941,-0.770508,-0.0786133,0
51040,0.572266,-0.745605,-0.105957,0
51060,0.595215,-0.768066,-0.10498,0
51080,0.638672,-0.733398,-0.0986328,0
51100,0.650391,-0.748047,-0.104004,0
51120,0.646973,-0.69873,-0.09375,0
51140,0.656738,-0.672852,-0.112793,0
51160,0.717285,-0.658203,-0.114746,0
51180,0.736816,-0.691895,-0.119141,0
51200,0.715332,-0.633789,-0.138184,0
51220,0.73291,-0.626465,-0.13916,0
51240,0.775879,-0.630859,-0.140625,0
51260,0.776367,-0.592773,-0.137695,0
51280,0.746094,-0.585449,-0.138672,0
51300,0.772949,-0.584473,-0.137695,0
51320,0.804688,-0.55127,-0.126953,0
51340,0.782715,-0.520508,-0.133301,0
51360,0.823242,-0.534668,-0.110352,0
51380,0.840332,-0.505859,-0.11084,0
51400,0.850586,-0.50293,-0.0957031,0
51420,0.872559,-0.503418,-0.0888672,0
51440,0.876953,-0.490234,-0.0761719,0
51460,0.874512,-0.472656,-0.0766602,0
51480,0.894531,-0.45459,-0.0551758,0
51500,0.936523,-0.422852,-0.0131836,0
51520,0.934082,-0.404297,-0.00732422,0
51540,0.859863,-0.366699,-0.019043,0
51560,0.904785,-0.387207,0.0117188,0
51580,0.98584,-0.390137,0.0688477,0
51600,0.902832,-0.373047,0.0517578,0
51620,0.897949,-0.393066,0.0878906,0
51640,0.956055,-0.39209,0.120605,0
51660,0.955078,-0.383789,0.146484,0
51680,0.950684,-0.413086,0.147949,0
51700,0.936035,-0.46582,0.173828,0
51720,0.920898,-0.42334,0.212402,0
51740,0.924316,-0.414062,0.214355,0
51760,0.900391,-0.438477,0.211426,0
51780,0.888672,-0.486328,0.226562,0
51800,0.882812,-0.509277,0.220703,0
51820,0.889648,-0.489258,0.229004,0
51840,0.837402,-0.473633,0.185547,0
51860,0.81543,-0.530762,0.209473,0
51880,0.82666,-0.546875,0.205078,0
51900,0.794434,-0.529785,0.21582,0
51920,0.75293,-0.553223,0.195312,0
51940,0.745117,-0.59082,0.188965,0
51960,0.73584,-0.600098,0.174805,0
51980,0.702148,-0.630371,0.166504,0
52000,0.65332,-0.648926,0.146484,0
52020,0.652344,-0.668457,0.130859,0
52040,0.64209,-0.678711,0.131348,0
52060,0.597168,-0.706055,0.0874023,0
52080,0.595703,-0.746582,0.0830078,0
52100,0.60498,-0.730469,0.0668945,0
52120,0.583984,-0.73584,0.0454102,0
52140,0.600098,-0.763184,0.046875,0
52160,0.590332,-0.780762,0.0146484,0
52180,0.567871,-0.755371,0.0131836,0
52200,0.568848,-0.753418,-0.0205078,0
52220,0.556641,-0.765625,-0.0429688,0
52240,0.550293,-0.774414,-0.0444336,0
52260,0.546875,-0.772461,-0.0566406,0
52280,0.558105,-0.75,-0.0913086,0
52300,0.561035,-0.742188,-0.0952148,0
52320,0.57373,-0.751953,-0.115234,0
52340,0.591797,-0.768555,-0.127441,0
52360,0.60498,-0.772461,-0.139648,0
52380,0.632812,-0.780273,-0.138184,0
52400,0.641602,-0.72168,-0.154785,0
52420,0.636719,-0.70459,-0.168457,0
52440,0.679199,-0.714355,-0.145508,0
52460,0.677734,-0.662109,-0.154785,0
52480,0.660645,-0.621582,-0.14502,0
52500,0.654297,-0.633301,-0.171875,0
52520,0.70459,-0.602051,-0.146484,0
52540,0.709961,-0.59082,-0.16748,0
52560,0.708496,-0.602539,-0.177246,0
52580,0.737793,-0.615723,-0.178223,0
52600,0.788574,-0.578613,-0.17334,0
52620,0.759766,-0.572754,-0.185059,0
52640,0.764648,-0.580566,-0.187012,0
52660,0.80127,-0.558594,-0.169434,0
52680,0.794434,-0.515625,-0.183105,0
52700,0.794922,-0.532715,-0.20752,0
52720,0.835938,-0.534668,-0.192383,0
52740,0.825684,-0.519043,-0.185059,0
52760,0.82666,-0.541016,-0.210449,0
52780,0.829102,-0.541016,-0.213867,0
52800,0.831543,-0.549316,-0.200684,0
52820,0.814453,-0.545898,-0.220703,0
52840,0.819336,-0.508301,-0.216309,0
52860,0.824219,-0.506348,-0.206543,0
52880,0.816895,-0.528809,-0.199219,0
52900,0.801758,-0.499023,-0.205078,0
52920,0.824219,-0.500488,-0.218262,0
52940,0.839355,-0.539062,-0.230469,0
52960,0.835449,-0.529297,-0.18457,0
52980,0.814941,-0.496582,-0.186523,0
53000,0.833984,-0.501953,-0.206543,0
53020,0.844238,-0.526855,-0.214355,0
53030,0.801758,-0.53418,-0.191895,0
53050,0.807129,-0.508301,-0.190918,0
53070,0.821289,-0.510254,-0.188965,0
53090,0.820801,-0.510742,-0.175293,0
53110,0.807617,-0.526855,-0.193848,0
53130,0.79541,-0.522949,-0.208984,0
53150,0.774414,-0.518555,-0.186035,0
53170,0.789062,-0.464355,-0.20459,0
53190,0.817871,-0.462891,-0.220215,0
53210,0.82373,-0.496582,-0.245605,0
53230,0.825684,-0.547363,-0.238281,0
53250,0.827637,-0.49707,-0.219727,0
53270,0.849609,-0.48877,-0.237793,0
53290,0.865234,-0.500977,-0.231445,0
53310,0.853027,-0.537109,-0.204102,0
53330,0.819824,-0.541992,-0.17627,0
53350,0.823242,-0.53418,-0.15332,0
53370,0.806641,-0.510742,-0.146973,0
53390,0.772949,-0.49707,-0.121582,0
53410,0.78418,-0.513672,-0.126953,0
53430,0.791504,-0.537109,-0.100586,0
53450,0.799805,-0.530273,-0.110352,0
53470,0.807129,-0.537598,-0.108398,0
53490,0.804199,-0.563477,-0.120605,0
53510,0.821289,-0.563477,-0.133301,0
53530,0.816406,-0.552734,-0.134766,0
53550,0.776855,-0.549316,-0.154785,0
53570,0.769531,-0.55127,-0.164551,0
53590,0.797363,-0.542969,-0.172852,0
53610,0.758789,-0.544922,-0.175293,0
53630,0.773926,-0.538086,-0.174316,0
53650,0.754883,-0.522461,-0.204102,2001
53670,0.804199,-0.526855,-0.206543,0
53690,0.799316,-0.526367,-0.218262,0
53710,0.807617,-0.543945,-0.231445,0
53730,0.859863,-0.550293,-0.233887,0
53750,0.847656,-0.525879,-0.249512,0
53770,0.858398,-0.522461,-0.259277,0
53790,0.86084,-0.539062,-0.253418,0
53810,0.832031,-0.518555,-0.254395,0
53830,0.842773,-0.512207,-0.276367,0
53850,0.831055,-0.503418,-0.281738,0
53870,0.835449,-0.513184,-0.283691,0
53890,0.847168,-0.521973,-0.285156,0
53910,0.827637,-0.498047,-0.269531,0
53930,0.802734,-0.480469,-0.277344,0
53950,0.793945,-0.495605,-0.294434,0
53970,0.791016,-0.504883,-0.287598,0
53990,0.766602,-0.504395,-0.262695,0
54010,0.753906,-0.523438,-0.247559,0
54030,0.712891,-0.500977,-0.256836,0
54050,0.687012,-0.498047,-0.289062,0
54070,0.701172,-0.495117,-0.266602,0
54090,0.719238,-0.484375,-0.240234,0
54110,0.739258,-0.516602,-0.244629,0
54130,0.731445,-0.52832,-0.277344,0
54150,0.796387,-0.537598,-0.271484,0
54170,0.82666,-0.489746,-0.248047,0
54190,0.840332,-0.478027,-0.255859,0
54210,0.814453,-0.489746,-0.245605,0
54230,0.819336,-0.492676,-0.213867,0
54250,0.790039,-0.477051,-0.180176,0
54270,0.757324,-0.489258,-0.19873,0
54290,0.774414,-0.503418,-0.155762,0
54310,0.856445,-0.543457,-0.13916,0
54330,0.832031,-0.535156,-0.108887,0
54350,0.797363,-0.521484,-0.0620117,0
54370,0.844238,-0.574707,-0.0322266,0
54390,0.786133,-0.59082,-0.0546875,0
54410,0.790039,-0.551758,-0.0493164,0
54430,0.789551,-0.526367,-0.0214844,0
54450,0.761719,-0.519531,-0.00927734,0
54470,0.787109,-0.503418,0.0219727,0
54490,0.818359,-0.507812,0.046875,0
54510,0.789062,-0.478516,0.0708008,0
54530,0.78125,-0.491699,0.0400391,0
54550,0.82959,-0.51709,0.0410156,0
54570,0.853027,-0.530762,0.043457,0
54590,0.833984,-0.547852,0.0644531,0
54610,0.851562,-0.557129,0.0776367,0
54630,0.865723,-0.57666,0.0874023,0
54650,0.864258,-0.57959,0.0766602,0
54670,0.831055,-0.566406,0.0703125,0
54690,0.799316,-0.571289,0.0864258,0
54710,0.814941,-0.572266,0.0888672,0
54730,0.854004,-0.589355,0.0649414,0
54750,0.853516,-0.563965,0.0566406,0
54770,0.847168,-0.539062,0.0302734,0
54790,0.818848,-0.563477,0.0112305,0
54810,0.849121,-0.553711,0.0366211,0
54830,0.857422,-0.522461,0.015625,0
54850,0.81543,-0.484863,0.0117188,0
54870,0.84082,-0.524414,0.00341797,0
54890,0.805176,-0.540527,0.0180664,0
54910,0.79834,-0.527832,-0.00585938,0
54930,0.800781,-0.507324,-0.0175781,0
54950,0.814941,-0.510742,-0.0253906,0
54970,0.84668,-0.517578,-0.00878906,0
55020,0.778809,-0.476074,0.0581055,0
55040,0.769531,-0.524902,0.0463867,0
55060,0.776855,-0.552246,0.0654297,0
55080,0.773438,-0.541016,0.0878906,0
55100,0.794922,-0.550781,0.0878906,0
55120,0.779785,-0.556641,0.100098,0
55140,0.784668,-0.558105,0.121582,0
55160,0.783691,-0.537598,0.160156,0
55180,0.769531,-0.515625,0.152832,0
55200,0.763672,-0.519043,0.122559,0
55220,0.813965,-0.504395,0.128906,0
55240,0.763672,-0.482422,0.148438,0
55260,0.773438,-0.515137,0.143555,0
55280,0.806152,-0.52002,0.129883,0
55300,0.834473,-0.49707,0.120117,0
55320,0.805176,-0.498535,0.124023,0
55340,0.839355,-0.510742,0.125488,0
55360,0.851562,-0.488281,0.145508,0
55380,0.812988,-0.504883,0.119141,0
55400,0.844727,-0.490234,0.116699,0
55420,0.845703,-0.46582,0.115234,0
55440,0.844727,-0.466309,0.10498,0
55460,0.847168,-0.493164,0.109375,0
55480,0.87207,-0.491211,0.119141,0
55500,0.849121,-0.479492,0.118164,0
55520,0.818359,-0.468262,0.12793,0
55540,0.842773,-0.479004,0.125,0
55560,0.858887,-0.491699,0.137207,0
55580,0.86084,-0.479004,0.157715,0
55600,0.810547,-0.482422,0.161621,0
55610,0.785645,-0.492188,0.149902,0
55630,0.830566,-0.470215,0.161133,0
55650,0.844238,-0.452637,0.164062,0
55670,0.821289,-0.444336,0.168457,0
55690,0.827637,-0.449707,0.174316,0
55710,0.838867,-0.429199,0.186035,0
55730,0.799805,-0.411621,0.195801,0
55750,0.773438,-0.433594,0.192871,0
55770,0.773438,-0.446777,0.188477,0
55790,0.765625,-0.467773,0.199707,0
55810,0.791504,-0.479004,0.222168,0
55830,0.760742,-0.464355,0.237793,0
55850,0.766113,-0.492676,0.210449,0
55870,0.773438,-0.504883,0.200684,0
55890,0.801758,-0.483398,0.1875,0
55910,0.790039,-0.489746,0.160156,0
55930,0.808105,-0.489258,0.158691,0
55950,0.8125,-0.446777,0.179199,0
55970,0.820801,-0.486816,0.159668,0
55990,0.814941,-0.490234,0.149414,0
56010,0.825684,-0.464844,0.129883,0
56030,0.812988,-0.471191,0.129883,0
56050,0.834473,-0.48291,0.139648,0
56070,0.869629,-0.483887,0.139648,0
56090,0.876465,-0.458984,0.132812,0
56110,0.86084,-0.500488,0.134277,0
56130,0.833008,-0.484863,0.146484,0
56150,0.819336,-0.463379,0.164062,0
56170,0.787598,-0.478516,0.15625,0
56190,0.772949,-0.511719,0.168457,0
56210,0.72998,-0.508789,0.182129,0
56230,0.742676,-0.502441,0.203613,0
56250,0.794922,-0.472656,0.210449,0
56270,0.790039,-0.458984,0.199219,0
56290,0.797852,-0.484375,0.186035,0
56310,0.805176,-0.476074,0.174805,0
56330,0.850586,-0.476074,0.161621,0
56350,0.842285,-0.461914,0.161133,0
56370,0.831055,-0.470703,0.171875,0
56390,0.83252,-0.463867,0.180664,0
56410,0.820312,-0.48291,0.192871,0
56430,0.825684,-0.51709,0.185547,0
56450,0.82373,-0.532227,0.177246,0
56470,0.832031,-0.545898,0.200195,0
56490,0.811035,-0.543945,0.213867,0
56510,0.791016,-0.524414,0.222656,0
56530,0.780762,-0.509766,0.223145,0
56550,0.772461,-0.501465,0.217285,0
56570,0.756348,-0.498535,0.209961,0
56590,0.746582,-0.496094,0.193359,0
56610,0.735352,-0.486816,0.192383,0
56630,0.731934,-0.471191,0.188965,0
56650,0.750488,-0.470703,0.192871,0
56670,0.747559,-0.490723,0.193848,0
56690,0.775391,-0.474121,0.206055,0
56710,0.77832,-0.486816,0.205566,0
56730,0.777832,-0.508789,0.180176,0
56750,0.78418,-0.520508,0.174316,0
56770,0.778809,-0.525879,0.168457,0
56790,0.763184,-0.503906,0.178223,0
56810,0.756348,-0.50293,0.212402,0
56830,0.756836,-0.519531,0.214844,0
56850,0.765625,-0.540527,0.208496,0
56870,0.807617,-0.557129,0.212402,0
56890,0.841797,-0.537598,0.240723,0
56910,0.824219,-0.532227,0.247559,0
56930,0.782227,-0.533691,0.237793,0
56950,0.752441,-0.535645,0.216797,0
56970,0.774902,-0.517578,0.222656,0
56990,0.777832,-0.489258,0.260742,0
57010,0.766602,-0.485352,0.270996,0
57030,0.754883,-0.47998,0.279297,0
57050,0.752441,-0.490234,0.257324,0
57070,0.743652,-0.491699,0.25,0
57090,0.76123,-0.491211,0.26416,0
57110,0.751953,-0.486328,0.276367,0
57130,0.75293,-0.491699,0.30127,0
57150,0.734375,-0.489258,0.306152,0
57170,0.720703,-0.492676,0.328613,0
57190,0.708008,-0.495117,0.348145,0
57210,0.721191,-0.47998,0.366211,0
57230,0.705078,-0.467285,0.381836,0
57250,0.691895,-0.462402,0.39502,0
57270,0.686035,-0.474121,0.373535,0
57290,0.705078,-0.461426,0.384766,0
57310,0.70459,-0.466309,0.386719,0
57340,0.694824,-0.463379,0.446777,0
57350,0.669922,-0.461914,0.444336,0
57370,0.672363,-0.450195,0.461426,0
57390,0.667969,-0.45166,0.475098,0
57410,0.664062,-0.447266,0.482422,0
57430,0.66748,-0.447266,0.496094,0
57450,0.655762,-0.457031,0.482422,0
57470,0.640137,-0.459473,0.48877,0
57490,0.650391,-0.466797,0.50293,0
57510,0.641113,-0.476562,0.512207,0
57530,0.641602,-0.48877,0.481934,0
57550,0.646484,-0.461426,0.487305,0
57570,0.666992,-0.442383,0.527344,0
57590,0.640137,-0.40918,0.556152,0
57610,0.588379,-0.408203,0.536133,0
57630,0.582031,-0.409668,0.507812,0
57650,0.624023,-0.413086,0.530762,0
57670,0.623535,-0.436523,0.538086,0
57690,0.580078,-0.443848,0.511719,0
57710,0.59082,-0.439453,0.535645,0
57730,0.604492,-0.431152,0.568848,0
57750,0.58252,-0.434082,0.540039,0
57770,0.579102,-0.413086,0.533691,0
57790,0.607422,-0.407227,0.609375,0
57810,0.585938,-0.415527,0.644531,0
57830,0.521484,-0.449707,0.631836,0
57850,0.51416,-0.458984,0.611816,0
57870,0.557129,-0.459473,0.648926,0
57890,0.555664,-0.480957,0.625977,0
57910,0.547852,-0.48877,0.613281,0
57930,0.568848,-0.46875,0.601562,0
57950,0.581055,-0.458984,0.581543,0
57970,0.598633,-0.444824,0.560547,0
57990,0.596191,-0.419922,0.558594,0
58010,0.570801,-0.418945,0.540527,0
58030,0.555664,-0.405762,0.513184,0
58040,0.598633,-0.390137,0.519531,0
58060,0.624023,-0.387695,0.549805,0
58080,0.619141,-0.422363,0.54834,0
58100,0.592773,-0.413086,0.533691,0
58120,0.602539,-0.422363,0.53418,0
58140,0.624023,-0.43457,0.533203,0
58160,0.591309,-0.436035,0.512207,0
58180,0.570312,-0.444336,0.521973,0
58200,0.566895,-0.452637,0.552734,0
58220,0.583008,-0.445312,0.554199,0
58240,0.591309,-0.435059,0.552246,0
58260,0.574219,-0.431152,0.552734,0
58280,0.583496,-0.455078,0.537598,0
58300,0.571289,-0.446289,0.516602,0
58320,0.58252,-0.438965,0.508301,0
58340,0.600586,-0.443848,0.535156,0
58360,0.61377,-0.446289,0.535645,0
58380,0.618164,-0.439941,0.511719,0
58400,0.649902,-0.441895,0.531738,0
58420,0.657715,-0.446777,0.565918,0
58440,0.63623,-0.441895,0.566895,0
58460,0.623047,-0.437988,0.529297,0
58480,0.608887,-0.419922,0.500488,0
58500,0.621094,-0.416016,0.490234,0
58520,0.645996,-0.419434,0.499023,0
58540,0.647461,-0.422852,0.52832,0
58560,0.64502,-0.413086,0.555176,0
58580,0.621094,-0.413086,0.575195,0
58600,0.615234,-0.398438,0.580566,0
58620,0.634277,-0.401855,0.574219,0
58640,0.620117,-0.40918,0.568359,0
58660,0.553223,-0.393066,0.532715,0
58680,0.55957,-0.375977,0.537598,0
58700,0.572266,-0.375977,0.555176,0
58720,0.595703,-0.371582,0.557129,0
58740,0.615723,-0.386719,0.572754,0
58760,0.62793,-0.404785,0.582031,0
58780,0.637207,-0.421875,0.571777,0
58800,0.628418,-0.436523,0.562012,0
58820,0.623535,-0.436523,0.55957,0
58840,0.624512,-0.416992,0.568848,0
58860,0.610352,-0.396484,0.583008,0
58880,0.589844,-0.396973,0.588867,0
58900,0.572754,-0.38916,0.589355,0
58910,0.566895,-0.378418,0.576172,0
58920,0.577637,-0.373047,0.570801,0
58930,0.584473,-0.382812,0.552246,0
58950,0.606934,-0.384766,0.541992,0
58970,0.626465,-0.397949,0.535645,0
58990,0.630371,-0.40625,0.52832,0
59010,0.634766,-0.40625,0.525391,0
59030,0.650879,-0.405762,0.532227,0
59050,0.653809,-0.404785,0.541016,0
59070,0.64209,-0.405273,0.535645,0
59090,0.630859,-0.398926,0.55127,0
59110,0.608887,-0.38916,0.544434,0
59130,0.597168,-0.379883,0.567383,0
59150,0.578125,-0.382324,0.583496,0
59170,0.570312,-0.38623,0.576172,0
59190,0.555664,-0.388184,0.584961,0
59210,0.562012,-0.395508,0.591309,0
59230,0.571777,-0.397949,0.597656,0
59250,0.578613,-0.39502,0.601074,0
59270,0.595703,-0.390137,0.591309,0
59290,0.61377,-0.401367,0.583008,0
59310,0.630371,-0.406738,0.581543,0
59330,0.641602,-0.407715,0.573242,0
59350,0.638672,-0.423828,0.568359,0
59370,0.633789,-0.416016,0.56543,0
59390,0.626953,-0.410156,0.566895,0
59410,0.612305,-0.394531,0.572266,0
59430,0.608887,-0.376465,0.585938,0
59450,0.605469,-0.361328,0.572266,0
59470,0.603516,-0.36377,0.570312,0
59490,0.595703,-0.365234,0.563965,0
59510,0.597168,-0.368652,0.556152,0
59530,0.602051,-0.373535,0.558594,0
59550,0.61084,-0.366211,0.5625,0
59570,0.614258,-0.369629,0.565918,0
59590,0.617188,-0.370117,0.568359,0
59610,0.615723,-0.369141,0.569336,0
59630,0.620605,-0.371094,0.55957,0
59650,0.614746,-0.37207,0.557617,0
59670,0.61377,-0.381348,0.568359,0
59690,0.606445,-0.377441,0.577637,0
59710,0.61377,-0.376953,0.583496,0
59730,0.603027,-0.377441,0.581543,0
59750,0.601074,-0.375977,0.587402,0
59770,0.605469,-0.380371,0.597168,0
59790,0.605957,-0.380371,0.59082,0
59810,0.597168,-0.388672,0.581055,0
59830,0.603027,-0.381836,0.584961,0
59850,0.598633,-0.383789,0.593262,0
59870,0.600586,-0.381348,0.592773,0
59890,0.596191,-0.380859,0.591797,0
59910,0.601562,-0.38916,0.583496,0
59930,0.588379,-0.378906,0.59082,0
59950,0.597656,-0.381348,0.588867,0
59970,0.591309,-0.379395,0.593262,0
59990,0.599121,-0.378906,0.583008,0
60010,0.600586,-0.380371,0.57959,0
60030,0.601562,-0.385254,0.577148,0
60050,0.611328,-0.387695,0.582031,0
60070,0.623047,-0.37207,0.587402,0
60090,0.619141,-0.366211,0.583008,0
60110,0.62207,-0.380859,0.572754,0
60130,0.64209,-0.396484,0.563965,0
60150,0.637207,-0.385254,0.568359,0
60170,0.629395,-0.37793,0.566895,0
60190,0.618164,-0.383301,0.572266,0
60210,0.604004,-0.364746,0.580078,0
60230,0.600098,-0.353027,0.593262,0
60250,0.575195,-0.361816,0.580566,0
60270,0.577637,-0.372559,0.575684,0
60290,0.561523,-0.361816,0.610352,0
60310,0.570801,-0.35791,0.607422,0
60330,0.567383,-0.359375,0.587891,0
60350,0.570801,-0.365234,0.597168,0
60370,0.583496,-0.387207,0.594727,0
60390,0.589844,-0.398438,0.584473,0
60410,0.597168,-0.395508,0.580078,0
60430,0.609375,-0.398438,0.583984,0
60450,0.621582,-0.401367,0.577637,0
60470,0.620605,-0.397949,0.574707,0
60490,0.632812,-0.387207,0.568848,0
60510,0.630371,-0.373535,0.571289,0
60530,0.625488,-0.358887,0.556152,0
60550,0.621582,-0.361816,0.555664,0
60570,0.602051,-0.367676,0.555176,0
60580,0.610352,-0.368164,0.5625,0
60600,0.602539,-0.376465,0.569336,0
60620,0.612305,-0.377441,0.571777,0
60640,0.615723,-0.375977,0.564453,0
60660,0.607422,-0.384766,0.567871,0
60680,0.603516,-0.383789,0.567871,0
60700,0.620117,-0.372559,0.571777,0
60720,0.61084,-0.371094,0.579102,0
60740,0.615234,-0.374512,0.57959,0
60760,0.613281,-0.377441,0.581055,0
60780,0.612793,-0.376465,0.581055,0
60800,0.604004,-0.382812,0.586426,0
60820,0.606934,-0.394043,0.576172,0
60840,0.61084,-0.38916,0.583008,0
60860,0.614258,-0.396973,0.574219,0
60880,0.618164,-0.39209,0.573242,0
60900,0.657227,-0.381836,0.564941,0
60920,0.694336,-0.381348,0.550781,0
60940,0.696289,-0.356445,0.546875,0
60960,0.723145,-0.344238,0.566406,0
60980,0.696777,-0.328613,0.580566,0
61000,0.630859,-0.340332,0.588867,0
61020,0.591797,-0.35498,0.591309,0
61040,0.521484,-0.347656,0.595215,0
61060,0.537109,-0.341309,0.620605,0
61080,0.526855,-0.347168,0.621094,0
61100,0.547852,-0.351074,0.636719,0
61120,0.529297,-0.361816,0.642578,0
61140,0.54834,-0.371094,0.650391,0
61160,0.568359,-0.371582,0.643555,0
61180,0.572266,-0.396484,0.635254,0
61200,0.621582,-0.412109,0.61377,0
61220,0.626465,-0.415527,0.611328,0
61240,0.594727,-0.423828,0.618652,0
61260,0.569824,-0.399902,0.624023,0
61280,0.600098,-0.40918,0.601562,0
61300,0.648438,-0.433105,0.592285,0
61320,0.629883,-0.422363,0.599609,0
61340,0.581543,-0.42041,0.592773,0
61360,0.601074,-0.459961,0.595215,0
61380,0.510742,-0.450195,0.58252,0
61400,0.48877,-0.453125,0.567383,0
61420,0.537109,-0.442871,0.5625,0
61440,0.565918,-0.426758,0.560547,0
61460,0.528809,-0.454102,0.577148,0
61480,0.524414,-0.422852,0.558105,0
61500,0.562012,-0.412109,0.570312,0
61520,0.594238,-0.41748,0.558594,0
61540,0.543945,-0.416504,0.548828,0
61560,0.537109,-0.42334,0.572266,0
61580,0.54541,-0.433105,0.570801,0
61600,0.538574,-0.42627,0.56543,0
61620,0.5625,-0.440918,0.567871,0
61640,0.561523,-0.491211,0.539551,0
61660,0.560059,-0.483398,0.555176,0
61680,0.581543,-0.479004,0.568848,0
61700,0.589355,-0.489746,0.561523,0
61720,0.585938,-0.486816,0.573242,0
61740,0.591797,-0.479492,0.586914,0
61760,0.577637,-0.493652,0.573242,0
61780,0.560059,-0.491211,0.57959,0
61800,0.523926,-0.473145,0.58252,0
61820,0.54248,-0.470703,0.577637,0
61840,0.518555,-0.486816,0.567383,0
61860,0.492676,-0.46582,0.576172,0
61880,0.499512,-0.481445,0.57666,0
61900,0.511719,-0.487793,0.572754,0
61920,0.509277,-0.503906,0.57373,0
61940,0.512207,-0.51123,0.568848,0
61960,0.505859,-0.492188,0.568848,0
61980,0.501465,-0.490234,0.568848,0
62000,0.491211,-0.48584,0.578613,0
62020,0.516113,-0.483398,0.595703,0
62040,0.518555,-0.466309,0.590332,0
62060,0.504395,-0.488281,0.583984,0
62080,0.530273,-0.48291,0.580566,0
62100,0.51709,-0.47168,0.57959,0
62120,0.506348,-0.48877,0.585938,0
62140,0.516602,-0.505371,0.580566,0
62160,0.510254,-0.5,0.58252,0
62180,0.465332,-0.492188,0.583008,0
62200,0.452637,-0.510742,0.617676,0
62220,0.461914,-0.503418,0.619629,0
62240,0.405762,-0.50293,0.587891,0
62260,0.387207,-0.516602,0.574707,0
62280,0.413574,-0.513672,0.598145,0
62300,0.407715,-0.515625,0.611816,0
62320,0.409668,-0.498047,0.614746,0
62340,0.424805,-0.525879,0.594727,0
62360,0.420898,-0.529785,0.589844,0
62380,0.400391,-0.527832,0.617188,0
62400,0.414062,-0.540039,0.612793,0
62420,0.419434,-0.56543,0.566406,0
62440,0.401855,-0.569336,0.571289,0
62460,0.432129,-0.548828,0.600098,0
62480,0.475586,-0.553223,0.59375,0
62500,0.473145,-0.577637,0.576172,0
62520,0.45166,-0.557129,0.575195,0
62540,0.477539,-0.519531,0.601562,0
62560,0.505371,-0.550781,0.558594,0
62580,0.506348,-0.544434,0.563477,0
62600,0.510254,-0.556152,0.550293,0
62620,0.48291,-0.540527,0.568359,0
62640,0.493652,-0.523926,0.581543,0
62660,0.527344,-0.542969,0.567871,0
62680,0.508301,-0.556641,0.537598,0
62700,0.509277,-0.501953,0.57373,0
62720,0.55957,-0.494629,0.58252,0
62740,0.593262,-0.519043,0.541504,0
62760,0.583008,-0.528809,0.532227,0
62780,0.609375,-0.508301,0.551758,0
62800,0.645508,-0.486816,0.565918,0
62820,0.652344,-0.475586,0.545898,0
62840,0.661133,-0.48291,0.549316,0
62860,0.691406,-0.472168,0.547363,0
62880,0.674316,-0.455566,0.532715,0
62900,0.684082,-0.475586,0.522461,0
62920,0.697754,-0.447754,0.523926,0
62940,0.705078,-0.443359,0.525879,0
62960,0.700684,-0.438965,0.539062,0
62980,0.655273,-0.435547,0.544434,0
63000,0.628906,-0.435547,0.54541,0
63020,0.634766,-0.451172,0.532715,0
63040,0.628418,-0.493164,0.51416,0
63060,0.604492,-0.485352,0.530273,0
63080,0.621094,-0.489258,0.545898,0
63100,0.577637,-0.503418,0.528809,0
63120,0.555176,-0.484863,0.538086,0
63140,0.597656,-0.496582,0.558594,0
63160,0.519043,-0.500488,0.556152,0
63180,0.45459,-0.509766,0.57373,0
63190,0.456543,-0.532227,0.600098,0
63210,0.384277,-0.541504,0.561523,0
63230,0.338867,-0.558105,0.57373,0
63250,0.367188,-0.564453,0.583984,0
63270,0.375977,-0.569336,0.577148,0
63290,0.36377,-0.560547,0.577148,0
63310,0.374512,-0.556152,0.595703,0
63330,0.405273,-0.560059,0.60498,0
63350,0.418945,-0.572266,0.577148,0
63370,0.447266,-0.57373,0.573242,0
63390,0.439453,-0.552734,0.587402,0
63410,0.423828,-0.566895,0.59375,0
63430,0.453125,-0.58252,0.561523,0
63450,0.481934,-0.555176,0.569824,0
63470,0.499512,-0.565918,0.573242,0
63490,0.504883,-0.554199,0.571289,0
63510,0.493164,-0.524414,0.59375,0
63530,0.493652,-0.52832,0.598633,0
63550,0.486328,-0.529297,0.580566,0
63570,0.474121,-0.519043,0.567383,0
63590,0.466309,-0.539062,0.589355,0
63610,0.464355,-0.561035,0.590332,0
63630,0.45752,-0.557129,0.5625,0
63650,0.447754,-0.550293,0.58252,0
63670,0.45166,-0.554199,0.599121,0
63690,0.445801,-0.54541,0.595215,0
63710,0.443848,-0.54541,0.581543,0
63730,0.453613,-0.558105,0.57666,0
63750,0.45459,-0.581055,0.575684,0
63770,0.420898,-0.574219,0.578125,0
63790,0.399902,-0.580078,0.604492,0
63810,0.416016,-0.538574,0.61084,0
63830,0.408203,-0.528809,0.580566,0
63850,0.366211,-0.530273,0.57666,0
63870,0.346191,-0.54541,0.607422,0
63890,0.355957,-0.557129,0.59082,0
63910,0.34082,-0.565918,0.582031,0
63930,0.351562,-0.552734,0.598145,0
63950,0.367188,-0.558105,0.605469,0
63970,0.355469,-0.580078,0.59375,0
63990,0.375488,-0.591309,0.59082,0
64010,0.406738,-0.566406,0.593262,0
64030,0.401855,-0.562012,0.589844,0
64050,0.414551,-0.588379,0.599121,0
64070,0.443848,-0.580566,0.598145,0
64090,0.445801,-0.578613,0.587891,0
64110,0.4375,-0.590332,0.589355,0
64130,0.455078,-0.561035,0.595703,0
64150,0.454102,-0.57373,0.59668,0
64170,0.426758,-0.570312,0.589844,0
64190,0.427734,-0.588379,0.598145,0
64210,0.422852,-0.597656,0.581055,0
64230,0.397949,-0.599609,0.599609,0
64250,0.429688,-0.576172,0.600586,0
64270,0.459961,-0.575195,0.587402,0
64290,0.48291,-0.573242,0.577148,0
64310,0.51123,-0.577637,0.583008,0
64330,0.543457,-0.567383,0.589355,0
64350,0.571777,-0.541504,0.584961,0
64370,0.592285,-0.547363,0.578125,0
64390,0.592285,-0.521484,0.567383,0
64410,0.605957,-0.51416,0.585449,0
64430,0.606934,-0.519531,0.568848,0
64450,0.584473,-0.518555,0.562012,0
64470,0.575684,-0.494141,0.58252,0
64490,0.580566,-0.515625,0.583984,0
64510,0.581055,-0.525879,0.573242,0
64530,0.555664,-0.54248,0.587402,0
64550,0.575684,-0.559082,0.589844,0
64570,0.556152,-0.536133,0.586426,0
64590,0.508789,-0.526855,0.575195,0
64610,0.49707,-0.54541,0.586914,0
64630,0.468262,-0.547363,0.580078,0
64650,0.447754,-0.542969,0.57373,0
64670,0.416992,-0.563965,0.552246,0
64690,0.391602,-0.575195,0.570801,0
64710,0.374023,-0.564941,0.59375,0
64730,0.375,-0.595215,0.56543,0
64750,0.356934,-0.586426,0.555664,0
64770,0.326172,-0.602051,0.570312,0
64790,0.325195,-0.594727,0.570801,0
64810,0.341797,-0.593262,0.545898,0
64830,0.326172,-0.605469,0.578125,0
64850,0.34668,-0.604004,0.571777,0
64870,0.36377,-0.60791,0.557617,0
64890,0.347168,-0.61084,0.58252,0
64910,0.370605,-0.603027,0.58252,0
64930,0.397461,-0.602539,0.570801,0
64950,0.376465,-0.597168,0.57373,0
64970,0.37793,-0.585449,0.61377,0
64990,0.414551,-0.590332,0.596191,0
65010,0.398926,-0.578125,0.574219,0
65030,0.379395,-0.564941,0.595215,0
65050,0.410645,-0.605957,0.595215,0
65070,0.428223,-0.620117,0.59668,0
65090,0.417969,-0.601074,0.580078,0
65110,0.411133,-0.576172,0.60791,0
65130,0.431641,-0.57959,0.607422,0
65150,0.424805,-0.583984,0.599609,0
65170,0.416016,-0.571289,0.618652,0
65190,0.426758,-0.564453,0.603516,2000
65210,0.410645,-0.571777,0.589844,0
65230,0.391113,-0.587402,0.583984,0
65250,0.410156,-0.579102,0.609863,0
65270,0.425293,-0.572266,0.604004,0
65290,0.404297,-0.591797,0.588379,0
65310,0.370605,-0.577148,0.594727,0
65330,0.380859,-0.566895,0.591797,0
65350,0.37793,-0.583008,0.587891,0
65370,0.359375,-0.594238,0.572754,0
65390,0.364258,-0.58252,0.584473,0
65410,0.380859,-0.562988,0.59668,0
65430,0.365723,-0.565918,0.589355,0
65450,0.344727,-0.587891,0.586914,0
65470,0.365723,-0.585449,0.605957,0
65490,0.37793,-0.584961,0.594238,0
65510,0.347168,-0.592773,0.566895,0
65530,0.334473,-0.595215,0.583496,0
65550,0.36084,-0.592773,0.606934,0
65570,0.377441,-0.584961,0.600098,0
65590,0.343262,-0.593262,0.588379,0
65610,0.345215,-0.593262,0.602051,0
65630,0.353027,-0.592773,0.59375,0
65650,0.345215,-0.593262,0.583008,0
65670,0.337402,-0.618164,0.595703,0
65690,0.356445,-0.598633,0.594727,0
65710,0.334961,-0.615234,0.589844,0
65730,0.338379,-0.597656,0.605469,0
65750,0.375977,-0.596191,0.618164,0
65770,0.406738,-0.617676,0.604492,0
65780,0.410156,-0.615723,0.591797,0
65800,0.390625,-0.59082,0.589844,0
65820,0.37207,-0.593262,0.603516,0
65840,0.365234,-0.62793,0.604004,0
65860,0.373047,-0.637207,0.602051,0
65880,0.362305,-0.599609,0.606445,0
65900,0.334961,-0.613281,0.618164,0
65920,0.353516,-0.651855,0.622559,0
65940,0.378906,-0.643555,0.620605,0
65960,0.375977,-0.605469,0.608398,0
65980,0.366699,-0.631836,0.614746,0
66000,0.395996,-0.612305,0.618652,0
66020,0.388184,-0.599121,0.611328,0
66040,0.370605,-0.623535,0.609863,0
66060,0.384766,-0.612305,0.625488,0
66080,0.394531,-0.632324,0.597168,0
66100,0.375,-0.631348,0.583496,0
66120,0.361328,-0.625488,0.602539,0
66140,0.386719,-0.628418,0.61084,0
66160,0.404297,-0.63916,0.586426,0
66180,0.362793,-0.628418,0.570312,0
66200,0.364258,-0.604492,0.597656,0
66220,0.40332,-0.625977,0.592773,0
66240,0.396973,-0.635254,0.568359,0
66260,0.35498,-0.632324,0.567383,0
66280,0.379395,-0.625,0.620605,0
66300,0.433105,-0.60498,0.616211,0
66320,0.422852,-0.594238,0.570312,0
66340,0.404785,-0.613281,0.583008,0
66360,0.437012,-0.601074,0.604004,0
66380,0.462891,-0.639648,0.580078,0
66400,0.472168,-0.654785,0.573242,0
66420,0.5,-0.630371,0.601562,0
66440,0.535156,-0.646484,0.600098,0
66460,0.518555,-0.652344,0.582031,0
66480,0.51709,-0.644043,0.593262,0
66500,0.510254,-0.621094,0.589355,0
66520,0.526367,-0.63916,0.586914,0
66540,0.505859,-0.617188,0.583496,0
66560,0.504395,-0.60498,0.575684,0
66580,0.553223,-0.603027,0.565918,0
66600,0.53418,-0.618164,0.540039,0
66620,0.499512,-0.579102,0.584961,0
66640,0.527832,-0.561035,0.571777,0
66660,0.575195,-0.571289,0.563965,0
