Timestamp, Acceleration x, Acceleration y, Acceleration z, Marker
50,0.790039,-0.461914,0.210449,0
70,0.798828,-0.450684,0.204102,0
90,0.805176,-0.443848,0.18457,0
110,0.791992,-0.435059,0.191406,0
130,0.78418,-0.459961,0.187012,0
150,0.775879,-0.46875,0.192871,0
150,0.787109,-0.478516,0.194824,0
190,0.791992,-0.480957,0.204102,0
210,0.792969,-0.477539,0.179199,0
230,0.800293,-0.47168,0.178223,0
250,0.820801,-0.466797,0.201172,0
270,0.841309,-0.479004,0.199707,0
290,0.832031,-0.489746,0.195312,0
310,0.822754,-0.47998,0.181641,0
330,0.820312,-0.484375,0.174805,0
350,0.810547,-0.480957,0.178223,0
370,0.80127,-0.481445,0.188477,0
390,0.788086,-0.484375,0.195801,0
410,0.785156,-0.490723,0.187012,0
430,0.786133,-0.488281,0.17627,0
450,0.774414,-0.47998,0.195312,0
470,0.773438,-0.470703,0.208496,0
490,0.79541,-0.488281,0.200195,0
510,0.804688,-0.471191,0.186523,0
530,0.802734,-0.46875,0.1875,0
550,0.799316,-0.473145,0.192383,0
570,0.783203,-0.474609,0.19873,0
590,0.783691,-0.506348,0.192871,0
610,0.819336,-0.499023,0.189453,0
630,0.802734,-0.482422,0.179688,0
650,0.782715,-0.486816,0.181152,0
670,0.780273,-0.490234,0.191895,0
690,0.802246,-0.500488,0.205078,0
710,0.797363,-0.521973,0.19043,0
730,0.804199,-0.510254,0.191406,0
750,0.807129,-0.49707,0.183594,0
770,0.8125,-0.496582,0.187012,0
790,0.823242,-0.511719,0.185547,0
810,0.809082,-0.50293,0.17627,0
830,0.804199,-0.494141,0.19043,0
850,0.799805,-0.48584,0.181641,0
870,0.800293,-0.492676,0.192871,0
890,0.797363,-0.491211,0.198242,0
910,0.799316,-0.470703,0.199707,0
930,0.786621,-0.498047,0.175781,0
950,0.787598,-0.496582,0.199707,0
970,0.807129,-0.491699,0.192383,0
990,0.806152,-0.489746,0.168457,0
1010,0.783203,-0.486328,0.171875,0
1030,0.801758,-0.493652,0.195801,0
1050,0.831055,-0.515137,0.174805,0
1070,0.825195,-0.491211,0.14209,0
1090,0.808594,-0.491211,0.190918,0
1110,0.791992,-0.459473,0.202637,0
1130,0.776367,-0.476562,0.164062,0
1150,0.758789,-0.503418,0.166016,0
1170,0.768066,-0.484375,0.157227,0
1190,0.777344,-0.472656,0.148438,0
1210,0.783203,-0.463867,0.146484,0
1230,0.774902,-0.479492,0.163574,0
1250,0.798828,-0.477051,0.182617,0
1270,0.797852,-0.470215,0.200195,0
1280,0.81543,-0.450684,0.182617,0
1300,0.803711,-0.461914,0.174316,0
1320,0.831055,-0.474121,0.169922,0
1340,0.826172,-0.485352,0.180664,0
1360,0.827637,-0.493164,0.177246,0
1380,0.833984,-0.48291,0.0981445,0
1400,0.791992,-0.489746,0.140137,0
1420,0.807617,-0.501953,0.179688,0
1440,0.818359,-0.506836,0.166016,0
1460,0.828613,-0.473633,0.161133,0
1480,0.812988,-0.469238,0.199219,0
1500,0.810059,-0.47168,0.180176,0
1520,0.79541,-0.474609,0.163086,0
1540,0.813477,-0.45166,0.166504,0
1560,0.82373,-0.44873,0.149414,0
1580,0.815918,-0.439453,0.172363,0
1600,0.816895,-0.485352,0.183105,0
1620,0.808105,-0.483398,0.199219,0
1640,0.828125,-0.453613,0.180664,0
1660,0.810547,-0.459961,0.168457,0
1680,0.815918,-0.466309,0.169434,0
1700,0.8125,-0.492676,0.150391,0
1720,0.802734,-0.503418,0.153809,0
1740,0.806152,-0.507812,0.165039,0
1760,0.790527,-0.505859,0.187988,0
1780,0.805176,-0.513184,0.163574,0
1800,0.812012,-0.495117,0.138672,0
1820,0.802734,-0.492188,0.13916,0
1840,0.810547,-0.495605,0.156738,0
1860,0.810059,-0.494141,0.165527,0
1880,0.786621,-0.488281,0.15625,0
1900,0.791504,-0.470215,0.144043,0
1920,0.804688,-0.472656,0.131348,0
1940,0.791504,-0.494629,0.141602,0
1960,0.789551,-0.503418,0.161621,0
1980,0.782227,-0.472656,0.170898,0
2000,0.791992,-0.476074,0.14209,0
2020,0.795898,-0.495605,0.124512,0
2040,0.794922,-0.504883,0.123535,0
2060,0.771973,-0.499023,0.140137,0
2080,0.781738,-0.5,0.158691,0
2100,0.785156,-0.50293,0.145508,0
2120,0.78418,-0.509766,0.144043,0
2140,0.765137,-0.509766,0.14209,0
2160,0.752441,-0.51123,0.166504,0
2180,0.749512,-0.51416,0.182129,0
2200,0.760254,-0.499023,0.177734,0
2220,0.758301,-0.48291,0.162598,0
2240,0.749512,-0.470703,0.165039,0
2260,0.730957,-0.463379,0.192383,0
2280,0.708008,-0.440918,0.210449,0
2300,0.693359,-0.439941,0.214844,0
2320,0.723145,-0.437988,0.206543,0
2340,0.746582,-0.436035,0.218262,0
2360,0.710449,-0.440918,0.258789,0
2380,0.690918,-0.45752,0.240723,0
2400,0.717773,-0.481445,0.222168,0
2420,0.749512,-0.484863,0.240723,0
2440,0.70752,-0.498535,0.307129,0
2460,0.632812,-0.532715,0.344727,0
2480,0.630371,-0.575684,0.339355,0
2500,0.652832,-0.626465,0.362305,0
2520,0.554688,-0.593262,0.388672,0
2540,0.469238,-0.580566,0.445312,0
2560,0.460938,-0.59082,0.443848,0
2580,0.429199,-0.604004,0.439453,0
2600,0.374512,-0.639648,0.467285,0
2620,0.352051,-0.702148,0.495605,0
2640,0.286133,-0.754395,0.537598,0
2660,0.160156,-0.799316,0.588867,0
2680,0.0527344,-0.772949,0.608398,0
2700,-0.0322266,-0.766113,0.599121,0
2720,-0.125488,-0.764648,0.605469,0
2740,-0.151855,-0.787598,0.566406,0
2760,-0.125488,-0.756348,0.562988,0
2780,-0.125977,-0.744629,0.53125,0
2800,-0.191895,-0.771484,0.485352,0
2820,-0.245605,-0.78418,0.450684,0
2840,-0.282715,-0.743652,0.452148,0
2860,-0.291016,-0.727539,0.393066,0
2880,-0.377441,-0.646973,0.293945,0
2900,-0.605469,-0.975098,0.419922,0
2920,-1.10254,-1.87402,0.734375,0
2940,-0.608398,-1.9585,0.721191,0
2960,-0.186523,-1.50586,-0.0249023,0
2980,0.0986328,-0.942383,0.0932617,0
3000,-0.23291,-0.588379,0.39209,0
3020,-0.562988,-0.368164,0.507324,0
3040,-0.587891,-0.407715,0.525879,0
3060,-0.37207,-0.607422,0.477051,0
3080,-0.233398,-0.766113,0.483887,0
3100,-0.316895,-0.922363,0.516113,0
3120,-0.35498,-0.935059,0.508789,0
3140,-0.235352,-0.802734,0.479492,0
3160,-0.189453,-0.712402,0.415527,0
3180,-0.274414,-0.713379,0.410156,0
3200,-0.313965,-0.722656,0.38916,0
3220,-0.304199,-0.730469,0.358887,0
3240,-0.313477,-0.729004,0.339355,0
3260,-0.367676,-0.748047,0.350098,0
3280,-0.381348,-0.801758,0.309082,0
3290,-0.396484,-0.881836,0.337891,0
3310,-0.40332,-0.827637,0.376465,0
3330,-0.410645,-0.794434,0.314453,0
3350,-0.416992,-0.762695,0.288574,0
3370,-0.418457,-0.711914,0.297363,0
3390,-0.445801,-0.705566,0.254395,0
3410,-0.385742,-0.754883,0.146484,0
3430,-0.311523,-1.11182,0.125977,0
3450,-0.508301,-1.37793,0.0893555,0
3470,-0.649414,-1.17676,0.108398,0
3490,-0.510742,-1.00439,0.0444336,0
3510,-0.363281,-1.09766,0.0922852,0
3530,-0.452637,-0.990723,0.183105,0
3550,-0.411621,-0.823242,0.296875,0
3570,-0.375,-0.746094,0.366211,0
3590,-0.373047,-0.713867,0.374023,0
3610,-0.389648,-0.732422,0.384277,0
3630,-0.405273,-0.794922,0.381836,0
3650,-0.385254,-0.873535,0.351074,0
3670,-0.374023,-0.876465,0.319336,0
3690,-0.395996,-0.87793,0.280273,0
3710,-0.418457,-0.871094,0.25293,0
3730,-0.430176,-0.89209,0.256836,0
3750,-0.41748,-0.881836,0.255371,0
3770,-0.421387,-0.868652,0.266602,0
3790,-0.422852,-0.868164,0.278809,0
3810,-0.430664,-0.86084,0.30127,0
3830,-0.451172,-0.864746,0.312012,0
3850,-0.46875,-0.855469,0.331543,0
3870,-0.498535,-0.843262,0.338867,0
3890,-0.526367,-0.809082,0.345215,0
3910,-0.520996,-0.786621,0.341309,0
3930,-0.490234,-0.782227,0.317871,0
3950,-0.45166,-0.796875,0.289551,0
3970,-0.43457,-0.824219,0.26709,0
3990,-0.431641,-0.850098,0.253906,0
4010,-0.437988,-0.861328,0.25293,0
4030,-0.448242,-0.871582,0.263184,0
4050,-0.453613,-0.862305,0.275879,0
4070,-0.458008,-0.854492,0.291992,0
4090,-0.470215,-0.853516,0.292969,0
4110,-0.461426,-0.838379,0.294922,0
4130,-0.459961,-0.845215,0.286133,0
4150,-0.45166,-0.844238,0.288574,0
4170,-0.445312,-0.84668,0.29248,0
4190,-0.44873,-0.844727,0.287109,0
4210,-0.455566,-0.84375,0.291016,0
4230,-0.452637,-0.833008,0.293945,0
4250,-0.44873,-0.836426,0.294922,0
4270,-0.445312,-0.831055,0.294434,0
4290,-0.443359,-0.83252,0.30127,0
4310,-0.447754,-0.839355,0.299316,0
4330,-0.453125,-0.839355,0.29541,0
4350,-0.456055,-0.841309,0.298828,0
4370,-0.456055,-0.838867,0.295898,0
4390,-0.45752,-0.839355,0.296875,0
4410,-0.458496,-0.836914,0.287598,0
4430,-0.459473,-0.843262,0.285645,0
4450,-0.465332,-0.841797,0.296875,0
4470,-0.460938,-0.852539,0.293457,0
4490,-0.452148,-0.850586,0.295898,0
4510,-0.449219,-0.847168,0.289062,0
4530,-0.452637,-0.836426,0.290527,0
4550,-0.455078,-0.830078,0.296875,0
4570,-0.458496,-0.827148,0.304199,0
4590,-0.457031,-0.836914,0.300293,0
4610,-0.448242,-0.846191,0.306152,0
4630,-0.44873,-0.841309,0.296875,0
4650,-0.453613,-0.850098,0.28418,0
4670,-0.452148,-0.847168,0.300293,0
4690,-0.450195,-0.849121,0.296387,0
4710,-0.453613,-0.833984,0.288574,0
4730,-0.451172,-0.837891,0.29248,0
4750,-0.453125,-0.83252,0.294922,0
4770,-0.458496,-0.835449,0.298828,0
4790,-0.455566,-0.832031,0.300293,0
4810,-0.45166,-0.82959,0.301758,0
4830,-0.454102,-0.839844,0.299316,0
4850,-0.451172,-0.839355,0.305664,0
4870,-0.455078,-0.845703,0.30127,0
4890,-0.454102,-0.837402,0.292969,0
4910,-0.452148,-0.844727,0.288574,0
4930,-0.452148,-0.839355,0.289062,0
4950,-0.455566,-0.84082,0.292969,0
4970,-0.452148,-0.842773,0.296875,0
4990,-0.453125,-0.84375,0.291016,0
5010,-0.457031,-0.833496,0.29834,0
5030,-0.463867,-0.841309,0.294434,0
5050,-0.466309,-0.84375,0.298828,0
5070,-0.45752,-0.84082,0.299316,0
5090,-0.457031,-0.837402,0.297852,0
5110,-0.455566,-0.838867,0.304688,0
5130,-0.460449,-0.851074,0.294922,0
5150,-0.456055,-0.836914,0.291992,0
5170,-0.450684,-0.828125,0.288574,0
5190,-0.442383,-0.822754,0.287598,0
5210,-0.444824,-0.825195,0.293457,0
5230,-0.456055,-0.822266,0.297852,0
5250,-0.456543,-0.833496,0.303711,0
5270,-0.453125,-0.825684,0.316406,0
5290,-0.466797,-0.816406,0.318848,0
5310,-0.467285,-0.819824,0.320312,0
5330,-0.458984,-0.812988,0.331055,0
5350,-0.462891,-0.814453,0.32666,0
5370,-0.460938,-0.828613,0.332031,0
5390,-0.459961,-0.827148,0.331543,0
5410,-0.451172,-0.822266,0.325684,0
5430,-0.44873,-0.821289,0.334473,0
5450,-0.442871,-0.812012,0.343262,0
5470,-0.441895,-0.822754,0.344727,0
5490,-0.441895,-0.822754,0.351074,0
5510,-0.439453,-0.82959,0.355469,0
5530,-0.431641,-0.827637,0.362305,0
5550,-0.431641,-0.828125,0.362305,0
5570,-0.432617,-0.832031,0.36084,0
5590,-0.430176,-0.82959,0.358887,0
5610,-0.431641,-0.822266,0.371582,0
5630,-0.428711,-0.8125,0.380859,0
5650,-0.432129,-0.800781,0.381348,0
5670,-0.437988,-0.797363,0.378906,0
5690,-0.433594,-0.808594,0.382324,0
5710,-0.436523,-0.792969,0.396484,0
5730,-0.442871,-0.792969,0.398926,0
5750,-0.44043,-0.789551,0.399902,0
5770,-0.428711,-0.797363,0.394531,0
5790,-0.431152,-0.797852,0.393066,0
5810,-0.436035,-0.794922,0.396973,0
5830,-0.432617,-0.796387,0.399414,0
5850,-0.429688,-0.790527,0.405273,0
5870,-0.424316,-0.803711,0.407227,0
5890,-0.422363,-0.799316,0.402832,0
5910,-0.420898,-0.800293,0.406738,0
5930,-0.419434,-0.791016,0.415527,0
5950,-0.424316,-0.793457,0.406738,0
5970,-0.420898,-0.796875,0.412598,0
5990,-0.414551,-0.794434,0.418945,0
6010,-0.417969,-0.787598,0.415039,0
6030,-0.41748,-0.779297,0.422852,0
6050,-0.414551,-0.790039,0.425293,0
6070,-0.416504,-0.790527,0.417969,0
6090,-0.421387,-0.799805,0.42334,0
6110,-0.416992,-0.786621,0.42334,0
6130,-0.41748,-0.782227,0.419434,0
6150,-0.419434,-0.779297,0.415527,0
6170,-0.418457,-0.797363,0.415527,0
6190,-0.415039,-0.797363,0.416504,0
6210,-0.419434,-0.796875,0.414062,0
6230,-0.416016,-0.797363,0.410156,0
6250,-0.417969,-0.791992,0.42041,0
6270,-0.425293,-0.789551,0.416992,0
6290,-0.427246,-0.787598,0.404297,0
6310,-0.430664,-0.794922,0.40625,0
6330,-0.425293,-0.793945,0.406738,0
6350,-0.421387,-0.803711,0.396973,0
6370,-0.415527,-0.796387,0.396484,0
6390,-0.423828,-0.796875,0.395508,0
6410,-0.417969,-0.791992,0.402344,0
6430,-0.422852,-0.797852,0.393555,0
6450,-0.42334,-0.788086,0.386719,0
6470,-0.430176,-0.804688,0.397461,0
6490,-0.42627,-0.799805,0.400879,0
6510,-0.427246,-0.800781,0.394043,0
6530,-0.427734,-0.798828,0.400391,0
6550,-0.423828,-0.79541,0.395996,0
6570,-0.424316,-0.798828,0.394531,0
6590,-0.428711,-0.796387,0.388184,0
6610,-0.436035,-0.802734,0.389648,0
6630,-0.430664,-0.807617,0.38623,0
6650,-0.430176,-0.8125,0.385254,0
6670,-0.424316,-0.805176,0.381348,0
6690,-0.425781,-0.808105,0.389648,0
6710,-0.428223,-0.804688,0.378418,0
6720,-0.427734,-0.807129,0.383789,0
6740,-0.429199,-0.804199,0.381348,0
6760,-0.431152,-0.811523,0.382812,0
6780,-0.429199,-0.812988,0.374023,0
6800,-0.427734,-0.805664,0.381348,0
6820,-0.426758,-0.809082,0.379883,0
6840,-0.425293,-0.799805,0.382812,0
6860,-0.432617,-0.806152,0.384766,0
6880,-0.429199,-0.811035,0.378906,0
6900,-0.433594,-0.817383,0.370117,0
6920,-0.428711,-0.813965,0.368652,0
6940,-0.427246,-0.818359,0.370117,0
6960,-0.429199,-0.811035,0.372559,0
6980,-0.432129,-0.807617,0.367676,0
7000,-0.43457,-0.811035,0.377441,0
7020,-0.433105,-0.808105,0.371094,0
7040,-0.430664,-0.818848,0.372559,0
7060,-0.430176,-0.80957,0.368652,0
7080,-0.424316,-0.822266,0.355469,0
7100,-0.42041,-0.817871,0.363281,0
7120,-0.419922,-0.822754,0.362793,0
7140,-0.422852,-0.817383,0.363281,0
7160,-0.424316,-0.819336,0.367676,0
7180,-0.428711,-0.815918,0.372559,0
7200,-0.431152,-0.815918,0.365234,0
7220,-0.435059,-0.820312,0.370605,0
7240,-0.428223,-0.822754,0.363281,0
7260,-0.434082,-0.821777,0.361816,0
7280,-0.435547,-0.816895,0.36084,0
7300,-0.432129,-0.820801,0.355469,0
7320,-0.432129,-0.814453,0.368652,0
7340,-0.428223,-0.821289,0.368164,0
7360,-0.431152,-0.823242,0.361816,0
7380,-0.432617,-0.825684,0.359375,0
7400,-0.438477,-0.826172,0.359863,0
7420,-0.443848,-0.826172,0.358398,0
7440,-0.439453,-0.828613,0.35498,0
7460,-0.441406,-0.830078,0.354004,0
7480,-0.447754,-0.830078,0.363281,0
7500,-0.447266,-0.835449,0.354004,0
7520,-0.451172,-0.827637,0.342773,0
7540,-0.436523,-0.830566,0.337891,0
7560,-0.436035,-0.830566,0.331055,0
7580,-0.428711,-0.820312,0.320312,0
7600,-0.424316,-0.82666,0.318359,0
7620,-0.428711,-0.825195,0.324219,0
7640,-0.433594,-0.821777,0.324219,0
7660,-0.440918,-0.822754,0.322266,0
7680,-0.44873,-0.830078,0.316406,0
7700,-0.448242,-0.824219,0.320312,0
7720,-0.455566,-0.824707,0.324219,0
7740,-0.463379,-0.818848,0.317871,0
7760,-0.459961,-0.817383,0.3125,0
7780,-0.463867,-0.82666,0.322754,0
7800,-0.461914,-0.825684,0.31543,0
7820,-0.464844,-0.834473,0.30957,0
7840,-0.457031,-0.831543,0.309082,0
7860,-0.457031,-0.838867,0.309082,0
7880,-0.455078,-0.83252,0.306152,0
7900,-0.462402,-0.834961,0.310547,0
7920,-0.458984,-0.834473,0.300781,0
7940,-0.461426,-0.833984,0.307617,0
7960,-0.466309,-0.822754,0.297852,0
7980,-0.467773,-0.819824,0.299316,0
8000,-0.474121,-0.816895,0.300293,0
8020,-0.474609,-0.812988,0.296875,0
8040,-0.477539,-0.81543,0.294434,0
8060,-0.471191,-0.813477,0.296387,0
8080,-0.473633,-0.82666,0.297852,0
8100,-0.476074,-0.825195,0.304199,0
8120,-0.477539,-0.833496,0.304688,0
8140,-0.467285,-0.837891,0.301758,0
8160,-0.468262,-0.84668,0.29834,0
8180,-0.470215,-0.845703,0.303223,0
8200,-0.474121,-0.832031,0.299805,0
8220,-0.474121,-0.829102,0.297852,0
8240,-0.465332,-0.828613,0.291016,0
8260,-0.467285,-0.821777,0.290039,0
8280,-0.477051,-0.81543,0.29248,0
8300,-0.478027,-0.821777,0.296387,0
8320,-0.478027,-0.815918,0.297363,0
8340,-0.48291,-0.823242,0.287109,0
8360,-0.475586,-0.816406,0.289551,0
8380,-0.481445,-0.819824,0.29541,0
8400,-0.478516,-0.828125,0.294434,0
8420,-0.481934,-0.849121,0.299805,0
8440,-0.47998,-0.850098,0.291992,0
8460,-0.471191,-0.847656,0.285156,0
8480,-0.469238,-0.839844,0.282227,0
8500,-0.462402,-0.82959,0.291992,0
8520,-0.477539,-0.820801,0.294922,0
8540,-0.482422,-0.817383,0.288574,0
8560,-0.478027,-0.822754,0.287598,0
8580,-0.474609,-0.815918,0.284668,0
8600,-0.487305,-0.82373,0.290039,0
8620,-0.475098,-0.817871,0.291016,0
8640,-0.473145,-0.828125,0.280273,0
8660,-0.476074,-0.821289,0.279785,0
8670,-0.476074,-0.832031,0.294434,0
8700,-0.484375,-0.820312,0.29248,0
8710,-0.489746,-0.826172,0.291992,0
8730,-0.493164,-0.824707,0.290527,0
8750,-0.491211,-0.825195,0.291016,0
8770,-0.488281,-0.835449,0.303711,0
8790,-0.471191,-0.833984,0.305176,0
8810,-0.472168,-0.831543,0.282227,0
8830,-0.462402,-0.822266,0.286621,0
8850,-0.460449,-0.821777,0.311035,0
8870,-0.455566,-0.819824,0.312012,0
8890,-0.468262,-0.828125,0.301758,0
8910,-0.462891,-0.824219,0.305176,0
8930,-0.468262,-0.823242,0.316406,0
8950,-0.473633,-0.821289,0.33252,0
8970,-0.478516,-0.827148,0.322754,0
8990,-0.479492,-0.845215,0.332031,0
9010,-0.47998,-0.843262,0.296875,0
9030,-0.452637,-0.839844,0.299805,0
9050,-0.441895,-0.82959,0.305664,0
9070,-0.437988,-0.823242,0.325195,0
9090,-0.439941,-0.819336,0.350098,0
9110,-0.435547,-0.821777,0.342285,0
9130,-0.423828,-0.820801,0.360352,0
9150,-0.411621,-0.829102,0.379395,0
9170,-0.412598,-0.84082,0.375,0
9190,-0.418457,-0.832031,0.34668,0
9210,-0.405273,-0.84668,0.352539,0
9230,-0.433105,-0.814453,0.351562,0
9250,-0.461914,-0.79541,0.348633,0
9270,-0.48584,-0.786621,0.331055,0
9290,-0.51709,-0.786133,0.319336,0
9310,-0.536133,-0.777344,0.293945,0
9330,-0.54834,-0.789551,0.285645,0
9350,-0.556152,-0.799805,0.270996,0
9370,-0.555664,-0.808105,0.260254,0
9390,-0.54541,-0.814453,0.28125,0
9410,-0.519043,-0.835449,0.273926,0
9430,-0.458008,-0.859375,0.32373,0
9450,-0.431641,-0.871582,0.347168,0
9470,-0.413574,-0.854492,0.348633,0
9490,-0.421875,-0.851074,0.374023,0
9510,-0.436035,-0.843262,0.371582,0
9530,-0.444336,-0.79248,0.380859,0
9550,-0.467285,-0.777832,0.366211,0
9570,-0.494141,-0.764648,0.342285,0
9590,-0.497559,-0.75,0.308594,0
9610,-0.532715,-0.72998,0.299805,0
9630,-0.566895,-0.717285,0.3125,0
9650,-0.606445,-0.725586,0.307129,0
9670,-0.647461,-0.724609,0.288574,0
9690,-0.645996,-0.697754,0.299805,0
9710,-0.631836,-0.661133,0.32666,0
9730,-0.625488,-0.662109,0.332031,0
9750,-0.614258,-0.665527,0.331055,0
9770,-0.605957,-0.693359,0.336426,0
9790,-0.594727,-0.72168,0.355469,0
9810,-0.56543,-0.737793,0.414551,0
9830,-0.516113,-0.729492,0.411133,0
9850,-0.469238,-0.740723,0.407715,0
9870,-0.422363,-0.749512,0.395508,0
9890,-0.413086,-0.795898,0.396973,0
9910,-0.399902,-0.823242,0.381836,0
9930,-0.411133,-0.869629,0.348145,0
9950,-0.421387,-0.87793,0.344727,0
9970,-0.435547,-0.907715,0.34082,0
9990,-0.458496,-0.915039,0.311035,0
10010,-0.455078,-0.887695,0.304688,0
10030,-0.460449,-0.869629,0.319824,0
10050,-0.444824,-0.844727,0.349609,0
10070,-0.43457,-0.837402,0.38916,0
10090,-0.421387,-0.826172,0.404785,0
10110,-0.41748,-0.819336,0.416016,0
10130,-0.403809,-0.792969,0.425293,0
10150,-0.402344,-0.784668,0.432129,0
10170,-0.407227,-0.774414,0.431152,0
10190,-0.408203,-0.778809,0.438477,0
10210,-0.418457,-0.783691,0.448242,0
10230,-0.433105,-0.768066,0.446777,0
10250,-0.434082,-0.767578,0.442871,0
10270,-0.43457,-0.769531,0.448242,0
10290,-0.435547,-0.769043,0.447266,0
10310,-0.439453,-0.760254,0.446777,0
10330,-0.437012,-0.756348,0.448242,0
10350,-0.429688,-0.750488,0.45459,0
10370,-0.428711,-0.751465,0.456543,0
10390,-0.429688,-0.75,0.458008,0
10410,-0.424805,-0.752441,0.460449,0
10430,-0.415527,-0.75,0.466309,0
10450,-0.412598,-0.752441,0.460449,0
10470,-0.415039,-0.76416,0.46582,0
10490,-0.416992,-0.766113,0.462402,0
10510,-0.416992,-0.773438,0.462402,0
10530,-0.40918,-0.771484,0.461914,0
10550,-0.406738,-0.774414,0.452148,0
10570,-0.413086,-0.768066,0.45752,0
10590,-0.410156,-0.769043,0.464844,0
10610,-0.411133,-0.76123,0.463867,0
10630,-0.420898,-0.760254,0.46582,0
10650,-0.422852,-0.751465,0.464355,0
10670,-0.422852,-0.750488,0.467285,0
10690,-0.420898,-0.75,0.469727,0
10710,-0.414551,-0.746582,0.474609,0
10730,-0.414062,-0.744141,0.478027,0
10750,-0.423828,-0.748535,0.478027,0
10770,-0.420898,-0.745605,0.485352,0
10790,-0.415039,-0.744629,0.487305,0
10810,-0.414551,-0.755859,0.484375,0
10830,-0.416992,-0.754395,0.481934,0
10850,-0.418945,-0.741211,0.48584,0
10870,-0.425293,-0.730469,0.492676,0
10890,-0.425781,-0.728027,0.490234,0
10910,-0.424805,-0.733398,0.492188,0
10930,-0.42627,-0.723633,0.492188,0
10950,-0.420898,-0.733398,0.496094,0
10970,-0.419922,-0.729004,0.494629,0
10990,-0.422363,-0.734375,0.498047,0
11010,-0.42334,-0.724609,0.492188,0
11030,-0.427734,-0.733887,0.497559,0
11050,-0.42334,-0.729492,0.495605,0
11070,-0.416992,-0.73877,0.498047,0
11090,-0.406738,-0.745605,0.501953,0
11110,-0.412109,-0.744629,0.485352,0
11130,-0.418457,-0.742676,0.48877,0
11150,-0.412598,-0.740723,0.490723,0
11170,-0.416992,-0.738281,0.48877,0
11190,-0.41748,-0.733887,0.492188,0
11210,-0.427734,-0.737793,0.495605,0
11230,-0.425293,-0.733398,0.487305,0
11250,-0.429199,-0.737793,0.48584,0
11270,-0.425781,-0.729004,0.492676,0
11290,-0.42334,-0.729004,0.494141,0
11310,-0.414551,-0.73584,0.484863,0
11330,-0.42041,-0.746582,0.476562,0
11350,-0.421875,-0.742188,0.475098,0
11370,-0.425781,-0.749023,0.477539,0
11390,-0.417969,-0.742676,0.489258,0
11410,-0.414551,-0.74707,0.483887,0
11430,-0.42041,-0.751465,0.480957,0
11450,-0.419922,-0.752441,0.476074,0
11470,-0.421387,-0.748535,0.470703,0
11490,-0.419922,-0.744629,0.475098,0
11510,-0.421387,-0.749512,0.477539,0
11530,-0.421387,-0.740723,0.469238,0
11550,-0.416992,-0.744629,0.471191,0
11570,-0.41748,-0.744141,0.481445,0
11590,-0.415039,-0.751465,0.476074,0
11610,-0.408203,-0.756836,0.471191,0
11630,-0.383789,-0.787109,0.47168,0
11650,-0.390625,-0.805176,0.475586,0
11670,-0.403809,-0.80127,0.485352,0
11690,-0.402832,-0.794922,0.472656,0
11710,-0.435059,-0.768555,0.469727,0
11730,-0.455078,-0.737793,0.45752,0
11750,-0.465332,-0.720703,0.442871,0
11770,-0.47168,-0.710938,0.449219,0
11790,-0.466309,-0.704102,0.450195,0
11810,-0.470703,-0.719727,0.456055,0
11830,-0.474609,-0.70459,0.453125,0
11850,-0.470215,-0.701172,0.451172,0
11870,-0.475586,-0.712402,0.453125,0
11890,-0.477539,-0.743164,0.45166,0
11910,-0.482422,-0.766602,0.443848,0
11930,-0.489258,-0.777832,0.430176,0
11950,-0.492188,-0.772949,0.414551,0
11970,-0.508301,-0.756348,0.400391,0
11990,-0.505859,-0.744141,0.390625,0
12010,-0.497559,-0.740234,0.392578,0
12030,-0.484863,-0.754883,0.397461,0
12050,-0.475098,-0.763184,0.393555,0
12070,-0.494629,-0.768066,0.391602,0
12090,-0.505371,-0.751953,0.389648,0
12110,-0.502441,-0.746094,0.386719,0
12130,-0.494141,-0.742676,0.388672,0
12140,-0.5,-0.752441,0.38623,0
12160,-0.503418,-0.766602,0.372559,0
12180,-0.493652,-0.789551,0.36084,0
12200,-0.484375,-0.816895,0.367676,0
12220,-0.46875,-0.820312,0.352051,0
12240,-0.461914,-0.813965,0.347168,0
12260,-0.456055,-0.811035,0.344238,0
12280,-0.455078,-0.821777,0.348633,0
12300,-0.44873,-0.82959,0.350586,0
12320,-0.439941,-0.834473,0.348633,0
12340,-0.444824,-0.813965,0.348145,0
12360,-0.458496,-0.803223,0.345215,0
12380,-0.455078,-0.791504,0.349609,0
12400,-0.445801,-0.79834,0.347656,0
12420,-0.437012,-0.809082,0.348633,0
12440,-0.425781,-0.820312,0.343262,0
12460,-0.420898,-0.838867,0.34668,0
12480,-0.42334,-0.852051,0.340332,0
12500,-0.415039,-0.852051,0.330078,0
12520,-0.410156,-0.850586,0.327148,0
12540,-0.40918,-0.851562,0.321289,0
12560,-0.409668,-0.858398,0.314453,0
12580,-0.416992,-0.860352,0.312012,0
12600,-0.416016,-0.861328,0.319336,0
12620,-0.422363,-0.864746,0.327637,0
12640,-0.433105,-0.859375,0.336914,0
12660,-0.440918,-0.846191,0.330566,0
12680,-0.452148,-0.818848,0.33252,0
12700,-0.458008,-0.79248,0.334961,0
12720,-0.462891,-0.791992,0.341797,0
12740,-0.45752,-0.788086,0.342285,0
12760,-0.458496,-0.796387,0.344238,0
12780,-0.455078,-0.797363,0.34668,0
12800,-0.455078,-0.804688,0.349121,0
12820,-0.450684,-0.801758,0.349609,0
12840,-0.464355,-0.807617,0.355957,0
12860,-0.458496,-0.818848,0.353516,0
12880,-0.465332,-0.822754,0.343262,0
12900,-0.465332,-0.824219,0.34082,0
12920,-0.469238,-0.821777,0.335938,0
12940,-0.467773,-0.817871,0.339355,0
12960,-0.46582,-0.803223,0.338867,0
12980,-0.459961,-0.802734,0.338379,0
13000,-0.460938,-0.796387,0.338867,0
13020,-0.466309,-0.79834,0.347656,0
13040,-0.462891,-0.803711,0.344727,0
13060,-0.457031,-0.812012,0.336426,0
13080,-0.459473,-0.812988,0.347168,0
13100,-0.471191,-0.818359,0.340332,0
13120,-0.47998,-0.821289,0.34082,0
13140,-0.46582,-0.828125,0.352539,0
13160,-0.442871,-0.82666,0.363281,0
13180,-0.42334,-0.815918,0.360352,0
13200,-0.415039,-0.808105,0.364258,0
13220,-0.404297,-0.820801,0.362305,0
13240,-0.40332,-0.831543,0.361328,0
13260,-0.416992,-0.824219,0.365723,0
13280,-0.442383,-0.823242,0.359863,0
13300,-0.449707,-0.811035,0.357422,0
13320,-0.448242,-0.816895,0.348145,0
13340,-0.45752,-0.819824,0.35791,0
13360,-0.453613,-0.812988,0.36377,0
13380,-0.44043,-0.807617,0.365234,0
13400,-0.433594,-0.808594,0.367188,0
13420,-0.433105,-0.826172,0.359863,0
13440,-0.427246,-0.820801,0.358887,0
13460,-0.430664,-0.81543,0.352051,0
13480,-0.4375,-0.807129,0.353027,0
13500,-0.444824,-0.809082,0.354004,0
13520,-0.444824,-0.816406,0.359863,0
13540,-0.438965,-0.821289,0.359375,0
13560,-0.43457,-0.815918,0.357422,0
13580,-0.439941,-0.811523,0.359863,0
13600,-0.443848,-0.812988,0.362305,0
13620,-0.442383,-0.808594,0.359863,0
13640,-0.44043,-0.817383,0.361816,0
13660,-0.434082,-0.824707,0.363281,0
13680,-0.431152,-0.825195,0.36084,0
13700,-0.435547,-0.822754,0.355957,0
13720,-0.437012,-0.824707,0.343262,0
13740,-0.438477,-0.812012,0.350098,0
13760,-0.44043,-0.811523,0.355469,0
13780,-0.448242,-0.799316,0.358887,0
13800,-0.447754,-0.807129,0.354492,0
13820,-0.449219,-0.808594,0.356934,0
13840,-0.447266,-0.819336,0.353516,0
13860,-0.446289,-0.819336,0.358398,0
13880,-0.438477,-0.819824,0.361328,0
13900,-0.4375,-0.818359,0.35791,0
13920,-0.436523,-0.818848,0.359375,0
13940,-0.438477,-0.820312,0.359863,0
13960,-0.438965,-0.819336,0.36084,0
13980,-0.44043,-0.813965,0.359863,0
14000,-0.441406,-0.809082,0.359863,0
14020,-0.442383,-0.814453,0.365234,0
14040,-0.438965,-0.805176,0.359863,0
14060,-0.444824,-0.803223,0.357422,0
14080,-0.444336,-0.80957,0.358887,0
14100,-0.449707,-0.811523,0.362793,0
14120,-0.444336,-0.813965,0.361328,0
14130,-0.439453,-0.811035,0.35791,0
14150,-0.443359,-0.813477,0.361816,0
14170,-0.440918,-0.810059,0.36084,0
14190,-0.438965,-0.818359,0.364746,0
14210,-0.441895,-0.807617,0.364258,0
14230,-0.446777,-0.810059,0.362305,0
14250,-0.444824,-0.804199,0.361328,0
14270,-0.444824,-0.810059,0.367676,0
14290,-0.444824,-0.810059,0.36377,0
14310,-0.442383,-0.808594,0.367676,0
14330,-0.445312,-0.806152,0.360352,0
14350,-0.440918,-0.805176,0.365234,0
14370,-0.443848,-0.80957,0.367676,0
14390,-0.448242,-0.80127,0.367676,0
14410,-0.446289,-0.804199,0.368652,0
14430,-0.443848,-0.799805,0.367188,0
14450,-0.445801,-0.805176,0.381348,0
14470,-0.447754,-0.804199,0.374512,0
14490,-0.444824,-0.807617,0.375488,0
14510,-0.436035,-0.805176,0.368164,0
14530,-0.443848,-0.8125,0.369141,0
14550,-0.443359,-0.807129,0.364746,0
14570,-0.450195,-0.800293,0.377441,0
14590,-0.45459,-0.797852,0.37207,0
14610,-0.451172,-0.790039,0.37793,0
14630,-0.449707,-0.796875,0.376465,0
14650,-0.443359,-0.793457,0.379883,0
14670,-0.445312,-0.803711,0.375488,0
14690,-0.441406,-0.796875,0.37793,0
14710,-0.443359,-0.805664,0.372559,0
14730,-0.443848,-0.801758,0.37207,0
14750,-0.447266,-0.807617,0.376953,0
14770,-0.449219,-0.802246,0.376953,0
14790,-0.449219,-0.805664,0.374512,0
14810,-0.447754,-0.802734,0.375,0
14830,-0.446777,-0.798828,0.375,0
14850,-0.446289,-0.795898,0.371582,0
14870,-0.447266,-0.79834,0.368164,0
14890,-0.455078,-0.829102,0.357422,0
14910,-0.463867,-0.876465,0.345703,0
14930,-0.472656,-0.962402,0.350586,0
14950,-0.462402,-0.941406,0.387207,0
14970,-0.491211,-0.837402,0.393555,0
14990,-0.50293,-0.751953,0.453613,0
15010,-0.506836,-0.768066,0.387695,0
15030,-0.565918,-0.825684,0.379395,0
15050,-0.521484,-0.919434,0.396484,0
15070,-0.439941,-0.986328,0.447266,0
15090,-0.385254,-0.991699,0.443359,0
15110,-0.354492,-1.18213,0.491211,0
15130,-0.250488,-1.35107,0.513184,0
15150,-0.125488,-1.24854,0.453613,0
15170,-0.125488,-1.08447,0.410156,0
15190,-0.0385742,-1.07178,0.358398,0
15210,0.0830078,-1.06055,0.358887,0
15230,0.109863,-0.995117,0.379395,0
15250,0.118164,-0.938965,0.378418,0
15270,0.147949,-0.913086,0.331055,0
15290,0.216309,-0.836914,0.266113,0
15310,0.251465,-0.757812,0.24707,0
15330,0.24707,-0.682617,0.26709,0
15350,0.245605,-0.678711,0.269531,0
15370,0.279297,-0.688965,0.224609,0
15390,0.326172,-0.688477,0.185547,0
15410,0.307617,-0.632812,0.160156,0
15430,0.34082,-0.643066,0.141113,0
15450,0.359375,-0.603027,0.148438,0
15470,0.40332,-0.653809,0.130371,0
15490,0.37793,-0.67334,0.109375,0
15510,0.357422,-0.655273,0.123535,0
15530,0.402832,-0.650391,0.104004,0
15550,0.438477,-0.674316,0.0859375,0
15570,0.453613,-0.693848,0.110352,0
15590,0.501465,-0.741211,0.0849609,0
15610,0.572266,-0.797852,0.107422,0
15630,0.602051,-0.834473,0.139648,0
15650,0.588379,-0.790527,0.151855,0
15670,0.603516,-0.806152,0.118652,0
15690,0.617188,-0.818848,0.0976562,0
15710,0.610352,-0.813965,0.108398,0
15730,0.57666,-0.80127,0.114746,0
15750,0.550293,-0.801758,0.106934,0
15770,0.530762,-0.790527,0.113281,0
15790,0.532227,-0.770996,0.12207,0
15810,0.532715,-0.773926,0.127441,0
15830,0.532715,-0.762207,0.145508,0
15850,0.523438,-0.757812,0.144531,0
15870,0.530762,-0.749023,0.14502,0
15890,0.554199,-0.76416,0.128418,0
15910,0.565918,-0.76416,0.132812,0
15930,0.568359,-0.77002,0.143555,0
15950,0.572266,-0.750488,0.148438,0
15970,0.592773,-0.762207,0.124023,0
15990,0.611328,-0.78125,0.126953,0
16010,0.600586,-0.802246,0.12793,0
16030,0.580078,-0.851562,0.151855,0
16050,0.537598,-0.82666,0.183594,0
16070,0.48877,-0.808594,0.173828,0
16090,0.474609,-0.865234,0.178223,0
16110,0.419434,-0.867676,0.239258,0
16130,0.347656,-0.835938,0.255859,0
16150,0.364258,-0.867188,0.242676,0
16170,0.399414,-0.893555,0.247559,0
16190,0.387207,-0.899414,0.270996,0
16210,0.383789,-0.870605,0.269043,0
16230,0.387695,-0.846191,0.254395,0
16250,0.390137,-0.845215,0.246094,0
16270,0.372559,-0.880859,0.248535,0
16290,0.341797,-0.880859,0.248535,0
16310,0.309082,-0.861328,0.265137,0
16330,0.290527,-0.870605,0.265137,0
16350,0.297852,-0.882812,0.255371,0
16370,0.285156,-0.881348,0.282227,0
16390,0.285156,-0.882812,0.270508,0
16410,0.330078,-0.891113,0.262695,0
16430,0.346191,-0.893555,0.260254,0
16450,0.348633,-0.88916,0.268555,0
16470,0.345215,-0.885254,0.248535,0
16490,0.370605,-0.89502,0.249023,0
16510,0.380371,-0.904785,0.24707,0
16530,0.366699,-0.902832,0.219238,0
16550,0.324707,-0.882812,0.223633,0
16570,0.293457,-0.872559,0.243652,0
16590,0.288086,-0.860352,0.248535,0
16610,0.311035,-0.866211,0.236816,0
16630,0.333984,-0.889648,0.252441,0
16650,0.334961,-0.882324,0.259766,0
16670,0.321289,-0.862793,0.257812,0
16690,0.336426,-0.871582,0.262207,0
16710,0.341797,-0.891602,0.254883,0
16730,0.339844,-0.904785,0.260254,0
16750,0.325684,-0.903809,0.235352,0
16770,0.334961,-0.889648,0.225586,0
16790,0.353027,-0.869141,0.225586,0
16810,0.327148,-0.858887,0.239258,0
16830,0.300781,-0.855469,0.239746,0
16850,0.302246,-0.869629,0.243652,0
16870,0.321777,-0.890137,0.233887,0
16890,0.331055,-0.892578,0.245605,0
16910,0.322266,-0.882812,0.24707,0
16930,0.327148,-0.89209,0.246582,0
16950,0.34082,-0.87793,0.246582,0
16970,0.338867,-0.859863,0.246582,0
16990,0.328613,-0.893066,0.236328,0
17010,0.333984,-0.896484,0.263672,0
17030,0.308594,-0.871582,0.287598,0
17050,0.290527,-0.873535,0.255371,0
17070,0.326172,-0.902832,0.220703,1000
17090,0.359863,-0.90918,0.248535,0
17110,0.346191,-0.848145,0.228516,0
17130,0.332031,-0.871582,0.227051,0
17150,0.335449,-0.888184,0.280762,0
17170,0.347656,-0.896484,0.260254,0
17190,0.350098,-0.90332,0.248535,0
17210,0.33252,-0.874023,0.262695,0
17230,0.340332,-0.871582,0.23291,0
17250,0.367188,-0.893555,0.239258,0
17270,0.334473,-0.887695,0.271484,0
17290,0.295898,-0.854492,0.260742,0
17310,0.316895,-0.855469,0.250488,0
17330,0.336914,-0.886719,0.260254,0
17350,0.320801,-0.880371,0.260742,0
17370,0.300781,-0.884766,0.258301,0
17390,0.3125,-0.871582,0.258789,0
17410,0.32666,-0.868164,0.254395,0
17430,0.311523,-0.854004,0.249512,0
17450,0.307129,-0.877441,0.254883,0
17470,0.317871,-0.884766,0.265137,0
17490,0.326172,-0.891113,0.259766,0
17510,0.32666,-0.879883,0.255859,0
17530,0.333008,-0.88916,0.258301,0
17550,0.322754,-0.875488,0.25,0
17560,0.315918,-0.880371,0.246094,0
17580,0.310059,-0.896973,0.25293,0
17600,0.309082,-0.885742,0.255371,0
17620,0.317383,-0.882812,0.256348,0
17640,0.334473,-0.875977,0.255859,0
17660,0.319824,-0.900391,0.25293,0
17680,0.302734,-0.911133,0.250977,0
17700,0.296387,-0.893066,0.27002,0
17720,0.306152,-0.885742,0.26123,0
17740,0.325195,-0.880371,0.276367,0
17760,0.322266,-0.875488,0.277344,0
17780,0.316895,-0.876465,0.285156,0
17800,0.308105,-0.881836,0.277832,0
17820,0.307129,-0.878418,0.271484,0
17840,0.320312,-0.890137,0.256348,0
17860,0.325684,-0.884277,0.240234,0
17880,0.29834,-0.869629,0.241211,0
17900,0.283203,-0.854492,0.239258,0
17920,0.291504,-0.864258,0.255371,0
17940,0.307617,-0.841797,0.247559,0
17960,0.332031,-0.884277,0.257324,0
17980,0.341309,-0.886719,0.26416,0
18000,0.327637,-0.890137,0.23877,0
18020,0.333984,-0.881836,0.234375,0
18040,0.360352,-0.850098,0.242676,0
18060,0.370117,-0.84668,0.230957,0
18080,0.37207,-0.858398,0.238281,0
18100,0.380371,-0.868652,0.245117,0
18120,0.381348,-0.874023,0.222168,0
18140,0.362793,-0.855469,0.229492,0
18160,0.36084,-0.828613,0.239746,0
18180,0.40918,-0.822754,0.227051,0
18200,0.446777,-0.837402,0.230469,0
18220,0.413574,-0.84375,0.218262,0
18240,0.413086,-0.844238,0.242676,0
18260,0.452637,-0.822266,0.251465,0
18280,0.473145,-0.838867,0.246582,0
18300,0.446777,-0.852051,0.234375,0
18320,0.439941,-0.834473,0.237305,0
18340,0.456543,-0.828613,0.236328,0
18360,0.474609,-0.824219,0.248535,0
18380,0.480469,-0.817871,0.248535,0
18400,0.466309,-0.810059,0.249023,0
18420,0.473633,-0.812988,0.256348,0
18440,0.480469,-0.81543,0.252441,0
18460,0.514648,-0.808105,0.261719,0
18480,0.53418,-0.79834,0.258301,0
18500,0.51709,-0.785645,0.251465,0
18520,0.493164,-0.788574,0.253906,0
18540,0.479492,-0.792969,0.266602,0
18560,0.496582,-0.773926,0.274902,0
18580,0.514648,-0.796387,0.257812,0
18600,0.516602,-0.786621,0.263672,0
18620,0.499512,-0.78125,0.263672,0
18640,0.5,-0.771484,0.270996,0
18660,0.510742,-0.768066,0.274414,0
18680,0.520508,-0.773438,0.279297,0
18700,0.507812,-0.776855,0.28125,0
18720,0.509766,-0.776855,0.269043,0
18740,0.527832,-0.773438,0.28125,0
18760,0.525391,-0.764648,0.294434,0
18780,0.539062,-0.743652,0.293457,0
18800,0.533691,-0.732422,0.290527,0
18820,0.53418,-0.729492,0.291992,0
18840,0.540527,-0.723633,0.288086,0
18860,0.550781,-0.710449,0.289551,0
18880,0.550293,-0.694336,0.291016,0
18900,0.575195,-0.684082,0.293457,0
18920,0.59082,-0.68457,0.30127,0
18940,0.595215,-0.687988,0.302246,0
18960,0.587402,-0.667969,0.300781,0
18980,0.599121,-0.660645,0.299805,0
19000,0.602051,-0.661621,0.310059,0
19020,0.608887,-0.645996,0.313477,0
19040,0.589844,-0.629883,0.29834,0
19060,0.587402,-0.637207,0.298828,0
19080,0.585449,-0.640625,0.304688,0
19100,0.576172,-0.637207,0.312988,0
19120,0.591309,-0.63916,0.320312,0
19140,0.593262,-0.634766,0.353516,0
19160,0.582031,-0.63916,0.375488,0
19180,0.559082,-0.631836,0.35498,0
19200,0.579102,-0.629395,0.352051,0
19220,0.592285,-0.638672,0.370117,0
19240,0.601074,-0.657227,0.361328,0
19260,0.608887,-0.652832,0.358398,0
19280,0.604492,-0.666504,0.362793,0
19300,0.603516,-0.671875,0.372559,0
19320,0.591797,-0.666016,0.387207,0
19340,0.588379,-0.657227,0.385742,0
19360,0.597656,-0.652832,0.395996,0
19380,0.601562,-0.655273,0.392578,0
19400,0.594727,-0.679688,0.404785,0
19420,0.571777,-0.695801,0.417969,0
19430,0.53418,-0.682617,0.412109,0
19460,0.55127,-0.662109,0.428711,0
19480,0.563965,-0.661133,0.41748,0
19500,0.562012,-0.665527,0.40332,0
19520,0.553223,-0.666016,0.416504,0
19540,0.544922,-0.681152,0.403809,0
19550,0.541016,-0.677734,0.402832,0
19570,0.527344,-0.672363,0.406738,0
19590,0.519531,-0.677734,0.410645,0
19610,0.498535,-0.68457,0.404785,0
19630,0.485352,-0.685059,0.422363,0
19650,0.490234,-0.694336,0.439453,0
19670,0.490234,-0.692383,0.426758,0
19690,0.492676,-0.687012,0.425781,0
19710,0.489258,-0.684082,0.452637,0
19730,0.481445,-0.708496,0.45752,0
19750,0.47168,-0.711914,0.459961,0
19770,0.468262,-0.709961,0.461914,0
19790,0.481445,-0.723145,0.455078,0
19810,0.458008,-0.713379,0.442383,0
19830,0.431641,-0.700195,0.460449,0
19850,0.418457,-0.713867,0.463867,0
19870,0.423828,-0.720215,0.449707,0
19890,0.416992,-0.708496,0.458984,0
19910,0.400879,-0.723145,0.47168,0
19930,0.385742,-0.716309,0.473633,0
19950,0.379395,-0.710449,0.475098,0
19970,0.383301,-0.727539,0.490234,0
19990,0.361816,-0.745605,0.491211,0
20010,0.334473,-0.746582,0.496094,0
20030,0.330078,-0.752441,0.51709,0
20050,0.32373,-0.739746,0.497559,0
20070,0.32959,-0.741211,0.504395,0
20090,0.338867,-0.755859,0.525879,0
20110,0.322754,-0.739258,0.518066,0
20130,0.304688,-0.750977,0.502441,0
20150,0.278809,-0.760742,0.484375,0
20170,0.262695,-0.780273,0.503906,0
20190,0.240723,-0.773926,0.515137,0
20210,0.232422,-0.771484,0.494141,0
20230,0.234863,-0.76123,0.473633,0
20250,0.213867,-0.74707,0.473633,0
20270,0.167969,-0.762695,0.499512,0
20290,0.132812,-0.804199,0.490723,0
20310,0.151855,-0.822266,0.468262,0
20330,0.169922,-0.812012,0.462402,0
20350,0.170898,-0.795898,0.463379,0
20370,0.191895,-0.805664,0.503418,0
20390,0.220215,-0.833496,0.543457,0
20410,0.230957,-0.831543,0.51709,0
20430,0.236816,-0.814453,0.47998,0
20450,0.241211,-0.781738,0.473145,0
20470,0.223145,-0.768555,0.47168,0
20490,0.213867,-0.777832,0.467285,0
20510,0.211914,-0.796875,0.459961,0
20530,0.211914,-0.802246,0.460449,0
20550,0.210938,-0.800293,0.460938,0
20570,0.199219,-0.80127,0.463379,0
20590,0.203613,-0.786133,0.473145,0
20610,0.202148,-0.804199,0.471191,0
20630,0.1875,-0.808594,0.463379,0
20650,0.205078,-0.819824,0.456055,0
20670,0.219727,-0.812988,0.458496,0
20690,0.209473,-0.798828,0.445312,0
20710,0.206055,-0.803223,0.455078,0
20730,0.213379,-0.820801,0.470703,0
20750,0.209961,-0.826172,0.452148,0
20770,0.220703,-0.825195,0.44873,0
20790,0.225586,-0.82666,0.456543,0
20810,0.211914,-0.816406,0.449219,0
20830,0.20459,-0.822754,0.455078,0
20850,0.198242,-0.825684,0.460449,0
20870,0.194824,-0.84082,0.44873,0
20890,0.203125,-0.836914,0.445801,0
20920,0.189941,-0.806152,0.425293,0
20940,0.197266,-0.824219,0.433594,0
20960,0.193848,-0.82959,0.432129,0
20980,0.187012,-0.825684,0.433105,0
21000,0.203613,-0.837402,0.432617,0
21020,0.223145,-0.837402,0.436035,0
21040,0.211914,-0.838867,0.447266,0
21060,0.200195,-0.833984,0.429688,0
21080,0.202637,-0.84668,0.433105,0
21100,0.209961,-0.836426,0.427246,0
21120,0.198242,-0.822266,0.433105,0
21140,0.181641,-0.827148,0.42334,0
21160,0.176758,-0.837891,0.421875,0
21180,0.192383,-0.840332,0.427734,0
21200,0.181641,-0.832031,0.436035,0
21220,0.17334,-0.838379,0.42041,0
21240,0.186035,-0.846191,0.428711,0
21260,0.1875,-0.835449,0.427734,0
21280,0.181641,-0.825195,0.409668,0
21300,0.189453,-0.848145,0.398438,0
21320,0.202148,-0.857422,0.413086,0
21340,0.181641,-0.855469,0.392578,0
21360,0.17334,-0.847168,0.39502,0
21380,0.180664,-0.870605,0.393066,0
21400,0.189453,-0.872559,0.388672,0
21420,0.17041,-0.868164,0.379395,0
21440,0.160645,-0.874512,0.375977,0
21460,0.17627,-0.867188,0.374512,0
21480,0.175781,-0.86377,0.37207,0
21500,0.177246,-0.86084,0.369141,0
21520,0.180176,-0.867188,0.365234,0
21540,0.178223,-0.859863,0.374023,0
21560,0.203125,-0.86377,0.373047,0
21580,0.226562,-0.871582,0.367188,0
21600,0.212402,-0.878418,0.358398,0
21620,0.200684,-0.86377,0.355469,0
21640,0.210449,-0.857422,0.349121,0
21660,0.226074,-0.855957,0.354004,0
21680,0.248535,-0.86377,0.359375,0
21700,0.259277,-0.862305,0.358887,0
21720,0.23877,-0.863281,0.344238,0
21740,0.243652,-0.868652,0.342773,0
21760,0.263184,-0.861328,0.347168,0
21780,0.271484,-0.861816,0.358887,0
21800,0.270508,-0.856445,0.36084,0
21820,0.256348,-0.862305,0.353516,0
21840,0.248535,-0.868652,0.333008,0
21860,0.252441,-0.872559,0.345215,0
21880,0.269531,-0.867188,0.352051,0
21900,0.260254,-0.848145,0.32666,0
21920,0.250488,-0.86084,0.341309,0
21940,0.272949,-0.887207,0.344238,0
21960,0.285645,-0.879395,0.321777,0
21980,0.261719,-0.867676,0.304199,0
22000,0.264648,-0.871094,0.294922,0
22020,0.307617,-0.876465,0.317383,0
22040,0.29541,-0.885254,0.331055,0
22060,0.258789,-0.865234,0.300293,0
22080,0.257324,-0.861816,0.294434,0
22100,0.266113,-0.858887,0.291992,0
22120,0.27002,-0.856445,0.308594,0
22140,0.268066,-0.853516,0.308594,0
22160,0.284668,-0.85791,0.306641,0
22180,0.319824,-0.868164,0.312988,0
22200,0.325684,-0.865234,0.314453,0
22220,0.314941,-0.865723,0.321777,0
22240,0.313965,-0.851074,0.317871,0
22260,0.301758,-0.847656,0.301758,0
22280,0.296875,-0.833496,0.314453,0
22300,0.300293,-0.841797,0.312988,0
22320,0.346191,-0.838379,0.301758,0
22340,0.368164,-0.847656,0.277832,0
22360,0.370605,-0.847168,0.269043,0
22380,0.379395,-0.854492,0.266602,0
22400,0.375977,-0.847656,0.289062,0
22420,0.368652,-0.850586,0.294434,0
22440,0.361816,-0.858398,0.297363,0
22460,0.359863,-0.856934,0.270508,0
22480,0.369629,-0.852539,0.267578,0
22500,0.37207,-0.848145,0.274902,0
22520,0.38916,-0.840332,0.254883,0
22540,0.413574,-0.844238,0.264648,0
22560,0.438965,-0.858398,0.284668,0
22580,0.411621,-0.838379,0.280762,0
22600,0.36377,-0.828125,0.275391,0
22620,0.352539,-0.831543,0.266602,0
22640,0.419434,-0.845215,0.250488,0
22660,0.457031,-0.842285,0.248535,0
22680,0.442383,-0.830566,0.239258,0
22700,0.445801,-0.821289,0.240723,0
22720,0.463379,-0.824219,0.262695,0
22740,0.459473,-0.839355,0.26416,0
22760,0.461914,-0.859375,0.253906,0
22780,0.468262,-0.858887,0.238281,0
22800,0.485352,-0.82959,0.227051,0
22820,0.482422,-0.811035,0.240234,0
22840,0.472168,-0.800293,0.239746,0
22860,0.458008,-0.812988,0.210938,0
22880,0.472656,-0.818848,0.222656,0
22900,0.479492,-0.824219,0.250488,0
22920,0.473633,-0.810547,0.237305,0
22940,0.477539,-0.803711,0.226074,0
22950,0.488281,-0.806152,0.225098,0
22970,0.487305,-0.790039,0.233887,0
22990,0.474609,-0.793457,0.226074,0
23010,0.476074,-0.790527,0.205566,0
23030,0.487793,-0.803711,0.20166,0
23050,0.503906,-0.806641,0.208496,0
23070,0.493652,-0.815918,0.210938,0
23090,0.48584,-0.80127,0.211426,0
23110,0.496094,-0.785156,0.210938,0
23130,0.495605,-0.794922,0.219238,0
23150,0.496582,-0.793945,0.213867,0
23170,0.502441,-0.80127,0.221191,0
23190,0.518555,-0.791016,0.216309,0
23210,0.527832,-0.789062,0.212891,0
23230,0.519531,-0.790527,0.219238,0
23250,0.501465,-0.796875,0.214844,0
23270,0.503906,-0.775879,0.212402,0
23290,0.520996,-0.774414,0.213867,0
23310,0.53418,-0.780762,0.213867,0
23330,0.533203,-0.779297,0.209961,0
23350,0.526367,-0.779297,0.21582,0
23370,0.52002,-0.771973,0.217285,0
23390,0.525879,-0.779297,0.208496,0
23410,0.544922,-0.779297,0.202148,0
23430,0.546875,-0.776367,0.205566,0
23450,0.532715,-0.770508,0.209473,0
23470,0.536621,-0.778809,0.206543,0
23490,0.537109,-0.783691,0.205566,0
23510,0.538574,-0.770996,0.20459,0
23530,0.545898,-0.760742,0.205566,0
23550,0.558105,-0.769043,0.205078,0
23570,0.556641,-0.77002,0.200195,0
23590,0.550781,-0.780762,0.200195,0
23610,0.548828,-0.774414,0.200195,0
23630,0.551758,-0.755859,0.202637,0
23650,0.573242,-0.768066,0.209961,0
23670,0.577637,-0.762695,0.19873,0
23690,0.5625,-0.767578,0.194336,0
23710,0.551758,-0.75293,0.211914,0
23730,0.550781,-0.762207,0.203613,0
23750,0.552246,-0.759277,0.196289,0
23770,0.562988,-0.756348,0.208984,0
23790,0.569824,-0.738281,0.208008,0
23810,0.575684,-0.73584,0.208496,0
23830,0.599609,-0.739746,0.209473,0
23850,0.599121,-0.746094,0.208496,0
23870,0.585938,-0.751953,0.213379,0
23890,0.585449,-0.739258,0.217773,0
23910,0.597656,-0.73291,0.219727,0
23930,0.600098,-0.730957,0.206543,0
23950,0.591797,-0.737305,0.213867,0
23970,0.59375,-0.735352,0.213379,0
23990,0.599121,-0.743164,0.212402,0
24010,0.588867,-0.722168,0.215332,0
24030,0.58252,-0.716797,0.202637,0
24050,0.604492,-0.713379,0.211914,0
24070,0.595215,-0.725586,0.233398,0
24090,0.575684,-0.735352,0.226074,0
24110,0.583984,-0.740723,0.22168,0
24130,0.595215,-0.733887,0.23291,0
24150,0.589355,-0.717285,0.224121,0
24170,0.605957,-0.710449,0.213379,0
24190,0.615234,-0.711914,0.216797,0
24210,0.615234,-0.712891,0.221191,0
24230,0.615723,-0.716797,0.220703,0
24250,0.621094,-0.717285,0.219727,0
24270,0.623047,-0.724121,0.220703,0
24290,0.600586,-0.710449,0.224609,0
24310,0.603027,-0.694336,0.223633,0
24330,0.618652,-0.690918,0.22998,0
24350,0.624023,-0.695801,0.23584,0
24370,0.60791,-0.706055,0.234863,0
24390,0.601074,-0.71582,0.226074,0
24410,0.614746,-0.708496,0.226562,0
24430,0.62207,-0.697266,0.241699,0
24450,0.609375,-0.681641,0.233398,0
24470,0.616211,-0.691895,0.220703,0
24490,0.634766,-0.693359,0.236816,0
24510,0.625,-0.703125,0.235352,0
24530,0.617188,-0.697754,0.22998,0
24550,0.621582,-0.695801,0.220703,0
24570,0.641113,-0.689453,0.224121,0
24590,0.635254,-0.68457,0.23584,0
24610,0.626953,-0.681641,0.227539,0
24630,0.626465,-0.68457,0.229004,0
24650,0.632812,-0.696777,0.227051,0
24670,0.632812,-0.694824,0.239746,0
24690,0.631348,-0.689941,0.233887,0
24710,0.618164,-0.688477,0.210938,0
24730,0.615234,-0.689453,0.22168,0
24750,0.619629,-0.685547,0.230469,0
24770,0.628906,-0.686523,0.237793,0
24790,0.618652,-0.6875,0.23291,0
24810,0.612793,-0.692871,0.229004,0
24830,0.616211,-0.699219,0.234863,0
24850,0.618652,-0.694824,0.228027,0
24870,0.619141,-0.687988,0.228027,0
24890,0.609375,-0.692383,0.230957,0
24910,0.608887,-0.705078,0.223633,0
24930,0.606934,-0.703613,0.230469,0
24950,0.604492,-0.699219,0.231445,0
24960,0.604492,-0.69043,0.238281,0
24980,0.616699,-0.701172,0.244629,0
25000,0.617676,-0.707031,0.254395,0
25020,0.614746,-0.704102,0.243652,0
25040,0.609375,-0.701172,0.238281,0
25060,0.618164,-0.705078,0.240234,0
25080,0.604492,-0.708008,0.246582,0
25100,0.605957,-0.704102,0.249512,0
25120,0.612305,-0.699707,0.252441,0
25140,0.612305,-0.700195,0.248047,0
25160,0.611328,-0.70166,0.242676,0
25180,0.624023,-0.703613,0.246094,0
25200,0.605469,-0.71875,0.24707,0
25220,0.59375,-0.726562,0.260742,0
25240,0.602051,-0.725098,0.25,0
25260,0.614258,-0.713867,0.25,0
25280,0.611816,-0.70752,0.248535,0
25300,0.597168,-0.717773,0.254883,0
25320,0.59668,-0.73877,0.255371,0
25340,0.59668,-0.742676,0.258789,0
25360,0.594238,-0.712402,0.26123,0
25380,0.592285,-0.713379,0.25293,0
25400,0.59668,-0.710938,0.248047,0
25420,0.587891,-0.72998,0.25,0
25440,0.586426,-0.728027,0.266113,0
25460,0.579102,-0.727051,0.268555,0
25480,0.558594,-0.724609,0.266602,0
25500,0.544922,-0.724121,0.275879,0
25520,0.550293,-0.719238,0.27002,0
25540,0.55957,-0.729492,0.255859,0
25560,0.550781,-0.719238,0.26416,0
25580,0.564453,-0.716309,0.264648,0
25600,0.566406,-0.727051,0.262207,0
25620,0.54541,-0.75,0.262207,0
25640,0.526367,-0.753418,0.267578,0
25660,0.546387,-0.75293,0.266113,0
25680,0.550781,-0.752441,0.259766,0
25700,0.550781,-0.727051,0.249512,0
25720,0.553223,-0.727539,0.259277,0
25740,0.559082,-0.742676,0.267578,0
25760,0.554199,-0.754395,0.257324,0
25780,0.553223,-0.755371,0.248047,0
25800,0.55957,-0.753906,0.254883,0
25820,0.56543,-0.746582,0.26123,0
25840,0.555664,-0.740723,0.253418,0
25860,0.557129,-0.739258,0.241699,0
25880,0.563965,-0.74707,0.244629,0
25900,0.567383,-0.759766,0.257324,0
25920,0.554688,-0.757324,0.251465,0
25940,0.540527,-0.762695,0.257324,0
25960,0.538574,-0.753906,0.259277,0
25980,0.544922,-0.74707,0.255859,0
26000,0.549805,-0.740234,0.259277,0
26020,0.553223,-0.740723,0.265625,0
26040,0.54834,-0.759766,0.271484,0
26060,0.536133,-0.78125,0.274902,0
26080,0.524902,-0.773926,0.27832,0
26100,0.532227,-0.76416,0.27832,0
26120,0.520508,-0.774902,0.260254,0
26140,0.511719,-0.765137,0.271973,0
26160,0.503906,-0.781738,0.283203,0
26180,0.511719,-0.769043,0.275391,0
26200,0.522949,-0.759766,0.26123,0
26220,0.518555,-0.763184,0.274414,0
26240,0.49707,-0.774414,0.276855,0
26260,0.48584,-0.780762,0.253418,0
26280,0.489746,-0.788574,0.277832,0
26300,0.484375,-0.775391,0.28418,0
26320,0.477051,-0.76416,0.265137,0
26340,0.480469,-0.77832,0.254395,0
26360,0.48877,-0.787109,0.265137,0
26380,0.481445,-0.792969,0.270996,0
26400,0.48584,-0.785645,0.268066,0
26420,0.48877,-0.783691,0.276367,0
26440,0.494629,-0.783203,0.26123,0
26460,0.501465,-0.779785,0.262695,0
26480,0.489258,-0.792969,0.273438,0
26500,0.477051,-0.807129,0.274902,0
26520,0.475586,-0.80127,0.263184,0
26540,0.489746,-0.795898,0.26709,0
26560,0.484375,-0.79248,0.266602,0
26580,0.478027,-0.786621,0.267578,0
26600,0.473145,-0.805176,0.274414,0
26620,0.467285,-0.814941,0.271484,0
26640,0.458008,-0.816895,0.265137,0
26660,0.446289,-0.819824,0.255859,0
26680,0.430664,-0.835449,0.267578,0
26700,0.418945,-0.824707,0.261719,0
26720,0.418945,-0.813965,0.253418,0
26740,0.419434,-0.812988,0.257324,0
26760,0.404785,-0.821777,0.264648,0
26780,0.400391,-0.834961,0.259766,0
26800,0.40332,-0.836914,0.270996,0
26820,0.395996,-0.841797,0.26123,0
26840,0.407227,-0.833496,0.254883,0
26860,0.415039,-0.845703,0.26709,0
26880,0.397461,-0.848145,0.269531,0
26900,0.370605,-0.858887,0.262695,0
26920,0.376465,-0.864258,0.267578,0
26940,0.365234,-0.862305,0.274414,0
26960,0.344238,-0.86084,0.275391,0
26980,0.327637,-0.855957,0.265625,0
27000,0.333008,-0.844727,0.261719,0
27020,0.334961,-0.842285,0.265625,0
27040,0.32666,-0.857422,0.26416,0
27060,0.342285,-0.86377,0.254883,0
27080,0.355957,-0.875977,0.260254,0
27100,0.355957,-0.862793,0.254395,0
27120,0.352051,-0.880371,0.254883,0
27140,0.363281,-0.88916,0.26416,0
27160,0.359863,-0.888184,0.26709,0
27180,0.34082,-0.879395,0.244141,0
27200,0.34668,-0.895508,0.247559,0
27220,0.34668,-0.896484,0.255859,0
27240,0.341309,-0.888672,0.249023,0
27260,0.344727,-0.88916,0.233887,0
27280,0.342773,-0.898926,0.228516,0
27300,0.324707,-0.902832,0.242188,0
27320,0.316895,-0.88623,0.232422,0
27340,0.317383,-0.898438,0.237305,0
27360,0.318848,-0.898438,0.225098,0
27380,0.310547,-0.908203,0.222168,0
27400,0.32373,-0.912598,0.22168,0
27420,0.324219,-0.894531,0.225098,0
27440,0.29834,-0.882812,0.221191,0
27460,0.277344,-0.881348,0.216797,0
27480,0.294434,-0.88623,0.215332,0
27500,0.306152,-0.886719,0.219238,0
27520,0.291992,-0.875977,0.205078,0
27540,0.283203,-0.86084,0.193359,0
27560,0.314453,-0.862793,0.194336,0
27580,0.355957,-0.862305,0.216309,0
27600,0.345703,-0.882324,0.231934,0
27620,0.333496,-0.882812,0.222168,0
27640,0.357422,-0.895996,0.209961,0
27660,0.349609,-0.904785,0.208496,0
27680,0.32666,-0.900391,0.203613,0
27700,0.324707,-0.890137,0.181641,0
27720,0.350098,-0.876465,0.178711,0
27740,0.343262,-0.898926,0.185059,0
27760,0.314453,-0.900391,0.185547,0
27780,0.328125,-0.911133,0.171387,0
27800,0.348633,-0.92041,0.165527,0
27820,0.352539,-0.912598,0.152832,0
27840,0.340332,-0.875977,0.156738,0
27860,0.344238,-0.854492,0.15918,0
27880,0.381836,-0.862793,0.175293,0
27900,0.399902,-0.908203,0.182617,0
27920,0.384277,-0.903809,0.146973,0
27940,0.394531,-0.874512,0.140137,0
27960,0.393066,-0.883301,0.129883,0
27980,0.37793,-0.893555,0.120605,0
28000,0.364258,-0.896484,0.116699,0
28020,0.382812,-0.892578,0.12207,0
28040,0.379395,-0.895996,0.133789,0
28060,0.379883,-0.893066,0.114258,0
28080,0.369629,-0.893555,0.102051,0
28100,0.374512,-0.894043,0.106445,0
28120,0.375977,-0.891113,0.114258,0
28140,0.365234,-0.891113,0.0932617,0
28160,0.374023,-0.898926,0.09375,0
28180,0.375,-0.895508,0.0893555,0
28200,0.382324,-0.886719,0.0908203,0
28220,0.390625,-0.884277,0.0908203,0
28240,0.378906,-0.888672,0.0795898,0
28260,0.37793,-0.88623,0.0703125,0
28280,0.385742,-0.871582,0.074707,0
28300,0.416016,-0.864746,0.0712891,0
28320,0.470703,-0.873047,0.0834961,0
28340,0.478516,-0.874023,0.0693359,0
28360,0.475098,-0.856445,0.0708008,0
28370,0.493652,-0.866699,0.0927734,0
28390,0.51709,-0.875488,0.0883789,0
28410,0.506836,-0.878906,0.0605469,0
28430,0.514648,-0.867676,0.0405273,0
28450,0.529297,-0.849121,0.0253906,0
28470,0.53125,-0.84375,0.015625,0
28490,0.519531,-0.833984,0.0302734,0
28510,0.522461,-0.837891,0.0292969,0
28530,0.530762,-0.815918,0.0297852,0
28550,0.541016,-0.802734,0.0239258,0
28570,0.544434,-0.804688,0.019043,0
28590,0.543457,-0.814453,0.0102539,0
28610,0.543945,-0.806152,0.012207,0
28630,0.556152,-0.801758,0.0170898,0
28650,0.581543,-0.793457,0.0195312,0
28670,0.601562,-0.786133,0.0200195,0
28690,0.599609,-0.786133,0.00195312,0
28710,0.613281,-0.800781,-0.00244141,0
28730,0.612793,-0.805176,0.0131836,0
28750,0.599609,-0.78418,0.000488281,0
28770,0.588867,-0.762695,-0.00146484,0
28790,0.586914,-0.747559,-0.0107422,0
28810,0.567871,-0.73877,-0.0136719,0
28830,0.564453,-0.753906,-0.0253906,0
28850,0.606445,-0.780762,-0.0371094,0
28870,0.632324,-0.773438,-0.015625,0
28890,0.611328,-0.762207,-0.00732422,0
28910,0.616699,-0.750977,-0.0205078,0
28930,0.635254,-0.763672,-0.019043,0
28950,0.635742,-0.777832,-0.0180664,0
28970,0.62207,-0.786621,-0.0166016,0
28990,0.616699,-0.783203,-0.0322266,0
29010,0.622559,-0.756836,-0.0341797,0
29030,0.620605,-0.763672,-0.0205078,0
29050,0.628418,-0.760254,-0.00537109,0
29070,0.619629,-0.756836,-0.015625,0
29090,0.619141,-0.740723,-0.034668,0
29110,0.640625,-0.751953,-0.034668,0
29130,0.666504,-0.760742,-0.00634766,0
29150,0.643066,-0.754395,-0.0078125,0
29170,0.626953,-0.753418,-0.03125,0
29190,0.637695,-0.748047,-0.0375977,0
29210,0.648926,-0.764648,-0.0126953,0
29230,0.652344,-0.747559,-0.0107422,0
29250,0.652344,-0.723145,-0.0288086,0
29270,0.672363,-0.72998,-0.027832,0
29290,0.672852,-0.742676,-0.0112305,0
29310,0.651367,-0.726562,-0.00830078,0
29330,0.654297,-0.725098,-0.0180664,0
29350,0.680664,-0.725098,-0.0219727,0
29370,0.683105,-0.737305,-0.0146484,0
29390,0.663574,-0.721191,-0.0078125,0
29410,0.669434,-0.702637,-0.0200195,0
29430,0.704102,-0.71875,-0.00732422,0
29450,0.689941,-0.728516,-0.00146484,0
29470,0.657227,-0.731445,0.00195312,0
29490,0.664551,-0.722656,0.000488281,0
29510,0.689941,-0.704102,-0.00244141,0
29530,0.695312,-0.688477,-0.0151367,0
29550,0.68457,-0.695801,-0.00976562,0
29570,0.683105,-0.700195,-0.00390625,0
29590,0.683594,-0.712891,0.00488281,0
29610,0.69043,-0.705566,-0.00634766,0
29630,0.6875,-0.692383,-0.0126953,0
29650,0.687988,-0.683594,-0.00732422,0
29670,0.685547,-0.681152,0.0102539,0
29690,0.680664,-0.694824,0.00488281,0
29710,0.683105,-0.702637,0.00439453,0
29730,0.69043,-0.692383,0.0078125,0
29750,0.698242,-0.660645,0.00634766,0
29770,0.691895,-0.660645,0.00634766,0
29790,0.699707,-0.673828,0.0131836,0
29810,0.710449,-0.695801,0.015625,0
29830,0.706055,-0.677246,0.00976562,0
29850,0.702148,-0.67041,0.00634766,0
29870,0.710449,-0.666016,-0.00292969,0
29890,0.724609,-0.668945,0.0166016,0
29910,0.716309,-0.668457,0.0449219,0
29930,0.716797,-0.657227,0.0322266,0
29950,0.724609,-0.654785,0.0268555,0
29970,0.724121,-0.660645,0.0175781,0
29990,0.722656,-0.661621,0.0385742,0
30010,0.730469,-0.64502,0.0415039,0
30030,0.729004,-0.64209,0.0444336,0
30050,0.73291,-0.633301,0.0415039,0
30070,0.732422,-0.642578,0.0458984,0
30090,0.739258,-0.636719,0.0405273,0
30110,0.744141,-0.64502,0.0512695,0
30130,0.740723,-0.636719,0.0615234,0
30150,0.743652,-0.62207,0.0551758,0
30170,0.743164,-0.619141,0.0532227,0
30190,0.731934,-0.628906,0.0610352,0
30210,0.720703,-0.63623,0.0795898,0
30240,0.736328,-0.61084,0.0654297,0
30260,0.745117,-0.60791,0.0800781,0
30280,0.723633,-0.624023,0.0957031,0
30300,0.706055,-0.629395,0.0927734,0
30320,0.713867,-0.644531,0.0913086,0
30340,0.72168,-0.638184,0.0922852,0
30350,0.720215,-0.637207,0.090332,0
30370,0.722168,-0.630371,0.0869141,0
30390,0.730469,-0.623535,0.0981445,0
30410,0.724121,-0.631348,0.0952148,0
30430,0.730957,-0.640625,0.0996094,0
30450,0.75,-0.64209,0.0932617,0
30470,0.739746,-0.62793,0.0820312,0
30490,0.730957,-0.634766,0.0859375,0
30510,0.735352,-0.632324,0.104004,0
30530,0.739258,-0.635254,0.116211,0
30550,0.727539,-0.625488,0.117188,0
30570,0.714355,-0.629883,0.110352,0
30590,0.718262,-0.642578,0.121582,0
30610,0.711426,-0.658691,0.138184,0
30630,0.710449,-0.664062,0.132324,0
30650,0.716309,-0.651367,0.131348,0
30670,0.733398,-0.628418,0.123535,0
30690,0.723145,-0.628418,0.119629,0
30710,0.700195,-0.666504,0.135742,0
30730,0.684082,-0.705078,0.156738,0
30750,0.689941,-0.726074,0.171387,0
30770,0.701172,-0.694336,0.160156,0
30790,0.699707,-0.666992,0.154297,0
30810,0.683105,-0.659668,0.167969,0
30830,0.645508,-0.668945,0.180664,0
30850,0.649902,-0.68457,0.1875,0
30870,0.675781,-0.708984,0.21582,0
30890,0.668457,-0.69043,0.221191,0
30910,0.643555,-0.65332,0.197754,0
30930,0.646973,-0.650879,0.186035,0
30950,0.649414,-0.671387,0.225586,0
30970,0.636719,-0.693848,0.235352,0
30990,0.641602,-0.689941,0.215332,0
31010,0.63916,-0.694336,0.211914,0
31030,0.607422,-0.711914,0.209961,0
31050,0.603027,-0.741211,0.225098,0
31070,0.616699,-0.742676,0.234375,0
31090,0.61377,-0.711426,0.246582,0
31110,0.584961,-0.688965,0.21582,0
31130,0.555176,-0.685547,0.237793,0
31150,0.524902,-0.729492,0.268066,0
31170,0.539551,-0.741699,0.269531,0
31190,0.529297,-0.742188,0.25293,0
31210,0.508301,-0.729492,0.255371,0
31230,0.49707,-0.734375,0.287109,0
31250,0.495605,-0.746582,0.266113,0
31270,0.49707,-0.739746,0.271484,0
31290,0.496582,-0.75293,0.287109,0
31310,0.499512,-0.76709,0.29834,0
31330,0.498535,-0.770996,0.295898,0
31350,0.503418,-0.779297,0.282227,0
31370,0.499023,-0.794922,0.29834,0
31390,0.478516,-0.794434,0.329102,0
31410,0.456055,-0.782227,0.306641,0
31430,0.446777,-0.781738,0.297852,0
31450,0.45166,-0.802246,0.312988,0
31470,0.451172,-0.80127,0.300781,0
31490,0.451172,-0.805176,0.30127,0
31510,0.440918,-0.80127,0.304199,0
31530,0.446777,-0.810059,0.287598,0
31550,0.439941,-0.800293,0.290527,0
31570,0.427246,-0.804688,0.296387,0
31590,0.432129,-0.813477,0.283203,0
31610,0.442871,-0.813477,0.269531,0
31630,0.442383,-0.798828,0.247559,0
31650,0.418457,-0.812988,0.26709,0
31670,0.416016,-0.824707,0.262207,0
31690,0.435547,-0.820801,0.254395,0
31710,0.437988,-0.820801,0.250488,0
31730,0.421387,-0.833496,0.251953,0
31750,0.415039,-0.844727,0.238281,0
31770,0.41748,-0.844238,0.23584,0
31790,0.40918,-0.836914,0.245117,0
31810,0.418945,-0.834473,0.226562,0
31830,0.43457,-0.828613,0.219727,0
31850,0.431641,-0.848145,0.233887,0
31870,0.418457,-0.862305,0.225586,0
31890,0.42334,-0.849609,0.219727,0
31910,0.418945,-0.84082,0.207031,0
31930,0.412109,-0.862793,0.213379,0
31950,0.406738,-0.872559,0.211914,0
31970,0.407715,-0.844727,0.193359,0
31990,0.39502,-0.833984,0.184082,0
32010,0.396484,-0.873535,0.192383,0
32030,0.410645,-0.887207,0.198242,0
32050,0.409668,-0.874023,0.197754,0
32070,0.39502,-0.869141,0.193359,0
32090,0.406738,-0.861816,0.178223,0
32110,0.399902,-0.86377,0.179688,0
32130,0.385742,-0.87793,0.180664,0
32150,0.376465,-0.887695,0.166504,0
32170,0.383789,-0.866699,0.15332,0
32190,0.385254,-0.861816,0.15625,0
32210,0.410156,-0.866699,0.171875,0
32230,0.407227,-0.883301,0.163086,0
32250,0.378418,-0.885254,0.145508,0
32270,0.375977,-0.896484,0.13916,0
32290,0.393555,-0.885254,0.121094,0
32310,0.405762,-0.884766,0.131836,0
32330,0.392578,-0.88623,0.126953,0
32350,0.385254,-0.869141,0.122559,0
32370,0.38916,-0.895508,0.125977,0
32390,0.384766,-0.907715,0.126953,0
32410,0.383789,-0.900879,0.105957,0
32430,0.412109,-0.890625,0.100586,0
32450,0.418945,-0.888184,0.114258,0
32470,0.418457,-0.890137,0.110352,0
32490,0.415527,-0.902832,0.100586,0
32510,0.414062,-0.907227,0.0991211,0
32530,0.431152,-0.904297,0.0859375,0
32550,0.437988,-0.901855,0.0898438,0
32570,0.441895,-0.895996,0.0825195,0
32590,0.428223,-0.893066,0.0727539,0
32610,0.433105,-0.888672,0.0527344,0
32630,0.445801,-0.888184,0.0541992,0
32650,0.450684,-0.881348,0.0727539,0
32670,0.437012,-0.883789,0.0561523,0
32690,0.441895,-0.876953,0.0209961,0
32710,0.443359,-0.885742,0.0327148,0
32730,0.439941,-0.900391,0.0478516,0
32750,0.433594,-0.89209,0.0292969,0
32770,0.447754,-0.867676,0.00244141,0
32790,0.459473,-0.849121,-0.000488281,0
32810,0.443359,-0.867188,0.00439453,0
32830,0.445801,-0.869141,-0.00976562,0
32850,0.457031,-0.874023,-0.0239258,0
32870,0.475586,-0.867188,-0.043457,0
32890,0.462402,-0.873535,-0.034668,0
32910,0.461426,-0.859863,-0.0375977,0
32930,0.490723,-0.869141,-0.0527344,0
32950,0.508789,-0.884277,-0.0585938,0
32970,0.486328,-0.889648,-0.0532227,0
32990,0.477539,-0.865723,-0.0532227,0
33010,0.505371,-0.871094,-0.0429688,0
33030,0.508789,-0.883301,-0.0488281,0
33050,0.489258,-0.882812,-0.0473633,0
33070,0.479004,-0.877441,-0.0522461,0
33090,0.481445,-0.865234,-0.0668945,0
33110,0.482422,-0.868164,-0.0610352,0
33130,0.5,-0.848145,-0.0620117,0
33150,0.506836,-0.849609,-0.0668945,0
33170,0.48877,-0.844238,-0.0678711,0
33190,0.472656,-0.851562,-0.0727539,0
33210,0.489258,-0.855469,-0.0869141,0
33230,0.505859,-0.85791,-0.0981445,0
33250,0.492676,-0.844727,-0.105469,0
33270,0.500977,-0.832031,-0.118164,0
33290,0.51123,-0.836914,-0.116699,0
33310,0.515625,-0.849609,-0.117676,0
33330,0.506836,-0.862793,-0.11084,0
33350,0.486328,-0.858887,-0.108398,0
33370,0.514648,-0.858887,-0.120605,0
33390,0.543945,-0.848145,-0.129395,0
33410,0.523438,-0.838379,-0.141602,0
33430,0.512695,-0.837891,-0.145508,0
33450,0.530273,-0.854492,-0.12793,0
33470,0.532715,-0.865234,-0.130371,0
33490,0.519531,-0.858887,-0.147461,0
33510,0.525879,-0.833008,-0.152832,0
33530,0.533203,-0.825195,-0.152832,0
33550,0.515625,-0.84375,-0.15332,0
33570,0.521973,-0.862793,-0.158691,0
33590,0.525391,-0.859375,-0.14209,0
33610,0.517578,-0.816895,-0.149902,0
33630,0.524414,-0.79834,-0.157227,0
33650,0.52832,-0.805664,-0.166992,0
33670,0.521484,-0.828613,-0.161133,0
33690,0.52002,-0.82959,-0.166992,0
33710,0.521973,-0.826172,-0.170898,0
33730,0.522949,-0.800293,-0.183594,0
33750,0.542969,-0.793945,-0.182129,0
33770,0.542969,-0.806641,-0.180664,0
33780,0.522949,-0.822754,-0.178711,0
33800,0.532715,-0.828125,-0.1875,0
33820,0.557129,-0.822266,-0.1875,0
33840,0.552734,-0.814941,-0.184082,0
33860,0.546387,-0.810059,-0.185059,0
33880,0.54541,-0.821289,-0.174316,0
33900,0.549316,-0.822754,-0.188965,0
33920,0.564941,-0.826172,-0.189941,0
33940,0.558105,-0.81543,-0.186035,0
33960,0.546875,-0.808594,-0.195312,0
33980,0.54541,-0.806152,-0.203613,0
34000,0.56543,-0.797852,-0.199707,0
34020,0.56543,-0.808594,-0.20166,0
34040,0.557617,-0.811035,-0.205078,0
34060,0.554199,-0.810547,-0.20752,0
34080,0.554688,-0.80127,-0.202637,0
34100,0.57373,-0.807129,-0.203613,0
34120,0.586914,-0.79541,-0.205078,0
34140,0.567871,-0.791016,-0.210449,0
34160,0.572266,-0.791992,-0.208008,0
34180,0.592285,-0.801758,-0.202637,0
34200,0.595703,-0.796875,-0.21582,0
34220,0.588867,-0.762695,-0.210938,0
34240,0.593262,-0.766113,-0.210938,0
34260,0.602539,-0.769043,-0.206055,0
34280,0.601074,-0.780762,-0.216797,0
34300,0.603516,-0.773926,-0.225098,0
34320,0.61084,-0.781738,-0.223633,0
34340,0.615723,-0.768555,-0.229492,0
34360,0.605469,-0.76123,-0.233398,0
34380,0.588379,-0.769043,-0.23584,0
34400,0.59375,-0.777832,-0.223145,0
34420,0.608398,-0.77832,-0.224609,0
34440,0.613281,-0.769531,-0.228027,0
34460,0.601562,-0.757812,-0.230957,0
34480,0.616211,-0.751465,-0.241211,0
34500,0.62793,-0.767578,-0.230469,0
34520,0.620605,-0.768066,-0.225098,0
34540,0.605469,-0.773438,-0.233887,0
34560,0.617188,-0.766602,-0.242676,0
34580,0.638184,-0.765625,-0.242188,0
34600,0.62207,-0.749023,-0.228516,0
34620,0.59668,-0.744629,-0.227051,0
34640,0.615234,-0.747559,-0.238281,0
34660,0.631348,-0.753418,-0.233887,0
34680,0.608398,-0.75,-0.239258,0
34700,0.605469,-0.751465,-0.232422,0
34720,0.614746,-0.752441,-0.227051,0
34740,0.621582,-0.75,-0.219238,0
34760,0.61084,-0.742676,-0.233398,0
34780,0.619141,-0.742676,-0.242188,0
34800,0.638184,-0.754883,-0.239258,0
34820,0.632812,-0.743652,-0.224121,0
34840,0.62207,-0.73877,-0.239746,0
34860,0.641602,-0.722656,-0.239258,0
34880,0.664551,-0.724121,-0.253906,0
34900,0.652344,-0.73877,-0.257812,0
34920,0.636719,-0.744629,-0.250488,0
34940,0.651855,-0.744141,-0.244141,0
34960,0.665527,-0.729004,-0.25,0
34980,0.664062,-0.70752,-0.256348,0
35000,0.674316,-0.703125,-0.257324,0
35020,0.669922,-0.71875,-0.254883,0
35040,0.661133,-0.724121,-0.247559,0
35060,0.656738,-0.72168,-0.254395,0
35080,0.664062,-0.699707,-0.250488,0
35100,0.67334,-0.696289,-0.256348,0
35120,0.678711,-0.699707,-0.266113,0
35140,0.674805,-0.714355,-0.256348,0
35160,0.656738,-0.704102,-0.25,0
35180,0.670898,-0.692383,-0.255859,0
35200,0.685547,-0.697754,-0.253418,0
35220,0.674316,-0.675293,-0.240723,0
35240,0.660156,-0.679199,-0.246094,0
35260,0.674316,-0.685059,-0.260742,0
35280,0.689453,-0.697754,-0.249512,0
35300,0.680664,-0.69043,-0.237305,0
35320,0.670898,-0.688477,-0.239746,0
35340,0.672852,-0.679688,-0.249023,0
35360,0.70166,-0.692871,-0.250977,0
35380,0.707031,-0.692383,-0.242676,0
35400,0.681641,-0.696777,-0.245605,0
35420,0.663574,-0.702148,-0.241699,0
35440,0.671387,-0.679199,-0.254395,0
35460,0.699219,-0.674805,-0.262207,0
35480,0.711914,-0.676758,-0.244141,0
35500,0.709473,-0.685059,-0.232422,0
35520,0.703125,-0.692383,-0.246094,0
35540,0.699219,-0.693359,-0.242188,0
35560,0.707031,-0.687988,-0.241699,0
35580,0.709961,-0.675781,-0.234375,0
35600,0.705566,-0.65918,-0.237305,0
35620,0.699707,-0.655273,-0.241699,0
35640,0.692871,-0.672363,-0.245605,0
35660,0.700195,-0.67627,-0.23584,0
35680,0.700195,-0.66748,-0.233398,0
35700,0.704102,-0.65625,-0.237793,0
35720,0.708496,-0.665527,-0.234375,0
35740,0.70752,-0.660645,-0.241211,0
35760,0.70752,-0.67041,-0.25,0
35780,0.731445,-0.671387,-0.239746,0
35790,0.71875,-0.671875,-0.240234,0
35810,0.695312,-0.660645,-0.23291,0
35830,0.70752,-0.662598,-0.241699,0
35850,0.713867,-0.657715,-0.24707,0
35870,0.706543,-0.657227,-0.239746,0
35890,0.707031,-0.654785,-0.23584,0
35910,0.714844,-0.650879,-0.241211,0
35930,0.720215,-0.660645,-0.218262,0
35950,0.720215,-0.671387,-0.224609,0
35970,0.721191,-0.665039,-0.23877,0
35990,0.744629,-0.645508,-0.248535,0
36010,0.738281,-0.660645,-0.241699,0
36030,0.717285,-0.657715,-0.231934,0
36050,0.714844,-0.658691,-0.251465,0
36070,0.727051,-0.671875,-0.243164,0
36090,0.713867,-0.674316,-0.235352,0
36110,0.69873,-0.648438,-0.241211,0
36130,0.699219,-0.615723,-0.242188,0
36150,0.687012,-0.623047,-0.225098,0
36170,0.68457,-0.645996,-0.222168,0
36190,0.710938,-0.660156,-0.233398,0
36210,0.720215,-0.63916,-0.234863,0
36230,0.703125,-0.624512,-0.226562,0
36250,0.693359,-0.616699,-0.242188,1001
36270,0.719238,-0.635742,-0.243652,0
36290,0.749512,-0.662109,-0.229004,0
36310,0.740723,-0.664062,-0.228516,0
36330,0.736816,-0.637207,-0.239258,0
36350,0.722168,-0.617676,-0.232422,0
36370,0.726074,-0.626465,-0.228516,0
36390,0.740723,-0.645508,-0.219727,0
36410,0.747559,-0.645996,-0.217773,0
36430,0.746094,-0.624023,-0.219727,0
36450,0.75,-0.632324,-0.227051,0
36470,0.772461,-0.629883,-0.224609,0
36490,0.762207,-0.627441,-0.225586,0
36510,0.751953,-0.619141,-0.242676,0
36530,0.751465,-0.632324,-0.241211,0
36550,0.73584,-0.640625,-0.235352,0
36570,0.704102,-0.645996,-0.240723,0
36590,0.694824,-0.64209,-0.241699,0
36610,0.685059,-0.622559,-0.225098,0
36630,0.674316,-0.579102,-0.202637,0
36650,0.645508,-0.590332,-0.22998,0
36670,0.608398,-0.595703,-0.197754,0
36690,0.583496,-0.663574,-0.21582,0
36710,0.658691,-0.655273,-0.199219,0
36730,0.66748,-0.569824,-0.124512,0
36750,0.63916,-0.554688,-0.179688,0
36770,0.679199,-0.547852,-0.208984,0
36790,0.699707,-0.60791,-0.165039,0
36810,0.666016,-0.637695,-0.119629,0
36830,0.642578,-0.618164,-0.109375,0
36850,0.67627,-0.57959,-0.131348,0
36870,0.703125,-0.55957,-0.118652,0
36890,0.674316,-0.547852,-0.0883789,0
36910,0.626465,-0.549316,-0.0332031,0
36930,0.598633,-0.545898,-0.0546875,0
36950,0.660645,-0.544434,-0.0996094,0
36970,0.727051,-0.5625,-0.0576172,0
36990,0.681152,-0.571777,0.00390625,0
37010,0.630371,-0.602539,-0.0078125,0
37030,0.713867,-0.61377,-0.0961914,0
37050,0.77002,-0.675293,-0.0307617,0
37070,0.734375,-0.708008,-0.0419922,0
37090,0.73291,-0.725586,-0.065918,0
37110,0.783691,-0.802246,-0.0209961,0
37130,0.740234,-0.841309,0.0810547,0
37150,0.657227,-0.828125,0.0424805,0
37170,0.682617,-0.846191,-0.000976562,0
37190,0.747559,-0.902832,0.0102539,0
37210,0.719238,-0.92334,0.0966797,0
37230,0.609863,-0.864746,0.129395,0
37250,0.5625,-0.844238,0.0883789,0
37270,0.60791,-0.902344,0.0952148,0
37290,0.615723,-0.964844,0.151855,0
37310,0.541992,-0.95752,0.173828,0
37330,0.501465,-0.927734,0.177734,0
37350,0.515625,-0.890137,0.206055,0
37370,0.520508,-0.868164,0.20752,0
37390,0.48877,-0.85791,0.184082,0
37410,0.459961,-0.892578,0.202148,0
37430,0.430176,-0.916992,0.237793,0
37450,0.418945,-0.910156,0.226562,0
37470,0.418457,-0.898926,0.217285,0
37490,0.406738,-0.906738,0.239258,0
37510,0.373535,-0.885742,0.242676,0
37530,0.36377,-0.862793,0.21875,0
37550,0.367676,-0.852051,0.219238,0
37570,0.355469,-0.873535,0.258789,0
37590,0.33252,-0.89502,0.276855,0
37610,0.32959,-0.888184,0.27002,0
37630,0.335938,-0.876953,0.273926,0
37650,0.345215,-0.872559,0.287598,0
37670,0.355469,-0.863281,0.287598,0
37690,0.34375,-0.865723,0.287598,0
37710,0.314453,-0.882324,0.265625,0
37730,0.315918,-0.880371,0.248047,0
37750,0.339844,-0.895996,0.259766,0
37770,0.341309,-0.890625,0.275391,0
37790,0.336914,-0.900879,0.269043,0
37810,0.336426,-0.904785,0.259766,0
37830,0.329102,-0.885254,0.266602,0
37850,0.315918,-0.876465,0.260742,0
37870,0.32959,-0.880859,0.263672,0
37890,0.333496,-0.901855,0.277344,0
37910,0.291016,-0.890137,0.260742,0
37930,0.277832,-0.883789,0.255859,0
37950,0.314941,-0.887695,0.274902,0
37970,0.322266,-0.890625,0.290527,0
37990,0.301758,-0.875977,0.281738,0
38010,0.285156,-0.883301,0.256836,0
38030,0.306152,-0.894043,0.256836,0
38050,0.312012,-0.887695,0.265625,0
38070,0.289062,-0.879395,0.258789,0
38090,0.291016,-0.874023,0.259766,0
38110,0.306641,-0.878906,0.25293,0
38130,0.294434,-0.879883,0.252441,0
38150,0.290039,-0.896973,0.259277,0
38170,0.324219,-0.884766,0.273926,0
38190,0.319824,-0.871094,0.275879,0
38210,0.29834,-0.865723,0.270996,0
38230,0.288086,-0.869141,0.269531,0
38250,0.300293,-0.876953,0.282227,0
38270,0.318848,-0.880371,0.278809,0
38290,0.326172,-0.883301,0.263672,0
38310,0.32959,-0.879883,0.261719,0
38330,0.337402,-0.88623,0.277832,0
38350,0.340332,-0.874512,0.276855,0
38370,0.336426,-0.875,0.280762,0
38390,0.338379,-0.872559,0.291992,0
38410,0.338379,-0.888184,0.28418,0
38430,0.316406,-0.877441,0.279297,0
38450,0.285156,-0.862305,0.278809,0
38470,0.283203,-0.839355,0.298828,0
38490,0.310059,-0.848633,0.304688,1000
38510,0.309082,-0.853027,0.285645,0
38530,0.304688,-0.848633,0.273926,0
38550,0.3125,-0.86377,0.258789,0
38570,0.322266,-0.866211,0.278809,0
38590,0.317383,-0.877441,0.283691,0
38610,0.316895,-0.887695,0.290527,0
38630,0.311523,-0.897461,0.282715,0
38650,0.316406,-0.895508,0.291016,0
38670,0.336426,-0.895996,0.289551,0
38690,0.337891,-0.877441,0.283691,0
38710,0.314453,-0.873535,0.278809,0
38730,0.321777,-0.881348,0.283691,0
38750,0.333008,-0.885254,0.278809,0
38770,0.336914,-0.879883,0.289551,0
38790,0.336426,-0.863281,0.289551,0
38810,0.331543,-0.856445,0.285156,0
38830,0.32373,-0.859863,0.285645,0
38850,0.304199,-0.87207,0.278809,0
38870,0.306641,-0.866211,0.277344,0
38890,0.331055,-0.866699,0.29834,0
38910,0.349609,-0.849121,0.286621,0
38930,0.333984,-0.84082,0.275879,0
38950,0.334473,-0.845703,0.289062,0
38970,0.341309,-0.853027,0.30127,0
38990,0.338379,-0.859375,0.301758,0
39010,0.319336,-0.869141,0.287598,0
39030,0.317871,-0.863281,0.28418,0
39050,0.333496,-0.844238,0.274414,0
39070,0.32959,-0.850586,0.26709,0
39090,0.32666,-0.868164,0.286133,0
39110,0.331055,-0.875,0.289551,0
39130,0.336426,-0.86377,0.280762,0
39150,0.334961,-0.860352,0.289062,0
39170,0.32959,-0.870117,0.297363,0
39190,0.333496,-0.878418,0.283691,0
39210,0.328125,-0.874512,0.273438,0
39220,0.316406,-0.866211,0.271973,0
39240,0.314941,-0.855957,0.265625,0
39260,0.32959,-0.865723,0.282227,0
39280,0.33252,-0.868164,0.280273,0
39300,0.318848,-0.869629,0.27002,0
39320,0.317871,-0.869141,0.272949,0
39340,0.330566,-0.875488,0.274414,0
39360,0.33252,-0.882812,0.28125,0
39380,0.315918,-0.867188,0.288086,0
39400,0.317871,-0.875488,0.288086,0
39420,0.322266,-0.872559,0.277344,0
39440,0.324707,-0.876465,0.274902,0
39460,0.331055,-0.870117,0.282227,0
39480,0.318848,-0.876953,0.273926,0
39500,0.30957,-0.87207,0.258789,0
39520,0.323242,-0.871582,0.265137,0
39540,0.334473,-0.875977,0.279785,0
39560,0.341797,-0.860352,0.289062,0
39580,0.340332,-0.866211,0.285645,0
39600,0.334961,-0.879883,0.283203,0
39620,0.334961,-0.869629,0.275391,0
39640,0.348633,-0.856934,0.275391,0
39660,0.365234,-0.848633,0.281738,0
39680,0.366699,-0.84375,0.287109,0
39700,0.353027,-0.852051,0.291504,0
39720,0.349609,-0.84082,0.300293,0
39740,0.365234,-0.822754,0.306641,0
39760,0.398926,-0.82666,0.296387,0
39780,0.405762,-0.830566,0.280762,0
39800,0.384766,-0.837891,0.258301,0
39820,0.387695,-0.834961,0.256836,0
39840,0.395996,-0.85498,0.253418,0
39860,0.405273,-0.85498,0.262695,0
39880,0.396973,-0.856934,0.257324,0
39900,0.411133,-0.846191,0.266602,0
39920,0.429688,-0.836426,0.280762,0
39940,0.42041,-0.852539,0.272461,0
39960,0.414551,-0.848145,0.269531,0
39980,0.424805,-0.845703,0.283691,0
40000,0.438477,-0.82959,0.277344,0
40020,0.42334,-0.822266,0.265137,0
40040,0.418457,-0.82373,0.258789,0
40060,0.422363,-0.829102,0.269531,0
40080,0.424316,-0.825195,0.265137,0
40100,0.422363,-0.827637,0.269531,0
40120,0.428223,-0.812988,0.261719,0
40140,0.430176,-0.82373,0.258789,0
40160,0.427246,-0.807129,0.263184,0
40180,0.424805,-0.809082,0.271973,0
40200,0.441895,-0.810547,0.278809,0
40220,0.447754,-0.802246,0.265625,0
40240,0.443359,-0.807617,0.262695,0
40260,0.433105,-0.794434,0.264648,0
40280,0.436035,-0.803223,0.269043,0
40300,0.44873,-0.811523,0.265137,0
40320,0.445801,-0.812012,0.258789,0
40340,0.45459,-0.799805,0.254395,0
40360,0.461914,-0.808594,0.27002,0
40380,0.455078,-0.803711,0.283203,0
40400,0.453125,-0.808105,0.268555,0
40420,0.456055,-0.809082,0.268066,0
40440,0.453125,-0.807129,0.27832,0
40460,0.466309,-0.801758,0.274902,0
40480,0.472168,-0.791992,0.283691,0
40500,0.453125,-0.786621,0.273438,0
40520,0.462891,-0.782227,0.252441,0
40540,0.472656,-0.774414,0.27002,0
40560,0.461914,-0.776855,0.288086,0
40580,0.464355,-0.79248,0.288574,0
40600,0.458984,-0.790039,0.272461,0
40620,0.477051,-0.793945,0.262695,0
40640,0.5,-0.776367,0.269043,0
40660,0.491699,-0.776855,0.286621,0
40680,0.475586,-0.787598,0.276367,0
40700,0.480957,-0.796387,0.276367,0
40720,0.497559,-0.802246,0.291992,0
40740,0.491211,-0.785156,0.302734,0
40760,0.471191,-0.781738,0.286133,0
40780,0.484863,-0.774902,0.290527,0
40800,0.488281,-0.78125,0.293457,0
40820,0.48291,-0.771973,0.296387,0
40840,0.483398,-0.773926,0.314941,0
40860,0.479492,-0.787598,0.324219,0
40880,0.490234,-0.787598,0.318848,0
40900,0.497559,-0.76709,0.29834,0
40920,0.5,-0.755371,0.305176,0
40940,0.496582,-0.750977,0.314941,0
40960,0.487793,-0.755859,0.30957,0
40980,0.500977,-0.773926,0.310547,0
41000,0.513184,-0.758301,0.314941,0
41020,0.507324,-0.745605,0.310547,0
41040,0.516602,-0.743652,0.307617,0
41060,0.526855,-0.751465,0.315918,0
41080,0.516113,-0.750488,0.314941,0
41100,0.507324,-0.748535,0.318848,0
41120,0.51123,-0.734375,0.318359,0
41140,0.51709,-0.742188,0.314453,0
41160,0.515625,-0.736816,0.304688,0
41170,0.507812,-0.740723,0.307129,0
41200,0.507324,-0.744141,0.304688,0
41210,0.524414,-0.728516,0.314453,0
41230,0.52832,-0.720703,0.312988,0
41250,0.540527,-0.705566,0.305664,0
41270,0.545898,-0.702148,0.315918,0
41290,0.543945,-0.680176,0.321289,0
41310,0.532715,-0.698242,0.314941,0
41330,0.532227,-0.714355,0.316406,0
41350,0.528809,-0.715332,0.316895,0
41370,0.54541,-0.70459,0.334961,0
41390,0.541504,-0.696289,0.338867,0
41410,0.547852,-0.705566,0.31543,0
41430,0.551758,-0.713867,0.322266,0
41450,0.552734,-0.708496,0.327148,0
41470,0.553223,-0.711914,0.324219,0
41490,0.557129,-0.719238,0.34375,0
41510,0.559082,-0.702148,0.344727,0
41530,0.553711,-0.72168,0.328613,0
41550,0.54541,-0.706543,0.349121,0
41570,0.54248,-0.697266,0.371094,0
41590,0.541016,-0.704102,0.369629,0
41610,0.535645,-0.693848,0.36084,0
41630,0.54248,-0.69873,0.366211,0
41650,0.543457,-0.692871,0.367188,0
41670,0.541992,-0.688477,0.375977,0
41690,0.541504,-0.698242,0.381348,0
41710,0.550293,-0.690918,0.382324,0
41730,0.549805,-0.668457,0.378418,0
41750,0.564941,-0.678711,0.379883,0
41770,0.558105,-0.671387,0.378418,0
41790,0.557617,-0.675293,0.385742,0
41810,0.560547,-0.672852,0.373047,0
41830,0.570312,-0.672852,0.368164,0
41850,0.569336,-0.661621,0.371582,0
41870,0.570801,-0.65918,0.382812,0
41890,0.572266,-0.651367,0.376465,0
41910,0.573242,-0.65332,0.376465,0
41930,0.581055,-0.658203,0.383301,0
41950,0.572266,-0.650879,0.390625,0
41970,0.564453,-0.645996,0.382324,0
41990,0.577148,-0.643555,0.382324,0
42010,0.581055,-0.641113,0.390625,0
42030,0.578125,-0.655273,0.404297,0
42050,0.584961,-0.649414,0.421387,0
42070,0.595703,-0.649902,0.402832,0
42090,0.584473,-0.647949,0.393555,0
42110,0.569824,-0.632812,0.38916,0
42130,0.564453,-0.632324,0.387207,0
42150,0.55127,-0.650391,0.390137,0
42170,0.560547,-0.662598,0.407715,0
42190,0.557129,-0.664551,0.416992,0
42210,0.558594,-0.651855,0.402832,0
42230,0.560547,-0.654297,0.380859,0
42250,0.573242,-0.653809,0.391113,0
42270,0.572266,-0.650879,0.402832,0
42290,0.566406,-0.644531,0.388672,0
42310,0.562012,-0.658691,0.378906,0
42330,0.566895,-0.666992,0.384766,0
42350,0.547852,-0.680176,0.399414,0
42370,0.543457,-0.686035,0.399414,0
42390,0.556641,-0.688965,0.390137,0
42410,0.559082,-0.687988,0.395996,0
42430,0.539062,-0.682617,0.407227,0
42450,0.522949,-0.685547,0.415039,0
42470,0.526367,-0.687012,0.404297,0
42490,0.524414,-0.695312,0.404785,0
42510,0.519531,-0.686035,0.405273,0
42530,0.51416,-0.692383,0.405273,0
42550,0.505859,-0.679688,0.403809,0
42570,0.495117,-0.689453,0.401367,0
42590,0.492676,-0.700195,0.412109,0
42610,0.485352,-0.694336,0.40625,0
42630,0.477539,-0.692383,0.396973,0
42650,0.463867,-0.695801,0.412598,0
42670,0.445801,-0.701172,0.42334,0
42690,0.46582,-0.710938,0.403809,0
42710,0.496582,-0.712891,0.385742,0
42730,0.499512,-0.696777,0.381348,0
42750,0.476562,-0.706543,0.398438,0
42770,0.464355,-0.717773,0.397461,0
42790,0.479004,-0.724609,0.385254,0
42810,0.490723,-0.722168,0.387695,0
42830,0.479492,-0.736328,0.396484,0
42850,0.450684,-0.724121,0.397461,0
42870,0.465332,-0.721191,0.380371,0
42890,0.483398,-0.725098,0.389648,0
42910,0.462402,-0.736328,0.410156,0
42930,0.430664,-0.75,0.400391,0
42950,0.432617,-0.751953,0.395508,0
42970,0.442871,-0.743652,0.40332,0
42990,0.439453,-0.734863,0.412598,0
43010,0.426758,-0.728027,0.395508,0
43030,0.433105,-0.729492,0.388184,0
43050,0.44873,-0.745117,0.395508,0
43070,0.409668,-0.747559,0.422852,0
43090,0.38623,-0.753906,0.422852,0
43110,0.413086,-0.758789,0.402344,0
43130,0.43457,-0.750977,0.399902,0
43150,0.411133,-0.734375,0.414062,0
43170,0.38916,-0.74707,0.417969,0
43190,0.383789,-0.765625,0.415039,0
43210,0.400391,-0.767578,0.408691,0
43230,0.400879,-0.768555,0.409668,0
43250,0.368164,-0.76123,0.432617,0
43270,0.336914,-0.787598,0.433594,0
43290,0.347168,-0.789551,0.418945,0
43310,0.36377,-0.782715,0.430664,0
43330,0.345703,-0.780762,0.432617,0
43350,0.323242,-0.786621,0.424805,0
43370,0.318848,-0.805664,0.439453,0
43390,0.324219,-0.814453,0.440918,0
43410,0.305176,-0.810059,0.435547,0
43430,0.291016,-0.793945,0.428711,0
43450,0.304199,-0.79834,0.421875,0
43470,0.30957,-0.792969,0.445801,0
43490,0.281738,-0.789551,0.436035,0
43510,0.279785,-0.787598,0.442871,0
43530,0.286133,-0.807129,0.459473,0
43550,0.271484,-0.794922,0.445312,0
43570,0.266602,-0.801758,0.441895,0
43590,0.273926,-0.819824,0.440918,0
43610,0.287598,-0.802246,0.444336,0
43630,0.260742,-0.78125,0.440918,0
43650,0.266602,-0.797852,0.442871,0
43670,0.284668,-0.82373,0.442871,0
43690,0.269043,-0.818359,0.440918,0
43710,0.244629,-0.81543,0.450684,0
43730,0.259766,-0.812012,0.418457,0
43750,0.290527,-0.812012,0.421875,0
43770,0.282227,-0.813965,0.453613,0
43790,0.248047,-0.807129,0.450684,0
43810,0.244629,-0.816406,0.439453,0
43830,0.259277,-0.825195,0.443848,0
43850,0.251465,-0.807129,0.451172,0
43870,0.232422,-0.797363,0.44873,0
43890,0.236328,-0.803711,0.44043,0
43910,0.255371,-0.809082,0.45752,0
43930,0.231934,-0.814453,0.45459,0
43950,0.23584,-0.817871,0.42041,0
43970,0.276367,-0.834961,0.41748,0
43990,0.286133,-0.827637,0.429688,0
44010,0.263184,-0.817871,0.430176,0
44030,0.260742,-0.837402,0.42041,0
44050,0.296875,-0.839355,0.428711,0
44070,0.288086,-0.830078,0.421387,0
44090,0.260254,-0.82373,0.413574,0
44110,0.243164,-0.815918,0.413086,0
44130,0.254883,-0.815918,0.407227,0
44150,0.273438,-0.822266,0.422852,0
44170,0.277344,-0.81543,0.427734,0
44190,0.261719,-0.803711,0.410645,0
44210,0.258301,-0.804688,0.388672,0
44230,0.282227,-0.82666,0.40332,0
44250,0.280762,-0.825684,0.419922,0
44270,0.255859,-0.81543,0.422852,0
44290,0.253418,-0.8125,0.398926,0
44310,0.286133,-0.822266,0.377441,0
44330,0.306641,-0.816406,0.397461,0
44350,0.290039,-0.800781,0.40918,0
44370,0.274902,-0.817383,0.403809,0
44390,0.291992,-0.827637,0.385742,0
44410,0.293457,-0.834473,0.386719,0
44430,0.270508,-0.828125,0.380371,0
44450,0.248535,-0.833496,0.382324,0
44470,0.280762,-0.822754,0.371094,0
44490,0.29248,-0.827637,0.387207,0
44510,0.285156,-0.83252,0.375,0
44530,0.301758,-0.846191,0.368164,0
44550,0.299805,-0.847656,0.366211,0
44570,0.282715,-0.847168,0.368164,0
44590,0.273926,-0.850098,0.383301,0
44610,0.275391,-0.850586,0.364746,0
44630,0.297363,-0.859375,0.367188,0
44650,0.304688,-0.85791,0.35791,0
44660,0.279785,-0.843262,0.355957,0
44680,0.279297,-0.834961,0.35791,0
44700,0.299805,-0.861816,0.344238,0
44720,0.305664,-0.85498,0.34082,0
44740,0.287109,-0.845215,0.356445,0
44760,0.296875,-0.84375,0.361816,0
44780,0.325195,-0.853027,0.362305,0
44800,0.325195,-0.855469,0.348145,0
44820,0.294434,-0.847656,0.333496,0
44840,0.299805,-0.843262,0.347168,0
44860,0.331543,-0.849121,0.325684,0
44880,0.331055,-0.846191,0.334961,0
44900,0.307129,-0.836426,0.34082,0
44920,0.327637,-0.831055,0.333008,0
44940,0.354004,-0.837402,0.347656,0
44960,0.316895,-0.839844,0.347168,0
44980,0.307129,-0.84668,0.311035,0
45000,0.356445,-0.861816,0.318848,0
45020,0.365234,-0.837402,0.319824,0
45040,0.339355,-0.834961,0.304199,0
45060,0.337891,-0.852539,0.284668,0
45080,0.371582,-0.868164,0.272461,0
45100,0.381836,-0.860352,0.270996,0
45120,0.348145,-0.836426,0.250977,0
45140,0.333496,-0.85791,0.265137,0
45160,0.365723,-0.865723,0.274902,0
45180,0.369141,-0.871582,0.253906,0
45200,0.349609,-0.861328,0.258301,0
45220,0.361328,-0.85498,0.261719,0
45240,0.390137,-0.84082,0.262695,0
45260,0.398438,-0.837891,0.260742,0
45280,0.402344,-0.830566,0.248047,0
45300,0.404297,-0.83252,0.249512,0
45320,0.399414,-0.847168,0.243164,0
45340,0.417969,-0.848145,0.211914,0
45360,0.435547,-0.841309,0.215332,0
45380,0.435059,-0.821777,0.222656,0
45400,0.424805,-0.828613,0.216309,0
45420,0.433105,-0.831543,0.195801,0
45440,0.441406,-0.851074,0.194336,0
45460,0.456543,-0.848145,0.214355,0
45480,0.478516,-0.821777,0.209473,0
45500,0.48584,-0.811035,0.169922,0
45520,0.485352,-0.807129,0.163086,0
45540,0.494629,-0.827148,0.195312,0
45560,0.485352,-0.824707,0.186035,0
45580,0.479004,-0.834961,0.147461,0
45600,0.499023,-0.830566,0.147461,0
45620,0.533203,-0.805176,0.164062,0
45640,0.525879,-0.793457,0.158203,0
45660,0.502441,-0.8125,0.135742,0
45680,0.50293,-0.836426,0.103516,0
45700,0.509766,-0.853516,0.117188,0
45720,0.504883,-0.844727,0.164062,0
45740,0.491699,-0.827148,0.152832,0
45760,0.490723,-0.831543,0.107422,0
45780,0.525391,-0.831543,0.109375,0
45800,0.53418,-0.811035,0.13916,0
45820,0.521973,-0.803223,0.156738,0
45840,0.520508,-0.797363,0.137207,0
45860,0.541016,-0.79541,0.112793,0
45880,0.567383,-0.80127,0.0986328,0
45900,0.555176,-0.783203,0.0957031,0
45920,0.526367,-0.777832,0.103516,0
45940,0.535156,-0.788086,0.116699,0
45960,0.569336,-0.790039,0.0927734,0
45980,0.581543,-0.793945,0.0810547,0
46000,0.565918,-0.792969,0.0820312,0
46020,0.538574,-0.78418,0.0927734,0
46040,0.550293,-0.78418,0.0991211,0
46060,0.589355,-0.804688,0.0834961,0
46080,0.587402,-0.790527,0.0878906,0
46100,0.562012,-0.772461,0.074707,0
46120,0.564941,-0.765625,0.0605469,0
46140,0.591309,-0.776367,0.0717773,0
46160,0.591309,-0.781738,0.0888672,0
46180,0.578125,-0.784668,0.0766602,0
46200,0.575684,-0.766113,0.0712891,0
46220,0.574707,-0.758301,0.0654297,0
46240,0.600098,-0.763184,0.0688477,0
46260,0.600586,-0.769043,0.0688477,0
46280,0.587402,-0.780273,0.0600586,0
46300,0.583008,-0.773926,0.0546875,0
46320,0.606445,-0.780273,0.0698242,0
46340,0.624512,-0.759766,0.0517578,0
46360,0.616211,-0.765625,0.0419922,0
46380,0.599121,-0.772949,0.0537109,0
46400,0.600586,-0.785156,0.0576172,0
46420,0.634277,-0.788086,0.0493164,0
46440,0.629395,-0.77832,0.0454102,0
46460,0.60791,-0.770508,0.0463867,0
46480,0.618164,-0.758301,0.0371094,0
46500,0.623047,-0.76709,0.0600586,0
46520,0.620605,-0.774902,0.0708008,0
46540,0.618652,-0.76709,0.0644531,0
46560,0.624023,-0.737793,0.046875,0
46580,0.628418,-0.745117,0.0498047,0
46600,0.64209,-0.750488,0.0600586,0
46610,0.627441,-0.76416,0.0507812,0
46630,0.626465,-0.750488,0.0478516,0
46650,0.625488,-0.753906,0.0512695,0
46670,0.629883,-0.753418,0.0610352,0
46690,0.635742,-0.734863,0.0581055,0
46710,0.629395,-0.728027,0.0478516,0
46730,0.642578,-0.733887,0.0488281,0
46750,0.629883,-0.754395,0.0517578,0
46770,0.618164,-0.745605,0.0561523,0
46790,0.627441,-0.732422,0.0400391,0
46810,0.645996,-0.713867,0.0322266,0
46830,0.649902,-0.712402,0.0493164,0
46850,0.646973,-0.719727,0.0507812,0
46870,0.647461,-0.73584,0.0566406,0
46890,0.635742,-0.735352,0.046875,0
46910,0.645996,-0.71582,0.0395508,0
46930,0.646484,-0.701172,0.0703125,0
46950,0.628418,-0.700684,0.0629883,0
46970,0.636719,-0.715332,0.0576172,0
46990,0.650391,-0.739258,0.0668945,0
47010,0.651855,-0.727539,0.0620117,0
47030,0.664551,-0.707031,0.0693359,0
47050,0.679199,-0.706543,0.0664062,0
47070,0.673828,-0.711426,0.0576172,0
47090,0.661621,-0.722656,0.0546875,0
47110,0.665039,-0.714355,0.074707,0
47130,0.681152,-0.708984,0.0771484,0
47150,0.674316,-0.697754,0.0615234,0
47170,0.679688,-0.704102,0.0610352,0
47190,0.666992,-0.705566,0.0844727,0
47210,0.649414,-0.691895,0.0766602,0
47230,0.675293,-0.695312,0.0825195,0
47250,0.6875,-0.686523,0.0893555,0
47270,0.66748,-0.666504,0.0810547,0
47290,0.673828,-0.671387,0.0888672,0
47310,0.6875,-0.683105,0.104004,0
47330,0.680176,-0.690918,0.103027,0
47350,0.694336,-0.669922,0.100586,0
47370,0.719727,-0.654785,0.105469,0
47390,0.71582,-0.650879,0.103027,0
47410,0.715332,-0.657715,0.0991211,0
47430,0.719727,-0.660645,0.105469,0
47450,0.728027,-0.656738,0.120605,0
47470,0.720703,-0.645508,0.120117,0
47490,0.71875,-0.645996,0.118164,0
47510,0.723145,-0.644531,0.120117,0
47530,0.711426,-0.650879,0.127441,0
47550,0.691406,-0.637695,0.128906,0
47570,0.683594,-0.622559,0.114258,0
47590,0.731445,-0.624023,0.129395,0
47610,0.753418,-0.625977,0.154297,0
47630,0.724121,-0.62793,0.169434,0
47650,0.70752,-0.641602,0.158691,0
47670,0.729004,-0.648438,0.130371,0
47690,0.745605,-0.644531,0.125488,0
47710,0.722168,-0.638672,0.148926,0
47730,0.695801,-0.633789,0.160156,0
47750,0.683105,-0.651367,0.163086,0
47770,0.692871,-0.663574,0.163574,0
47790,0.682617,-0.675781,0.180176,0
47810,0.665527,-0.661621,0.218262,0
47830,0.665527,-0.663086,0.235352,0
47850,0.676758,-0.637207,0.224121,0
47870,0.673828,-0.644531,0.202637,0
47890,0.648926,-0.652344,0.210938,0
47910,0.637695,-0.669922,0.217285,0
47930,0.646973,-0.691406,0.220215,0
47950,0.65625,-0.666992,0.217285,0
47970,0.643066,-0.666992,0.235352,0
47990,0.614258,-0.669434,0.232422,0
48010,0.598633,-0.686523,0.233887,0
48030,0.618652,-0.708496,0.239746,0
48050,0.634277,-0.697754,0.246094,0
48070,0.626465,-0.683594,0.236328,0
48090,0.604004,-0.691406,0.250488,0
48110,0.581543,-0.69873,0.275391,0
48130,0.592285,-0.707031,0.293457,0
48150,0.606934,-0.697266,0.303223,0
48170,0.595215,-0.688965,0.296875,0
48190,0.592285,-0.713379,0.282715,0
48210,0.569336,-0.749512,0.283691,0
48230,0.541016,-0.767578,0.307617,0
48250,0.538574,-0.757812,0.311035,0
48270,0.543457,-0.738281,0.299805,0
48290,0.543457,-0.720215,0.312012,0
48310,0.519531,-0.75,0.336426,0
48330,0.486816,-0.773438,0.332031,0
48350,0.488281,-0.780273,0.318359,0
48370,0.518066,-0.759277,0.330078,0
48390,0.499023,-0.739258,0.327637,0
48410,0.464355,-0.732422,0.322266,0
48430,0.466797,-0.740723,0.327148,0
48450,0.464844,-0.765137,0.340332,0
48470,0.46875,-0.768066,0.359863,0
48490,0.464844,-0.777344,0.352539,0
48510,0.444336,-0.762207,0.335938,0
48530,0.442383,-0.753906,0.342285,0
48550,0.458496,-0.77002,0.350586,0
48570,0.464844,-0.770996,0.334961,0
48590,0.460449,-0.771973,0.336426,0
48610,0.457031,-0.782715,0.333008,0
48630,0.458984,-0.792969,0.341797,0
48650,0.442383,-0.785645,0.355469,0
48670,0.425293,-0.789551,0.332031,0
48690,0.453125,-0.790039,0.333496,0
48710,0.45166,-0.787598,0.338379,0
48730,0.416016,-0.785645,0.335938,0
48750,0.40625,-0.795898,0.327637,0
48770,0.422363,-0.798828,0.322266,0
48790,0.423828,-0.794922,0.322266,0
48810,0.395508,-0.802246,0.322266,0
48830,0.393555,-0.795898,0.305664,0
48850,0.426758,-0.796387,0.313477,0
48870,0.413574,-0.796387,0.317383,0
48890,0.388672,-0.807129,0.302734,0
48910,0.409668,-0.816406,0.299316,0
48930,0.429688,-0.825195,0.312012,0
48950,0.413086,-0.81543,0.294922,0
48970,0.411621,-0.824707,0.291504,0
48990,0.42627,-0.831543,0.303711,0
49010,0.423828,-0.834473,0.305664,0
49030,0.406738,-0.834961,0.305176,0
49050,0.400391,-0.837402,0.304688,0
49070,0.398926,-0.838867,0.300293,0
49090,0.405762,-0.836914,0.280762,0
49110,0.408203,-0.837891,0.271484,0
49130,0.396973,-0.834961,0.291992,0
49150,0.393066,-0.836426,0.290039,0
49170,0.409668,-0.836426,0.285645,0
49190,0.411133,-0.841309,0.286133,0
49210,0.381836,-0.82666,0.277344,0
49230,0.382812,-0.828613,0.260254,0
49250,0.39209,-0.841309,0.246582,0
49270,0.38623,-0.847168,0.241699,0
49290,0.399902,-0.823242,0.259766,0
49310,0.393066,-0.824707,0.25293,0
49330,0.368164,-0.814453,0.236328,0
49350,0.333984,-0.812988,0.22998,0
49370,0.344727,-0.808594,0.227539,0
49390,0.438965,-0.808594,0.241211,0
49410,0.453125,-0.826172,0.247559,0
49430,0.42334,-0.834961,0.228027,0
49450,0.405273,-0.872559,0.219727,0
49470,0.417969,-0.87793,0.212402,0
49490,0.415039,-0.87793,0.220215,0
49510,0.416992,-0.871094,0.223633,0
49530,0.421875,-0.851562,0.211426,0
49550,0.410156,-0.86377,0.199219,0
49570,0.391113,-0.871094,0.193848,0
49590,0.376953,-0.876953,0.20459,0
49610,0.384277,-0.86377,0.21875,0
49630,0.406738,-0.866211,0.214844,0
49650,0.416504,-0.845215,0.212402,0
49670,0.407227,-0.848633,0.200684,0
49690,0.430664,-0.863281,0.213379,0
49710,0.450684,-0.884277,0.213379,0
49730,0.420898,-0.883789,0.191895,0
49750,0.39502,-0.869629,0.169922,0
49770,0.402344,-0.85791,0.179688,0
49790,0.416992,-0.857422,0.178711,0
49810,0.419434,-0.876465,0.178223,0
49830,0.40918,-0.870605,0.158203,0
49850,0.421387,-0.865723,0.142578,0
49870,0.425781,-0.870117,0.149414,0
49890,0.418457,-0.86377,0.152832,0
49910,0.435059,-0.852051,0.168457,0
49930,0.447754,-0.870117,0.166504,0
49950,0.432617,-0.875488,0.150879,0
49970,0.427734,-0.867188,0.149902,0
49990,0.450684,-0.867676,0.156738,0
50010,0.454102,-0.87207,0.151855,0
50030,0.423828,-0.863281,0.126953,0
50050,0.421387,-0.859375,0.133789,0
50060,0.455078,-0.859863,0.135254,0
50080,0.465332,-0.851074,0.121582,0
50100,0.444336,-0.859863,0.12207,0
50120,0.439941,-0.853027,0.108887,0
50140,0.449707,-0.850586,0.112793,0
50160,0.468262,-0.84082,0.112793,0
50180,0.461914,-0.852539,0.0874023,0
50200,0.483887,-0.847168,0.09375,0
50220,0.509277,-0.846191,0.0854492,0
50240,0.49707,-0.84668,0.0786133,0
50260,0.48291,-0.847168,0.0761719,0
50280,0.505371,-0.836914,0.074707,0
50300,0.534668,-0.833984,0.0693359,0
50320,0.529297,-0.839844,0.0839844,0
50340,0.513184,-0.824219,0.0595703,0
50360,0.505859,-0.821289,0.0410156,0
50380,0.521973,-0.814453,0.0317383,0
50400,0.533203,-0.80957,0.0317383,0
50420,0.54541,-0.800781,0.0283203,0
50440,0.560547,-0.822754,0.0234375,0
50460,0.563477,-0.820312,0.0131836,0
50480,0.559082,-0.815918,0.00244141,0
50500,0.552246,-0.81543,0.00244141,0
50520,0.570801,-0.804688,0.00292969,0
50540,0.572754,-0.805176,-0.00732422,0
50560,0.557129,-0.786621,-0.0341797,0
50580,0.541016,-0.771484,-0.0463867,0
50600,0.564453,-0.787598,-0.0561523,0
50620,0.594238,-0.813965,-0.0371094,0
50640,0.59375,-0.799316,-0.0200195,0
50660,0.592773,-0.776855,-0.0263672,0
50680,0.630859,-0.773438,-0.0517578,0
50700,0.661621,-0.771973,-0.0683594,0
50720,0.645996,-0.762207,-0.0512695,0
50740,0.632812,-0.765137,-0.0654297,0
50760,0.632812,-0.780273,-0.090332,0
50780,0.628906,-0.78418,-0.0908203,0
50800,0.624023,-0.753418,-0.0810547,0
50820,0.626465,-0.737793,-0.0864258,0
50840,0.635254,-0.727539,-0.0942383,0
50860,0.634277,-0.717285,-0.117676,0
50880,0.644043,-0.738281,-0.120117,0
50900,0.655273,-0.74707,-0.106445,0
50920,0.65332,-0.731445,-0.0908203,0
50940,0.64209,-0.721191,-0.112305,0
50960,0.654785,-0.729492,-0.135742,0
50980,0.660645,-0.740723,-0.127441,0
51000,0.66748,-0.725098,-0.126465,0
51020,0.665039,-0.70752,-0.143555,0
51040,0.669922,-0.710938,-0.127441,0
51060,0.676758,-0.697266,-0.131348,0
51080,0.67041,-0.708984,-0.14209,0
51100,0.664062,-0.70752,-0.122559,0
51120,0.678711,-0.701172,-0.120117,0
51140,0.722656,-0.70459,-0.131348,0
51160,0.730957,-0.683594,-0.142578,0
51180,0.697266,-0.666504,-0.145508,0
51200,0.716309,-0.670898,-0.15332,0
51220,0.738281,-0.688965,-0.135742,0
51240,0.716309,-0.691895,-0.0957031,0
51260,0.692871,-0.661621,-0.105469,0
51280,0.722656,-0.642578,-0.123047,0
51300,0.742676,-0.635254,-0.123535,0
51320,0.730469,-0.648926,-0.103516,0
51340,0.71875,-0.654297,-0.111328,0
51360,0.724121,-0.651855,-0.0961914,0
51380,0.72998,-0.633301,-0.104004,0
51400,0.731934,-0.62793,-0.104004,0
51420,0.723633,-0.631348,-0.101562,0
51440,0.725098,-0.638672,-0.0991211,0
51460,0.746582,-0.642578,-0.0742188,0
51480,0.733398,-0.633301,-0.078125,0
51500,0.737793,-0.625488,-0.090332,0
51520,0.765137,-0.620117,-0.0771484,0
51540,0.763672,-0.617188,-0.0791016,0
51560,0.739258,-0.601562,-0.0776367,0
51580,0.751953,-0.611328,-0.0854492,0
51600,0.779297,-0.621094,-0.065918,0
51620,0.756348,-0.621582,-0.0537109,0
51640,0.744629,-0.617676,-0.0473633,0
51660,0.77832,-0.617676,-0.0551758,0
51680,0.794434,-0.601074,-0.0429688,0
51700,0.775391,-0.577148,-0.0449219,0
51720,0.785156,-0.579102,-0.0581055,0
51740,0.791016,-0.595215,-0.0361328,0
51760,0.777832,-0.602051,-0.0268555,0
51780,0.791504,-0.589355,-0.0234375,0
51800,0.803223,-0.573242,-0.00976562,0
51820,0.800293,-0.546875,-0.0107422,0
51840,0.793945,-0.543457,-0.00976562,0
51860,0.807617,-0.561523,0.00146484,0
51880,0.80957,-0.589355,0.00927734,0
51900,0.79541,-0.580566,0.0112305,0
51920,0.788574,-0.548828,0.0175781,0
51940,0.799316,-0.533691,0.0292969,0
51960,0.80127,-0.529297,0.0322266,0
51980,0.791016,-0.538086,0.0395508,0
52000,0.791504,-0.538086,0.0478516,0
52020,0.784668,-0.550293,0.0727539,0
52040,0.790527,-0.539062,0.0727539,0
52050,0.805664,-0.536133,0.0561523,0
52070,0.81543,-0.529785,0.0634766,0
52090,0.805176,-0.531738,0.102051,0
52110,0.785645,-0.544922,0.112793,0
52130,0.802246,-0.541992,0.108398,0
52150,0.820312,-0.532715,0.103516,0
52170,0.801758,-0.530273,0.119629,0
52190,0.76123,-0.533691,0.130371,0
52210,0.76416,-0.547363,0.142578,0
52230,0.788574,-0.562988,0.147949,0
52250,0.79248,-0.536621,0.159668,0
52270,0.770508,-0.531738,0.15332,0
52290,0.772461,-0.533203,0.151855,0
52310,0.77832,-0.57373,0.170898,0
52330,0.786621,-0.604004,0.200195,0
52350,0.77002,-0.581055,0.195312,0
52370,0.751953,-0.556152,0.178223,0
52390,0.747559,-0.556641,0.1875,0
52410,0.737793,-0.592285,0.225586,0
52430,0.725098,-0.615234,0.250488,0
52450,0.737305,-0.601562,0.235352,0
52470,0.714844,-0.572266,0.236816,0
52490,0.668945,-0.583008,0.263672,0
52510,0.67041,-0.619141,0.274902,0
52530,0.736328,-0.685059,0.339355,0
52550,0.751465,-0.649414,0.320801,0
52570,0.694824,-0.57373,0.255371,0
52590,0.652344,-0.54248,0.242676,0
52610,0.649902,-0.5625,0.262695,0
52630,0.64209,-0.629395,0.296875,0
52650,0.62207,-0.691406,0.329102,0
52670,0.630371,-0.687012,0.283691,0
52690,0.674316,-0.635742,0.257812,0
52710,0.664551,-0.613281,0.287598,0
52730,0.612793,-0.637695,0.331055,0
52750,0.572754,-0.703613,0.317871,0
52770,0.578125,-0.706543,0.276855,0
52790,0.624023,-0.696289,0.293945,0
52810,0.617188,-0.696777,0.306152,0
52830,0.552246,-0.708008,0.3125,0
52850,0.521484,-0.72998,0.291504,0
52870,0.553711,-0.72998,0.3125,0
52890,0.549316,-0.716797,0.333984,0
52910,0.518066,-0.710938,0.327637,0
52930,0.507812,-0.728027,0.316406,0
52950,0.506348,-0.76123,0.314453,0
52970,0.482422,-0.763184,0.312988,0
52990,0.483398,-0.741699,0.322754,0
53010,0.484375,-0.757812,0.314453,0
53030,0.489258,-0.773926,0.324219,0
53050,0.500977,-0.784668,0.32666,0
53070,0.52832,-0.771973,0.307617,0
53090,0.525391,-0.765137,0.290527,0
53110,0.483398,-0.747559,0.282715,0
53130,0.479004,-0.765625,0.293457,0
53150,0.508789,-0.822266,0.297363,0
53170,0.512207,-0.821289,0.280762,0
53190,0.496094,-0.791992,0.259766,0
53210,0.494141,-0.802246,0.251465,0
53230,0.503906,-0.812988,0.244629,0
53250,0.479004,-0.79834,0.232422,0
53270,0.445312,-0.798828,0.224121,0
53290,0.46582,-0.805664,0.226562,0
53310,0.490723,-0.813965,0.22998,0
53330,0.476074,-0.802246,0.226074,0
53350,0.456543,-0.8125,0.21582,0
53370,0.455078,-0.825684,0.200684,0
53390,0.481445,-0.823242,0.202637,0
53410,0.46875,-0.822754,0.199219,0
53430,0.455078,-0.852539,0.210938,0
53450,0.47998,-0.871582,0.198242,0
53470,0.482422,-0.845215,0.186523,0
53490,0.445801,-0.831055,0.172363,0
53510,0.435547,-0.838379,0.162109,0
53530,0.466309,-0.858398,0.153809,0
53550,0.482422,-0.86084,0.13916,0
53570,0.471191,-0.848145,0.137207,0
53590,0.436035,-0.837402,0.125977,0
53610,0.418945,-0.838867,0.116699,0
53630,0.486328,-0.848633,0.100098,0
53650,0.491699,-0.848145,0.109375,0
53670,0.435059,-0.82959,0.0908203,0
53690,0.44043,-0.818848,0.0952148,0
53710,0.448242,-0.844238,0.0864258,0
53730,0.468262,-0.857422,0.0820312,0
53750,0.470215,-0.85791,0.0932617,0
53770,0.44043,-0.834473,0.0859375,0
53790,0.449707,-0.821777,0.0673828,0
53810,0.486816,-0.846191,0.0673828,0
53830,0.483398,-0.884277,0.0576172,0
53850,0.45459,-0.889648,0.0341797,0
53870,0.451172,-0.863281,0.0170898,0
53890,0.486328,-0.852539,0.0283203,0
53910,0.504395,-0.847168,0.0546875,0
53930,0.475098,-0.847168,0.034668,0
53950,0.469238,-0.848633,0.0146484,0
53970,0.482422,-0.859863,0.0141602,0
53990,0.496582,-0.859375,0.034668,0
54010,0.505859,-0.865723,0.0327148,0
54030,0.500977,-0.833008,-0.00195312,0
54050,0.521973,-0.814453,-0.0327148,0
54070,0.516602,-0.825195,-0.0249023,0
54090,0.515137,-0.857422,-0.00976562,0
54110,0.540527,-0.871582,-0.00878906,0
54130,0.547363,-0.844727,-0.0380859,0
54150,0.528809,-0.819824,-0.0673828,0
54170,0.546875,-0.832031,-0.059082,0
54190,0.547852,-0.838867,-0.0405273,0
54210,0.535645,-0.806152,-0.0556641,0
54230,0.569336,-0.799805,-0.0507812,0
54250,0.592773,-0.802246,-0.0654297,0
54270,0.562012,-0.815918,-0.0810547,0
54290,0.541992,-0.817871,-0.0942383,0
54310,0.557129,-0.811035,-0.0942383,0
54330,0.590332,-0.797363,-0.11084,0
54350,0.62207,-0.788086,-0.119141,0
54370,0.587891,-0.793945,-0.128418,0
54390,0.568848,-0.789062,-0.129883,0
54410,0.58252,-0.80957,-0.128906,0
54430,0.588379,-0.802246,-0.121582,0
54450,0.577148,-0.780273,-0.147461,0
54470,0.589844,-0.768066,-0.15332,0
54490,0.600586,-0.778809,-0.147949,0
54510,0.583496,-0.785645,-0.143555,0
54530,0.559082,-0.776855,-0.155273,0
54550,0.582031,-0.779297,-0.155762,0
54570,0.606445,-0.775391,-0.149902,0
54590,0.609863,-0.754395,-0.155273,0
54610,0.625488,-0.739746,-0.171875,0
54630,0.630371,-0.745605,-0.17334,0
54650,0.616211,-0.766113,-0.165039,0
54670,0.631836,-0.783203,-0.171875,0
54690,0.669434,-0.770508,-0.185547,0
54710,0.656738,-0.738281,-0.182617,0
54730,0.633789,-0.723145,-0.174316,0
54750,0.655273,-0.731934,-0.178223,0
54770,0.66748,-0.724609,-0.189453,0
54790,0.656738,-0.714355,-0.188477,0
54810,0.642578,-0.709473,-0.191406,0
54830,0.650879,-0.719727,-0.187988,0
54850,0.64502,-0.722656,-0.173828,0
54870,0.65918,-0.708984,-0.186035,0
54890,0.702637,-0.705078,-0.191895,0
54910,0.705566,-0.705078,-0.177734,0
54930,0.668457,-0.707031,-0.17041,0
54950,0.672852,-0.718262,-0.181152,0
54970,0.703125,-0.725098,-0.164062,0
54990,0.697266,-0.696777,-0.172363,0
55010,0.696777,-0.677734,-0.181152,0
55030,0.714844,-0.666504,-0.197266,0
55050,0.702637,-0.6875,-0.19043,0
55070,0.69043,-0.705566,-0.165527,0
55090,0.705566,-0.712891,-0.164062,0
55110,0.709473,-0.690918,-0.160645,0
55130,0.714355,-0.664551,-0.17041,0
55150,0.713867,-0.660156,-0.17041,0
55170,0.693359,-0.675293,-0.160645,0
55190,0.685547,-0.685059,-0.137207,0
55210,0.686035,-0.657715,-0.157715,0
55230,0.687012,-0.647461,-0.17334,0
55250,0.697266,-0.644043,-0.155762,0
55270,0.718262,-0.656738,-0.137695,0
55290,0.727051,-0.647461,-0.147461,0
55310,0.744141,-0.633301,-0.157715,0
55330,0.74707,-0.64502,-0.160156,0
55350,0.762695,-0.646973,-0.168457,0
55370,0.772461,-0.658203,-0.181152,0
55390,0.762207,-0.658691,-0.186523,0
55410,0.759277,-0.645996,-0.166992,0
55430,0.756348,-0.61377,-0.17041,0
55450,0.75293,-0.596191,-0.19043,0
55470,0.763672,-0.583496,-0.200684,0
55480,0.785156,-0.608887,-0.203125,0
55500,0.783203,-0.610352,-0.198242,0
55520,0.760742,-0.60498,-0.192871,0
55540,0.760742,-0.582031,-0.22168,0
55560,0.785156,-0.569336,-0.225586,0
55580,0.771484,-0.578613,-0.205078,0
55600,0.741699,-0.577637,-0.209961,0
55620,0.745117,-0.574219,-0.219727,0
55640,0.761719,-0.572754,-0.213867,0
55660,0.753418,-0.567871,-0.20459,1001
55680,0.74707,-0.567383,-0.181641,0
55700,0.758301,-0.561035,-0.202148,0
55720,0.780273,-0.560547,-0.194824,0
55740,0.79541,-0.569824,-0.200684,0
55760,0.794434,-0.579102,-0.206055,0
55780,0.799316,-0.584961,-0.210938,0
55800,0.821777,-0.584961,-0.20752,0
55820,0.839844,-0.575684,-0.183105,0
55840,0.838379,-0.541504,-0.172363,0
55860,0.804688,-0.521484,-0.213867,0
55880,0.754883,-0.595703,-0.219727,0
55900,0.758301,-0.656738,-0.228027,0
55920,0.779785,-0.618164,-0.114746,0
55940,0.775391,-0.547363,-0.115234,0
55960,0.755371,-0.507324,-0.20459,0
55980,0.775391,-0.50293,-0.195312,0
56000,0.775879,-0.550293,-0.161621,0
56020,0.753906,-0.584473,-0.177246,0
56040,0.755859,-0.565918,-0.199219,0
56060,0.776367,-0.543945,-0.193359,0
56080,0.807617,-0.529297,-0.196289,0
56100,0.826172,-0.547363,-0.191895,0
56120,0.84082,-0.559082,-0.196777,0
56140,0.855957,-0.567383,-0.208984,0
56160,0.875488,-0.568848,-0.213379,0
56180,0.852051,-0.593262,-0.212402,0
56200,0.776367,-0.600098,-0.208496,0
56220,0.713379,-0.570312,-0.181641,0
56240,0.65625,-0.543945,-0.172363,0
56260,0.645508,-0.527832,-0.155762,0
56280,0.604004,-0.521973,-0.125977,0
56300,0.535156,-0.509277,-0.108887,0
56320,0.520508,-0.503906,-0.132324,0
56340,0.539062,-0.507324,-0.124512,0
56360,0.524414,-0.504883,-0.0883789,0
56380,0.526367,-0.496582,-0.0791016,0
56400,0.562012,-0.529785,-0.074707,0
56420,0.568359,-0.570312,-0.0410156,0
56440,0.534668,-0.607422,0.0078125,0
56460,0.505371,-0.581543,0.0219727,0
56480,0.57666,-0.497559,-0.0078125,0
56500,0.723633,-0.530762,0.0322266,0
56520,0.79248,-0.57959,0.0830078,0
56540,0.775391,-0.649414,0.132324,0
56560,0.776367,-0.694336,0.116211,0
56580,0.834473,-0.71875,0.133789,0
56600,0.922363,-0.731445,0.146484,0
56620,0.977051,-0.727051,0.145508,0
56640,0.893066,-0.720215,0.17334,0
56660,0.812012,-0.741699,0.180176,0
56680,0.82666,-0.787109,0.144531,0
56700,0.911621,-0.824707,0.108398,0
56720,0.901855,-0.824219,0.186523,0
56740,0.787109,-0.813477,0.203613,0
56760,0.737305,-0.789062,0.15918,0
56780,0.761719,-0.820312,0.192871,0
56800,0.722656,-0.878418,0.249512,0
56820,0.652832,-0.86377,0.236816,0
56840,0.618652,-0.841309,0.236816,0
56860,0.601562,-0.849609,0.285645,0
56880,0.555176,-0.861816,0.307617,0
56900,0.5,-0.829102,0.306152,0
56920,0.463867,-0.820312,0.31543,0
56940,0.424805,-0.835938,0.344727,0
56960,0.385254,-0.839844,0.35791,0
56980,0.34668,-0.827148,0.333496,0
57000,0.349609,-0.80957,0.351074,0
57020,0.348633,-0.834961,0.376465,0
57040,0.327148,-0.840332,0.351562,0
57060,0.3125,-0.849121,0.349121,0
57080,0.317383,-0.856445,0.360352,0
57100,0.313965,-0.852539,0.337891,0
57120,0.319336,-0.839355,0.332031,0
57140,0.329102,-0.856445,0.353027,0
57160,0.298828,-0.861328,0.344238,0
57180,0.266113,-0.850586,0.322266,0
57200,0.276855,-0.859375,0.318359,0
57220,0.286133,-0.855469,0.339355,0
57240,0.280273,-0.836426,0.334961,0
57260,0.288086,-0.814941,0.327148,0
57280,0.31543,-0.829102,0.34082,0
57300,0.335449,-0.836426,0.335938,0
57320,0.329102,-0.853027,0.346191,0
57340,0.330078,-0.853516,0.33252,0
57360,0.34375,-0.852051,0.333984,0
57380,0.346191,-0.837402,0.337402,0
57400,0.330566,-0.835449,0.329102,0
57420,0.312988,-0.853516,0.317871,0
57440,0.321777,-0.867188,0.314453,0
57460,0.332031,-0.859375,0.331055,0
57470,0.341309,-0.836914,0.314453,0
57490,0.348633,-0.839844,0.327148,0
57510,0.344727,-0.841797,0.339355,0
57530,0.336426,-0.842773,0.337402,0
57550,0.347656,-0.839355,0.336426,0
57570,0.332031,-0.850586,0.331543,0
57590,0.309082,-0.844238,0.335938,0
57610,0.303223,-0.831543,0.342773,1000
57630,0.333008,-0.817871,0.335449,0
57650,0.368164,-0.817871,0.316895,0
57670,0.384277,-0.825195,0.324707,0
57690,0.36084,-0.842285,0.341797,0
57710,0.356934,-0.848633,0.327637,0
57730,0.35791,-0.839844,0.313477,0
57750,0.363281,-0.854492,0.319336,0
57770,0.375488,-0.842285,0.329102,0
57790,0.370117,-0.840332,0.319336,0
57810,0.345215,-0.844727,0.325195,0
57830,0.34668,-0.848145,0.324707,0
57850,0.337891,-0.849609,0.326172,0
57870,0.328613,-0.842773,0.331055,0
57890,0.330078,-0.822266,0.338867,0
57910,0.302734,-0.840332,0.318359,0
57930,0.330566,-0.850586,0.333008,0
57950,0.365723,-0.849609,0.344238,0
57970,0.366211,-0.852051,0.334961,0
57990,0.347656,-0.835938,0.320312,0
58010,0.345703,-0.833984,0.329102,0
58030,0.361328,-0.845703,0.325195,0
58050,0.35791,-0.844727,0.32959,0
58070,0.34668,-0.84668,0.327148,0
58090,0.352051,-0.84668,0.319824,0
58110,0.34082,-0.84668,0.332031,0
58130,0.344727,-0.839844,0.337402,0
58150,0.376465,-0.827148,0.349121,0
58170,0.379395,-0.843262,0.330566,0
58190,0.352539,-0.849121,0.325684,0
58210,0.358398,-0.844238,0.321777,0
58230,0.338379,-0.841797,0.338379,0
58250,0.302246,-0.828613,0.337891,0
58270,0.304199,-0.834473,0.321289,0
58290,0.351074,-0.84082,0.313477,0
58310,0.332031,-0.835938,0.322266,0
58330,0.289551,-0.825684,0.321289,0
58350,0.319824,-0.825684,0.325684,0
58370,0.33252,-0.858398,0.325195,0
58390,0.336914,-0.852539,0.322266,0
58410,0.345703,-0.826172,0.319824,0
58430,0.331055,-0.820801,0.316895,0
58450,0.339844,-0.84375,0.317871,0
58460,0.36084,-0.851562,0.324707,0
58480,0.387207,-0.857422,0.327148,0
58500,0.395508,-0.848145,0.315918,0
58520,0.362305,-0.830078,0.306641,0
58540,0.338867,-0.807617,0.315918,0
58560,0.341797,-0.826172,0.31543,0
58580,0.356934,-0.837402,0.32373,0
58600,0.366699,-0.856934,0.332031,0
58620,0.362793,-0.84375,0.320312,0
58640,0.355957,-0.817383,0.317383,0
58660,0.360352,-0.805176,0.32373,0
58680,0.374023,-0.811523,0.333496,0
58700,0.374512,-0.838379,0.345215,0
58720,0.361816,-0.851562,0.338379,0
58740,0.374023,-0.834961,0.324219,0
58760,0.395508,-0.79834,0.316895,0
58780,0.378906,-0.801758,0.30957,0
58800,0.350586,-0.813477,0.289062,0
58820,0.330566,-0.844727,0.29834,0
58840,0.325684,-0.869629,0.300293,0
58860,0.357422,-0.864746,0.292969,0
58880,0.357422,-0.851562,0.275879,0
58900,0.336426,-0.842285,0.27832,0
58920,0.347656,-0.853027,0.280273,0
58940,0.358887,-0.880371,0.275391,0
58960,0.352539,-0.885254,0.278809,0
58980,0.337891,-0.858398,0.29248,0
59000,0.338379,-0.841309,0.289062,0
59020,0.343262,-0.842773,0.280762,0
59040,0.350098,-0.866211,0.291992,0
59060,0.341797,-0.875488,0.294434,0
59080,0.349121,-0.850586,0.295898,0
59100,0.367676,-0.837402,0.287598,0
59120,0.385254,-0.818848,0.284668,0
59140,0.384277,-0.828613,0.277344,0
59160,0.386719,-0.844238,0.310059,0
59180,0.405762,-0.835449,0.312012,0
59200,0.428711,-0.831055,0.291504,0
59220,0.429199,-0.839355,0.26123,0
59240,0.41748,-0.831543,0.258789,0
59260,0.387207,-0.806641,0.267578,0
59280,0.39209,-0.796875,0.289551,0
59300,0.461426,-0.80957,0.293457,0
59320,0.517578,-0.827637,0.272949,0
59340,0.491699,-0.802734,0.269531,0
59360,0.470215,-0.789062,0.275391,0
59380,0.484863,-0.77832,0.288086,0
59400,0.490234,-0.8125,0.285156,0
59420,0.481934,-0.814453,0.274414,0
59440,0.500488,-0.808105,0.258789,0
59460,0.535645,-0.78125,0.271973,0
59480,0.524902,-0.755859,0.269531,0
59500,0.521484,-0.751465,0.251953,0
59520,0.549316,-0.782227,0.258789,0
59540,0.563477,-0.78125,0.266113,0
59560,0.543457,-0.765625,0.249023,0
59580,0.540527,-0.754395,0.230957,0
59600,0.541504,-0.752441,0.220703,0
59620,0.529785,-0.770508,0.241699,0
59640,0.507324,-0.772461,0.241211,0
59660,0.504395,-0.787598,0.222168,0
59680,0.507812,-0.771484,0.210938,0
59700,0.518555,-0.765137,0.235352,0
59720,0.508789,-0.761719,0.226562,0
59740,0.492188,-0.776367,0.210938,0
59760,0.501953,-0.772461,0.223633,0
59780,0.513672,-0.773438,0.248535,0
59800,0.516602,-0.767578,0.23584,0
59820,0.518555,-0.77002,0.21582,0
59840,0.531738,-0.777344,0.230469,0
59860,0.535645,-0.775391,0.231445,0
59880,0.546875,-0.76416,0.223145,0
59900,0.552246,-0.761719,0.208008,0
59920,0.569336,-0.758789,0.202637,0
59940,0.573242,-0.771973,0.205566,0
59960,0.560059,-0.772949,0.212891,0
59980,0.566406,-0.76123,0.206543,0
60000,0.573242,-0.753906,0.199219,0
60020,0.573242,-0.755859,0.19043,0
60040,0.555664,-0.752441,0.19043,0
60060,0.554688,-0.754395,0.206543,0
60080,0.574219,-0.748535,0.225586,0
60100,0.562988,-0.742188,0.204102,0
60120,0.557129,-0.748047,0.203613,0
60140,0.557129,-0.744141,0.217285,0
60160,0.557617,-0.741699,0.217773,0
60180,0.567871,-0.746582,0.208008,0
60200,0.57959,-0.738281,0.212891,0
60220,0.57666,-0.729004,0.222168,0
60240,0.570312,-0.723633,0.208496,0
60260,0.583008,-0.725098,0.203125,0
60280,0.589355,-0.733887,0.209473,0
60300,0.580078,-0.712891,0.217285,0
60320,0.574219,-0.720215,0.221191,0
60340,0.598633,-0.708496,0.236328,0
60360,0.61084,-0.700684,0.224121,0
60380,0.605957,-0.694336,0.224121,0
60400,0.598633,-0.701172,0.241699,0
60420,0.600098,-0.708008,0.25293,0
60440,0.601562,-0.708984,0.23584,0
60460,0.618164,-0.714844,0.205566,0
60480,0.615723,-0.713379,0.208496,0
60500,0.60791,-0.712402,0.225098,0
60520,0.599609,-0.718262,0.236816,0
60540,0.57666,-0.748535,0.22998,0
60560,0.590332,-0.741699,0.214355,0
60580,0.600586,-0.737793,0.21582,0
60600,0.601074,-0.712402,0.234863,0
60620,0.598145,-0.712891,0.240723,0
60640,0.603027,-0.719727,0.238281,0
60660,0.59375,-0.722656,0.245117,0
60680,0.599609,-0.722656,0.255859,0
60700,0.604004,-0.714355,0.264648,0
60720,0.620605,-0.689453,0.241699,0
60740,0.630859,-0.687988,0.232422,0
60760,0.615234,-0.711426,0.230957,0
60780,0.592285,-0.705078,0.257812,0
60800,0.597168,-0.712891,0.258789,0
60820,0.59375,-0.716309,0.242676,0
60840,0.604004,-0.694336,0.240234,0
60860,0.615723,-0.691406,0.237793,0
60880,0.614258,-0.70459,0.231934,0
60890,0.608398,-0.707031,0.236816,0
60910,0.615723,-0.694824,0.242676,0
60930,0.620605,-0.674316,0.252441,0
60950,0.63623,-0.68457,0.245605,0
60970,0.634766,-0.687012,0.25,0
60990,0.62207,-0.683105,0.250977,0
61010,0.614258,-0.688477,0.250488,0
61030,0.631348,-0.682617,0.257324,0
61050,0.628418,-0.687988,0.267578,0
61070,0.611816,-0.678223,0.251953,0
61090,0.614258,-0.687988,0.244629,0
61110,0.626465,-0.685059,0.250977,0
61130,0.618652,-0.686035,0.266113,0
61150,0.596191,-0.700195,0.254883,0
61170,0.597168,-0.713867,0.244629,0
61190,0.615723,-0.700195,0.24707,0
61210,0.615234,-0.682617,0.254883,0
61230,0.594238,-0.694336,0.26123,0
61250,0.590332,-0.727051,0.263672,0
61270,0.584961,-0.739258,0.263184,0
61290,0.590332,-0.711914,0.26123,0
61310,0.593262,-0.712402,0.279297,0
61330,0.574219,-0.708984,0.272461,0
61350,0.563965,-0.728027,0.264648,0
61370,0.583496,-0.739746,0.268066,0
61390,0.595703,-0.727051,0.288574,0
61410,0.566406,-0.714844,0.278809,0
61430,0.553711,-0.718262,0.287109,0
61450,0.561035,-0.740234,0.284668,0
61470,0.558105,-0.737793,0.273926,0
61490,0.544434,-0.73291,0.284668,0
61510,0.546875,-0.720215,0.307617,0
61530,0.533203,-0.73584,0.286621,0
61550,0.53418,-0.749512,0.275879,0
61570,0.525879,-0.755371,0.297363,0
61590,0.522949,-0.739746,0.311035,0
61610,0.514648,-0.747559,0.297363,0
61630,0.519043,-0.772949,0.288086,0
61650,0.542969,-0.776855,0.307129,0
61670,0.535645,-0.757324,0.301758,0
61690,0.505371,-0.733887,0.282715,0
61710,0.500488,-0.755859,0.289551,0
61730,0.525391,-0.76709,0.29248,0
61750,0.529297,-0.774414,0.289062,0
61770,0.505371,-0.754395,0.308105,0
61790,0.47998,-0.752441,0.301758,0
61810,0.495117,-0.750488,0.279785,0
61830,0.516113,-0.773926,0.307129,0
61850,0.508301,-0.770996,0.32959,0
61870,0.47998,-0.756348,0.312988,0
61890,0.474121,-0.741699,0.286621,0
61910,0.467773,-0.757812,0.311523,0
61930,0.458008,-0.771484,0.342285,0
61950,0.463379,-0.782715,0.331543,0
61970,0.465332,-0.786621,0.297852,0
61990,0.466309,-0.758301,0.287109,0
62010,0.444336,-0.756836,0.291016,0
62030,0.425781,-0.77832,0.313477,0
62050,0.409668,-0.812012,0.313965,0
62070,0.432129,-0.818848,0.294922,0
62090,0.463867,-0.807617,0.306641,0
62110,0.459473,-0.794434,0.30957,0
62130,0.45752,-0.811523,0.314941,0
62150,0.447266,-0.835938,0.321777,0
62170,0.424316,-0.819336,0.313965,0
62190,0.40918,-0.814941,0.317871,0
62210,0.40625,-0.81543,0.333496,0
62230,0.412109,-0.813477,0.314453,0
62250,0.418457,-0.814453,0.307129,0
62270,0.397949,-0.819824,0.301758,0
62290,0.395508,-0.820801,0.302734,0
62310,0.389648,-0.821777,0.310059,0
62330,0.39502,-0.816406,0.307129,0
62350,0.402344,-0.81543,0.312012,0
62370,0.396484,-0.812012,0.312988,0
62390,0.38916,-0.822754,0.319824,0
62410,0.384277,-0.834961,0.319824,0
62430,0.393066,-0.821777,0.287109,0
62450,0.410645,-0.816406,0.299805,0
62470,0.400879,-0.801758,0.301758,0
62490,0.394531,-0.812988,0.305664,0
62510,0.394531,-0.827148,0.292969,0
62530,0.394531,-0.839844,0.295898,0
62550,0.402832,-0.828125,0.311035,0
62570,0.390137,-0.833984,0.308594,0
62590,0.390137,-0.838379,0.27832,0
62610,0.413086,-0.852051,0.299316,0
62630,0.40332,-0.848145,0.304688,0
62650,0.38623,-0.831543,0.30957,0
62670,0.372559,-0.842285,0.293945,0
62690,0.404785,-0.854004,0.269531,0
62710,0.410645,-0.84082,0.277832,0
62730,0.389648,-0.82666,0.287598,0
62750,0.382324,-0.84082,0.291504,0
62770,0.410645,-0.839355,0.283691,0
62790,0.389648,-0.840332,0.266113,0
62810,0.35791,-0.828125,0.259766,0
62830,0.333984,-0.84082,0.263184,0
62850,0.352051,-0.852539,0.277344,0
62870,0.386719,-0.845215,0.291992,0
62880,0.374023,-0.84375,0.276367,0
62900,0.355957,-0.85791,0.277344,0
62920,0.365723,-0.867188,0.291016,0
62940,0.366211,-0.850098,0.285645,0
62960,0.369141,-0.848633,0.281738,0
62980,0.367188,-0.852051,0.29248,0
63000,0.367676,-0.861328,0.312012,0
63020,0.353027,-0.86377,0.309082,0
63040,0.358887,-0.854492,0.281738,0
63060,0.354004,-0.848145,0.282715,0
63080,0.334473,-0.844238,0.290039,0
63100,0.324219,-0.848633,0.268555,0
63120,0.336426,-0.846191,0.285645,0
63140,0.32959,-0.851074,0.304688,0
63160,0.339844,-0.845215,0.293945,0
63180,0.352051,-0.859375,0.287598,0
63200,0.350586,-0.850586,0.274414,0
63220,0.342285,-0.853027,0.279785,0
63240,0.34375,-0.863281,0.274414,0
63260,0.344238,-0.875488,0.289062,0
63280,0.337402,-0.873535,0.275391,0
63300,0.359375,-0.875488,0.263672,0
63320,0.365723,-0.875488,0.271484,0
63340,0.359375,-0.870117,0.266113,0
63360,0.368164,-0.876953,0.26709,0
63380,0.37207,-0.874023,0.271973,0
63400,0.357422,-0.871582,0.26123,0
63420,0.353027,-0.869141,0.249023,0
63440,0.343262,-0.871582,0.266602,0
63460,0.322754,-0.871582,0.270508,0
63480,0.3125,-0.865723,0.249023,0
63500,0.32959,-0.87207,0.248535,0
63520,0.331543,-0.891113,0.247559,0
63540,0.323242,-0.882324,0.246582,0
63560,0.320312,-0.871094,0.26709,0
63580,0.333008,-0.874023,0.260742,0
63600,0.335449,-0.879395,0.248047,0
63620,0.34375,-0.902832,0.242188,0
63640,0.353027,-0.899414,0.241211,0
63660,0.333496,-0.887207,0.251953,0
63680,0.329102,-0.874512,0.231445,0
63700,0.355957,-0.897949,0.237305,0
63720,0.357422,-0.893066,0.246582,0
63740,0.338867,-0.877441,0.214844,0
63760,0.330078,-0.879883,0.224609,0
63780,0.336914,-0.878906,0.239258,0
63800,0.337891,-0.876465,0.234863,0
63820,0.317871,-0.881836,0.231934,0
63840,0.318848,-0.886719,0.214355,0
63860,0.351562,-0.88623,0.214355,0
63880,0.35498,-0.882812,0.212891,0
63900,0.335449,-0.885254,0.210449,0
63920,0.338867,-0.900391,0.196289,0
63940,0.348145,-0.897949,0.189453,0
63960,0.337891,-0.884277,0.193848,0
63980,0.32959,-0.876953,0.181152,0
64000,0.333008,-0.870117,0.171387,0
64020,0.327148,-0.879883,0.17334,0
64040,0.327637,-0.879883,0.150391,0
64060,0.354004,-0.892578,0.129395,0
64080,0.380859,-0.899414,0.14502,0
64100,0.378906,-0.894531,0.149902,0
64120,0.370117,-0.890625,0.144043,0
64140,0.340332,-0.911621,0.130371,0
64160,0.342285,-0.904297,0.152344,0
64180,0.375488,-0.899414,0.161133,0
64200,0.344727,-0.888184,0.137207,0
64220,0.320312,-0.886719,0.128418,0
64240,0.341309,-0.901367,0.124512,0
64260,0.344238,-0.896484,0.121582,0
64280,0.336426,-0.897461,0.101562,0
64300,0.358887,-0.908203,0.107422,0
64320,0.351562,-0.909668,0.114746,0
64340,0.338379,-0.888672,0.0966797,0
64360,0.36377,-0.88916,0.103027,0
64380,0.381836,-0.90332,0.0952148,0
64400,0.367188,-0.908203,0.0888672,0
64420,0.390625,-0.902344,0.0820312,0
64440,0.433594,-0.913086,0.0932617,0
64460,0.421387,-0.89502,0.0830078,0
64480,0.387695,-0.883301,0.0600586,0
64500,0.425781,-0.886719,0.0493164,0
64520,0.499023,-0.876465,0.0541992,0
64540,0.504395,-0.875977,0.0522461,0
64560,0.458008,-0.879883,0.0317383,0
64580,0.453613,-0.895996,0.0424805,0
64600,0.487793,-0.89502,0.0380859,0
64620,0.499512,-0.912598,0.0161133,0
64640,0.503906,-0.881836,0.0209961,0
64660,0.500488,-0.85498,0.0249023,0
64680,0.500977,-0.837402,0.00341797,0
64700,0.497559,-0.859863,-0.00244141,0
64720,0.483398,-0.876465,-0.00244141,0
64740,0.472168,-0.845703,-0.0078125,0
64760,0.468262,-0.819824,0.00537109,0
64780,0.485352,-0.80127,-0.00439453,0
64800,0.496582,-0.799316,-0.0263672,0
64820,0.511719,-0.805176,-0.0258789,0
64840,0.509766,-0.813965,-0.00390625,0
64860,0.493164,-0.79834,-0.015625,0
64880,0.517578,-0.782227,-0.0444336,0
64900,0.580078,-0.79834,-0.0380859,0
64920,0.581543,-0.80957,-0.0244141,0
64940,0.544922,-0.796875,-0.0410156,0
64960,0.54834,-0.788574,-0.0400391,0
64980,0.597656,-0.79541,-0.0483398,0
65000,0.620605,-0.822266,-0.0693359,0
65020,0.575195,-0.822754,-0.0703125,0
65040,0.558105,-0.794434,-0.0639648,0
65060,0.585449,-0.790527,-0.0493164,0
65080,0.628906,-0.783691,-0.0551758,0
65100,0.635742,-0.777344,-0.0688477,0
65120,0.617676,-0.774902,-0.0664062,0
65140,0.60498,-0.767578,-0.0532227,0
65160,0.607422,-0.775879,-0.0380859,0
65180,0.621094,-0.767578,-0.0688477,0
65200,0.62793,-0.78125,-0.0654297,0
65220,0.632812,-0.773438,-0.0488281,0
65240,0.651855,-0.763184,-0.0532227,0
65260,0.647461,-0.734863,-0.0585938,0
65270,0.622559,-0.726074,-0.0478516,0
65290,0.633301,-0.745117,-0.050293,0
65310,0.644043,-0.769043,-0.0512695,0
65330,0.661133,-0.755859,-0.034668,0
65350,0.678223,-0.732422,-0.0268555,0
65370,0.670898,-0.706055,-0.0546875,0
65390,0.652344,-0.703613,-0.0717773,0
65410,0.674316,-0.734863,-0.0371094,0
65430,0.691895,-0.728027,-0.00146484,0
65450,0.712402,-0.70459,-0.00292969,0
65470,0.71875,-0.695312,-0.0292969,0
65490,0.715332,-0.690918,-0.0410156,0
65510,0.699707,-0.685547,-0.0166016,0
65530,0.694824,-0.685059,-0.00292969,0
65550,0.713379,-0.673828,-0.00341797,0
65570,0.730957,-0.66748,-0.00585938,0
65590,0.728516,-0.644531,-0.0273438,0
65610,0.711914,-0.668945,-0.0117188,0
65630,0.717285,-0.689453,0.00292969,0
65650,0.723633,-0.672363,0.00830078,0
65670,0.716309,-0.632812,0.00195312,0
65690,0.737305,-0.609375,0.0219727,0
65710,0.744141,-0.60791,0.0170898,0
65730,0.745117,-0.61377,0.046875,0
65750,0.747559,-0.624023,0.0581055,0
65770,0.759766,-0.61377,0.0429688,0
65790,0.769043,-0.607422,0.0541992,0
65810,0.748535,-0.601562,0.0673828,0
65830,0.737305,-0.586914,0.0878906,0
65850,0.756836,-0.598633,0.111816,0
65870,0.783691,-0.577148,0.109375,0
65890,0.778809,-0.559082,0.103516,0
65910,0.777344,-0.542969,0.097168,0
65930,0.797852,-0.564941,0.0976562,0
65950,0.786621,-0.59668,0.108887,0
65970,0.750488,-0.606934,0.119141,0
65990,0.748535,-0.585449,0.13916,0
66010,0.758789,-0.562988,0.12207,0
66030,0.76416,-0.558105,0.12793,0
66050,0.75293,-0.59668,0.149414,0
66070,0.733398,-0.628418,0.168457,0
66090,0.739258,-0.64502,0.195312,0
66110,0.757324,-0.633301,0.174805,0
66130,0.753418,-0.61084,0.180664,0
66150,0.714355,-0.627441,0.216309,0
66170,0.666016,-0.646484,0.244629,0
66190,0.674316,-0.668945,0.23584,0
66210,0.710449,-0.668457,0.238281,0
66230,0.684082,-0.670898,0.222168,0
66250,0.623047,-0.685547,0.240723,0
66270,0.576172,-0.741699,0.296875,0
66290,0.584473,-0.756348,0.288574,0
66300,0.624023,-0.733398,0.274902,0
66320,0.595703,-0.726562,0.277344,0
66340,0.543945,-0.750488,0.311523,0
66360,0.535156,-0.789551,0.335938,0
66380,0.543945,-0.79834,0.321289,0
66400,0.533203,-0.769043,0.32373,0
66420,0.500488,-0.766113,0.335938,0
66440,0.470703,-0.80127,0.328613,0
66460,0.465332,-0.83252,0.320312,0
