Timestamp, Acceleration x, Acceleration y, Acceleration z, Marker
30,-0.54248,-0.858398,0.00341797,0
50,-0.544922,-0.859863,0.0141602,0
70,-0.544922,-0.863281,0.0112305,0
90,-0.546387,-0.868164,0.00634766,0
110,-0.54834,-0.861816,0.00341797,0
120,-0.546387,-0.85498,-0.00390625,0
140,-0.546875,-0.849609,0,0
170,-0.546875,-0.849121,-0.00146484,0
190,-0.55127,-0.85791,-0.00585938,0
210,-0.54834,-0.862793,-0.00683594,0
230,-0.54834,-0.861328,0.00146484,0
250,-0.548828,-0.864746,-0.00244141,0
270,-0.550781,-0.859863,0,0
290,-0.550781,-0.860352,0.00292969,0
310,-0.551758,-0.862793,-0.00195312,0
330,-0.548828,-0.864258,0,0
350,-0.55127,-0.859863,-0.00341797,0
370,-0.552734,-0.857422,0.000488281,0
390,-0.552246,-0.85498,0.00537109,0
410,-0.553711,-0.857422,-0.0102539,0
430,-0.553223,-0.858398,-0.00244141,0
450,-0.549805,-0.852539,-0.00390625,0
470,-0.551758,-0.851562,0.00292969,0
490,-0.54541,-0.854492,0.00146484,0
510,-0.550781,-0.859375,0.000976562,0
530,-0.551758,-0.863281,0.0136719,0
550,-0.554688,-0.870605,-0.000976562,0
570,-0.552246,-0.865723,-0.000488281,0
590,-0.547852,-0.852051,-0.000976562,0
610,-0.546875,-0.857422,0.000488281,0
630,-0.551758,-0.859863,-0.00146484,0
650,-0.551758,-0.864258,0.000488281,0
670,-0.549316,-0.859863,-0.00488281,0
690,-0.554688,-0.854004,-0.00195312,0
710,-0.553711,-0.847168,-0.00292969,0
730,-0.543457,-0.849121,0.00439453,0
750,-0.550781,-0.857422,0.00830078,0
770,-0.554688,-0.859863,0.000488281,0
790,-0.552734,-0.860352,-0.00341797,0
810,-0.555664,-0.864746,0,0
830,-0.54834,-0.864746,-0.00195312,0
850,-0.547363,-0.862793,-0.00244141,0
870,-0.552246,-0.865723,0.00439453,0
890,-0.552734,-0.862793,-0.00341797,0
910,-0.554199,-0.856934,-0.00341797,0
930,-0.547852,-0.851562,0.00488281,0
950,-0.555176,-0.860352,0,0
970,-0.556152,-0.85498,0,0
990,-0.553711,-0.856445,0.000976562,0
1010,-0.552246,-0.85498,-0.00195312,0
1030,-0.553711,-0.849121,-0.000976562,0
1050,-0.54541,-0.847168,-0.00585938,0
1070,-0.545898,-0.852051,0.00292969,0
1090,-0.546875,-0.86084,-0.00537109,0
1110,-0.54834,-0.866211,0.00146484,0
1130,-0.553223,-0.875,0.00292969,0
1150,-0.549316,-0.873047,0,0
1170,-0.54834,-0.870117,0,0
1190,-0.549316,-0.856934,-0.00292969,0
1210,-0.550293,-0.85791,0.00634766,0
1230,-0.559082,-0.854004,0.00195312,0
1250,-0.555176,-0.856934,0.00146484,0
1270,-0.556152,-0.86377,0.00976562,0
1290,-0.555176,-0.862793,0.00634766,0
1310,-0.546875,-0.849121,-0.000976562,0
1330,-0.544922,-0.851562,0.00146484,0
1350,-0.547363,-0.855957,0.00488281,0
1370,-0.54834,-0.867676,-0.000976562,0
1390,-0.547852,-0.865723,0.00488281,0
1410,-0.54834,-0.867188,0.00537109,0
1430,-0.54541,-0.853516,0.00830078,0
1450,-0.546387,-0.854004,0.00341797,0
1470,-0.55127,-0.858398,-0.00341797,0
1480,-0.551758,-0.867676,0.0078125,0
1500,-0.548828,-0.857422,-0.000976562,0
1520,-0.54834,-0.855957,-0.00292969,0
1540,-0.547363,-0.85791,0.000488281,0
1560,-0.550781,-0.85498,0.00244141,0
1580,-0.549805,-0.857422,0.000488281,0
1600,-0.55127,-0.858398,0.00244141,0
1620,-0.549805,-0.856934,-0.0078125,0
1640,-0.546387,-0.859863,-0.00292969,0
1660,-0.544434,-0.855469,-0.00292969,0
1680,-0.550781,-0.860352,-0.000976562,0
1700,-0.544922,-0.85791,0.0102539,0
1720,-0.550293,-0.858398,0.00927734,0
1740,-0.552246,-0.855957,0.00927734,0
1760,-0.546875,-0.862305,0.00732422,0
1780,-0.54541,-0.856445,0.00341797,0
1800,-0.548828,-0.863281,0.000488281,0
1820,-0.554688,-0.858398,0.000488281,0
1840,-0.544922,-0.861328,-0.000976562,0
1860,-0.55127,-0.862305,0.00537109,0
1880,-0.544922,-0.85498,0.00341797,0
1900,-0.538086,-0.853516,0.00830078,0
1920,-0.540039,-0.859863,-0.000488281,0
1940,-0.544922,-0.864258,-0.00244141,0
1960,-0.54541,-0.859863,-0.000488281,0
1980,-0.547363,-0.86084,0.00976562,0
2000,-0.542969,-0.866211,0.00244141,0
2020,-0.54834,-0.867676,-0.00292969,0
2040,-0.547363,-0.859375,0.00341797,0
2060,-0.545898,-0.857422,0.00683594,0
2080,-0.549805,-0.862305,0.00683594,0
2100,-0.549316,-0.854004,0.00146484,0
2120,-0.545898,-0.859375,0.00244141,0
2140,-0.550293,-0.862793,0.0126953,0
2160,-0.54834,-0.862305,0.0112305,0
2180,-0.546387,-0.86084,0.00195312,0
2200,-0.54834,-0.865234,0.00634766,0
2220,-0.541992,-0.862793,0.00341797,0
2240,-0.543457,-0.85791,0.00292969,0
2260,-0.544434,-0.862305,0.00878906,0
2280,-0.544434,-0.868652,0.0151367,0
2300,-0.542969,-0.864258,0.00927734,0
2320,-0.543457,-0.862793,0.00878906,0
2340,-0.541992,-0.864746,0.00878906,0
2360,-0.537598,-0.858887,0.00830078,0
2380,-0.546387,-0.864258,0.00878906,0
2400,-0.547852,-0.86377,0.00488281,0
2420,-0.557129,-0.862305,0.00439453,0
2440,-0.553711,-0.858398,-0.000488281,0
2460,-0.54541,-0.853516,-0.00195312,0
2480,-0.532715,-0.851074,-0.00976562,0
2500,-0.531738,-0.849609,-0.00146484,0
2520,-0.532227,-0.858398,0.0102539,0
2540,-0.537598,-0.871094,0.0102539,0
2560,-0.540527,-0.879395,0.0126953,0
2580,-0.549805,-0.878906,0.0146484,0
2600,-0.549316,-0.866699,0.0175781,0
2620,-0.545898,-0.849609,0.0102539,0
2640,-0.549316,-0.845703,0.0078125,0
2660,-0.552246,-0.853027,-0.000488281,0
2680,-0.545898,-0.85498,0,0
2700,-0.541016,-0.864258,0.00585938,0
2720,-0.540527,-0.872559,0.012207,0
2740,-0.539062,-0.871094,0.00439453,0
2760,-0.537598,-0.875,0.00878906,0
2780,-0.535645,-0.871094,0.0136719,0
2800,-0.540527,-0.866699,0.00927734,0
2820,-0.540527,-0.865234,0.00878906,0
2840,-0.538574,-0.86377,0.0131836,0
2860,-0.54248,-0.869629,0.0205078,0
2880,-0.544922,-0.867676,0.0180664,0
2900,-0.541992,-0.856934,0.0141602,0
2920,-0.54541,-0.85791,0.0126953,0
2940,-0.543945,-0.856934,0.0151367,0
2960,-0.541016,-0.858887,0.0141602,0
2980,-0.542969,-0.868164,0.0102539,0
3000,-0.541016,-0.873535,0.00341797,0
3020,-0.54248,-0.864746,0.0102539,0
3040,-0.542969,-0.859375,0.00634766,0
3060,-0.54248,-0.858398,0.00488281,0
3080,-0.547363,-0.858398,0.00585938,0
3100,-0.544922,-0.85498,0.0107422,0
3120,-0.543457,-0.861328,0.0107422,0
3140,-0.542969,-0.868164,0.0078125,0
3160,-0.544434,-0.859863,0.00878906,0
3180,-0.54248,-0.858887,0.00488281,0
3200,-0.543945,-0.854004,0.0102539,0
3220,-0.546875,-0.856445,0.0102539,0
3240,-0.544922,-0.862305,0.00830078,0
3260,-0.54834,-0.868652,0.0126953,0
3280,-0.547363,-0.869141,0.0141602,0
3300,-0.537109,-0.859863,0.0136719,0
3320,-0.533203,-0.84668,0.0141602,0
3340,-0.537109,-0.844727,0.00976562,0
3360,-0.532227,-0.831543,0.00195312,0
3380,-0.533203,-0.838379,-0.012207,0
3400,-0.533203,-0.85498,-0.00683594,0
3420,-0.529297,-0.865234,-0.00634766,0
3440,-0.529297,-0.875,0.000488281,0
3460,-0.537598,-0.891602,0.0131836,0
3480,-0.538086,-0.903809,0.0234375,0
3500,-0.536621,-0.896973,0.0258789,0
3520,-0.540039,-0.89209,0.0327148,0
3540,-0.538086,-0.882812,0.0356445,0
3560,-0.538086,-0.867676,0.0380859,0
3580,-0.541992,-0.865234,0.0380859,0
3600,-0.543945,-0.859863,0.0410156,0
3620,-0.541016,-0.851562,0.0371094,0
3640,-0.535645,-0.850586,0.0390625,0
3660,-0.542969,-0.847168,0.0375977,0
3680,-0.538086,-0.847656,0.0356445,0
3700,-0.532715,-0.852539,0.0419922,0
3720,-0.530273,-0.855469,0.0415039,0
3740,-0.535156,-0.855469,0.0380859,0
3760,-0.530762,-0.859863,0.0307617,0
3780,-0.526367,-0.870117,0.0375977,0
3800,-0.525391,-0.878418,0.0356445,0
3820,-0.520508,-0.894531,0.034668,0
3840,-0.514648,-0.89502,0.0366211,0
3860,-0.51123,-0.894043,0.0302734,0
3880,-0.514648,-0.891602,0.03125,0
3900,-0.516113,-0.872559,0.027832,0
3920,-0.521484,-0.880371,0.0268555,0
3940,-0.529297,-0.886719,0.0336914,0
3960,-0.537598,-0.874512,0.034668,0
3980,-0.54541,-0.856934,0.0366211,0
4000,-0.556152,-0.85791,0.0390625,0
4020,-0.564941,-0.850586,0.0498047,0
4040,-0.562012,-0.845215,0.0439453,0
4060,-0.554688,-0.853516,0.0410156,0
4070,-0.546387,-0.848633,0.0405273,0
4090,-0.532715,-0.846191,0.0371094,0
4110,-0.526367,-0.846191,0.0283203,0
4130,-0.527344,-0.859863,0.0166016,0
4150,-0.51416,-0.870117,0.0185547,0
4170,-0.514648,-0.872559,0.0229492,0
4190,-0.521484,-0.876465,0.0180664,0
4210,-0.532715,-0.87207,0.0263672,0
4230,-0.538086,-0.859863,0.0307617,0
4250,-0.54834,-0.855957,0.0258789,0
4270,-0.552246,-0.856445,0.015625,0
4290,-0.552734,-0.849609,0.0175781,0
4310,-0.54541,-0.85791,-0.00292969,0
4330,-0.53418,-0.875488,-0.00976562,0
4350,-0.551758,-0.883301,0.027832,0
4370,-0.547852,-0.877441,0.0209961,0
4390,-0.527832,-0.875,0.0219727,0
4410,-0.525879,-0.869141,0.0229492,0
4430,-0.527344,-0.859375,0.034668,0
4450,-0.531738,-0.847168,0.0307617,0
4470,-0.536621,-0.842773,0.0224609,0
4490,-0.53125,-0.855957,0.0307617,0
4510,-0.541504,-0.863281,0.0351562,0
4530,-0.547852,-0.86377,0.0336914,0
4550,-0.538086,-0.858398,0.0249023,0
4570,-0.536621,-0.852051,0.0126953,0
4590,-0.53418,-0.858398,0.00634766,0
4610,-0.538574,-0.86377,0.00830078,0
4630,-0.532715,-0.867676,0.0107422,0
4650,-0.538086,-0.879395,0.012207,0
4670,-0.541016,-0.89209,0.0224609,0
4690,-0.54541,-0.888184,0.0292969,0
4710,-0.54541,-0.877441,0.0253906,0
4730,-0.543945,-0.866211,0.0107422,0
4750,-0.545898,-0.858887,0.00976562,0
4770,-0.536133,-0.852051,0.0102539,0
4790,-0.535645,-0.855469,0.00830078,0
4810,-0.539551,-0.85498,0.00976562,0
4830,-0.54248,-0.854492,0.0146484,0
4850,-0.545898,-0.864746,0.0102539,0
4870,-0.543945,-0.864258,0.0107422,0
4890,-0.541992,-0.856934,0.0180664,0
4910,-0.544434,-0.853516,0.0107422,0
4930,-0.543457,-0.856934,0.0180664,0
4950,-0.54248,-0.862305,0.019043,0
4970,-0.535645,-0.860352,0.0170898,0
4990,-0.541016,-0.862305,0.0170898,0
5010,-0.53418,-0.876465,0.0136719,0
5030,-0.528809,-0.880859,0.00878906,0
5050,-0.535156,-0.880859,0.0161133,0
5070,-0.534668,-0.87793,0.0112305,0
5090,-0.535156,-0.870117,0.00927734,0
5110,-0.536621,-0.87207,0.0131836,0
5130,-0.544922,-0.866211,0.0219727,0
5150,-0.547363,-0.866211,0.0205078,0
5170,-0.547363,-0.862793,0.0292969,0
5190,-0.538574,-0.871094,0.0449219,0
5210,-0.535645,-0.877441,0.0615234,0
5230,-0.526855,-0.876953,0.0654297,0
5250,-0.527344,-0.859863,0.0170898,0
5270,-0.537598,-0.838379,0.00585938,0
5290,-0.547852,-0.827637,-0.00732422,0
5310,-0.54834,-0.828613,-0.0214844,0
5330,-0.551758,-0.84375,-0.034668,0
5350,-0.551758,-0.865723,-0.0317383,0
5370,-0.544434,-0.885742,-0.0224609,0
5390,-0.539551,-0.890137,-0.00244141,0
5410,-0.537598,-0.877441,0.0136719,0
5430,-0.541016,-0.869629,0.0244141,0
5450,-0.536133,-0.862305,0.0249023,0
5470,-0.536621,-0.854004,0.0219727,0
5490,-0.536133,-0.861816,0.0366211,0
5510,-0.541016,-0.873047,0.0375977,0
5530,-0.546387,-0.875488,0.03125,0
5550,-0.54834,-0.858887,0.00488281,0
5570,-0.543945,-0.850586,0.00244141,0
5590,-0.547363,-0.847168,0,0
5610,-0.547852,-0.850098,-0.0078125,0
5630,-0.549805,-0.861328,-0.012207,0
5650,-0.543945,-0.869629,-0.00195312,0
5670,-0.539551,-0.865723,0.00439453,0
5690,-0.537109,-0.860352,0.0219727,0
5710,-0.538574,-0.85498,0.0180664,0
5730,-0.543945,-0.855469,0.0263672,0
5750,-0.541504,-0.863281,0.0175781,0
5770,-0.541504,-0.865723,0.0224609,0
5790,-0.541992,-0.870605,0.015625,0
5810,-0.538086,-0.871094,0.0107422,0
5830,-0.538574,-0.871582,0.0146484,0
5850,-0.546387,-0.866699,0.0209961,0
5870,-0.541992,-0.865234,0.027832,0
5890,-0.540039,-0.863281,0.0170898,0
5910,-0.527344,-0.868164,0.0195312,0
5930,-0.527344,-0.868164,0.0166016,0
5950,-0.530273,-0.86377,0.0170898,0
5970,-0.533691,-0.868164,0.012207,0
5990,-0.537109,-0.866699,0.00878906,0
6010,-0.540527,-0.866211,0.0185547,0
6030,-0.541016,-0.860352,0.0175781,0
6050,-0.541016,-0.859375,0.0131836,0
6070,-0.539062,-0.857422,0.0146484,0
6090,-0.536621,-0.86084,0.0161133,0
6110,-0.536133,-0.867676,0.0180664,0
6130,-0.533691,-0.870117,0.0219727,0
6150,-0.53418,-0.87207,0.0131836,0
6170,-0.531738,-0.868652,0.0131836,0
6190,-0.535645,-0.865723,0.0112305,0
6210,-0.541016,-0.865234,0.0195312,0
6230,-0.54248,-0.863281,0.0136719,0
6250,-0.543457,-0.868164,0.015625,0
6270,-0.540527,-0.860352,0.0151367,0
6290,-0.539551,-0.857422,0.019043,0
6310,-0.53418,-0.85791,0.0185547,0
6330,-0.537598,-0.864258,0.0151367,0
6350,-0.539062,-0.867188,0.0185547,0
6370,-0.536133,-0.872559,0.0185547,0
6390,-0.536133,-0.876465,0.0151367,0
6410,-0.540039,-0.86084,0.00341797,0
6430,-0.53418,-0.858398,0.00732422,0
6450,-0.542969,-0.855469,0.0161133,0
6470,-0.545898,-0.884277,0.0234375,0
6490,-0.547363,-0.913574,-0.0117188,0
6510,-0.543945,-0.925293,0.00537109,0
6530,-0.537598,-0.901367,-0.00195312,0
6550,-0.533203,-0.879883,-0.0273438,0
6570,-0.51709,-0.895508,-0.0488281,0
6590,-0.524414,-0.893066,-0.00292969,0
6610,-0.54248,-0.885254,0.00146484,0
6630,-0.544434,-0.868164,-0.0180664,0
6650,-0.539062,-0.866699,-0.0371094,0
6660,-0.546387,-0.859863,0.00146484,0
6680,-0.567383,-0.857422,0.000976562,0
6700,-0.57959,-0.898926,-0.0375977,0
6720,-0.589355,-0.93457,-0.0742188,0
6740,-0.604492,-0.958984,-0.0727539,0
6760,-0.57666,-1.00146,-0.0698242,0
6780,-0.507812,-1.01025,-0.0454102,0
6800,-0.459961,-0.977539,-0.0522461,0
6820,-0.47168,-0.90625,-0.0517578,0
6840,-0.524414,-0.842773,-0.0786133,0
6860,-0.536621,-0.792969,-0.116211,0
6880,-0.555176,-0.822754,-0.137207,0
6900,-0.52832,-0.893066,-0.153809,0
6920,-0.504883,-0.960449,-0.154785,0
6940,-0.487793,-0.95459,-0.188477,0
6960,-0.507812,-0.924316,-0.216797,0
6980,-0.541016,-0.918457,-0.226562,0
7000,-0.549805,-0.927734,-0.180176,0
7020,-0.538574,-0.938477,-0.135254,0
7040,-0.523926,-0.914062,-0.134766,0
7060,-0.506836,-0.856934,-0.126953,0
7080,-0.495605,-0.804688,-0.124023,0
7100,-0.48584,-0.782715,-0.118164,0
7120,-0.500488,-0.785645,-0.0966797,0
7140,-0.518066,-0.821289,-0.0673828,0
7160,-0.509277,-0.861328,-0.0522461,0
7180,-0.495117,-0.899414,-0.0483398,0
7200,-0.470215,-0.928711,-0.0371094,0
7220,-0.433105,-0.907227,-0.015625,0
7240,-0.412598,-0.876465,0,0
7260,-0.407715,-0.863281,0.0112305,0
7280,-0.390137,-0.870605,0.0180664,0
7300,-0.376953,-0.863281,0.0336914,0
7320,-0.367676,-0.86377,0.0688477,0
7340,-0.357422,-0.868652,0.0693359,0
7360,-0.350586,-0.885254,0.0869141,0
7380,-0.357422,-0.894043,0.106934,0
7400,-0.357422,-0.914062,0.114746,0
7420,-0.358398,-0.917969,0.108398,0
7440,-0.362793,-0.924316,0.114258,0
7460,-0.382324,-0.935547,0.117676,0
7480,-0.382812,-0.946289,0.152344,0
7500,-0.356445,-0.932129,0.212402,0
7520,-0.367676,-0.920898,0.208008,0
7540,-0.414551,-0.936035,0.139648,0
7560,-0.427246,-0.932617,0.0795898,0
7580,-0.441895,-0.904785,0.0844727,0
7600,-0.463379,-0.887695,0.0947266,0
7620,-0.479492,-0.894531,0.0576172,0
7640,-0.481445,-0.916016,0.0322266,0
7660,-0.474121,-0.918945,0.0605469,0
7680,-0.46875,-0.912598,0.0830078,0
7700,-0.469727,-0.912598,0.046875,0
7720,-0.462891,-0.936035,0.0317383,0
7740,-0.442871,-0.956543,0.0131836,0
7760,-0.428711,-0.950684,0.0126953,0
7780,-0.446289,-0.939453,-0.0112305,0
7800,-0.445801,-0.925781,-0.0366211,0
7820,-0.436035,-0.904785,-0.00537109,0
7840,-0.441406,-0.898926,-0.0288086,0
7860,-0.459961,-0.905762,-0.0634766,0
7880,-0.459961,-0.911621,-0.0522461,0
7900,-0.481445,-0.911133,-0.0283203,0
7920,-0.493652,-0.92334,-0.0537109,0
7940,-0.48291,-0.932617,-0.0834961,0
7960,-0.461914,-0.933105,-0.0654297,0
7980,-0.44873,-0.917969,-0.0595703,0
8000,-0.469727,-0.937012,-0.102051,0
8020,-0.473145,-0.941895,-0.124023,0
8040,-0.445801,-0.936035,-0.097168,0
8060,-0.439453,-0.936523,-0.0703125,0
8080,-0.441895,-0.95459,-0.0717773,0
8100,-0.431152,-0.974609,-0.0917969,0
8120,-0.394043,-0.982422,-0.090332,0
8140,-0.367188,-0.986816,-0.0986328,0
8160,-0.359375,-0.996094,-0.119141,0
8180,-0.382324,-0.989258,-0.145996,0
8200,-0.369141,-0.976074,-0.160645,0
8220,-0.345703,-0.973633,-0.152344,0
8240,-0.352051,-0.998047,-0.167969,0
8260,-0.357422,-1.01123,-0.168457,0
8280,-0.372559,-1.0166,-0.172852,0
8300,-0.402832,-1.01611,-0.183105,0
8320,-0.415039,-1.01611,-0.18457,0
8340,-0.423828,-1.0127,-0.175293,0
8360,-0.429688,-0.976074,-0.16748,0
8380,-0.442871,-0.955566,-0.159668,0
8400,-0.443359,-0.940918,-0.144531,0
8420,-0.4375,-0.919922,-0.122559,0
8440,-0.410156,-0.905273,-0.0874023,0
8460,-0.364258,-0.910645,-0.0263672,0
8480,-0.34375,-0.934082,-0.0268555,0
8500,-0.363281,-0.950684,-0.0810547,0
8520,-0.413086,-0.953125,-0.105957,0
8540,-0.46582,-0.954102,-0.0922852,0
8560,-0.472168,-0.902832,-0.0527344,0
8580,-0.47168,-0.849121,-0.0141602,0
8600,-0.488281,-0.833008,-0.0307617,0
8620,-0.460449,-0.837402,-0.0419922,0
8640,-0.463379,-0.845703,-0.0112305,0
8660,-0.467773,-0.859863,-0.00292969,0
8680,-0.467285,-0.862793,-0.0170898,0
8700,-0.47998,-0.86084,-0.019043,0
8720,-0.48584,-0.856445,-0.00244141,0
8740,-0.474121,-0.857422,0.0200195,0
8760,-0.470215,-0.872559,0.0209961,0
8780,-0.471191,-0.888672,0.0151367,0
8800,-0.474609,-0.903809,0.0341797,0
8820,-0.456543,-0.902832,0.0605469,0
8840,-0.4375,-0.898926,0.0698242,0
8860,-0.434082,-0.908691,0.0810547,0
8880,-0.419922,-0.943848,0.103516,0
8900,-0.411621,-0.966309,0.105957,0
8920,-0.399414,-0.958984,0.100098,0
8940,-0.394531,-0.944336,0.113281,0
8960,-0.412598,-0.946777,0.0966797,0
8980,-0.399902,-0.95752,0.0927734,0
9000,-0.40332,-0.95166,0.0874023,0
9020,-0.399414,-0.944336,0.101562,0
9040,-0.396484,-0.928223,0.114746,0
9060,-0.397461,-0.916992,0.0976562,0
9080,-0.393555,-0.916504,0.0825195,0
9100,-0.400879,-0.922852,0.0776367,0
9120,-0.410645,-0.936035,0.0727539,0
9140,-0.413086,-0.925781,0.0698242,0
9160,-0.415039,-0.914551,0.0566406,0
9180,-0.427734,-0.917969,0.0415039,0
9200,-0.438965,-0.927246,0.0473633,0
9220,-0.44043,-0.918945,0.0258789,0
9240,-0.443359,-0.916016,0.012207,0
9250,-0.439453,-0.908691,0.0234375,0
9270,-0.443359,-0.901855,0.0175781,0
9290,-0.452148,-0.910645,0.000976562,0
9310,-0.428223,-0.927246,-0.0112305,0
9330,-0.414062,-0.930664,0.00390625,0
9350,-0.407227,-0.935547,-0.0234375,0
9370,-0.394043,-0.930664,-0.0341797,0
9390,-0.376953,-0.930664,-0.03125,0
9410,-0.352051,-0.928223,-0.027832,0
9430,-0.319824,-0.953613,-0.0268555,0
9450,-0.319824,-0.978516,-0.0541992,0
9470,-0.318359,-0.981445,-0.100586,0
9490,-0.313965,-0.98291,-0.10791,0
9510,-0.30127,-0.958008,-0.0791016,0
9530,-0.3125,-0.939453,-0.0883789,0
9550,-0.31543,-0.935059,-0.132324,0
9570,-0.292969,-0.945312,-0.152344,0
9590,-0.269531,-0.953125,-0.141602,0
9610,-0.265137,-0.977051,-0.144531,0
9630,-0.269043,-0.993164,-0.162109,0
9650,-0.26416,-1.00244,-0.1875,0
9670,-0.244141,-1.00098,-0.158691,0
9690,-0.246094,-0.981445,-0.155273,0
9710,-0.263672,-0.978027,-0.175781,0
9730,-0.278809,-0.988281,-0.181152,0
9750,-0.278809,-0.982422,-0.160645,0
9770,-0.291992,-0.959961,-0.137207,0
9790,-0.30957,-0.946777,-0.126953,0
9810,-0.319336,-0.935059,-0.138184,0
9830,-0.338867,-0.943848,-0.128418,0
9850,-0.356445,-0.933594,-0.105469,0
9870,-0.379883,-0.912598,-0.0786133,0
9890,-0.39502,-0.90625,-0.074707,0
9910,-0.396973,-0.920898,-0.0844727,0
9930,-0.387207,-0.930176,-0.0981445,0
9950,-0.383301,-0.936523,-0.0766602,0
9970,-0.375977,-0.956055,-0.0463867,0
9990,-0.370117,-0.972168,-0.0400391,0
10010,-0.374512,-0.974121,-0.0561523,0
10030,-0.37793,-0.970215,-0.0683594,0
10050,-0.391602,-0.948242,-0.0615234,0
10070,-0.394531,-0.917969,-0.0620117,0
10090,-0.389648,-0.916992,-0.0615234,0
10110,-0.383301,-0.924805,-0.0615234,0
10130,-0.384277,-0.945801,-0.0771484,0
10150,-0.390625,-0.964844,-0.0610352,0
10170,-0.386719,-0.957031,-0.0683594,0
10190,-0.390137,-0.947754,-0.0810547,0
10210,-0.387207,-0.943848,-0.0805664,0
10230,-0.376953,-0.931641,-0.065918,0
10250,-0.402832,-0.933594,-0.0737305,0
10270,-0.427734,-0.958496,-0.0986328,0
10290,-0.430176,-0.959473,-0.081543,0
10310,-0.419922,-0.943848,-0.074707,0
10330,-0.424316,-0.934082,-0.0703125,0
10350,-0.428223,-0.918457,-0.081543,0
10370,-0.419922,-0.913574,-0.0913086,0
10390,-0.407227,-0.904785,-0.0571289,0
10410,-0.404297,-0.890625,-0.019043,0
10430,-0.416504,-0.891113,-0.0478516,0
10450,-0.417969,-0.886719,-0.100098,0
10470,-0.420898,-0.847168,-0.078125,0
10490,-0.463867,-0.812012,-0.0522461,0
10510,-0.477051,-0.818848,-0.0874023,0
10530,-0.480469,-0.860352,-0.129395,0
10550,-0.479004,-0.886719,-0.115723,0
10570,-0.505859,-0.897461,-0.0864258,0
10590,-0.538086,-0.923828,-0.0673828,0
10610,-0.523438,-0.929688,-0.0732422,0
10630,-0.499023,-0.867676,-0.0600586,0
10650,-0.508301,-0.805176,-0.0639648,0
10670,-0.542969,-0.850586,-0.0556641,0
10690,-0.589355,-0.929688,-0.078125,0
10710,-0.572754,-0.943848,-0.03125,0
10730,-0.549805,-0.92041,-0.0498047,0
10750,-0.561035,-0.895996,-0.0693359,0
10770,-0.568359,-0.870117,-0.101074,0
10790,-0.536133,-0.91748,-0.118652,0
10810,-0.516602,-0.95166,-0.139648,0
10830,-0.538086,-0.942383,-0.152832,0
10850,-0.542969,-0.911133,-0.171875,0
10870,-0.543945,-0.901855,-0.179199,0
10890,-0.562988,-0.890625,-0.158203,0
10910,-0.564453,-0.893555,-0.151855,0
10930,-0.552734,-0.898438,-0.134277,0
10950,-0.548828,-0.896484,-0.118164,0
10970,-0.544922,-0.885254,-0.0917969,0
10990,-0.538086,-0.876465,-0.0756836,0
11010,-0.532715,-0.871094,-0.0761719,0
11030,-0.525879,-0.865723,-0.0776367,0
11050,-0.521484,-0.869629,-0.090332,0
11070,-0.530762,-0.866699,-0.090332,0
11090,-0.543457,-0.862305,-0.0869141,0
11110,-0.550781,-0.869141,-0.10498,0
11130,-0.549805,-0.875977,-0.121582,0
11150,-0.556152,-0.879395,-0.116699,0
11170,-0.563477,-0.869141,-0.117676,0
11190,-0.561035,-0.864746,-0.109863,0
11210,-0.553223,-0.871582,-0.100098,0
11230,-0.540527,-0.867188,-0.101074,0
11250,-0.541992,-0.874023,-0.0839844,0
11270,-0.544434,-0.870117,-0.0932617,0
11290,-0.540039,-0.858398,-0.0908203,0
11310,-0.546875,-0.861816,-0.0732422,0
11330,-0.550293,-0.867188,-0.0751953,0
11350,-0.546387,-0.862305,-0.0874023,0
11370,-0.543945,-0.856934,-0.0766602,0
11390,-0.541504,-0.856934,-0.0883789,0
11410,-0.524902,-0.850098,-0.104492,0
11430,-0.523926,-0.848633,-0.0986328,0
11450,-0.541016,-0.850098,-0.0878906,0
11470,-0.546387,-0.848633,-0.0942383,0
11490,-0.543457,-0.850586,-0.09375,0
11510,-0.541016,-0.874512,-0.0854492,0
11530,-0.549805,-0.895508,-0.0576172,0
11550,-0.553223,-0.89502,-0.0571289,0
11570,-0.539062,-0.907227,-0.0600586,0
11590,-0.527832,-0.91748,-0.0600586,0
11610,-0.53418,-0.898926,-0.059082,0
11630,-0.546875,-0.875977,-0.0463867,0
11650,-0.53125,-0.858887,-0.034668,0
11670,-0.524414,-0.865234,-0.034668,0
11690,-0.508301,-0.874512,-0.0361328,0
11710,-0.510254,-0.885742,-0.0478516,0
11730,-0.518555,-0.882812,-0.043457,0
11750,-0.522949,-0.877441,-0.0454102,0
11770,-0.522461,-0.879883,-0.0639648,0
11790,-0.529785,-0.883301,-0.059082,0
11810,-0.535645,-0.875,-0.046875,0
11830,-0.538086,-0.865234,-0.0429688,0
11840,-0.541016,-0.871094,-0.0322266,0
11860,-0.541504,-0.873047,-0.0415039,0
11880,-0.538574,-0.871094,-0.0371094,0
11900,-0.53418,-0.875977,-0.0283203,0
11920,-0.523438,-0.871582,-0.0400391,0
11940,-0.524414,-0.872559,-0.0366211,0
11960,-0.535156,-0.873535,-0.0361328,0
11980,-0.536133,-0.876953,-0.0395508,0
12000,-0.53125,-0.874512,-0.0419922,0
12020,-0.527344,-0.880859,-0.0454102,0
12040,-0.528809,-0.890625,-0.0532227,0
12060,-0.533203,-0.888184,-0.046875,0
12080,-0.530762,-0.880859,-0.0444336,0
12100,-0.52832,-0.870117,-0.0527344,0
12120,-0.525879,-0.875,-0.0483398,0
12140,-0.52832,-0.871094,-0.0439453,0
12160,-0.537598,-0.862305,-0.0371094,0
12180,-0.550293,-0.861816,-0.0400391,0
12200,-0.541992,-0.855957,-0.0488281,0
12220,-0.536133,-0.867188,-0.0375977,0
12240,-0.540527,-0.868652,-0.0356445,0
12260,-0.531738,-0.867676,-0.0351562,0
12280,-0.518066,-0.866211,-0.046875,0
12300,-0.51709,-0.873535,-0.0356445,0
12320,-0.532715,-0.872559,-0.0209961,0
12340,-0.543457,-0.868164,-0.0239258,0
12360,-0.541016,-0.865723,-0.0361328,0
12380,-0.537109,-0.873535,-0.0424805,0
12400,-0.541504,-0.877441,-0.0424805,0
12420,-0.543945,-0.876465,-0.0419922,0
12440,-0.535156,-0.880371,-0.0473633,0
12460,-0.531738,-0.877441,-0.0449219,0
12480,-0.524414,-0.887695,-0.0214844,0
12500,-0.516113,-0.881348,0.00585938,0
12520,-0.522949,-0.894531,0.0146484,0
12540,-0.519531,-0.878418,0.0288086,0
12560,-0.509277,-0.855957,0.00878906,0
12580,-0.51123,-0.835938,-0.00439453,0
12600,-0.512207,-0.830566,-0.0258789,0
12620,-0.539062,-0.832031,-0.0288086,0
12640,-0.54834,-0.87793,-0.0180664,0
12660,-0.546875,-0.923828,-0.0185547,0
12680,-0.538086,-0.926758,-0.0126953,0
12700,-0.526855,-0.911621,-0.0166016,0
12720,-0.513672,-0.88623,-0.00390625,0
12740,-0.516602,-0.859863,0.0166016,0
12760,-0.513672,-0.855469,0.0268555,0
12780,-0.515137,-0.869629,0.0385742,0
12800,-0.512207,-0.882812,0.0395508,0
12820,-0.512207,-0.881348,0.0419922,0
12840,-0.509277,-0.87207,0.0336914,0
12860,-0.519043,-0.881836,0.0332031,0
12880,-0.506348,-0.904785,0.0546875,0
12900,-0.503906,-0.910645,0.0600586,0
12920,-0.515625,-0.890137,0.0141602,0
12940,-0.540527,-0.852539,0.00634766,0
12960,-0.547363,-0.833008,-0.00537109,0
12980,-0.552734,-0.839844,-0.0200195,0
13000,-0.555176,-0.84082,-0.0205078,0
13020,-0.550293,-0.855469,-0.0170898,0
13040,-0.543457,-0.870605,-0.00244141,0
13060,-0.53418,-0.881836,0.00585938,0
13080,-0.523438,-0.876953,0.0136719,0
13100,-0.524414,-0.859863,0.0366211,0
13120,-0.520996,-0.86377,0.0317383,0
13140,-0.51709,-0.855469,0.0361328,0
13160,-0.522461,-0.871582,0.027832,0
13180,-0.518066,-0.891602,0.0239258,0
13200,-0.518066,-0.888184,0.0136719,0
13220,-0.519043,-0.874023,0.0200195,0
13240,-0.523438,-0.870117,0.0200195,0
13260,-0.529785,-0.869141,0.0078125,0
13280,-0.526855,-0.868652,0.0078125,0
13300,-0.532715,-0.866211,0.00976562,0
13320,-0.530273,-0.875488,0.00488281,0
13340,-0.526367,-0.880859,0.0180664,0
13360,-0.525391,-0.880371,0.00927734,0
13380,-0.525879,-0.87793,0.0112305,0
13400,-0.532227,-0.867188,0.0126953,0
13420,-0.524414,-0.869629,0.0146484,0
13440,-0.525879,-0.86377,0.0151367,0
13460,-0.527344,-0.867676,0.0205078,0
13480,-0.530762,-0.871582,0.0195312,0
13500,-0.530762,-0.873047,0.0136719,0
13520,-0.529785,-0.876953,0.0214844,0
13540,-0.527344,-0.873047,0.0185547,0
13560,-0.527344,-0.869629,0.0166016,0
13580,-0.527344,-0.87207,0.0102539,0
13600,-0.530762,-0.868652,0.0166016,0
13620,-0.530762,-0.860352,0.0136719,0
13640,-0.525391,-0.874023,0.0078125,0
13660,-0.524902,-0.875488,0.012207,0
13680,-0.523438,-0.871582,0.0117188,0
13700,-0.526367,-0.870117,0.0117188,0
13720,-0.526367,-0.880371,0.015625,0
13740,-0.524414,-0.877441,0.0214844,0
13760,-0.527832,-0.868652,0.0214844,0
13780,-0.525879,-0.869141,0.0180664,0
13800,-0.522461,-0.862793,0.015625,0
13820,-0.526367,-0.867676,0.015625,0
13840,-0.524414,-0.870605,0.0170898,0
13860,-0.526855,-0.871582,0.0170898,0
13880,-0.529297,-0.871582,0.0141602,0
13900,-0.528809,-0.866699,0.0107422,0
13920,-0.53125,-0.870117,0.0175781,0
13940,-0.526855,-0.873047,0.0078125,0
13960,-0.524902,-0.874512,0.00488281,0
13980,-0.520996,-0.875,0.0078125,0
14000,-0.527344,-0.872559,0.00830078,0
14020,-0.525879,-0.869629,0.0166016,0
14040,-0.53125,-0.867676,0.0141602,0
14060,-0.532227,-0.877441,0.0146484,0
14080,-0.526855,-0.870605,0.0205078,0
14100,-0.525879,-0.867676,0.0195312,0
14120,-0.522949,-0.879395,0.0161133,0
14140,-0.523926,-0.875,0.0170898,0
14160,-0.529297,-0.871094,0.012207,0
14180,-0.527832,-0.871582,0.00976562,0
14200,-0.52832,-0.866699,0.00878906,0
14220,-0.522461,-0.868164,0.00439453,0
14240,-0.522461,-0.870117,0.00390625,0
14260,-0.530273,-0.868164,0.0131836,0
14280,-0.530273,-0.868164,0.0200195,0
14300,-0.527344,-0.874023,0.0126953,0
14320,-0.520996,-0.876465,0.0136719,0
14340,-0.522949,-0.870605,0.0131836,0
14360,-0.52832,-0.869141,0.0185547,0
14380,-0.527344,-0.882324,0.0146484,0
14400,-0.525391,-0.872559,0.0112305,0
14420,-0.526855,-0.864746,0.0107422,0
14430,-0.530762,-0.866699,0.00439453,0
14450,-0.527832,-0.868164,0.0175781,0
14470,-0.53418,-0.867676,0.0170898,0
14490,-0.526367,-0.87207,0.0170898,0
14510,-0.528809,-0.875977,0.0131836,0
14530,-0.526367,-0.869629,0.0117188,0
14550,-0.525879,-0.867188,0.0151367,0
14570,-0.524414,-0.875977,0.00390625,0
14590,-0.528809,-0.876465,0.0117188,0
14610,-0.528809,-0.869629,0.0161133,0
14630,-0.526367,-0.875,0.015625,0
14650,-0.525391,-0.868164,0.0170898,0
14670,-0.527832,-0.863281,0.0195312,0
14690,-0.527344,-0.871582,0.015625,0
14710,-0.527832,-0.875977,0.0102539,0
14730,-0.53125,-0.875977,0.0170898,0
14750,-0.524902,-0.87207,0.0161133,0
14770,-0.52832,-0.878418,0.0117188,0
14790,-0.524414,-0.868652,0.012207,0
14810,-0.523926,-0.866699,0.0161133,0
14830,-0.522461,-0.867676,0.019043,0
14850,-0.527344,-0.875977,0.0131836,0
14870,-0.529297,-0.872559,0.0170898,0
14890,-0.521484,-0.877441,0.0126953,0
14910,-0.520508,-0.875488,0.0166016,0
14930,-0.530273,-0.873535,0.015625,0
14950,-0.525879,-0.870117,0.0136719,0
14970,-0.522461,-0.870605,0.00878906,0
14990,-0.532227,-0.872559,0.0166016,0
15010,-0.532227,-0.875977,0.0180664,0
15030,-0.524414,-0.878906,0.00537109,0
15050,-0.527344,-0.869141,0.0078125,0
15070,-0.526855,-0.868652,0.0180664,0
15090,-0.528809,-0.870117,0.00634766,0
15110,-0.52832,-0.869629,0.00585938,0
15130,-0.524902,-0.871094,0.0146484,0
15150,-0.523926,-0.875977,0.0161133,0
15170,-0.52832,-0.875,0.0161133,0
15190,-0.529785,-0.873535,0.0219727,0
15210,-0.529785,-0.875,0.0131836,0
15230,-0.52002,-0.869629,0.00683594,0
15250,-0.524902,-0.874023,0.0146484,0
15270,-0.525879,-0.872559,0.00927734,0
15290,-0.527344,-0.873047,0.0136719,0
15310,-0.53418,-0.876465,0.0136719,0
15330,-0.537109,-0.873535,0.0131836,0
15350,-0.526855,-0.866699,0.0151367,0
15370,-0.521973,-0.868164,0.0161133,0
15390,-0.523438,-0.869141,0.0200195,0
15410,-0.525879,-0.872559,0.0229492,0
15430,-0.523926,-0.880371,0.0146484,0
15450,-0.529785,-0.87793,0.00634766,0
15470,-0.529297,-0.871582,0.015625,0
15490,-0.522461,-0.870605,0.019043,0
15510,-0.52832,-0.878906,0.0200195,0
15530,-0.526367,-0.873535,0.0170898,0
15550,-0.525391,-0.871582,0.015625,0
15570,-0.527344,-0.865723,0.00976562,0
15590,-0.527832,-0.872559,0.019043,0
15610,-0.524902,-0.871094,0.012207,0
15630,-0.524414,-0.876465,0.0131836,0
15650,-0.527832,-0.876465,0.0117188,0
15670,-0.53418,-0.865723,0.0126953,0
15690,-0.525391,-0.868652,0.0175781,0
15710,-0.528809,-0.871582,0.0078125,0
15730,-0.523926,-0.868652,0.00683594,0
15750,-0.526855,-0.874512,0.0166016,0
15770,-0.53125,-0.880371,0.0195312,0
15790,-0.529297,-0.875977,0.0146484,0
15810,-0.522461,-0.866699,0.0112305,0
15830,-0.522949,-0.862793,0.0141602,0
15850,-0.524902,-0.868164,0.0131836,0
15870,-0.530762,-0.869141,0.0141602,0
15890,-0.52832,-0.867188,0.0112305,0
15910,-0.530273,-0.874023,0.012207,0
15930,-0.536621,-0.873047,0.0102539,0
15950,-0.538574,-0.875,0.0175781,0
15970,-0.527832,-0.875488,0.015625,0
15990,-0.531738,-0.869141,0.00878906,0
16010,-0.532227,-0.868652,0.00732422,0
16030,-0.534668,-0.86084,0.00976562,0
16050,-0.530273,-0.871094,0.00878906,0
16070,-0.52832,-0.869141,0.0136719,0
16090,-0.527344,-0.864258,0.0166016,0
16110,-0.529785,-0.870117,0.0166016,0
16130,-0.530762,-0.873047,0.0117188,0
16150,-0.531738,-0.872559,0.00927734,0
16170,-0.530762,-0.871094,0.0126953,0
16190,-0.530273,-0.869141,0.0102539,0
16210,-0.536133,-0.864746,0.0117188,0
16230,-0.533691,-0.861328,0.00830078,0
16250,-0.533203,-0.866699,0.00830078,0
16270,-0.535156,-0.871582,0.0117188,0
16290,-0.534668,-0.868652,0.00341797,0
16310,-0.534668,-0.863281,0.00830078,0
16330,-0.534668,-0.862305,0.0117188,0
16350,-0.540039,-0.868164,0.0112305,0
16370,-0.542969,-0.876465,0.0151367,0
16390,-0.540039,-0.886719,0.0161133,0
16410,-0.530762,-0.885742,-0.00146484,0
16430,-0.519043,-0.874512,0.00634766,0
16450,-0.533203,-0.868652,0.0112305,0
16470,-0.534668,-0.867676,0.00341797,0
16490,-0.539062,-0.85791,-0.00146484,0
16510,-0.539551,-0.866211,-0.0258789,0
16530,-0.519043,-0.888672,0.0151367,0
16550,-0.547363,-0.864746,0.0380859,0
16570,-0.550293,-0.836914,0.0244141,0
16590,-0.54541,-0.838379,0.0332031,0
16610,-0.541016,-0.852051,0.0307617,0
16630,-0.537109,-0.850098,0.0258789,0
16650,-0.53125,-0.856934,0.0209961,0
16670,-0.525879,-0.875977,0.0161133,0
16690,-0.527832,-0.871582,0.00732422,0
16710,-0.541504,-0.863281,0.0126953,0
16730,-0.537598,-0.866211,0.00732422,0
16750,-0.540527,-0.864258,0.0078125,0
16770,-0.542969,-0.866699,0.0185547,0
16790,-0.543945,-0.869141,0.0185547,0
16810,-0.537598,-0.867676,0.0102539,0
16830,-0.534668,-0.867676,0.0102539,0
16850,-0.532227,-0.868164,0.0161133,0
16870,-0.532227,-0.868164,0.015625,0
16890,-0.530762,-0.866699,0.012207,0
16910,-0.526367,-0.873535,0.0146484,0
16930,-0.530273,-0.878418,0.015625,0
16950,-0.536133,-0.875488,0.0117188,0
16970,-0.531738,-0.867676,0.00732422,0
16990,-0.538574,-0.87207,0.00878906,0
17010,-0.538574,-0.866699,0.00830078,0
17020,-0.533203,-0.871582,0.0112305,0
17040,-0.537598,-0.867188,0.012207,0
17060,-0.529785,-0.866699,0.0117188,0
17080,-0.535156,-0.867676,0.0146484,0
17100,-0.536133,-0.874512,0.0151367,0
17120,-0.529785,-0.875,0.00341797,0
17140,-0.527344,-0.866211,0.00927734,0
17160,-0.523926,-0.865234,0.00927734,0
17180,-0.537109,-0.87207,0.00976562,0
17200,-0.539062,-0.871094,0.0175781,0
17220,-0.540527,-0.868164,0.0117188,0
17240,-0.529297,-0.873047,0.0136719,0
17260,-0.536133,-0.866699,0.00634766,0
17280,-0.531738,-0.865234,0.0185547,0
17300,-0.53125,-0.866699,0.00830078,0
17320,-0.536133,-0.871094,0.0185547,0
17340,-0.52832,-0.866211,0.00634766,0
17360,-0.536133,-0.865234,0.00634766,0
17380,-0.532715,-0.872559,0.0209961,0
17400,-0.533691,-0.873047,0.00830078,0
17420,-0.529785,-0.866699,0.0102539,0
17440,-0.53418,-0.867676,0.00488281,0
17460,-0.529297,-0.864746,0.00878906,0
17480,-0.533203,-0.861816,0.00830078,0
17500,-0.526367,-0.873047,0.00927734,0
17520,-0.53125,-0.874512,0.0170898,0
17540,-0.536133,-0.871094,0.0161133,0
17560,-0.53418,-0.865234,0.0126953,0
17580,-0.527832,-0.867676,0.0175781,0
17600,-0.529297,-0.873047,0.0141602,0
17620,-0.529297,-0.868164,0.012207,0
17640,-0.535156,-0.867188,0.00976562,0
17660,-0.536133,-0.870605,0.00439453,0
17680,-0.533691,-0.867188,0.0078125,0
17700,-0.531738,-0.866699,0.0078125,0
17720,-0.52832,-0.865723,0.00683594,0
17740,-0.527832,-0.869141,0.00927734,0
17760,-0.529785,-0.868652,0.00927734,0
17780,-0.530762,-0.871094,0.0209961,0
17800,-0.529785,-0.875488,0.019043,0
17820,-0.527344,-0.870605,0.019043,0
17840,-0.530762,-0.865723,0.0175781,0
17860,-0.526855,-0.87207,0.0175781,0
17880,-0.529785,-0.875,0.0146484,0
17900,-0.52832,-0.873535,0.0131836,0
17920,-0.528809,-0.870117,0.0117188,0
17940,-0.529297,-0.870117,0.0146484,0
17960,-0.52832,-0.868652,0.0112305,0
17980,-0.53418,-0.868164,0.0146484,0
18000,-0.532227,-0.867676,0.0200195,0
18020,-0.532227,-0.867188,0.00585938,0
18040,-0.52832,-0.867676,0.0136719,0
18060,-0.527344,-0.874512,0.0102539,0
18080,-0.528809,-0.869629,0.012207,0
18100,-0.52832,-0.864746,0.0170898,0
18120,-0.53125,-0.870605,0.0151367,0
18140,-0.529785,-0.873535,0.0239258,0
18160,-0.524902,-0.874023,0.0102539,0
18180,-0.526855,-0.871582,0.0136719,0
18200,-0.531738,-0.871582,0.0175781,0
18220,-0.532715,-0.865234,0.0131836,0
18240,-0.531738,-0.870117,0.0131836,0
18260,-0.531738,-0.874512,0.0112305,0
18280,-0.529785,-0.871582,0.0107422,0
18300,-0.527832,-0.869629,0.00683594,0
18320,-0.529785,-0.869141,0.00976562,0
18340,-0.524414,-0.871094,0.0107422,0
18360,-0.525391,-0.865723,0.0131836,0
18380,-0.529785,-0.863281,0.012207,0
18400,-0.530273,-0.874512,0.0146484,0
18420,-0.525879,-0.87793,0.0151367,0
18440,-0.530762,-0.873047,0.0112305,0
18460,-0.525879,-0.870605,0.0180664,0
18480,-0.524902,-0.868164,0.0126953,0
18500,-0.527344,-0.870605,0.012207,0
18520,-0.526855,-0.875977,0.0161133,0
18540,-0.525879,-0.874512,0.0117188,0
18560,-0.530273,-0.869629,0.0170898,0
18580,-0.53125,-0.871094,0.0146484,0
18600,-0.530762,-0.870605,0.0136719,0
18620,-0.537109,-0.867676,0.00878906,0
18640,-0.532227,-0.867188,0.0170898,0
18660,-0.533203,-0.874023,0.00732422,0
18680,-0.527832,-0.864746,0.0161133,0
18700,-0.524414,-0.865723,0.0131836,0
18720,-0.533203,-0.867188,0.0170898,0
18740,-0.539551,-0.879395,0.0170898,0
18760,-0.536621,-0.875977,0.0131836,0
18780,-0.532715,-0.881836,0.00976562,0
18800,-0.526855,-0.878906,0.00830078,0
18820,-0.519531,-0.87207,0.00439453,0
18840,-0.535156,-0.869141,0.015625,0
18860,-0.535156,-0.867676,0.0146484,0
18880,-0.522461,-0.87207,0.0102539,0
18900,-0.527832,-0.868652,0.0102539,0
18920,-0.52832,-0.865723,-0.00146484,0
18940,-0.523926,-0.867676,-0.00390625,0
18960,-0.524902,-0.864746,0.0102539,0
18980,-0.530762,-0.873047,0.0136719,0
19000,-0.53125,-0.881348,0.00537109,0
19020,-0.533691,-0.878906,0.0126953,0
19040,-0.537598,-0.868164,0.0146484,0
19060,-0.534668,-0.872559,0.0200195,0
19080,-0.53418,-0.861328,0.0166016,0
19100,-0.537109,-0.86377,0.0200195,0
19120,-0.536133,-0.859375,0.0180664,0
19140,-0.530273,-0.852539,0.0166016,0
19160,-0.533203,-0.855957,0.0102539,0
19180,-0.538086,-0.865723,0.00927734,0
19200,-0.535156,-0.880859,0.0131836,0
19220,-0.536133,-0.883789,0.00439453,0
19240,-0.534668,-0.87793,0.000976562,0
19260,-0.536133,-0.870605,0.000488281,0
19280,-0.533203,-0.857422,0.00927734,0
19300,-0.52832,-0.854004,0.0102539,0
19320,-0.531738,-0.86084,0.0131836,0
19340,-0.534668,-0.870605,0.015625,0
19360,-0.53125,-0.870605,0.0112305,0
19380,-0.532715,-0.87207,0.00927734,0
19400,-0.530273,-0.870605,0.0151367,0
19420,-0.531738,-0.862793,0.0102539,0
19440,-0.534668,-0.862305,0.00976562,0
19460,-0.536621,-0.86377,0.0239258,0
19480,-0.529785,-0.868164,0.0146484,0
19500,-0.531738,-0.869629,0.00976562,0
19520,-0.527344,-0.870117,0.0107422,0
19540,-0.525879,-0.874512,0.00976562,0
19560,-0.532715,-0.869141,0.0170898,0
19580,-0.528809,-0.874023,0.0170898,0
19600,-0.532227,-0.878418,0.0146484,0
19610,-0.526367,-0.873535,0.0136719,0
19630,-0.532227,-0.861816,0.0161133,0
19650,-0.532227,-0.873535,0.0219727,0
19670,-0.532715,-0.875977,0.0209961,0
19690,-0.527832,-0.876953,0.0126953,0
19710,-0.533691,-0.867676,0.0141602,0
19730,-0.530762,-0.870605,0.0166016,0
19750,-0.530273,-0.869141,0.0195312,0
19770,-0.529785,-0.867676,0.0131836,0
19790,-0.532227,-0.868164,0.0136719,0
19810,-0.527832,-0.866699,0.0136719,0
19830,-0.534668,-0.87207,0.0078125,0
19850,-0.533203,-0.875,0.00292969,0
19870,-0.537598,-0.871094,0.0126953,0
19890,-0.532715,-0.85791,0.0078125,0
19910,-0.530273,-0.868164,0.0112305,0
19930,-0.534668,-0.883789,0.0141602,0
19950,-0.530762,-0.879883,0.015625,0
19970,-0.529297,-0.873047,0.0112305,0
19990,-0.524414,-0.871094,0.00976562,0
20010,-0.525391,-0.86377,0.00878906,0
20030,-0.531738,-0.862305,0.0146484,0
20050,-0.531738,-0.868164,0.0136719,0
20070,-0.527832,-0.873047,0.00634766,0
20090,-0.530762,-0.863281,0.0136719,0
20110,-0.53418,-0.862793,0.012207,0
20130,-0.533203,-0.870605,0.0136719,0
20150,-0.525879,-0.870605,0.0136719,0
20170,-0.53418,-0.874023,0.0161133,0
20190,-0.53125,-0.865723,0.0166016,0
20210,-0.530762,-0.868164,0.0151367,0
20230,-0.529297,-0.86377,0.0170898,0
20250,-0.536133,-0.868164,0.0126953,0
20270,-0.533203,-0.87207,0.0078125,0
20290,-0.531738,-0.868652,0.00976562,0
20310,-0.533203,-0.875488,0.012207,0
20330,-0.533691,-0.873535,0.00732422,0
20350,-0.532715,-0.868652,0.0112305,0
20370,-0.529297,-0.859375,0.0209961,0
20390,-0.535156,-0.867188,0.0146484,0
20410,-0.535156,-0.867676,0.019043,0
20430,-0.534668,-0.868652,0.0117188,0
20450,-0.533203,-0.873535,0.0117188,0
20470,-0.535645,-0.864746,0.00244141,0
20490,-0.532227,-0.863281,0.00830078,0
20510,-0.536621,-0.871094,0.0151367,0
20530,-0.540527,-0.876465,0.0195312,0
20550,-0.539062,-0.873535,0.0141602,0
20570,-0.53418,-0.865723,0.00439453,0
20590,-0.52832,-0.869141,0.0170898,0
20610,-0.533203,-0.864258,0.0180664,0
20630,-0.53418,-0.867188,0.00439453,0
20650,-0.540039,-0.874023,0.00683594,0
20670,-0.537598,-0.867676,0.0107422,0
20690,-0.53418,-0.860352,0.00830078,0
20710,-0.533203,-0.858887,0.00292969,0
20730,-0.535156,-0.862305,0.00976562,0
20750,-0.535156,-0.862793,0.00634766,0
20770,-0.537109,-0.868164,0.0136719,0
20790,-0.531738,-0.874512,0.00146484,0
20810,-0.533691,-0.869141,0.00585938,0
20830,-0.531738,-0.866211,0.0112305,0
20850,-0.53418,-0.868652,0.00634766,0
20870,-0.543457,-0.867676,0.00878906,0
20890,-0.536621,-0.868652,0.00927734,0
20910,-0.532715,-0.867676,0.00292969,0
20930,-0.534668,-0.865723,0.0102539,0
20950,-0.537598,-0.867188,0.00976562,0
20970,-0.535645,-0.868164,0.0078125,0
20990,-0.538086,-0.866699,0.00439453,0
21010,-0.540527,-0.865723,0.00439453,0
21030,-0.540527,-0.858887,0.00878906,0
21050,-0.537109,-0.866699,0.00341797,0
21070,-0.537109,-0.864258,0.00439453,0
21090,-0.533203,-0.868164,0.00976562,0
21110,-0.53418,-0.866211,0.00878906,0
21130,-0.539062,-0.869629,0.0102539,0
21150,-0.539551,-0.869629,0.0102539,0
21170,-0.532227,-0.868652,0.00195312,0
21190,-0.531738,-0.867676,0.00146484,0
21210,-0.533691,-0.866699,0.00439453,0
21230,-0.54248,-0.864746,0.00732422,0
21250,-0.537598,-0.862793,0.00732422,0
21270,-0.542969,-0.864258,0.00976562,0
21290,-0.532227,-0.864746,0.00439453,0
21310,-0.529297,-0.867676,0.0078125,0
21330,-0.530762,-0.87207,0.00585938,0
21350,-0.535645,-0.867188,0.0141602,0
21370,-0.538086,-0.873535,0.00927734,0
21390,-0.53125,-0.871582,0.0102539,0
21410,-0.532715,-0.867676,0.00488281,0
21430,-0.532715,-0.860352,0.00830078,0
21450,-0.536621,-0.865234,0.0107422,0
21470,-0.532715,-0.872559,0.00683594,0
21490,-0.535645,-0.869629,0.00292969,0
21510,-0.532715,-0.87207,0.0112305,0
21530,-0.539062,-0.873047,0.0102539,0
21550,-0.536133,-0.86377,0.00927734,0
21570,-0.534668,-0.870605,0.0117188,0
21590,-0.541016,-0.87207,0.0117188,0
21610,-0.534668,-0.87207,0.00146484,0
21630,-0.532715,-0.868652,0.00390625,0
21650,-0.533691,-0.865723,0.00830078,0
21670,-0.538086,-0.871582,0.00878906,0
21690,-0.538574,-0.871582,0.0146484,0
21710,-0.533203,-0.873535,0.00976562,0
21730,-0.536133,-0.869141,0.00830078,0
21750,-0.532227,-0.864746,0.0107422,0
21770,-0.53418,-0.864258,0.00927734,0
21790,-0.537109,-0.873047,0.0102539,0
21810,-0.538574,-0.87793,0.0141602,0
21830,-0.53125,-0.875488,0.00683594,0
21850,-0.532715,-0.865723,0.00390625,0
21870,-0.533691,-0.869141,0.00634766,0
21890,-0.526855,-0.865234,0.00878906,0
21910,-0.528809,-0.864258,0.00439453,0
21930,-0.533691,-0.866211,0.0117188,0
21950,-0.530762,-0.874512,0.0141602,0
21970,-0.530273,-0.87793,0.0117188,0
21990,-0.529785,-0.87207,0.0107422,0
22010,-0.530762,-0.867676,0.0146484,0
22030,-0.528809,-0.862793,0.0102539,0
22050,-0.53125,-0.867676,0.0102539,0
22070,-0.536621,-0.872559,0.00585938,0
22090,-0.533203,-0.870605,0.0078125,0
22110,-0.533691,-0.864258,0.00341797,0
22130,-0.53418,-0.869141,0.00585938,0
22150,-0.534668,-0.876465,0.00976562,0
22170,-0.538574,-0.872559,0.0078125,0
22190,-0.535645,-0.867188,0.000976562,0
22210,-0.533691,-0.86377,0.00732422,0
22220,-0.529785,-0.861328,0.0117188,0
22240,-0.52832,-0.871094,0.015625,0
22260,-0.530273,-0.870117,0.0151367,0
22280,-0.536133,-0.87793,0.0161133,0
22300,-0.537109,-0.868164,0.0131836,0
22320,-0.529297,-0.87207,0.00830078,0
22340,-0.529785,-0.867676,0.00634766,0
22360,-0.539062,-0.870117,0.00976562,0
22380,-0.537598,-0.872559,0.0112305,0
22400,-0.53418,-0.867676,0.0136719,0
22420,-0.526855,-0.869141,0.00390625,0
22440,-0.529297,-0.865723,-0.000976562,0
22460,-0.527832,-0.867188,0.00537109,0
22480,-0.527832,-0.870605,0.00927734,0
22500,-0.531738,-0.870605,0.0131836,0
22520,-0.536133,-0.870117,0.0117188,0
22540,-0.530273,-0.875977,0.0107422,0
22560,-0.53125,-0.873535,0.0117188,0
22580,-0.529785,-0.871094,0.0170898,0
22600,-0.531738,-0.867676,0.0136719,0
22620,-0.525879,-0.87207,0.00634766,0
22640,-0.52832,-0.868164,0.0112305,0
22660,-0.530273,-0.878906,0.0102539,0
22680,-0.535156,-0.875977,0.00146484,0
22700,-0.533691,-0.869629,0.0112305,0
22720,-0.533203,-0.871582,0.00439453,0
22740,-0.532227,-0.865723,0.012207,0
22760,-0.532715,-0.863281,0.0102539,0
22780,-0.532715,-0.868652,0.00976562,0
22800,-0.52832,-0.872559,0.00878906,0
22820,-0.524902,-0.867188,0.0112305,0
22840,-0.531738,-0.871582,0.0239258,0
22860,-0.531738,-0.879883,0.0209961,0
22880,-0.53418,-0.878418,0.0078125,0
22900,-0.533203,-0.867188,0.00732422,0
22920,-0.536133,-0.86377,0.0136719,0
22940,-0.529297,-0.866211,0.00732422,0
22960,-0.52832,-0.875,0.0180664,0
22980,-0.526367,-0.876465,0.00830078,0
23000,-0.52832,-0.877441,0.0078125,0
23020,-0.534668,-0.867676,0.0078125,0
23040,-0.527344,-0.866211,0.00927734,0
23060,-0.530273,-0.871094,0.00390625,0
23080,-0.531738,-0.865723,0.0117188,0
23100,-0.532715,-0.866699,0.0112305,0
23120,-0.531738,-0.869629,0.0102539,0
23140,-0.527344,-0.881836,0.00878906,0
23160,-0.530762,-0.877441,0.00927734,0
23180,-0.530273,-0.869141,0.0131836,0
23200,-0.529785,-0.87207,0.00683594,0
23220,-0.529297,-0.868164,0.00830078,0
23240,-0.530273,-0.873535,0.0102539,0
23260,-0.53418,-0.868164,0.0136719,0
23280,-0.539062,-0.871094,0.0107422,0
23300,-0.535645,-0.865723,0.00732422,0
23320,-0.531738,-0.868652,0.0107422,0
23340,-0.534668,-0.874023,0.0078125,0
23360,-0.53418,-0.867188,0.0107422,0
23380,-0.537109,-0.864258,0.00732422,0
23400,-0.539551,-0.874023,0.0136719,0
23420,-0.530273,-0.870605,0.0112305,0
23440,-0.530762,-0.873535,0.00830078,0
23460,-0.538574,-0.873047,0.0136719,0
23480,-0.540527,-0.878418,0.012207,0
23500,-0.538574,-0.875,0.000488281,0
23520,-0.541992,-0.88623,-0.00292969,0
23540,-0.539551,-0.905273,-0.0214844,0
23560,-0.561035,-0.943359,-0.0166016,0
23580,-0.574707,-1.00488,-0.0146484,0
23600,-0.574219,-1.06055,-0.0571289,0
23620,-0.566406,-1.07373,-0.0644531,0
23640,-0.594238,-1.03076,-0.0712891,0
23660,-0.568848,-1.06104,-0.0566406,0
23680,-0.555176,-1.0542,0.0371094,0
23700,-0.592285,-0.940918,0.0483398,0
23720,-0.602051,-0.823242,0.00585938,0
23740,-0.591797,-0.835449,0.00439453,0
23760,-0.544434,-0.95166,0.0366211,0
23780,-0.468262,-1.07227,0.0854492,0
23800,-0.416504,-1.16162,0.0976562,0
23820,-0.344727,-1.16357,0.0234375,0
23840,-0.30127,-1.10596,0.0107422,0
23860,-0.29541,-1.01562,-0.0136719,0
23880,-0.277344,-0.928711,-0.00634766,0
23900,-0.225586,-0.860352,0.0131836,0
23920,-0.195801,-0.855957,0.0292969,0
23940,-0.189941,-0.904785,0,0
23960,-0.167969,-0.92334,-0.012207,0
23980,-0.159668,-0.92041,-0.0166016,0
24000,-0.156738,-0.91748,-0.0175781,0
24020,-0.137207,-0.901367,-0.0522461,0
24040,-0.107422,-0.880859,-0.0537109,0
24060,-0.10498,-0.878418,-0.0556641,0
24080,-0.112305,-0.905273,-0.0888672,0
24100,-0.0991211,-0.921387,-0.0986328,0
24120,-0.0620117,-0.917969,-0.0727539,0
24140,-0.0463867,-0.927246,-0.0874023,0
24160,-0.0419922,-0.934082,-0.131836,0
24180,-0.0239258,-0.926758,-0.125488,0
24200,-0.0107422,-0.922363,-0.113281,0
24220,-0.0224609,-0.933594,-0.124023,0
24240,-0.0429688,-0.932617,-0.178711,0
24260,-0.019043,-0.909668,-0.183594,0
24280,0.00976562,-0.888672,-0.146973,0
24300,-0.00244141,-0.922363,-0.135254,0
24320,-0.00732422,-0.967773,-0.186523,0
24340,0.00976562,-0.974609,-0.182617,0
24360,0.0234375,-0.964355,-0.156738,0
24380,0.0136719,-0.974609,-0.155273,0
24400,0.0107422,-0.986328,-0.180664,0
24420,0.0200195,-0.980469,-0.178223,0
24440,0.0224609,-0.986328,-0.176758,0
24460,0.0209961,-0.994629,-0.185547,0
24480,0.00976562,-1.00244,-0.18457,0
24500,0.0136719,-1.00439,-0.178711,0
24520,0.0185547,-1.01562,-0.183105,0
24540,0.0180664,-1.01123,-0.16748,0
24560,0.0180664,-1.01221,-0.170898,0
24580,0.0209961,-1.00488,-0.173828,0
24600,0.0224609,-0.994629,-0.172852,0
24620,0.0239258,-0.999023,-0.16748,0
24640,0.0151367,-0.991699,-0.165527,0
24660,0.00292969,-0.980469,-0.156738,0
24680,-0.0078125,-0.981934,-0.157715,0
24700,-0.00927734,-0.973145,-0.169434,0
24720,-0.00195312,-0.962402,-0.136719,0
24740,-0.0112305,-0.95459,-0.129883,0
24760,-0.0253906,-0.95752,-0.151367,0
24780,-0.0180664,-0.943848,-0.140625,0
24800,-0.0263672,-0.925293,-0.111328,0
24810,-0.0439453,-0.91748,-0.111328,0
24830,-0.0649414,-0.905273,-0.123047,0
24850,-0.0478516,-0.925293,-0.140137,0
24870,-0.0253906,-0.953613,-0.10498,0
24890,-0.0385742,-0.956055,-0.0742188,0
24910,-0.0727539,-0.955078,-0.0634766,0
24930,-0.113281,-0.959473,-0.0961914,0
24950,-0.123047,-0.991699,-0.115723,0
24970,-0.0996094,-0.996094,-0.104004,0
24990,-0.10498,-0.939453,-0.0126953,0
25010,-0.154785,-0.89209,-0.0107422,0
25030,-0.217773,-0.874023,-0.0844727,0
25050,-0.223633,-0.908691,-0.114258,0
25070,-0.177734,-0.945312,-0.0742188,0
25090,-0.178711,-0.940918,-0.0141602,0
25110,-0.22998,-0.967285,-0.0532227,0
25130,-0.231445,-1.02148,-0.0629883,0
25150,-0.195801,-1.06543,-0.0283203,0
25170,-0.212891,-1.06592,-0.0102539,0
25190,-0.279297,-1.06396,-0.0317383,0
25210,-0.300293,-1.10156,-0.0507812,0
25230,-0.288086,-1.12695,-0.0366211,0
25250,-0.299316,-1.08496,0.0161133,0
25270,-0.333496,-1.06592,0.0292969,0
25290,-0.354492,-1.07764,0.00732422,0
25310,-0.324707,-1.07861,0.00537109,0
25330,-0.316406,-1.09375,0.00390625,0
25350,-0.321777,-1.1167,0.0166016,0
25370,-0.312012,-1.11719,0.0351562,0
25390,-0.305664,-1.09424,0.0283203,0
25410,-0.330078,-1.12256,0.00488281,0
25430,-0.338867,-1.14209,0.0249023,0
25450,-0.348145,-1.08643,0.0439453,0
25470,-0.350098,-1.05225,0.0463867,0
25490,-0.308594,-1.04053,0.0546875,0
25510,-0.284668,-1.03857,0.0512695,0
25530,-0.261719,-1.05127,0.0327148,0
25550,-0.259277,-1.06934,0.0341797,0
25570,-0.226074,-1.10693,0.0732422,0
25590,-0.211914,-1.10596,0.0742188,0
25610,-0.155762,-1.09033,0.0527344,0
25630,-0.15332,-1.05713,0.0307617,0
25650,-0.154297,-1.01221,0.0375977,0
25670,-0.110352,-1.00781,0.0615234,0
25690,-0.0629883,-1.01318,0.0722656,0
25710,-0.0317383,-0.996094,0.0537109,0
25730,-0.0224609,-0.978027,0.0454102,0
25750,-0.0170898,-0.946777,0.0541992,0
25770,-0.0146484,-0.943848,0.0493164,0
25790,-0.00195312,-0.916504,0.0483398,0
25810,0.00634766,-0.893555,0.0517578,0
25830,0.0483398,-0.890625,0.0288086,0
25850,0.0639648,-0.888672,0.0117188,0
25870,0.0454102,-0.883301,-0.00537109,0
25890,0.0571289,-0.874512,0.0180664,0
25910,0.0820312,-0.870605,0.00341797,0
25930,0.0957031,-0.890625,-0.0351562,0
25950,0.102539,-0.91748,-0.0595703,0
25970,0.106934,-0.927734,-0.0415039,0
25990,0.0986328,-0.92334,-0.0253906,0
26010,0.0952148,-0.931152,-0.0400391,0
26030,0.100098,-0.929688,-0.0874023,0
26050,0.12207,-0.93457,-0.0996094,0
26070,0.132324,-0.945801,-0.103027,0
26090,0.12793,-0.971191,-0.114746,0
26110,0.138672,-0.975098,-0.116699,0
26130,0.14209,-0.985352,-0.105469,0
26150,0.130859,-0.98584,-0.103027,0
26170,0.132812,-0.976562,-0.130371,0
26190,0.154785,-0.953613,-0.124512,0
26210,0.143555,-0.964355,-0.120117,0
26230,0.129395,-0.999023,-0.119629,0
26250,0.115234,-1.01758,-0.128906,0
26270,0.123535,-1.02295,-0.10498,0
26290,0.116699,-1.02246,-0.0991211,0
26310,0.0991211,-1.0166,-0.114258,0
26330,0.11084,-0.990723,-0.132324,0
26350,0.105469,-0.980957,-0.121094,0
26370,0.0942383,-0.995117,-0.10791,0
26390,0.0859375,-1.00293,-0.103516,0
26410,0.0791016,-1.00879,-0.114746,0
26430,0.0810547,-1.02002,-0.123535,0
26450,0.0947266,-1.01416,-0.101074,0
26470,0.0996094,-1,-0.100586,0
26490,0.0888672,-0.998535,-0.12207,0
26510,0.0908203,-0.997559,-0.126953,0
26530,0.097168,-0.999023,-0.112305,0
26550,0.0854492,-1.00439,-0.100098,0
26570,0.0854492,-0.994629,-0.112793,0
26590,0.0878906,-1.00146,-0.133789,0
26610,0.0913086,-0.986328,-0.118164,0
26630,0.0820312,-0.987305,-0.115723,0
26650,0.0800781,-0.996582,-0.122559,0
26670,0.078125,-1.00293,-0.112305,0
26690,0.081543,-1.0127,-0.113281,0
26710,0.0883789,-1.01611,-0.116699,0
26730,0.0957031,-1.00781,-0.118164,0
26750,0.102539,-1.00195,-0.119629,0
26770,0.0957031,-0.999512,-0.119141,0
26790,0.0825195,-0.988281,-0.108398,0
26810,0.081543,-0.992188,-0.105957,0
26830,0.0751953,-1.02002,-0.131348,0
26850,0.0776367,-1.01611,-0.132812,0
26870,0.0698242,-0.981445,-0.115234,0
26890,0.0644531,-1.00732,-0.110352,0
26910,0.0800781,-1.02051,-0.11377,0
26930,0.09375,-1.01416,-0.110352,0
26950,0.0849609,-1.00439,-0.106445,0
26970,0.0688477,-1.01611,-0.108398,0
26990,0.078125,-0.999023,-0.110352,0
27010,0.0629883,-0.987793,-0.101562,0
27030,0.0708008,-0.983398,-0.114746,1000
27050,0.0766602,-0.997559,-0.122559,0
27070,0.0751953,-1.01465,-0.116699,0
27090,0.0576172,-1.02539,-0.107422,0
27110,0.0405273,-1.02295,-0.122559,0
27130,0.0424805,-1.01123,-0.126953,0
27150,0.0483398,-0.992676,-0.112305,0
27170,0.0341797,-0.983887,-0.119629,0
27190,0.0498047,-1.00293,-0.133789,0
27210,0.0673828,-1.00195,-0.134277,0
27230,0.0625,-0.992676,-0.112305,0
27250,0.065918,-1.00488,-0.11377,0
27270,0.0771484,-1.01855,-0.111816,0
27290,0.0786133,-1.00488,-0.114746,0
27310,0.0708008,-0.995605,-0.125,0
27330,0.0742188,-0.981934,-0.120117,0
27350,0.0854492,-0.977051,-0.117676,0
27370,0.0839844,-0.983398,-0.119629,0
27390,0.0742188,-0.986816,-0.121582,0
27400,0.0644531,-0.98877,-0.117676,0
27420,0.0839844,-0.996582,-0.130371,0
27440,0.0957031,-1.00635,-0.118652,0
27460,0.0756836,-0.998047,-0.129883,0
27480,0.0722656,-0.984863,-0.134766,0
27500,0.0893555,-0.980469,-0.12793,0
27520,0.0927734,-0.984863,-0.124023,0
27540,0.0839844,-1.00146,-0.128906,0
27560,0.0810547,-0.993652,-0.130371,0
27580,0.0766602,-0.991699,-0.12207,0
27600,0.074707,-1.00879,-0.124512,0
27620,0.0830078,-1.02246,-0.129883,0
27640,0.0825195,-1.01416,-0.118652,0
27660,0.0839844,-0.992188,-0.115723,0
27680,0.0703125,-0.993652,-0.124023,0
27700,0.0761719,-0.994141,-0.128418,0
27720,0.0981445,-0.993164,-0.119629,0
27740,0.0864258,-1.0083,-0.117676,0
27760,0.0737305,-1.01123,-0.131348,0
27780,0.0717773,-1.00098,-0.128418,0
27800,0.081543,-0.986816,-0.126465,0
27820,0.0932617,-0.995117,-0.117188,0
27840,0.103516,-1.00586,-0.10791,0
27860,0.0976562,-0.999023,-0.109863,0
27880,0.0947266,-1.00244,-0.12207,0
27900,0.11084,-0.989258,-0.112305,0
27920,0.138672,-0.987305,-0.122559,0
27940,0.139648,-0.991699,-0.123047,0
27960,0.123047,-0.996582,-0.131348,0
27980,0.114258,-0.98291,-0.125,0
28000,0.107422,-0.987793,-0.120605,0
28020,0.103516,-1.01025,-0.128418,0
28040,0.100098,-1.01807,-0.121582,0
28060,0.0932617,-0.991699,-0.122559,0
28080,0.09375,-0.979492,-0.123535,0
28100,0.090332,-0.981934,-0.123535,0
28120,0.10498,-0.98291,-0.110352,0
28140,0.115723,-0.986328,-0.108398,0
28160,0.125977,-1.00488,-0.114258,0
28180,0.138672,-1.01807,-0.130859,0
28200,0.125488,-1.00391,-0.12207,0
28220,0.128418,-0.990723,-0.118652,0
28240,0.161621,-1.00195,-0.133301,0
28260,0.157715,-1.01025,-0.123047,0
28280,0.123535,-1.01172,-0.129395,0
28300,0.100098,-0.992676,-0.124512,0
28320,0.0869141,-0.985352,-0.123535,0
28340,0.0854492,-0.991211,-0.110352,0
28360,0.0844727,-1.00342,-0.106934,0
28380,0.0786133,-1.00293,-0.105957,0
28400,0.0844727,-0.996582,-0.103516,0
28420,0.0864258,-1,-0.097168,0
28440,0.0991211,-1.00586,-0.111816,0
28460,0.123047,-0.992676,-0.107422,0
28480,0.135254,-0.98584,-0.100098,0
28500,0.128906,-0.986816,-0.103027,0
28520,0.119141,-0.989258,-0.11377,0
28540,0.128906,-0.99707,-0.111816,0
28560,0.133301,-0.989746,-0.103516,0
28580,0.131836,-0.988281,-0.108887,0
28600,0.138672,-0.986816,-0.114746,0
28620,0.146973,-0.978027,-0.115234,0
28640,0.141602,-0.986816,-0.116699,0
28660,0.12793,-0.989258,-0.115723,0
28680,0.137207,-0.991211,-0.119141,0
28700,0.144043,-0.991211,-0.108398,0
28720,0.147949,-0.996582,-0.0952148,0
28740,0.14502,-0.996582,-0.10498,0
28760,0.157715,-0.991211,-0.106934,0
28780,0.161133,-0.985352,-0.102539,0
28800,0.145508,-0.972656,-0.0961914,0
28820,0.14209,-0.976074,-0.11084,0
28840,0.151367,-0.983398,-0.114258,0
28860,0.149414,-0.97998,-0.103516,0
28880,0.149414,-0.991211,-0.109375,0
28900,0.159668,-1.00244,-0.131836,0
28920,0.155762,-0.994629,-0.110352,0
28940,0.160645,-0.978516,-0.090332,0
28960,0.171875,-0.985352,-0.107422,0
28980,0.177246,-1.00293,-0.123047,0
29000,0.191406,-0.994629,-0.100586,0
29020,0.205078,-0.989746,-0.0961914,0
29040,0.206543,-0.99707,-0.108398,0
29060,0.205566,-0.980957,-0.116211,0
29080,0.211426,-0.956543,-0.109863,0
29100,0.207031,-0.959961,-0.10498,0
29120,0.218262,-0.979492,-0.117188,0
29140,0.236328,-0.970703,-0.100586,0
29160,0.222168,-0.969238,-0.100098,0
29180,0.191406,-0.969238,-0.114746,0
29200,0.192383,-0.970703,-0.101074,0
29220,0.195312,-0.969727,-0.113281,0
29240,0.202148,-0.980469,-0.107422,0
29260,0.203125,-0.987793,-0.10791,0
29280,0.198242,-0.966309,-0.0932617,0
29300,0.207031,-0.969727,-0.0917969,0
29320,0.21875,-0.986328,-0.100586,0
29340,0.230469,-0.987793,-0.0878906,0
29360,0.225586,-0.978027,-0.0878906,0
29380,0.213379,-0.969727,-0.0952148,0
29400,0.214355,-0.964844,-0.111328,0
29420,0.224121,-0.960449,-0.0932617,0
29440,0.215332,-0.972168,-0.0957031,0
29460,0.206543,-0.980469,-0.101562,0
29480,0.203613,-0.98291,-0.100098,0
29500,0.220703,-0.979004,-0.101562,0
29520,0.230957,-0.973633,-0.0957031,0
29540,0.226562,-0.97998,-0.106445,0
29560,0.224121,-0.967285,-0.11377,0
29580,0.22168,-0.967773,-0.105469,0
29600,0.233887,-0.98291,-0.0942383,0
29620,0.248535,-0.976562,-0.0947266,0
29640,0.256836,-0.973633,-0.0947266,0
29660,0.244629,-0.973145,-0.0908203,0
29680,0.232422,-0.969727,-0.0922852,0
29700,0.241699,-0.96582,-0.0917969,0
29720,0.23877,-0.970703,-0.081543,0
29740,0.23291,-0.97168,-0.0849609,0
29760,0.251953,-0.964355,-0.0966797,0
29780,0.263672,-0.975098,-0.109375,0
29800,0.263672,-0.96582,-0.101074,0
29820,0.258301,-0.952148,-0.0932617,0
29840,0.258301,-0.945312,-0.104004,0
29860,0.261719,-0.942871,-0.10791,0
29880,0.260742,-0.937012,-0.104492,0
29900,0.253418,-0.94873,-0.101074,0
29910,0.248047,-0.952637,-0.12207,0
29930,0.272461,-0.962402,-0.116699,0
29950,0.28125,-0.969727,-0.0981445,0
29970,0.271484,-0.968262,-0.0883789,0
29990,0.273926,-0.974609,-0.109375,0
30000,0.290527,-0.981934,-0.110352,0
30020,0.282715,-0.968262,-0.0947266,0
30040,0.285156,-0.936035,-0.0927734,0
30060,0.291992,-0.941406,-0.102051,0
30080,0.296875,-0.945312,-0.116211,0
30100,0.289551,-0.939941,-0.103516,0
30120,0.297852,-0.935059,-0.111328,0
30140,0.30957,-0.917969,-0.110352,0
30160,0.317871,-0.930664,-0.111816,0
30180,0.316406,-0.949219,-0.0942383,0
30200,0.312012,-0.948242,-0.103516,0
30220,0.320312,-0.939453,-0.116211,0
30240,0.335938,-0.929199,-0.0976562,0
30260,0.340332,-0.938477,-0.104492,0
30280,0.35498,-0.94043,-0.106445,0
30300,0.367188,-0.945801,-0.100098,0
30320,0.371094,-0.925781,-0.0737305,0
30340,0.355469,-0.911133,-0.0629883,0
30360,0.35791,-0.90332,-0.078125,0
30380,0.365723,-0.904785,-0.0922852,0
30400,0.380859,-0.895508,-0.0830078,0
30420,0.391113,-0.89209,-0.10498,0
30440,0.383789,-0.921387,-0.123047,0
30450,0.374512,-0.946289,-0.106934,0
30470,0.375488,-0.930176,-0.0976562,0
30490,0.38623,-0.921387,-0.100098,0
30510,0.39209,-0.915039,-0.0986328,0
30530,0.408203,-0.916016,-0.0849609,0
30550,0.412598,-0.944336,-0.090332,0
30570,0.388184,-0.944336,-0.09375,0
30590,0.394043,-0.907227,-0.0908203,0
30600,0.40332,-0.902832,-0.0825195,0
30620,0.415039,-0.902344,-0.0922852,0
30640,0.422852,-0.895996,-0.0849609,0
30660,0.416504,-0.883301,-0.0878906,0
30680,0.419922,-0.883301,-0.0966797,0
30700,0.427246,-0.881836,-0.0986328,0
30740,0.427246,-0.878906,-0.0771484,0
30760,0.425781,-0.885742,-0.0678711,0
30780,0.427734,-0.886719,-0.0620117,0
30800,0.438477,-0.897949,-0.0708008,0
30820,0.443848,-0.876465,-0.0571289,0
30840,0.438477,-0.878418,-0.0532227,0
30860,0.449707,-0.894043,-0.0673828,0
30880,0.45459,-0.884766,-0.0639648,0
30900,0.443359,-0.882324,-0.0493164,0
30920,0.439941,-0.884766,-0.0551758,0
30940,0.442383,-0.880859,-0.065918,0
30960,0.444336,-0.867676,-0.0541992,0
30980,0.452637,-0.883789,-0.0541992,0
31000,0.459961,-0.88916,-0.0473633,0
31020,0.456055,-0.874023,-0.0332031,0
31040,0.456055,-0.876953,-0.0488281,0
31060,0.453613,-0.877441,-0.0507812,0
31080,0.459961,-0.874023,-0.0473633,0
31100,0.45166,-0.86084,-0.0332031,0
31120,0.444336,-0.871094,-0.0356445,0
31140,0.453613,-0.887207,-0.0327148,0
31160,0.451172,-0.871094,-0.0151367,0
31160,0.451172,-0.850586,-0.0341797,0
31170,0.459961,-0.864258,-0.0317383,0
31190,0.470215,-0.871094,-0.0317383,0
31210,0.466797,-0.880371,-0.0400391,0
31230,0.480469,-0.882812,-0.059082,0
31250,0.493164,-0.876465,-0.0439453,0
31270,0.495605,-0.868652,-0.0380859,0
31290,0.490723,-0.861328,-0.0297852,0
31310,0.495117,-0.874512,-0.0385742,0
31330,0.501465,-0.871582,-0.0292969,0
31350,0.495605,-0.857422,-0.027832,0
31370,0.494141,-0.844238,-0.0209961,0
31390,0.493164,-0.853516,-0.0214844,0
31410,0.494141,-0.847168,-0.00976562,0
31430,0.487793,-0.850586,-0.00488281,0
31450,0.485352,-0.848633,-0.0107422,0
31470,0.491699,-0.849121,-0.0151367,0
31490,0.491211,-0.848145,-0.0209961,0
31510,0.479492,-0.838379,-0.00830078,0
31530,0.493164,-0.848145,-0.00634766,0
31550,0.505371,-0.864258,-0.0112305,0
31570,0.499512,-0.862305,-0.00341797,0
31590,0.482422,-0.84668,0,0
31610,0.48584,-0.851562,-0.00341797,0
31630,0.494141,-0.859863,-0.00732422,0
31650,0.489258,-0.853027,0.0117188,0
31670,0.474609,-0.844727,0.0107422,0
31690,0.475098,-0.84668,0.00146484,0
31710,0.484375,-0.847168,0.0102539,0
31730,0.477539,-0.844238,0.0175781,0
31740,0.478516,-0.838379,0.0146484,0
31750,0.489746,-0.849609,0.0146484,0
31770,0.507324,-0.847656,0.0224609,0
31790,0.513184,-0.84668,0.0273438,0
31810,0.506836,-0.850586,0.019043,0
31830,0.511719,-0.845703,0.0175781,0
31850,0.517578,-0.848145,0.0288086,0
31850,0.500488,-0.845215,0.0419922,0
31870,0.488281,-0.848145,0.0454102,0
31890,0.495117,-0.854004,0.0375977,0
31910,0.494629,-0.850586,0.0507812,0
31930,0.481934,-0.847168,0.050293,0
31950,0.491699,-0.852051,0.0361328,0
31970,0.503906,-0.857422,0.0317383,0
31990,0.499023,-0.864258,0.0493164,0
32010,0.487793,-0.862305,0.0473633,0
32030,0.480469,-0.852539,0.0527344,0
32050,0.47998,-0.82666,0.0629883,0
32070,0.483887,-0.836914,0.0634766,0
32090,0.469238,-0.85498,0.0649414,0
32110,0.468262,-0.845703,0.0664062,0
32130,0.45752,-0.845703,0.0820312,0
32150,0.462402,-0.845215,0.0820312,0
32170,0.476074,-0.857422,0.0795898,0
32190,0.480469,-0.856934,0.0800781,0
32210,0.473145,-0.845215,0.0805664,0
32230,0.46875,-0.838379,0.0644531,0
32250,0.486816,-0.846191,0.0600586,0
32270,0.48291,-0.855469,0.0874023,0
32290,0.455566,-0.850586,0.0913086,0
32310,0.45459,-0.845703,0.0849609,0
32330,0.463379,-0.841309,0.0893555,0
32350,0.456055,-0.827637,0.0947266,0
32370,0.425293,-0.852051,0.102051,0
32390,0.444336,-0.873047,0.109375,0
32410,0.458496,-0.871094,0.125,0
32430,0.455078,-0.866211,0.133301,0
32440,0.447266,-0.862793,0.114258,0
32460,0.431641,-0.856445,0.111328,0
32480,0.420898,-0.849121,0.125977,0
32500,0.413574,-0.862793,0.143066,0
32520,0.404297,-0.879395,0.131348,0
32540,0.396973,-0.890137,0.141602,0
32560,0.386719,-0.881836,0.153809,0
32580,0.382812,-0.891113,0.143066,0
32600,0.391602,-0.887207,0.161621,0
32620,0.408203,-0.874023,0.176758,0
32640,0.417969,-0.869629,0.175781,0
32660,0.410156,-0.882812,0.185547,0
32680,0.393066,-0.879395,0.174805,0
32700,0.394531,-0.881836,0.165527,0
32720,0.40332,-0.877441,0.162109,0
32740,0.404297,-0.872559,0.15332,0
32760,0.398926,-0.873047,0.155762,0
32780,0.397949,-0.88916,0.152344,0
32800,0.390137,-0.883301,0.162598,0
32820,0.376953,-0.870117,0.176758,0
32840,0.354004,-0.870117,0.177246,0
32860,0.341797,-0.876465,0.17334,0
32880,0.347656,-0.870605,0.188965,0
32900,0.358398,-0.885742,0.202148,0
32920,0.367676,-0.899902,0.203613,0
32940,0.364746,-0.886719,0.189453,0
32960,0.363281,-0.876465,0.198242,0
32980,0.370117,-0.873047,0.191406,0
33000,0.372559,-0.868652,0.180664,0
33020,0.369141,-0.869629,0.188965,0
33040,0.352539,-0.88623,0.186523,0
33060,0.351074,-0.88916,0.188477,0
33080,0.349121,-0.883789,0.198242,0
33100,0.344727,-0.883789,0.205566,0
33120,0.349121,-0.891602,0.183594,0
33140,0.351562,-0.89209,0.193359,0
33160,0.349121,-0.871094,0.200195,0
33180,0.340332,-0.887695,0.196289,0
33200,0.339355,-0.893066,0.195801,0
33220,0.32373,-0.899902,0.203125,0
33240,0.301758,-0.913086,0.193848,0
33260,0.307129,-0.904785,0.194824,0
33280,0.306152,-0.88916,0.215332,0
33300,0.304199,-0.89209,0.220703,0
33320,0.314453,-0.899414,0.199219,0
33340,0.313477,-0.89209,0.206055,0
33360,0.316895,-0.894531,0.208008,0
33380,0.321289,-0.894531,0.211426,0
33400,0.307129,-0.886719,0.221191,0
33420,0.291504,-0.892578,0.21582,0
33440,0.291992,-0.900879,0.20459,0
33460,0.294434,-0.893066,0.21875,0
33480,0.291992,-0.887207,0.220215,0
33500,0.293945,-0.894531,0.224609,0
33520,0.300293,-0.897949,0.224121,0
33540,0.30127,-0.901855,0.219238,0
33560,0.312012,-0.905762,0.219727,0
33580,0.334961,-0.891602,0.22168,0
33600,0.338379,-0.880859,0.227051,0
33620,0.314453,-0.884277,0.206055,0
33640,0.303223,-0.884277,0.191406,0
33660,0.297852,-0.881348,0.214844,0
33680,0.298828,-0.889648,0.228516,0
33700,0.299805,-0.887695,0.222168,0
33720,0.289062,-0.890625,0.211914,0
33740,0.279785,-0.891602,0.204102,0
33760,0.284668,-0.892578,0.233887,0
33780,0.297852,-0.900391,0.245605,0
33800,0.277344,-0.90918,0.236328,0
33820,0.253906,-0.915527,0.215332,0
33840,0.262207,-0.898438,0.223633,0
33860,0.263184,-0.891113,0.23877,0
33880,0.243164,-0.897461,0.222656,0
33900,0.230957,-0.898926,0.215332,0
33920,0.23584,-0.898438,0.217285,0
33940,0.236816,-0.902344,0.226562,0
33960,0.234375,-0.912109,0.232422,0
33980,0.242188,-0.914062,0.222168,0
34000,0.245117,-0.919434,0.217285,0
34020,0.242676,-0.936035,0.224121,0
34040,0.238281,-0.94043,0.242188,0
34060,0.236328,-0.932617,0.23877,0
34080,0.246582,-0.92041,0.225098,0
34100,0.254883,-0.904297,0.230957,0
34120,0.256348,-0.894531,0.235352,0
34140,0.245605,-0.913574,0.225586,0
34160,0.236328,-0.916504,0.222168,0
34180,0.228027,-0.908203,0.222168,0
34200,0.233398,-0.910645,0.230469,0
34220,0.240723,-0.912598,0.249512,0
34240,0.21582,-0.906738,0.25,0
34260,0.202148,-0.916016,0.231445,0
34280,0.221191,-0.925293,0.240723,0
34300,0.233887,-0.92041,0.257812,0
34320,0.227539,-0.931152,0.248047,0
34340,0.235352,-0.94043,0.222656,0
34360,0.241699,-0.92334,0.22998,0
34380,0.230469,-0.908691,0.245117,0
34400,0.20166,-0.906738,0.232422,0
34420,0.203613,-0.916992,0.216797,0
34440,0.208496,-0.920898,0.225098,0
34460,0.205566,-0.916016,0.228027,0
34480,0.202148,-0.913574,0.233398,0
34500,0.186035,-0.916992,0.222656,0
34520,0.188477,-0.915039,0.22168,0
34540,0.205078,-0.916992,0.230469,0
34560,0.193848,-0.921387,0.232422,0
34580,0.182129,-0.931152,0.233887,0
34600,0.185059,-0.937012,0.239746,0
34620,0.196289,-0.950195,0.225098,0
34640,0.192383,-0.949707,0.216309,0
34660,0.186035,-0.931152,0.233887,0
34680,0.17334,-0.930176,0.229004,0
34700,0.174316,-0.931641,0.220215,0
34720,0.17627,-0.929688,0.229492,0
34740,0.181641,-0.915527,0.229004,0
34760,0.189453,-0.919922,0.23584,0
34780,0.195312,-0.910645,0.241699,0
34800,0.171875,-0.908203,0.227051,0
34820,0.166016,-0.916992,0.224121,0
34840,0.183105,-0.925293,0.236816,0
34860,0.188477,-0.916504,0.246094,0
34880,0.168457,-0.923828,0.221191,0
34900,0.16748,-0.932617,0.223145,0
34920,0.171875,-0.923828,0.229004,0
34940,0.172363,-0.919434,0.227051,0
34960,0.177246,-0.932617,0.214844,0
34980,0.18457,-0.925781,0.217285,0
35000,0.16748,-0.916016,0.227051,0
35020,0.168457,-0.929688,0.219727,0
35040,0.192383,-0.955078,0.218262,0
35050,0.198242,-0.960449,0.234863,0
35070,0.182129,-0.94873,0.232422,0
35090,0.173828,-0.939941,0.217773,0
35110,0.1875,-0.9375,0.223633,0
35130,0.168457,-0.925293,0.230469,0
35150,0.148926,-0.926758,0.209473,0
35170,0.159668,-0.938965,0.209961,0
35190,0.162598,-0.94043,0.226074,0
35210,0.134277,-0.930176,0.219727,0
35230,0.129395,-0.92041,0.201172,0
35250,0.154297,-0.921387,0.205566,0
35270,0.150391,-0.92627,0.219238,0
35290,0.150391,-0.938965,0.206055,0
35310,0.155273,-0.940918,0.203125,0
35330,0.158691,-0.938477,0.208008,0
35350,0.141113,-0.942871,0.196289,0
35370,0.155273,-0.956543,0.189941,0
35390,0.177246,-0.956055,0.200195,0
35410,0.174805,-0.944824,0.21582,0
35430,0.158203,-0.944336,0.206055,0
35450,0.168457,-0.944336,0.188965,0
35470,0.17334,-0.959473,0.204102,0
35490,0.15918,-0.953125,0.208008,0
35510,0.145996,-0.960449,0.186523,0
35530,0.162109,-0.958496,0.203613,0
35550,0.169922,-0.960449,0.210449,0
35570,0.160645,-0.963379,0.201172,0
35590,0.15918,-0.953613,0.20752,0
35610,0.166992,-0.95459,0.212891,0
35630,0.167969,-0.963379,0.201172,0
35650,0.155762,-0.953613,0.20459,0
35670,0.155762,-0.937988,0.202637,0
35690,0.15625,-0.934082,0.20459,0
35710,0.15625,-0.936523,0.19043,0
35730,0.150879,-0.931152,0.191406,0
35750,0.162109,-0.921875,0.189941,0
35770,0.172852,-0.921387,0.199707,0
35790,0.166992,-0.92627,0.196289,0
35810,0.155762,-0.930664,0.19043,0
35830,0.15625,-0.933105,0.186523,0
35850,0.161133,-0.931152,0.18457,0
35870,0.168945,-0.936523,0.168945,0
35890,0.172852,-0.939453,0.18457,0
35910,0.171875,-0.945312,0.184082,0
35930,0.166016,-0.947754,0.170898,0
35950,0.182129,-0.958496,0.195801,0
35970,0.180664,-0.956055,0.201172,0
35990,0.174316,-0.956055,0.171387,0
36010,0.174316,-0.950684,0.15625,0
36030,0.181152,-0.945312,0.184082,0
36050,0.15625,-0.927734,0.190918,0
36070,0.151855,-0.941406,0.161133,0
36090,0.172363,-0.959961,0.156738,0
36110,0.190918,-0.965332,0.178711,0
36130,0.173828,-0.944824,0.178223,0
36150,0.174805,-0.945801,0.157227,0
36170,0.202637,-0.950195,0.170898,0
36190,0.191406,-0.945801,0.168457,0
36210,0.163086,-0.937988,0.158203,0
36230,0.161621,-0.94873,0.15332,0
36250,0.191895,-0.955078,0.164551,0
36270,0.187988,-0.944824,0.17041,0
36290,0.151367,-0.938477,0.153809,0
36310,0.166992,-0.953125,0.134766,0
36330,0.204102,-0.956055,0.161133,0
36350,0.182617,-0.937012,0.179199,0
36370,0.154297,-0.945801,0.156738,0
36390,0.166992,-0.958984,0.14209,0
36410,0.1875,-0.952148,0.143555,0
36430,0.168945,-0.949219,0.152344,0
36450,0.157715,-0.947754,0.134277,0
36470,0.180176,-0.948242,0.12207,0
36490,0.188477,-0.949707,0.131348,0
36510,0.162598,-0.942871,0.145508,0
36530,0.155762,-0.949707,0.125488,0
36550,0.1875,-0.970215,0.108398,0
36570,0.204102,-0.974121,0.129395,0
36590,0.166504,-0.958496,0.133789,0
36610,0.154785,-0.962402,0.128906,0
36630,0.187012,-0.968262,0.129395,0
36650,0.182617,-0.967285,0.135742,0
36670,0.157227,-0.97168,0.129395,0
36690,0.172852,-0.97168,0.116699,0
36710,0.191895,-0.960938,0.123535,0
36730,0.16748,-0.956055,0.12793,0
36750,0.152832,-0.958496,0.11084,0
36770,0.176758,-0.970215,0.104004,0
36790,0.174316,-0.971191,0.109375,0
36810,0.161621,-0.958008,0.112305,0
36830,0.172363,-0.95752,0.100098,0
36850,0.1875,-0.962402,0.0996094,0
36870,0.187988,-0.96875,0.108398,0
36890,0.194336,-0.974121,0.109375,0
36910,0.190918,-0.976562,0.10498,0
36930,0.185059,-0.977539,0.0878906,0
36950,0.204102,-0.978027,0.0947266,0
36970,0.193359,-0.96582,0.113281,0
36990,0.166504,-0.971191,0.0966797,0
37010,0.175781,-0.980957,0.0869141,0
37030,0.188965,-0.971191,0.0957031,0
37050,0.170898,-0.960938,0.100098,0
37070,0.163086,-0.94043,0.0932617,0
37090,0.177246,-0.938477,0.0751953,0
37110,0.19043,-0.948242,0.0756836,0
37130,0.20166,-0.961914,0.0839844,0
37150,0.197754,-0.958496,0.0922852,0
37170,0.195312,-0.968262,0.0854492,0
37190,0.20459,-0.975098,0.074707,0
37210,0.202637,-0.967285,0.0898438,0
37230,0.193359,-0.95752,0.081543,0
37250,0.1875,-0.952637,0.0722656,0
37270,0.192871,-0.952148,0.0556641,0
37290,0.20752,-0.958984,0.0678711,0
37310,0.225586,-0.960449,0.0791016,0
37330,0.216309,-0.964355,0.0693359,0
37350,0.204102,-0.961914,0.0498047,0
37370,0.218262,-0.972168,0.0488281,0
37390,0.23291,-0.973633,0.0649414,0
37410,0.220703,-0.964355,0.0527344,0
37430,0.217773,-0.961426,0.043457,0
37450,0.227051,-0.955078,0.0585938,0
37470,0.223145,-0.952148,0.0561523,0
37490,0.211426,-0.959961,0.0454102,0
37510,0.215332,-0.967285,0.03125,0
37530,0.22998,-0.964355,0.0507812,0
37550,0.245605,-0.966309,0.0541992,0
37570,0.237305,-0.960449,0.046875,0
37590,0.228516,-0.967285,0.0341797,0
37610,0.242188,-0.963379,0.0429688,0
37630,0.23584,-0.955566,0.0356445,0
37650,0.233398,-0.961914,0.0302734,0
37660,0.247559,-0.969238,0.046875,0
37680,0.255371,-0.95752,0.0493164,0
37700,0.242676,-0.959961,0.043457,0
37720,0.247559,-0.969238,0.0229492,0
37740,0.265137,-0.975586,0.019043,0
37760,0.25293,-0.945801,0.0400391,0
37780,0.225586,-0.936523,0.0424805,0
37800,0.227051,-0.944336,0.0205078,0
37820,0.245605,-0.94873,0.015625,0
37840,0.245117,-0.946777,0.0273438,0
37860,0.247559,-0.956543,0.0283203,0
37880,0.268555,-0.959961,0.00488281,0
37900,0.273926,-0.945801,0.0175781,0
37920,0.259766,-0.946777,0.0263672,0
37940,0.262695,-0.952637,0.0136719,0
37960,0.279297,-0.955566,0.00634766,0
37980,0.275391,-0.953125,0.00927734,0
38000,0.253418,-0.95166,0.00390625,0
38020,0.253906,-0.94873,-0.00585938,0
38040,0.277344,-0.945312,-0.00537109,0
38060,0.27002,-0.940918,0.00390625,0
38080,0.266602,-0.963379,-0.00634766,0
38100,0.277344,-0.963867,-0.000976562,0
38120,0.280762,-0.962891,-0.00244141,0
38140,0.271973,-0.956055,0.00341797,0
38160,0.28125,-0.961914,-0.00976562,0
38180,0.281738,-0.962891,0.000976562,0
38200,0.275879,-0.969238,-0.00537109,0
38220,0.264648,-0.961914,-0.0141602,0
38240,0.280762,-0.950195,-0.0126953,0
38260,0.282715,-0.945312,-0.0141602,0
38280,0.274902,-0.952637,-0.00244141,0
38300,0.284668,-0.943359,-0.00976562,0
38320,0.299316,-0.94873,-0.0146484,0
38340,0.292969,-0.949707,-0.0126953,0
38360,0.281738,-0.942871,-0.0209961,0
38380,0.286621,-0.935547,-0.0195312,0
38400,0.310059,-0.947754,-0.0175781,0
38420,0.306641,-0.94873,-0.0297852,0
38440,0.300293,-0.947754,-0.0405273,0
38460,0.297363,-0.945801,-0.0244141,0
38480,0.313477,-0.948242,-0.0283203,0
38500,0.322266,-0.946777,-0.0209961,0
38520,0.317383,-0.944336,-0.0288086,0
38540,0.32373,-0.937012,-0.0327148,0
38560,0.324707,-0.92334,-0.034668,0
38580,0.317871,-0.92627,-0.0410156,0
38600,0.310547,-0.932129,-0.0361328,0
38620,0.320801,-0.9375,-0.0317383,0
38640,0.325195,-0.936523,-0.0385742,0
38660,0.316895,-0.945312,-0.0439453,0
38680,0.322266,-0.94043,-0.0527344,0
38700,0.336914,-0.921387,-0.0297852,0
38720,0.339844,-0.921875,-0.027832,0
38740,0.335938,-0.937988,-0.0371094,0
38760,0.341309,-0.926758,-0.0341797,0
38780,0.344727,-0.924316,-0.0307617,0
38800,0.334961,-0.927246,-0.0405273,0
38820,0.335449,-0.93457,-0.0395508,0
38840,0.331543,-0.928223,-0.0419922,0
38860,0.35498,-0.925293,-0.0498047,0
38880,0.364746,-0.924805,-0.0454102,0
38900,0.354004,-0.933105,-0.0454102,0
38920,0.364746,-0.938965,-0.0615234,0
38940,0.387695,-0.929199,-0.0419922,0
38960,0.383301,-0.921875,-0.0322266,0
38980,0.367188,-0.924316,-0.0400391,0
39000,0.362305,-0.923828,-0.0463867,0
39020,0.371582,-0.915039,-0.0424805,0
39040,0.352051,-0.916992,-0.0429688,0
39060,0.344727,-0.917969,-0.046875,0
39080,0.375,-0.927246,-0.0395508,0
39100,0.39209,-0.922852,-0.0410156,0
39120,0.371582,-0.907715,-0.0390625,0
39140,0.367676,-0.916016,-0.0483398,0
39160,0.383301,-0.909668,-0.0566406,0
39180,0.390625,-0.901367,-0.0405273,0
39200,0.371582,-0.900391,-0.0517578,0
39220,0.368652,-0.908691,-0.0551758,0
39240,0.389648,-0.916016,-0.0390625,0
39260,0.394043,-0.905273,-0.0395508,0
39280,0.37793,-0.90625,-0.0449219,0
39300,0.382324,-0.90918,-0.0673828,0
39320,0.422363,-0.904785,-0.0458984,0
39340,0.424805,-0.908203,-0.0395508,0
39360,0.404785,-0.906738,-0.0532227,0
39380,0.418457,-0.910645,-0.0556641,0
39400,0.429199,-0.90625,-0.0439453,0
39420,0.414551,-0.908691,-0.0483398,0
39440,0.405273,-0.899414,-0.0585938,0
39460,0.407227,-0.89209,-0.0551758,0
39480,0.393066,-0.881836,-0.0493164,0
39500,0.391113,-0.88916,-0.0576172,0
39520,0.433105,-0.894531,-0.0629883,0
39540,0.4375,-0.901855,-0.050293,0
39560,0.421875,-0.896973,-0.0522461,0
39580,0.424316,-0.89209,-0.0639648,0
39600,0.445801,-0.889648,-0.0717773,0
39620,0.441895,-0.888184,-0.0581055,0
39640,0.431152,-0.890137,-0.0571289,0
39660,0.429688,-0.888672,-0.0649414,0
39680,0.436523,-0.89209,-0.0703125,0
39700,0.436523,-0.892578,-0.0458984,0
39720,0.426758,-0.876953,-0.0664062,0
39740,0.433594,-0.873047,-0.0673828,0
39760,0.454102,-0.889648,-0.0742188,0
39780,0.455078,-0.885254,-0.0566406,0
39800,0.447266,-0.882812,-0.0566406,0
39820,0.450195,-0.880371,-0.0664062,0
39840,0.451172,-0.88916,-0.0673828,0
39860,0.449707,-0.883301,-0.0600586,0
39880,0.455078,-0.866699,-0.0532227,0
39900,0.456543,-0.879395,-0.0585938,0
39920,0.452148,-0.879395,-0.0541992,0
39940,0.442871,-0.86377,-0.046875,0
39960,0.453613,-0.873535,-0.0585938,0
39980,0.467773,-0.880371,-0.0620117,0
40000,0.479004,-0.864746,-0.0395508,0
40020,0.469238,-0.858398,-0.0556641,0
40040,0.467773,-0.861816,-0.0600586,0
40060,0.457031,-0.859375,-0.0693359,0
40080,0.484375,-0.855957,-0.0541992,0
40100,0.499512,-0.85791,-0.0493164,0
40120,0.479492,-0.858398,-0.0551758,0
40140,0.478027,-0.855469,-0.0615234,0
40160,0.493164,-0.850098,-0.0595703,0
40180,0.509277,-0.845215,-0.0351562,0
40200,0.499512,-0.84082,-0.0419922,0
40220,0.501465,-0.843262,-0.0595703,0
40240,0.509766,-0.852051,-0.0620117,0
40250,0.529785,-0.837891,-0.0327148,0
40270,0.516602,-0.827637,-0.0229492,0
40290,0.512207,-0.847168,-0.0527344,0
40310,0.510742,-0.842285,-0.0517578,0
40330,0.51709,-0.848633,-0.0336914,0
40350,0.509277,-0.845703,-0.0249023,0
40370,0.504883,-0.839355,-0.0371094,0
40390,0.501465,-0.828613,-0.0273438,0
40410,0.505371,-0.830566,-0.0332031,0
40430,0.534668,-0.837891,-0.0219727,0
40450,0.539062,-0.845215,-0.0195312,0
40470,0.529785,-0.830566,-0.0263672,0
40490,0.537109,-0.818359,-0.0195312,0
40510,0.544922,-0.827148,-0.0131836,0
40530,0.532715,-0.826172,-0.0146484,0
40550,0.53125,-0.825195,-0.027832,0
40570,0.540527,-0.824707,-0.0209961,0
40590,0.543945,-0.807617,-0.00244141,0
40610,0.54541,-0.803223,-0.0195312,0
40630,0.535156,-0.810059,-0.0283203,0
40650,0.534668,-0.814941,-0.0107422,0
40670,0.561523,-0.808594,0.00732422,0
40690,0.583008,-0.813477,-0.00390625,0
40710,0.578125,-0.814941,-0.0146484,0
40730,0.555176,-0.806641,-0.0146484,0
40750,0.560547,-0.802734,-0.0078125,0
40770,0.578613,-0.812012,0.012207,0
40790,0.574219,-0.814941,0.0131836,0
40810,0.564453,-0.808105,-0.0078125,0
40830,0.554688,-0.808105,-0.0078125,0
40850,0.561523,-0.798828,-0.00683594,0
40870,0.566895,-0.791992,0,0
40890,0.58252,-0.796875,-0.00976562,0
40910,0.586426,-0.797363,-0.00390625,0
40930,0.580078,-0.783203,0.0126953,0
40950,0.589844,-0.782715,-0.00488281,0
40970,0.59668,-0.783203,-0.0161133,0
40990,0.588867,-0.777832,-0.00634766,0
41010,0.57959,-0.773438,0.0107422,0
41030,0.598145,-0.773438,0.0107422,0
41050,0.608398,-0.788086,0.00341797,0
41070,0.600098,-0.763672,0.0136719,0
41090,0.595215,-0.748535,0.00732422,0
41110,0.616211,-0.760742,0.00927734,0
41130,0.620605,-0.758301,0.0141602,0
41150,0.597168,-0.750977,0.0234375,0
41170,0.59082,-0.757324,0.0126953,0
41190,0.606934,-0.756836,0.0078125,0
41210,0.621582,-0.746094,0.0239258,0
41230,0.62793,-0.730957,0.0498047,0
41250,0.646973,-0.735352,0.0473633,0
41270,0.665039,-0.745117,0.0327148,0
41290,0.65332,-0.742188,0.0244141,0
41310,0.629395,-0.728027,0.0302734,0
41330,0.616699,-0.726562,0.0390625,0
41350,0.591309,-0.716309,0.0390625,0
41370,0.585449,-0.739258,0.0322266,0
41390,0.588867,-0.767578,0.0283203,0
41410,0.606934,-0.771973,0.0385742,0
41430,0.626953,-0.756348,0.0327148,0
41450,0.647949,-0.748047,0.0375977,0
41470,0.67334,-0.748047,0.0297852,0
41490,0.680664,-0.737793,0.0371094,0
41510,0.671875,-0.745605,0.0322266,0
41530,0.664062,-0.738281,0.0307617,0
41550,0.674316,-0.722168,0.0307617,0
41570,0.671387,-0.706543,0.0341797,0
41590,0.651367,-0.708984,0.0444336,0
41610,0.644043,-0.708008,0.0532227,0
41630,0.655273,-0.702637,0.0498047,0
41650,0.65918,-0.708496,0.043457,0
41670,0.648438,-0.712891,0.0415039,0
41690,0.65918,-0.69873,0.0610352,0
41710,0.679199,-0.698242,0.0507812,0
41730,0.661133,-0.693359,0.0620117,0
41750,0.659668,-0.702148,0.0566406,0
41770,0.678223,-0.699707,0.0551758,0
41790,0.678223,-0.697266,0.074707,0
41810,0.645508,-0.697266,0.0771484,0
41830,0.650391,-0.70459,0.0571289,0
41850,0.659668,-0.717285,0.0751953,0
41870,0.662109,-0.701172,0.0874023,0
41890,0.668945,-0.702637,0.0859375,0
41910,0.65625,-0.709961,0.0805664,0
41930,0.632812,-0.700195,0.0874023,0
41950,0.649414,-0.70166,0.09375,0
41970,0.686035,-0.706543,0.09375,0
41990,0.685059,-0.702148,0.0898438,0
42010,0.666504,-0.702637,0.0883789,0
42030,0.666992,-0.691895,0.0922852,0
42050,0.666016,-0.69043,0.104492,0
42070,0.671875,-0.701172,0.110352,0
42090,0.666992,-0.715332,0.106445,0
42110,0.658691,-0.700195,0.104004,0
42130,0.644531,-0.686035,0.111816,0
42150,0.641602,-0.675293,0.111816,0
42170,0.655762,-0.694336,0.117188,0
42190,0.661133,-0.689453,0.131348,0
42210,0.656738,-0.700684,0.133301,0
42230,0.656738,-0.691895,0.126953,0
42250,0.669922,-0.6875,0.116699,0
42270,0.664062,-0.674316,0.133301,0
42290,0.666504,-0.66748,0.129883,0
42310,0.671875,-0.669922,0.130371,0
42330,0.65918,-0.671875,0.148926,0
42350,0.654297,-0.686035,0.144043,0
42370,0.674805,-0.70166,0.144531,0
42390,0.679688,-0.687012,0.15918,0
42410,0.662598,-0.681641,0.155762,0
42430,0.674805,-0.666504,0.153809,0
42450,0.697266,-0.669922,0.154297,0
42470,0.683105,-0.675293,0.170898,0
42490,0.663086,-0.687988,0.166504,0
42510,0.660645,-0.678223,0.154785,0
42530,0.65918,-0.663574,0.173828,0
42550,0.651367,-0.662109,0.180664,0
42570,0.656738,-0.677246,0.172852,0
42590,0.658203,-0.674805,0.181641,0
42610,0.654297,-0.678223,0.203125,0
42630,0.650879,-0.673828,0.201172,0
42650,0.650879,-0.665527,0.20166,0
42670,0.641602,-0.662598,0.208496,0
42690,0.637695,-0.681152,0.191406,0
42710,0.649414,-0.685547,0.195801,0
42730,0.650879,-0.689453,0.200684,0
42750,0.626465,-0.6875,0.208008,0
42770,0.613281,-0.695312,0.240723,0
42790,0.623047,-0.703125,0.23291,0
42800,0.626953,-0.69873,0.231934,0
42820,0.615234,-0.685059,0.239258,0
42840,0.59668,-0.686035,0.246582,0
42860,0.603027,-0.710938,0.246582,0
42880,0.605957,-0.700684,0.249023,0
42900,0.587891,-0.696289,0.254883,0
42920,0.570312,-0.705078,0.251953,0
42940,0.587891,-0.708496,0.258789,0
42960,0.594727,-0.702637,0.27832,0
42980,0.569336,-0.704102,0.289062,0
43000,0.569824,-0.705566,0.269531,0
43020,0.581055,-0.711914,0.281738,0
43040,0.562988,-0.714355,0.284668,0
43060,0.548828,-0.714844,0.28125,0
43080,0.571289,-0.710449,0.282227,0
43100,0.571777,-0.712891,0.287598,0
43120,0.567383,-0.709473,0.28125,0
43140,0.577637,-0.711914,0.290527,0
43160,0.571289,-0.712891,0.29248,0
43180,0.564453,-0.714355,0.29834,0
43200,0.55957,-0.71582,0.291504,0
43220,0.556152,-0.719238,0.304199,0
43240,0.547363,-0.714355,0.29834,0
43260,0.551758,-0.721191,0.29541,0
43280,0.552734,-0.708984,0.313477,0
43300,0.535645,-0.705566,0.324219,0
43320,0.531738,-0.710449,0.310547,0
43340,0.543945,-0.717773,0.304688,0
43360,0.545898,-0.722656,0.3125,0
43380,0.538086,-0.718262,0.308105,0
43400,0.541992,-0.707031,0.298828,0
43420,0.544922,-0.713379,0.296875,0
43440,0.534668,-0.717285,0.304199,0
43460,0.526367,-0.72168,0.305176,0
43480,0.527832,-0.730469,0.287109,0
43500,0.54541,-0.746582,0.300293,0
43520,0.536133,-0.74707,0.327637,0
43540,0.51709,-0.736328,0.331055,0
43560,0.506836,-0.737793,0.328125,0
43580,0.500488,-0.733398,0.335449,0
43600,0.491211,-0.739746,0.324219,0
43620,0.503418,-0.743164,0.318848,0
43640,0.506348,-0.737793,0.333984,0
43660,0.488281,-0.726562,0.327637,0
43680,0.485352,-0.737793,0.322754,0
43700,0.493164,-0.742188,0.322754,0
43720,0.487305,-0.736328,0.338867,0
43740,0.476074,-0.740234,0.326172,0
43760,0.474609,-0.772461,0.32666,0
43780,0.47998,-0.759766,0.334961,0
43800,0.481934,-0.750488,0.329102,0
43820,0.489258,-0.756348,0.325684,0
43840,0.490234,-0.74707,0.331543,0
43860,0.481934,-0.746094,0.337891,0
43880,0.481934,-0.743164,0.331543,0
43900,0.468262,-0.743164,0.333984,0
43920,0.458496,-0.750488,0.334473,0
43940,0.462891,-0.76123,0.343262,0
43960,0.479004,-0.764648,0.345703,0
43980,0.472656,-0.758789,0.343262,0
44000,0.463867,-0.758301,0.329102,0
44020,0.464844,-0.753906,0.338379,0
44040,0.456543,-0.757812,0.369629,0
44060,0.446289,-0.762695,0.356445,0
44080,0.453125,-0.768066,0.342285,0
44100,0.449219,-0.775391,0.345215,0
44120,0.451172,-0.769043,0.34375,0
44140,0.443359,-0.766113,0.34375,0
44160,0.438477,-0.757324,0.331543,0
44180,0.436523,-0.759766,0.331543,0
44200,0.435547,-0.762207,0.341309,0
44220,0.442871,-0.769531,0.334961,0
44240,0.457031,-0.779297,0.330078,0
44260,0.45752,-0.774902,0.340332,0
44280,0.444824,-0.769043,0.331543,0
44300,0.44043,-0.769531,0.324707,0
44320,0.448242,-0.76416,0.331055,0
44340,0.44873,-0.765625,0.337891,0
44360,0.445312,-0.773438,0.339355,0
44380,0.430664,-0.782227,0.335938,0
44400,0.426758,-0.783203,0.333008,0
44420,0.433105,-0.772461,0.337402,0
44440,0.447754,-0.771973,0.332031,0
44460,0.441406,-0.771973,0.335449,0
44480,0.42627,-0.771484,0.322266,0
44500,0.42627,-0.777832,0.322754,0
44520,0.429199,-0.779297,0.330078,0
44540,0.420898,-0.776367,0.317871,0
44560,0.418457,-0.780273,0.29834,0
44580,0.436523,-0.795898,0.302246,0
44600,0.454102,-0.802734,0.3125,0
44620,0.449707,-0.807129,0.312988,0
44640,0.438965,-0.807129,0.311035,0
44660,0.440918,-0.814941,0.319336,0
44680,0.44043,-0.810059,0.349609,0
44700,0.402344,-0.790039,0.343262,0
44720,0.384277,-0.804688,0.316406,0
44740,0.407715,-0.818359,0.315918,0
44760,0.41748,-0.800293,0.344238,0
44780,0.388672,-0.77832,0.349121,0
44800,0.365234,-0.785156,0.319336,0
44820,0.380859,-0.807617,0.312988,0
44840,0.406738,-0.810547,0.333496,0
44860,0.398926,-0.805664,0.333496,0
44880,0.383789,-0.797363,0.335938,0
44900,0.373535,-0.807617,0.32666,0
44920,0.388184,-0.811035,0.32373,0
44940,0.403809,-0.817383,0.307129,0
44960,0.425293,-0.79541,0.307129,0
44980,0.428223,-0.79834,0.311035,0
45000,0.410645,-0.805176,0.327637,0
45020,0.395996,-0.814453,0.314941,0
45040,0.391113,-0.816895,0.294922,0
45060,0.399902,-0.803711,0.322754,0
45080,0.388672,-0.79834,0.323242,0
45100,0.377441,-0.800293,0.308105,0
45120,0.378906,-0.811035,0.3125,0
45140,0.366211,-0.8125,0.318359,0
45160,0.366211,-0.807129,0.311523,0
45180,0.374512,-0.802734,0.333008,0
45200,0.360352,-0.811523,0.335938,0
45220,0.352539,-0.822754,0.328613,0
45240,0.361328,-0.834473,0.329102,0
45260,0.344727,-0.828125,0.334961,0
45280,0.336426,-0.827148,0.319336,0
45300,0.362793,-0.82373,0.332031,0
45320,0.365234,-0.821777,0.339844,0
45340,0.333496,-0.828125,0.330078,0
45360,0.338379,-0.823242,0.314453,0
45380,0.36377,-0.82666,0.325195,0
45390,0.34668,-0.819336,0.34375,0
45410,0.328613,-0.814941,0.327637,0
45430,0.358887,-0.821777,0.306641,0
45450,0.385254,-0.832031,0.32666,0
45470,0.380371,-0.825684,0.32959,0
45490,0.382324,-0.817383,0.331055,0
45510,0.376465,-0.817871,0.328125,0
45530,0.380859,-0.822266,0.308594,0
45550,0.382324,-0.83252,0.317383,0
45570,0.366211,-0.827148,0.322266,0
45590,0.345703,-0.827148,0.325684,0
45610,0.336426,-0.823242,0.340332,0
45630,0.344238,-0.834473,0.310059,0
45650,0.366699,-0.856934,0.29541,0
45670,0.368652,-0.851562,0.327637,0
45690,0.348633,-0.833496,0.331543,0
45710,0.334473,-0.814453,0.314453,0
45730,0.34082,-0.822754,0.305664,0
45750,0.345703,-0.839844,0.316895,0
45770,0.338379,-0.838379,0.328613,0
45790,0.330566,-0.83252,0.29834,0
45810,0.330078,-0.83252,0.304688,0
45830,0.317871,-0.831055,0.330078,0
45850,0.314941,-0.842773,0.323242,0
45870,0.343262,-0.859863,0.294922,0
45890,0.360352,-0.861816,0.30957,0
45910,0.344238,-0.842773,0.338867,0
45930,0.314453,-0.824219,0.317383,0
45950,0.319336,-0.846191,0.296875,0
45970,0.334473,-0.854492,0.333008,0
45990,0.331055,-0.855469,0.33252,0
46010,0.323242,-0.845215,0.327637,0
46030,0.29834,-0.837402,0.304688,0
46050,0.290527,-0.845215,0.297852,0
46070,0.328125,-0.849609,0.313965,0
46090,0.334473,-0.849609,0.318848,0
46110,0.304688,-0.844238,0.294434,0
46130,0.325684,-0.846191,0.299316,0
46150,0.338867,-0.847656,0.323242,0
46170,0.322266,-0.852539,0.303711,0
46190,0.326172,-0.853516,0.285645,0
46210,0.342773,-0.846191,0.307129,0
46230,0.335938,-0.835449,0.315918,0
46250,0.311523,-0.83252,0.308594,0
46270,0.320312,-0.844727,0.285645,0
46290,0.351562,-0.858887,0.293945,0
46310,0.324707,-0.847656,0.335449,0
46330,0.287598,-0.826172,0.300781,0
46350,0.319336,-0.842773,0.275879,0
46370,0.355957,-0.866211,0.305176,0
46390,0.335449,-0.858887,0.318359,0
46410,0.291504,-0.833008,0.312988,0
46430,0.294922,-0.835938,0.295898,0
46450,0.336914,-0.847656,0.310547,0
46470,0.334961,-0.851562,0.297852,0
46490,0.308105,-0.848633,0.294922,0
46510,0.313965,-0.840332,0.296387,0
46530,0.32959,-0.846191,0.300781,0
46550,0.319824,-0.865234,0.296387,0
46570,0.337402,-0.865723,0.291992,0
46590,0.354492,-0.849121,0.312988,0
46610,0.337891,-0.852051,0.304688,0
46630,0.333008,-0.868164,0.273438,0
46650,0.355469,-0.865234,0.28418,0
46670,0.334961,-0.851562,0.308594,0
46690,0.310547,-0.847656,0.27832,0
46710,0.339355,-0.856934,0.268066,0
46730,0.347656,-0.862793,0.289062,0
46750,0.3125,-0.853516,0.286133,0
46770,0.32959,-0.860352,0.268555,0
46790,0.357422,-0.856934,0.274414,0
46810,0.333496,-0.86084,0.286621,0
46830,0.337891,-0.868652,0.265625,0
46850,0.370605,-0.858398,0.282227,0
46870,0.351562,-0.85791,0.280273,0
46890,0.32666,-0.858398,0.266602,0
46910,0.354004,-0.859863,0.26123,0
46930,0.364258,-0.846191,0.258789,0
46950,0.334961,-0.847168,0.254883,0
46970,0.333984,-0.854004,0.260742,0
46990,0.363281,-0.861328,0.242676,0
47010,0.352051,-0.860352,0.259766,0
47030,0.34375,-0.87207,0.257324,0
47050,0.354492,-0.869141,0.24707,0
47070,0.37207,-0.862793,0.24707,0
47090,0.364746,-0.868164,0.250977,0
47110,0.343262,-0.855957,0.246094,0
47130,0.324219,-0.853516,0.23291,0
47150,0.343262,-0.867676,0.218262,0
47170,0.36377,-0.875488,0.233887,0
47190,0.336914,-0.872559,0.234863,0
47210,0.336426,-0.867188,0.220215,0
47230,0.371094,-0.871582,0.225586,0
47250,0.350586,-0.873047,0.229004,0
47270,0.328613,-0.881836,0.222656,0
47290,0.369141,-0.885254,0.222656,0
47310,0.372559,-0.874023,0.232422,0
47330,0.32959,-0.867188,0.230957,0
47350,0.347656,-0.880859,0.203125,0
47370,0.380371,-0.880859,0.213379,0
47390,0.361328,-0.871582,0.212891,0
47410,0.338379,-0.867188,0.208496,0
47430,0.372559,-0.876953,0.192383,0
47450,0.381348,-0.873535,0.20752,0
47470,0.362305,-0.870605,0.210938,0
47490,0.370605,-0.874023,0.1875,0
47510,0.387695,-0.874023,0.201172,0
47530,0.367676,-0.861328,0.216309,0
47550,0.351562,-0.870117,0.193359,0
47570,0.381348,-0.887207,0.180664,0
47590,0.382324,-0.883301,0.191895,0
47610,0.353027,-0.856934,0.19873,0
47630,0.370605,-0.866211,0.183594,0
47650,0.407715,-0.881836,0.186523,0
47670,0.378906,-0.872559,0.190918,0
47690,0.351074,-0.868164,0.180664,0
47710,0.380859,-0.879883,0.162598,0
47730,0.395996,-0.878418,0.178223,0
47750,0.362305,-0.873047,0.187012,0
47770,0.373535,-0.869629,0.164551,0
47790,0.414551,-0.87793,0.163086,0
47810,0.412109,-0.876465,0.166504,0
47830,0.393555,-0.871094,0.16748,0
47850,0.403809,-0.869141,0.168945,0
47870,0.39502,-0.870117,0.157715,0
47890,0.37793,-0.87207,0.147461,0
47910,0.385254,-0.871582,0.149902,0
47930,0.408691,-0.871582,0.15625,0
47950,0.398438,-0.862793,0.155273,0
47970,0.393066,-0.862305,0.140625,0
47990,0.40625,-0.867676,0.136719,0
48000,0.412109,-0.871582,0.145508,0
48020,0.401367,-0.868164,0.144531,0
48040,0.407227,-0.862793,0.151367,0
48060,0.414062,-0.863281,0.138672,0
48080,0.405762,-0.871582,0.142578,0
48100,0.390625,-0.870117,0.144043,0
48120,0.407227,-0.879883,0.130859,0
48140,0.420898,-0.878418,0.124023,0
48160,0.399414,-0.867188,0.148438,0
48180,0.39209,-0.865723,0.140137,0
48200,0.416504,-0.873047,0.129395,0
48220,0.416504,-0.884766,0.129395,0
48240,0.392578,-0.88623,0.141602,0
48260,0.394043,-0.883301,0.126953,0
48280,0.39502,-0.877441,0.141113,0
48300,0.388184,-0.882324,0.131348,0
48320,0.382324,-0.890137,0.125488,0
48340,0.384277,-0.888672,0.129395,0
48360,0.369141,-0.884766,0.145508,0
48380,0.366211,-0.881348,0.131836,0
48400,0.363281,-0.893066,0.129883,0
48420,0.370117,-0.891602,0.121094,0
48440,0.391602,-0.897949,0.119141,0
48460,0.388184,-0.895996,0.129883,0
48480,0.367676,-0.884277,0.116211,0
48500,0.381836,-0.884277,0.116699,0
48520,0.392578,-0.893066,0.116699,0
48540,0.368164,-0.891113,0.117676,0
48560,0.368164,-0.881836,0.10498,0
48580,0.396484,-0.883789,0.108887,0
48600,0.399414,-0.918457,0.116211,0
48620,0.380371,-1.04443,0.116699,0
48640,0.384766,-0.910156,0.14502,0
48660,0.38916,-0.852539,0.0947266,0
48680,0.400391,-0.820312,0.0727539,0
48700,0.408691,-0.790039,0.0839844,0
48720,0.415527,-0.811523,0.0869141,0
48740,0.407227,-0.861328,0.0839844,0
48760,0.39502,-0.899414,0.0917969,0
48780,0.388184,-0.943359,0.0830078,0
48800,0.430664,-0.957031,0.0820312,0
48820,0.445312,-0.923828,0.0961914,0
48840,0.419434,-0.880371,0.0834961,0
48860,0.410156,-0.853027,0.0527344,0
48880,0.438477,-0.847656,0.0512695,0
48900,0.430664,-0.854004,0.078125,0
48920,0.40332,-0.88623,0.0703125,0
48940,0.405273,-0.907715,0.0429688,0
48960,0.443359,-0.92334,0.0712891,0
48980,0.436035,-0.891602,0.0947266,0
49000,0.408203,-0.870605,0.0727539,0
49020,0.424316,-0.849609,0.0498047,0
49040,0.458008,-0.839844,0.0620117,0
49060,0.442871,-0.844727,0.0742188,0
49080,0.416992,-0.848633,0.0610352,0
49100,0.4375,-0.862305,0.0327148,0
49120,0.478027,-0.879883,0.059082,0
49140,0.467773,-0.871582,0.0712891,0
49160,0.446777,-0.861328,0.0517578,0
49180,0.46582,-0.85498,0.0429688,0
49200,0.46875,-0.850586,0.050293,0
49220,0.451172,-0.848145,0.0625,0
49240,0.449707,-0.851562,0.0473633,0
49260,0.46875,-0.86084,0.034668,0
49280,0.464844,-0.86377,0.0458984,0
49300,0.45166,-0.85791,0.0483398,0
49320,0.460938,-0.857422,0.0415039,0
49340,0.470215,-0.858887,0.0327148,0
49360,0.46875,-0.855957,0.0522461,0
49380,0.479004,-0.859375,0.0327148,0
49400,0.486328,-0.867188,0.034668,0
49420,0.479492,-0.873047,0.0395508,0
49440,0.490234,-0.868164,0.0439453,0
49460,0.498047,-0.852539,0.0454102,0
49480,0.477539,-0.852539,0.0390625,0
49500,0.467285,-0.848145,0.0166016,0
49520,0.491211,-0.85498,0.0161133,0
49540,0.508301,-0.854004,0.0405273,0
49560,0.48291,-0.843262,0.0522461,0
49580,0.462402,-0.853516,0.0180664,0
49600,0.490723,-0.867676,0.00488281,0
49620,0.521484,-0.862793,0.027832,0
49640,0.502441,-0.845215,0.034668,0
49660,0.48291,-0.841309,0.0146484,0
49680,0.501465,-0.84668,0.000976562,0
49700,0.515137,-0.851562,0.019043,0
49720,0.492676,-0.84668,0.0288086,0
49740,0.482422,-0.842285,0.00341797,0
49760,0.5,-0.841797,-0.00732422,0
49780,0.507324,-0.833008,0.00878906,0
49800,0.501953,-0.826172,0.0131836,0
49820,0.494629,-0.827148,-0.00195312,0
49840,0.512207,-0.831055,-0.00878906,0
49860,0.527832,-0.833496,0.00683594,0
49880,0.512695,-0.857422,0.0205078,0
49900,0.504395,-0.839355,0.015625,0
49920,0.53125,-0.821289,-0.0229492,0
49940,0.558594,-0.811035,-0.000976562,0
49960,0.544922,-0.804199,0.0078125,0
49980,0.526855,-0.807617,-0.015625,0
50000,0.546875,-0.813477,-0.0415039,0
50020,0.556152,-0.806641,-0.00634766,0
50040,0.537109,-0.809082,-0.00927734,0
50060,0.530762,-0.827148,-0.0288086,0
50080,0.556152,-0.819824,-0.0317383,0
50100,0.558105,-0.808594,-0.0209961,0
50120,0.544922,-0.799805,-0.019043,0
50140,0.555176,-0.795898,-0.0449219,0
50160,0.589355,-0.803711,-0.0395508,0
50180,0.581543,-0.795898,-0.00927734,0
50200,0.560059,-0.791016,-0.027832,0
50220,0.575195,-0.810547,-0.0410156,0
50240,0.590332,-0.800781,-0.0239258,0
50260,0.567383,-0.787109,-0.0117188,0
50280,0.55957,-0.79248,-0.0209961,0
50300,0.563965,-0.770996,-0.0229492,0
50320,0.576172,-0.767578,-0.015625,0
50340,0.597656,-0.786621,-0.0512695,0
50360,0.624023,-0.791016,-0.0361328,0
50380,0.607422,-0.777344,-0.015625,0
50400,0.579102,-0.781738,-0.0229492,0
50420,0.599121,-0.780762,-0.0283203,0
50440,0.617676,-0.778809,-0.0317383,0
50460,0.603027,-0.769043,-0.00537109,0
50480,0.579102,-0.760254,-0.0351562,0
50500,0.606934,-0.772461,-0.0444336,0
50520,0.635742,-0.776367,-0.0117188,0
50540,0.606445,-0.763672,-0.0185547,0
50560,0.592773,-0.774414,-0.0400391,0
50580,0.629883,-0.776855,-0.0483398,0
50600,0.65625,-0.766113,-0.0112305,0
50610,0.615234,-0.749023,-0.00976562,0
50630,0.59668,-0.750488,-0.0415039,0
50650,0.64502,-0.750977,-0.0566406,0
50670,0.680176,-0.741211,-0.0273438,0
50690,0.649414,-0.748047,-0.019043,0
50710,0.610352,-0.744141,-0.0380859,0
50730,0.643066,-0.737793,-0.0478516,0
50750,0.683594,-0.73877,-0.0410156,0
50770,0.660645,-0.737793,-0.0263672,0
50790,0.625488,-0.737305,-0.0478516,0
50810,0.650879,-0.728516,-0.0600586,0
50830,0.677246,-0.725098,-0.0385742,0
50850,0.663574,-0.723633,-0.0224609,0
50870,0.638184,-0.720703,-0.0385742,0
50890,0.655273,-0.716309,-0.0561523,0
50910,0.678223,-0.712402,-0.0375977,0
50930,0.667969,-0.708984,-0.0214844,0
50950,0.665527,-0.714844,-0.0249023,0
50970,0.679199,-0.715332,-0.0512695,0
50990,0.682129,-0.706543,-0.0410156,0
51010,0.675293,-0.680176,-0.0161133,0
51030,0.673828,-0.67627,-0.0224609,0
51050,0.692383,-0.667969,-0.0356445,0
51070,0.695801,-0.677734,-0.0239258,0
51090,0.694336,-0.693848,-0.03125,0
51110,0.72168,-0.708984,-0.0458984,0
51130,0.733398,-0.687012,-0.0214844,0
51150,0.709473,-0.654297,-0.0107422,0
51170,0.687012,-0.662109,-0.0473633,0
51190,0.711914,-0.67041,-0.0493164,0
51210,0.717285,-0.671875,-0.00683594,0
51230,0.684082,-0.655273,-0.00146484,0
51250,0.669434,-0.638184,-0.0454102,0
51270,0.70166,-0.645508,-0.0654297,0
51290,0.734375,-0.641113,-0.0366211,0
51310,0.71875,-0.652832,-0.00244141,0
51330,0.705078,-0.638184,-0.012207,0
51350,0.730957,-0.636719,-0.0483398,0
51370,0.763672,-0.644531,-0.0258789,0
51390,0.769043,-0.620605,-0.0126953,0
51410,0.752441,-0.615723,-0.0166016,0
51430,0.753906,-0.631348,-0.0507812,0
51450,0.749023,-0.634766,-0.0283203,0
51470,0.756836,-0.624512,-0.00878906,0
51490,0.762695,-0.61377,-0.0131836,0
51510,0.770508,-0.621094,-0.0322266,0
51530,0.76416,-0.61084,-0.0205078,0
51550,0.751465,-0.605957,-0.0117188,0
51570,0.747559,-0.616211,-0.0141602,0
51590,0.76709,-0.61377,-0.0224609,0
51610,0.763672,-0.60791,-0.00683594,0
51630,0.767578,-0.600586,-0.015625,0
51650,0.761719,-0.59668,-0.00976562,0
51670,0.773438,-0.59082,-0.0102539,0
51690,0.779785,-0.598633,0.00195312,0
51710,0.777832,-0.587402,-0.00195312,0
51730,0.78125,-0.589355,-0.00976562,0
51750,0.785156,-0.579102,0.000976562,0
51770,0.783691,-0.578125,0.00390625,0
51790,0.786133,-0.584473,0.00195312,0
51810,0.793457,-0.570312,0.0102539,0
51830,0.779785,-0.557129,0.0219727,0
51850,0.785156,-0.564453,-0.00244141,0
51870,0.79248,-0.569336,-0.00195312,0
51890,0.789551,-0.5625,0.019043,0
51910,0.782715,-0.555176,0.0170898,0
51930,0.797363,-0.547852,0.019043,0
51950,0.800293,-0.545898,0.00341797,0
51970,0.795898,-0.54248,0.0078125,0
51990,0.778809,-0.544434,0.0170898,0
52010,0.808105,-0.534668,0.00927734,0
52030,0.799805,-0.531738,0.0209961,0
52050,0.791016,-0.530273,0.027832,0
52070,0.793945,-0.533691,0.0229492,0
52090,0.800781,-0.527832,0.0185547,0
52110,0.810547,-0.52832,0.0229492,0
52130,0.820801,-0.528809,0.0209961,0
52150,0.822754,-0.516602,0.0415039,0
52170,0.817383,-0.523438,0.0253906,0
52190,0.819824,-0.52002,0.0292969,0
52210,0.822266,-0.514648,0.0415039,0
52230,0.821777,-0.501953,0.0371094,0
52250,0.822754,-0.507812,0.0415039,0
52270,0.827148,-0.505371,0.0390625,0
52290,0.822266,-0.508301,0.0361328,0
52310,0.827148,-0.510254,0.0351562,0
52330,0.827148,-0.512695,0.043457,0
52350,0.82373,-0.497559,0.0439453,0
52370,0.81543,-0.497559,0.0517578,0
52390,0.816406,-0.491699,0.0488281,0
52410,0.821777,-0.50293,0.050293,0
52430,0.833008,-0.509277,0.0473633,0
52450,0.831055,-0.501953,0.0551758,0
52470,0.835938,-0.488281,0.0634766,0
52490,0.837891,-0.477051,0.0625,0
52510,0.839355,-0.487305,0.0722656,0
52530,0.834961,-0.490234,0.074707,0
52550,0.827148,-0.488281,0.0737305,0
52570,0.830566,-0.471191,0.0820312,0
52590,0.831543,-0.463379,0.097168,0
52610,0.82373,-0.467773,0.0878906,0
52630,0.82373,-0.473633,0.0810547,0
52650,0.822266,-0.472168,0.103027,0
52670,0.824219,-0.478027,0.113281,0
52690,0.82959,-0.489258,0.110352,0
52710,0.81543,-0.489746,0.123535,0
52730,0.802734,-0.488281,0.127441,0
52750,0.804199,-0.491699,0.116211,0
52770,0.814941,-0.48291,0.123535,0
52790,0.812988,-0.477539,0.139648,0
52810,0.79248,-0.484863,0.145508,0
52830,0.784668,-0.489746,0.154297,0
52850,0.780273,-0.491211,0.158203,0
52870,0.789551,-0.48877,0.15332,0
52890,0.79834,-0.487793,0.167969,0
52910,0.796875,-0.496582,0.169434,0
52930,0.800781,-0.495117,0.163086,0
52950,0.808105,-0.487305,0.166504,0
52970,0.802246,-0.480469,0.163086,0
52990,0.783691,-0.480957,0.165039,0
53010,0.787109,-0.498535,0.165527,0
53030,0.793945,-0.507812,0.166992,0
53050,0.803711,-0.501953,0.166016,0
53070,0.812988,-0.495117,0.183594,0
53090,0.803223,-0.48877,0.169922,0
53110,0.80127,-0.495117,0.171875,0
53130,0.79541,-0.498047,0.183105,0
53150,0.781738,-0.505859,0.187012,0
53170,0.784668,-0.500488,0.17627,0
53190,0.804199,-0.504395,0.164062,0
53210,0.793945,-0.50293,0.189453,0
53220,0.769043,-0.498047,0.18457,0
53240,0.78418,-0.496094,0.172852,0
53260,0.782715,-0.490723,0.177734,0
53280,0.760254,-0.494141,0.188477,0
53300,0.783203,-0.509766,0.183594,0
53320,0.806641,-0.516602,0.197754,0
53340,0.787598,-0.506348,0.202637,0
53360,0.772949,-0.506836,0.176758,0
53380,0.795898,-0.496094,0.194824,0
53400,0.799316,-0.498047,0.23291,0
53420,0.775879,-0.503418,0.222168,0
53440,0.789062,-0.512695,0.200195,0
53460,0.797363,-0.504395,0.217285,0
53480,0.77832,-0.502441,0.231934,0
53500,0.769043,-0.504395,0.21875,0
53520,0.776367,-0.504883,0.221191,0
53540,0.77832,-0.520996,0.227051,0
53560,0.772949,-0.524414,0.232422,0
53580,0.783203,-0.522461,0.233398,0
53600,0.800781,-0.520996,0.23291,0
53620,0.787598,-0.51709,0.248535,0
53640,0.757324,-0.51123,0.245605,0
53660,0.745605,-0.512695,0.247559,0
53680,0.748535,-0.518066,0.257812,0
53700,0.739746,-0.526367,0.271484,0
53720,0.725098,-0.526367,0.252441,0
53740,0.733887,-0.522949,0.263184,0
53760,0.730469,-0.520996,0.270508,0
53780,0.712402,-0.513184,0.28125,0
53800,0.725098,-0.526367,0.266602,0
53820,0.748047,-0.537598,0.271973,0
53840,0.746094,-0.523926,0.293457,0
53860,0.718262,-0.520996,0.289551,0
53880,0.713379,-0.534668,0.277344,0
53900,0.725098,-0.540527,0.292969,0
53920,0.704102,-0.538086,0.305664,0
53940,0.672363,-0.540527,0.305176,0
53960,0.672363,-0.541992,0.293457,0
53980,0.706055,-0.554199,0.291016,0
54000,0.710449,-0.546875,0.306641,0
54020,0.675293,-0.541992,0.313965,0
54040,0.677246,-0.544434,0.297852,0
54060,0.693848,-0.550781,0.312988,0
54080,0.673828,-0.55957,0.340332,0
54100,0.652832,-0.571777,0.326172,0
54120,0.687012,-0.583008,0.317383,0
54140,0.709473,-0.58252,0.331055,0
54160,0.68457,-0.578125,0.341309,0
54180,0.674805,-0.571777,0.327148,0
54200,0.691406,-0.561035,0.324707,0
54220,0.689941,-0.5625,0.32959,0
54240,0.683105,-0.572754,0.333008,0
54260,0.681641,-0.577637,0.328125,0
54280,0.688965,-0.576172,0.32373,0
54300,0.675293,-0.568848,0.32959,0
54320,0.673828,-0.566895,0.32959,0
54340,0.690918,-0.57373,0.321777,0
54360,0.688965,-0.57373,0.337891,0
54380,0.658203,-0.583496,0.343262,0
54400,0.643066,-0.575684,0.336914,0
54420,0.655273,-0.585938,0.341797,0
54440,0.652344,-0.588867,0.355469,0
54460,0.641602,-0.588867,0.334473,0
54480,0.655273,-0.580566,0.337402,0
54500,0.650879,-0.575195,0.348145,0
54520,0.641113,-0.589844,0.34668,0
54540,0.650391,-0.597656,0.342773,0
54560,0.658691,-0.598633,0.356934,0
54580,0.65332,-0.591797,0.359863,0
54600,0.637207,-0.593262,0.353027,0
54620,0.623535,-0.606445,0.360352,0
54640,0.624023,-0.617676,0.364258,0
54660,0.638672,-0.609863,0.362305,0
54680,0.638672,-0.604492,0.36084,0
54700,0.619629,-0.593262,0.368164,0
54720,0.621094,-0.602051,0.356934,0
54740,0.634277,-0.606934,0.376953,0
54760,0.624512,-0.601074,0.382812,0
54780,0.62793,-0.603027,0.366699,0
54800,0.625977,-0.608887,0.358398,0
54820,0.613281,-0.610352,0.359375,0
54840,0.625,-0.620605,0.380859,0
54860,0.649414,-0.615234,0.376465,0
54880,0.645508,-0.609375,0.383789,0
54900,0.629395,-0.617188,0.366699,0
54920,0.640625,-0.645996,0.364258,0
54940,0.668945,-0.657227,0.379395,0
54960,0.701172,-0.648438,0.391113,0
54980,0.648926,-0.623535,0.412109,0
55000,0.549316,-0.602539,0.387695,0
55020,0.540527,-0.620605,0.370605,0
55040,0.583496,-0.640625,0.402344,0
55060,0.560547,-0.652832,0.423828,0
55080,0.507324,-0.632324,0.400391,0
55100,0.506836,-0.621582,0.38916,0
55120,0.544434,-0.623535,0.388184,0
55140,0.546875,-0.620605,0.398926,0
55160,0.502441,-0.609375,0.408203,0
55180,0.487305,-0.61377,0.38623,0
55200,0.531738,-0.640137,0.397949,0
55220,0.554199,-0.660645,0.422363,0
55240,0.539062,-0.649902,0.412598,0
55260,0.531738,-0.641602,0.405762,0
55280,0.509766,-0.641113,0.399902,0
55300,0.512695,-0.647461,0.394043,0
55320,0.51416,-0.666504,0.404785,0
55340,0.515625,-0.661133,0.399414,0
55360,0.51709,-0.666504,0.431152,0
55380,0.500977,-0.666992,0.433105,0
55400,0.475586,-0.666016,0.40918,0
55420,0.504395,-0.686523,0.39209,0
55440,0.542969,-0.697754,0.410645,0
55460,0.530762,-0.689941,0.431641,0
55480,0.480957,-0.67041,0.431152,0
55500,0.432617,-0.649414,0.417969,0
55520,0.438477,-0.682617,0.410156,0
55540,0.501465,-0.713867,0.410156,0
55560,0.515137,-0.71875,0.405273,0
55580,0.499023,-0.700684,0.400879,0
55600,0.480469,-0.693359,0.409668,0
55620,0.45459,-0.6875,0.422852,0
55640,0.425781,-0.69043,0.433105,0
55660,0.442383,-0.709961,0.410645,0
55680,0.505859,-0.730469,0.407715,0
55700,0.543457,-0.731934,0.39502,0
55720,0.529297,-0.701172,0.401367,0
55740,0.476074,-0.674316,0.400391,0
55760,0.48584,-0.681641,0.378418,0
55780,0.520508,-0.700195,0.402344,0
55800,0.461914,-0.691895,0.410156,0
55820,0.438965,-0.704102,0.365723,0
55830,0.523438,-0.731445,0.368164,0
55850,0.535645,-0.734375,0.395996,0
55870,0.456055,-0.705078,0.382812,0
55890,0.437988,-0.683105,0.34668,0
55910,0.499023,-0.696777,0.356934,0
55930,0.503418,-0.716309,0.374023,0
55950,0.454102,-0.726562,0.367188,0
55970,0.481445,-0.728027,0.345703,0
55990,0.503418,-0.737305,0.366211,0
56010,0.476562,-0.743652,0.356445,0
56030,0.463379,-0.727539,0.355469,0
56050,0.460449,-0.731934,0.340332,0
56070,0.501465,-0.759277,0.337402,0
56090,0.507812,-0.766602,0.356445,0
56110,0.477051,-0.758301,0.346191,0
56130,0.472656,-0.750488,0.334961,0
56150,0.456543,-0.743652,0.345215,0
56170,0.450684,-0.744141,0.342285,0
56190,0.472656,-0.752441,0.329102,0
56210,0.465332,-0.755859,0.334961,0
56230,0.456055,-0.762695,0.314453,0
56250,0.47998,-0.773926,0.318848,0
56270,0.466309,-0.769531,0.313477,0
56290,0.411621,-0.750488,0.296875,0
56310,0.450195,-0.76123,0.293457,0
56330,0.513184,-0.786133,0.337891,0
56350,0.481934,-0.79541,0.371094,0
56370,0.446777,-0.800293,0.351562,0
56390,0.458984,-0.791016,0.327637,0
56410,0.456543,-0.767578,0.32959,0
56430,0.41748,-0.755371,0.339844,0
56450,0.422363,-0.760742,0.330566,0
56470,0.455078,-0.788574,0.333008,0
56490,0.449707,-0.782715,0.352539,0
56510,0.427734,-0.76709,0.333984,0
56530,0.423828,-0.769043,0.296875,0
56550,0.445801,-0.783203,0.281738,0
56570,0.462402,-0.783203,0.287109,0
56590,0.459961,-0.756836,0.289551,0
56610,0.453125,-0.755859,0.29248,0
56630,0.475098,-0.787109,0.29248,0
56650,0.490723,-0.81543,0.315918,0
56670,0.441895,-0.816895,0.333008,0
56690,0.402344,-0.819336,0.289062,0
56710,0.42627,-0.821289,0.268066,0
56730,0.438965,-0.808105,0.276855,0
56750,0.421875,-0.797852,0.270996,0
56770,0.449707,-0.800781,0.254883,0
56790,0.455078,-0.814941,0.281738,0
56810,0.439453,-0.828125,0.277344,0
56830,0.433594,-0.835449,0.28125,0
56850,0.443359,-0.82959,0.271484,0
56870,0.441895,-0.812988,0.275391,0
56890,0.441406,-0.815918,0.277832,0
56910,0.445312,-0.818848,0.279297,0
56930,0.431152,-0.812988,0.27832,0
56950,0.431152,-0.824707,0.249512,0
56970,0.472168,-0.848145,0.234863,0
56990,0.490234,-0.845215,0.253418,0
57010,0.425293,-0.809082,0.274902,0
57030,0.41748,-0.80127,0.263672,0
57050,0.44873,-0.805176,0.256836,0
57070,0.443359,-0.833496,0.259766,0
57090,0.431152,-0.838379,0.252441,0
57110,0.425781,-0.814941,0.25293,0
57130,0.4375,-0.793945,0.243652,0
57150,0.429688,-0.796875,0.243652,0
57170,0.414062,-0.808594,0.247559,0
57190,0.395508,-0.812988,0.246094,0
57210,0.398438,-0.822266,0.24707,0
57230,0.390137,-0.824219,0.237305,0
57250,0.404297,-0.823242,0.219238,0
57270,0.408203,-0.818359,0.224609,0
57290,0.402832,-0.828125,0.250977,0
57310,0.437012,-0.839355,0.257812,0
57330,0.445312,-0.848633,0.253418,0
57350,0.41748,-0.855469,0.251465,0
57370,0.422363,-0.865723,0.251953,0
57390,0.407715,-0.84082,0.24707,0
57410,0.380371,-0.830078,0.212891,0
57430,0.394043,-0.854004,0.222656,0
57450,0.405762,-0.85791,0.243164,0
57470,0.372559,-0.825195,0.257324,0
57490,0.375977,-0.833984,0.219727,0
57510,0.441406,-0.88623,0.237793,0
57530,0.432617,-0.857422,0.264648,0
57550,0.366699,-0.814453,0.218262,0
57570,0.411133,-0.836914,0.179688,0
57590,0.458008,-0.859375,0.220215,0
57610,0.399902,-0.833496,0.237305,0
57630,0.404297,-0.833496,0.191895,0
57650,0.455566,-0.865723,0.191895,0
57670,0.433105,-0.85791,0.190918,0
57690,0.392578,-0.811035,0.210938,0
57710,0.404785,-0.808594,0.198242,0
57730,0.458008,-0.837891,0.20166,0
57750,0.421875,-0.833008,0.217773,0
57770,0.394531,-0.833984,0.198242,0
57790,0.491211,-0.861816,0.187012,0
57810,0.44873,-0.84082,0.231445,0
57830,0.32666,-0.809082,0.208984,0
57850,0.375977,-0.830078,0.158203,0
57870,0.497559,-0.87207,0.200684,0
57890,0.442871,-0.86084,0.207031,0
57910,0.33252,-0.814453,0.17627,0
57930,0.360352,-0.820801,0.148438,0
57950,0.514648,-0.87207,0.159668,0
57970,0.503906,-0.884766,0.213867,0
57990,0.362793,-0.848633,0.202637,0
58010,0.316895,-0.814941,0.149902,0
58030,0.435547,-0.866699,0.157227,0
58050,0.494629,-0.90625,0.210449,0
58070,0.367676,-0.874023,0.196777,0
58090,0.331543,-0.866211,0.119629,0
58110,0.433105,-0.885742,0.154297,0
58130,0.447754,-0.880371,0.189941,0
58150,0.372559,-0.871094,0.165039,0
58170,0.359863,-0.864258,0.141113,0
58190,0.411133,-0.87207,0.147461,0
58210,0.428223,-0.879883,0.168457,0
58230,0.384766,-0.875977,0.147949,0
58250,0.393066,-0.858887,0.123047,0
58270,0.439941,-0.849609,0.13623,0
58290,0.425293,-0.848145,0.15625,0
58310,0.427246,-0.847168,0.151855,0
58330,0.470703,-0.857422,0.137207,0
58350,0.465332,-0.861816,0.144531,0
58370,0.42334,-0.854492,0.141602,0
58390,0.443848,-0.848145,0.122559,0
58410,0.48291,-0.847656,0.125977,0
58430,0.464355,-0.845703,0.144043,0
58440,0.430664,-0.837402,0.11084,0
58460,0.442871,-0.834473,0.0888672,0
58480,0.48291,-0.846191,0.0844727,0
58500,0.475098,-0.834961,0.122559,0
58520,0.452637,-0.84375,0.113281,0
58540,0.484375,-0.838379,0.0727539,0
58560,0.51709,-0.832031,0.0849609,0
58580,0.484375,-0.81543,0.097168,0
58600,0.461914,-0.807617,0.0864258,0
58620,0.495605,-0.817871,0.0712891,0
58640,0.515137,-0.828125,0.0742188,0
58660,0.49707,-0.825684,0.0810547,0
58680,0.506836,-0.819824,0.0610352,0
58700,0.543457,-0.817383,0.0678711,0
58720,0.545898,-0.821777,0.0766602,0
58740,0.528809,-0.82373,0.0717773,0
58760,0.556641,-0.83252,0.0390625,0
58780,0.57959,-0.825684,0.0498047,0
58800,0.54541,-0.817871,0.050293,0
58820,0.536621,-0.801758,0.019043,0
58840,0.552246,-0.797852,0.0126953,0
58860,0.529297,-0.790527,0.0209961,0
58880,0.525879,-0.805664,0.00292969,0
58900,0.566895,-0.816406,0.00537109,0
58920,0.554688,-0.81543,0.0385742,0
58940,0.525879,-0.819336,0.0112305,0
58960,0.549316,-0.818848,0.00390625,0
58980,0.591309,-0.817383,0.019043,0
59000,0.580078,-0.807129,0.0234375,0
59020,0.551758,-0.799805,0.0131836,0
59040,0.564941,-0.79834,-0.00488281,0
59060,0.587891,-0.815918,0.000488281,0
59080,0.564941,-0.8125,0.0253906,0
59100,0.535156,-0.810547,0.0102539,0
59120,0.561523,-0.821289,-0.0126953,0
59140,0.59082,-0.808105,0.00878906,0
59160,0.569824,-0.790527,0.027832,0
59180,0.534668,-0.792969,-0.000488281,0
59200,0.558594,-0.800781,-0.0292969,0
59220,0.581543,-0.796875,0.00585938,0
59240,0.558105,-0.784668,0.0219727,0
59260,0.540527,-0.800781,0.00927734,0
59280,0.575684,-0.84375,-0.0297852,0
59300,0.604492,-0.835449,-0.00146484,0
59320,0.568848,-0.785156,0.015625,0
59340,0.565918,-0.770508,-0.0239258,0
59360,0.60791,-0.773438,-0.0322266,0
59380,0.587891,-0.775879,-0.0170898,0
59400,0.557129,-0.79834,-0.0136719,0
59420,0.583496,-0.805176,-0.0112305,0
59440,0.588867,-0.790527,-0.0117188,0
59460,0.55957,-0.78125,-0.0141602,0
59480,0.568359,-0.79248,-0.03125,0
59500,0.606934,-0.795898,-0.0214844,0
59520,0.599609,-0.789551,-0.0146484,0
59540,0.56543,-0.790039,-0.0292969,0
59560,0.592773,-0.792969,-0.0375977,0
59580,0.604004,-0.796875,-0.0268555,0
59600,0.571777,-0.793457,-0.0117188,0
59620,0.568359,-0.781738,-0.0361328,0
59640,0.60498,-0.778809,-0.0512695,0
59660,0.617676,-0.777832,-0.0273438,0
59680,0.59375,-0.777832,-0.0307617,0
59700,0.577148,-0.780762,-0.0234375,0
59720,0.596191,-0.783203,-0.0400391,0
59740,0.608887,-0.788574,-0.0327148,0
59760,0.598633,-0.782227,-0.0371094,0
59780,0.609863,-0.771973,-0.0341797,0
59800,0.623047,-0.774414,-0.0400391,0
59820,0.621094,-0.78418,-0.0527344,0
59840,0.592285,-0.777344,-0.0371094,0
59860,0.589355,-0.770996,-0.0478516,0
59880,0.62793,-0.773438,-0.0639648,0
59900,0.623535,-0.764648,-0.0424805,0
59920,0.598633,-0.760254,-0.046875,0
59940,0.598145,-0.763184,-0.0566406,0
59960,0.614258,-0.76416,-0.0610352,0
59980,0.605469,-0.753418,-0.0444336,0
60000,0.575684,-0.750977,-0.0297852,0
60020,0.588379,-0.762695,-0.0292969,0
60040,0.643066,-0.75,-0.0756836,0
60060,0.681152,-0.751953,-0.0712891,0
60080,0.665527,-0.742188,-0.0478516,0
60100,0.640137,-0.733398,-0.0600586,0
60120,0.63916,-0.737305,-0.0581055,0
60140,0.643555,-0.746094,-0.0761719,0
60160,0.646973,-0.748047,-0.059082,0
60180,0.631348,-0.742676,-0.0551758,0
60200,0.620605,-0.741699,-0.0566406,0
60220,0.654297,-0.739746,-0.0859375,0
60240,0.659668,-0.719727,-0.0644531,0
60260,0.631348,-0.708008,-0.0507812,0
60280,0.631348,-0.71875,-0.065918,0
60300,0.671387,-0.73584,-0.0859375,0
60320,0.669922,-0.724609,-0.0620117,0
60340,0.638184,-0.70752,-0.0546875,0
60360,0.66748,-0.704102,-0.0830078,0
60380,0.70166,-0.710449,-0.0751953,0
60400,0.678711,-0.712402,-0.0605469,0
60420,0.658203,-0.726562,-0.0732422,0
60440,0.683594,-0.711426,-0.0932617,0
60460,0.698242,-0.703125,-0.0810547,0
60480,0.676758,-0.703125,-0.0678711,0
60500,0.668457,-0.713379,-0.0844727,0
60520,0.685059,-0.712891,-0.101074,0
60540,0.679199,-0.697754,-0.0756836,0
60560,0.673828,-0.680664,-0.0629883,0
60580,0.682617,-0.678223,-0.0957031,0
60600,0.70166,-0.700684,-0.102051,0
60620,0.703125,-0.695312,-0.0795898,0
60640,0.699707,-0.686523,-0.0722656,0
60660,0.689453,-0.683105,-0.0893555,0
60680,0.698242,-0.673828,-0.0922852,0
60700,0.699707,-0.67334,-0.0825195,0
60720,0.70166,-0.67627,-0.081543,0
60740,0.717773,-0.683594,-0.0795898,0
60760,0.717285,-0.67041,-0.0854492,0
60780,0.706543,-0.668457,-0.0805664,0
60800,0.713867,-0.654785,-0.0800781,0
60820,0.714355,-0.655273,-0.09375,0
60840,0.719727,-0.680664,-0.101562,0
60860,0.729004,-0.681641,-0.0805664,0
60880,0.708008,-0.677246,-0.065918,0
60900,0.684082,-0.66748,-0.0898438,0
60920,0.708008,-0.636719,-0.114746,0
60940,0.742188,-0.631348,-0.0859375,0
60960,0.728516,-0.643555,-0.0751953,0
60980,0.717285,-0.676758,-0.101074,0
61000,0.749512,-0.687988,-0.101074,0
61020,0.756348,-0.667969,-0.0527344,0
61040,0.717285,-0.64502,-0.0678711,0
61050,0.727539,-0.629395,-0.105957,0
61070,0.746582,-0.627441,-0.0932617,1001
61090,0.736328,-0.636719,-0.0629883,0
61110,0.731445,-0.640625,-0.09375,0
61130,0.760254,-0.629883,-0.109863,0
61150,0.755371,-0.631836,-0.0703125,0
61170,0.736328,-0.640625,-0.065918,0
61190,0.770996,-0.631348,-0.0932617,0
61210,0.780762,-0.608398,-0.0932617,0
61230,0.769531,-0.600586,-0.0810547,0
61250,0.774414,-0.609375,-0.0820312,0
61270,0.78418,-0.600586,-0.0825195,0
61290,0.768066,-0.597168,-0.0742188,0
61310,0.743164,-0.60498,-0.0913086,0
61330,0.725098,-0.617188,-0.0771484,0
61350,0.70752,-0.610352,-0.0922852,0
61370,0.688965,-0.608398,-0.109863,0
61390,0.660156,-0.613281,-0.118652,0
61410,0.624512,-0.619629,-0.119141,0
61430,0.565918,-0.614746,-0.113281,0
61450,0.532715,-0.601074,-0.130859,0
61470,0.528809,-0.59082,-0.111816,0
61490,0.548828,-0.587891,-0.0551758,0
61510,0.563965,-0.598633,-0.0844727,0
61530,0.533203,-0.604004,-0.0756836,0
61550,0.48584,-0.595703,-0.0800781,0
61570,0.496582,-0.608398,-0.101562,0
61590,0.566895,-0.666992,-0.0717773,0
61610,0.592773,-0.695801,0.00292969,0
61630,0.541992,-0.746094,0.0131836,0
61650,0.603027,-0.854004,-0.0390625,0
61670,0.739258,-0.873535,0.0717773,0
61690,0.744629,-0.87207,0.157715,0
61710,0.606934,-0.87207,0.136719,0
61730,0.556152,-0.875488,0.0478516,0
61750,0.615234,-0.898926,0.0927734,0
61770,0.578613,-0.916992,0.195312,0
61790,0.463867,-0.916992,0.233398,0
61810,0.37793,-0.911133,0.163086,0
61830,0.37793,-0.890137,0.0927734,0
61850,0.458984,-0.873535,0.0991211,0
61870,0.506348,-0.837402,0.19043,0
61890,0.446777,-0.807617,0.182617,0
61910,0.393555,-0.852539,0.101562,0
61930,0.453125,-0.937012,0.0424805,0
61950,0.569824,-0.998047,0.174316,0
61970,0.561523,-0.987793,0.293457,0
61990,0.427246,-0.943359,0.243164,0
62010,0.344238,-0.926758,0.141602,0
62030,0.395996,-0.929199,0.10791,0
62050,0.470215,-0.929199,0.210449,0
62070,0.42334,-0.92334,0.26416,0
62090,0.301758,-0.90625,0.191406,0
62110,0.211426,-0.930176,0.127441,0
62130,0.19873,-0.965332,0.150391,0
62150,0.222656,-0.958984,0.224121,0
62170,0.212402,-0.945312,0.280762,0
62190,0.175293,-0.942871,0.242676,0
62210,0.146973,-0.948242,0.203125,0
62230,0.150879,-0.95459,0.202637,0
62250,0.160645,-0.938477,0.240723,0
62270,0.162109,-0.951172,0.21875,0
62290,0.153809,-0.985352,0.155762,0
62310,0.170898,-0.999023,0.165527,0
62330,0.183105,-0.976562,0.207031,0
62350,0.164062,-0.959961,0.206543,0
62370,0.14209,-0.959961,0.165039,0
62390,0.120117,-0.954102,0.146484,0
62410,0.10498,-0.958496,0.147949,0
62430,0.113281,-0.964844,0.160156,0
62450,0.138672,-0.973633,0.155273,0
62470,0.149414,-0.991211,0.144531,1000
62490,0.17041,-1.00342,0.140625,0
62510,0.180664,-0.987305,0.166504,0
62530,0.17627,-0.995605,0.15918,0
62550,0.159668,-1.00391,0.156738,0
62570,0.14502,-0.96582,0.17627,0
62590,0.126953,-0.966309,0.180176,0
62610,0.121094,-0.972168,0.179199,0
62630,0.128418,-0.959473,0.205078,0
62650,0.143066,-0.947266,0.192383,0
62670,0.138672,-0.94873,0.180664,0
62690,0.109375,-0.937012,0.160156,0
62710,0.109375,-0.953613,0.160156,0
62730,0.123535,-0.953125,0.174316,0
62750,0.144531,-0.941406,0.190918,0
62770,0.14502,-0.935059,0.178711,0
62790,0.139648,-0.936523,0.166504,0
62810,0.149902,-0.951172,0.163574,0
62830,0.171875,-0.955078,0.17041,0
62850,0.166992,-0.95752,0.177734,0
62870,0.149902,-0.955078,0.175293,0
62890,0.151367,-0.952148,0.164551,0
62910,0.155762,-0.94873,0.165527,0
62930,0.153809,-0.937988,0.195801,0
62950,0.143555,-0.935059,0.21875,0
62970,0.129883,-0.94873,0.196289,0
62990,0.138184,-0.952637,0.176758,0
63010,0.158691,-0.946777,0.183594,0
63030,0.149902,-0.937988,0.203613,0
63050,0.147949,-0.944824,0.206543,0
63070,0.152832,-0.947754,0.198242,0
63090,0.151855,-0.944824,0.199219,0
63110,0.147461,-0.939453,0.189453,0
63130,0.147461,-0.938965,0.19043,0
63150,0.149414,-0.970215,0.177734,0
63170,0.158691,-0.96875,0.192871,0
63190,0.174316,-0.960449,0.206543,0
63210,0.165039,-0.973145,0.19043,0
63230,0.157227,-0.967285,0.177246,0
63250,0.17627,-0.948242,0.195801,0
63270,0.200195,-0.948242,0.201172,0
63290,0.20166,-0.95166,0.188477,0
63310,0.181152,-0.950195,0.186035,0
63330,0.191895,-0.954102,0.172852,0
63350,0.206055,-0.957031,0.174316,0
63370,0.206543,-0.945312,0.180664,0
63390,0.197266,-0.939453,0.166992,0
63410,0.210449,-0.938965,0.143066,0
63430,0.235352,-0.945312,0.158203,0
63450,0.229492,-0.946289,0.169922,0
63470,0.217285,-0.94043,0.168457,0
63490,0.223633,-0.938477,0.15625,0
63510,0.224121,-0.935059,0.161133,0
63530,0.208496,-0.929199,0.174805,0
63550,0.203613,-0.933105,0.172363,0
63570,0.224121,-0.932129,0.154297,0
63590,0.250977,-0.915527,0.144043,0
63610,0.26123,-0.907227,0.138672,0
63630,0.252441,-0.906738,0.13623,0
63650,0.249023,-0.89209,0.143066,0
63660,0.276855,-0.871582,0.154785,0
63680,0.296387,-0.909668,0.14209,0
63700,0.335938,-0.955078,0.100098,0
63720,0.376465,-0.918945,0.102539,0
63740,0.394531,-0.871094,0.112305,0
63760,0.387695,-0.844238,0.0986328,0
63780,0.389648,-0.836914,0.100586,0
63800,0.408203,-0.847656,0.0908203,0
63820,0.416016,-0.878906,0.081543,0
63840,0.42627,-0.879883,0.090332,0
63860,0.4375,-0.86377,0.0869141,0
63880,0.468262,-0.870605,0.0922852,0
63900,0.478027,-0.845703,0.10498,0
63920,0.453613,-0.814453,0.117676,0
63940,0.470703,-0.807129,0.10498,0
63960,0.503418,-0.844238,0.0947266,0
63980,0.509766,-0.822266,0.107422,0
64000,0.522949,-0.776367,0.0844727,0
64020,0.575684,-0.770996,0.0625,0
64040,0.606934,-0.773926,0.0600586,0
64060,0.630859,-0.760742,0.0439453,0
64080,0.654297,-0.751953,0.043457,0
64100,0.661621,-0.743652,0.0668945,0
64120,0.681641,-0.728516,0.0805664,0
64140,0.690918,-0.724609,0.115723,0
64160,0.700195,-0.722168,0.138672,0
64180,0.697754,-0.710449,0.146973,0
64200,0.711426,-0.688965,0.13916,0
64220,0.726562,-0.67334,0.156738,0
64240,0.696289,-0.6875,0.170898,0
64260,0.682129,-0.6875,0.160645,0
64280,0.648438,-0.685547,0.156738,0
64300,0.609375,-0.674316,0.195801,0
64320,0.606934,-0.670898,0.209961,0
64340,0.609375,-0.699219,0.226562,0
64360,0.598633,-0.734863,0.230957,0
64380,0.578125,-0.719727,0.255371,0
64400,0.552246,-0.674316,0.265625,0
64420,0.535156,-0.682617,0.277344,0
64440,0.562012,-0.710938,0.277344,0
64460,0.584473,-0.716797,0.274902,0
64480,0.584473,-0.710938,0.299316,0
64500,0.563477,-0.722168,0.296387,0
64520,0.556641,-0.743652,0.318359,0
64540,0.53418,-0.742188,0.314453,0
64560,0.515137,-0.717773,0.317383,0
64580,0.509766,-0.710938,0.321289,0
64600,0.529297,-0.739746,0.350098,0
64620,0.523926,-0.770996,0.32666,0
64640,0.507324,-0.758301,0.321777,0
64660,0.500977,-0.749512,0.321289,0
