Timestamp, Acceleration x, Acceleration y, Acceleration z, Marker
20,0.387207,-0.513672,0.665039,0
50,0.391602,-0.521973,0.670898,0
70,0.390137,-0.521973,0.655273,0
90,0.393555,-0.519531,0.65625,0
110,0.389648,-0.525391,0.662109,0
130,0.393066,-0.521973,0.662109,0
150,0.391113,-0.524902,0.669434,0
170,0.387695,-0.526367,0.661621,0
190,0.388184,-0.517578,0.665527,0
210,0.383789,-0.524902,0.658203,0
230,0.387207,-0.516602,0.664062,0
230,0.388672,-0.51709,0.665039,0
270,0.388184,-0.522949,0.664062,0
290,0.395996,-0.51416,0.665527,0
310,0.38623,-0.521973,0.672852,0
330,0.38916,-0.522949,0.659668,0
350,0.390137,-0.523926,0.663086,0
370,0.38916,-0.518555,0.664062,0
390,0.390137,-0.52002,0.664062,0
410,0.38623,-0.518555,0.664062,0
430,0.390625,-0.519043,0.660156,0
450,0.388184,-0.516602,0.657715,0
470,0.38916,-0.524414,0.662598,0
490,0.388184,-0.519531,0.667969,0
510,0.39209,-0.51709,0.66748,0
530,0.387207,-0.521973,0.666504,0
540,0.388184,-0.51709,0.662109,0
560,0.386719,-0.512695,0.665039,0
580,0.388672,-0.520996,0.667969,0
600,0.384766,-0.517578,0.663086,0
620,0.384277,-0.524414,0.65625,0
640,0.390625,-0.527344,0.660645,0
660,0.387695,-0.518066,0.662598,0
680,0.38916,-0.520996,0.663574,0
700,0.390625,-0.516113,0.666504,0
720,0.390625,-0.522949,0.669922,0
740,0.391602,-0.520508,0.666016,0
760,0.387695,-0.515625,0.658203,0
780,0.390137,-0.526367,0.661621,0
800,0.391113,-0.516602,0.665527,0
820,0.391602,-0.514648,0.663086,0
840,0.389648,-0.522949,0.662109,0
860,0.391113,-0.51709,0.665039,0
880,0.388184,-0.519043,0.670898,0
900,0.389648,-0.518555,0.671387,0
920,0.395508,-0.512695,0.663574,0
940,0.387207,-0.515625,0.65625,0
960,0.390137,-0.516602,0.655273,0
980,0.39209,-0.513184,0.663086,0
1000,0.393066,-0.512695,0.664062,0
1020,0.385742,-0.516113,0.663574,0
1040,0.389648,-0.515137,0.665039,0
1060,0.39502,-0.519531,0.660645,0
1080,0.397461,-0.51123,0.667969,0
1100,0.391602,-0.51416,0.664062,0
1120,0.393555,-0.515137,0.674316,0
1140,0.392578,-0.521484,0.67334,0
1160,0.398926,-0.515137,0.667969,0
1180,0.388184,-0.517578,0.663086,0
1200,0.383301,-0.516602,0.667969,0
1220,0.387207,-0.509766,0.661133,0
1240,0.385254,-0.513184,0.657227,0
1260,0.388184,-0.51416,0.663086,0
1280,0.392578,-0.51416,0.666016,0
1300,0.390137,-0.520508,0.668945,0
1320,0.389648,-0.521484,0.665039,0
1340,0.388672,-0.516602,0.667969,0
1360,0.394043,-0.521484,0.661621,0
1380,0.38916,-0.515625,0.657715,0
1400,0.394043,-0.517578,0.662598,0
1420,0.391113,-0.519531,0.665527,0
1440,0.390625,-0.516602,0.664062,0
1460,0.397461,-0.515137,0.662598,0
1480,0.396484,-0.521484,0.65918,0
1500,0.391602,-0.515625,0.66748,0
1520,0.392578,-0.521484,0.666016,0
1540,0.38916,-0.517578,0.660156,0
1560,0.393555,-0.519531,0.657227,0
1580,0.392578,-0.522461,0.655762,0
1600,0.388672,-0.513184,0.665039,0
1620,0.385742,-0.516602,0.661621,0
1640,0.387695,-0.519531,0.663086,0
1660,0.39209,-0.51709,0.663086,0
1680,0.393555,-0.520996,0.663086,0
1700,0.39209,-0.518066,0.662109,0
1720,0.38916,-0.516113,0.661621,0
1740,0.390137,-0.519531,0.663574,0
1760,0.390137,-0.516113,0.661621,0
1780,0.394043,-0.51709,0.666016,0
1800,0.391113,-0.522949,0.666016,0
1820,0.385742,-0.516113,0.659668,0
1840,0.387695,-0.527832,0.660645,0
1860,0.390137,-0.520508,0.660156,0
1880,0.392578,-0.520508,0.662109,0
1900,0.390625,-0.523926,0.661621,0
1920,0.390137,-0.516113,0.65918,0
1940,0.387207,-0.523926,0.661621,0
1960,0.390625,-0.522949,0.663086,0
1980,0.395996,-0.524414,0.663574,0
2000,0.394531,-0.525391,0.658203,0
2020,0.390625,-0.517578,0.65918,0
2040,0.390625,-0.519531,0.662109,0
2060,0.388672,-0.520996,0.666016,0
2080,0.385254,-0.51709,0.662109,0
2100,0.386719,-0.527344,0.665527,0
2120,0.385742,-0.516602,0.666504,0
2140,0.39209,-0.517578,0.664551,0
2160,0.388184,-0.522949,0.669922,0
2180,0.389648,-0.51709,0.665527,0
2200,0.387695,-0.520508,0.658691,0
2220,0.39209,-0.525391,0.664551,0
2240,0.389648,-0.522461,0.664062,0
2260,0.392578,-0.524414,0.663086,0
2280,0.384766,-0.518555,0.665527,0
2300,0.389648,-0.51709,0.663086,0
2320,0.389648,-0.524414,0.663086,0
2340,0.387695,-0.520996,0.662109,0
2360,0.388184,-0.523438,0.66748,0
2380,0.386719,-0.525879,0.666504,0
2400,0.391113,-0.524414,0.664551,0
2420,0.390137,-0.527344,0.664062,0
2440,0.389648,-0.522461,0.665527,0
2460,0.392578,-0.520508,0.666016,0
2480,0.38623,-0.524414,0.662598,0
2500,0.392578,-0.519531,0.664062,0
2520,0.386719,-0.525391,0.661133,0
2530,0.390137,-0.527344,0.655762,0
2550,0.392578,-0.519043,0.658203,0
2570,0.389648,-0.521484,0.662598,0
2590,0.392578,-0.514648,0.669434,0
2610,0.393066,-0.519531,0.658203,0
2630,0.390625,-0.51416,0.663574,0
2650,0.390137,-0.52002,0.663574,0
2670,0.391602,-0.523926,0.656738,0
2690,0.387695,-0.520508,0.663574,0
2710,0.393066,-0.523926,0.658691,0
2730,0.391113,-0.523438,0.654785,0
2750,0.387207,-0.519531,0.65918,0
2770,0.387695,-0.522949,0.649414,0
2790,0.390625,-0.525391,0.659668,0
2810,0.393066,-0.519043,0.67041,0
2830,0.383789,-0.525879,0.668945,0
2850,0.379883,-0.526367,0.666992,0
2870,0.39209,-0.522461,0.670898,0
2890,0.387207,-0.536621,0.663086,0
2910,0.389648,-0.522949,0.660645,0
2930,0.38916,-0.522949,0.651855,0
2950,0.388672,-0.524902,0.65625,0
2970,0.394531,-0.525391,0.666992,0
2990,0.381836,-0.528809,0.660156,0
3010,0.383789,-0.526855,0.655273,0
3030,0.393555,-0.523926,0.656738,0
3050,0.395996,-0.528809,0.658203,0
3070,0.39502,-0.52002,0.673828,0
3090,0.391602,-0.522461,0.674316,0
3110,0.391113,-0.53418,0.669922,0
3130,0.396484,-0.533691,0.658691,0
3150,0.389648,-0.527832,0.640625,0
3170,0.39502,-0.515137,0.654785,0
3190,0.375,-0.509277,0.671387,0
3210,0.367188,-0.519531,0.685547,0
3230,0.359375,-0.515625,0.683105,0
3250,0.370117,-0.516602,0.679199,0
3270,0.381348,-0.523926,0.666504,0
3290,0.38623,-0.519043,0.661133,0
3310,0.390137,-0.512695,0.665039,0
3330,0.393066,-0.515625,0.664062,0
3350,0.401367,-0.512695,0.660156,0
3370,0.39502,-0.515625,0.661621,0
3390,0.396484,-0.516602,0.651855,0
3410,0.400391,-0.522461,0.644043,0
3430,0.398438,-0.525391,0.648926,0
3450,0.394531,-0.518555,0.660645,0
3470,0.382812,-0.521484,0.665527,0
3490,0.37793,-0.523926,0.670898,0
3510,0.367188,-0.532227,0.67041,0
3530,0.364258,-0.537598,0.674805,0
3550,0.361816,-0.533691,0.679199,0
3570,0.356934,-0.537109,0.666992,0
3590,0.361328,-0.538574,0.669922,0
3610,0.370117,-0.532227,0.668457,0
3630,0.370605,-0.537598,0.66748,0
3650,0.364746,-0.529297,0.675781,0
3670,0.366211,-0.526367,0.672363,0
3690,0.366699,-0.522949,0.669434,0
3710,0.369629,-0.515625,0.682129,0
3730,0.366211,-0.526855,0.673828,0
3750,0.354492,-0.535156,0.679688,0
3770,0.356934,-0.530273,0.681641,0
3790,0.358887,-0.530273,0.673828,0
3810,0.358887,-0.525879,0.667969,0
3830,0.361816,-0.521484,0.674805,0
3850,0.366699,-0.521484,0.678711,0
3870,0.364258,-0.518066,0.669434,0
3890,0.369141,-0.523926,0.669922,0
3910,0.368652,-0.522461,0.666992,0
3930,0.372559,-0.522949,0.668457,0
3950,0.375,-0.532715,0.675293,0
3970,0.373047,-0.53418,0.673828,0
3990,0.374512,-0.529785,0.667969,0
4010,0.372559,-0.533203,0.659668,0
4030,0.37793,-0.528809,0.660645,0
4050,0.372559,-0.529297,0.661133,0
4070,0.370605,-0.528809,0.666016,0
4090,0.369141,-0.529297,0.666992,0
4110,0.364746,-0.536133,0.670898,0
4130,0.370117,-0.53125,0.660156,0
4150,0.363281,-0.532715,0.666016,0
4170,0.365234,-0.532715,0.671875,0
4190,0.370117,-0.529785,0.668457,0
4210,0.370117,-0.532227,0.671875,0
4230,0.371582,-0.530273,0.67334,0
4250,0.373047,-0.52832,0.66748,0
4270,0.369629,-0.530273,0.667969,0
4290,0.374023,-0.52002,0.668945,0
4310,0.368652,-0.527832,0.678223,0
4330,0.362793,-0.532227,0.671387,0
4350,0.365234,-0.529297,0.667969,0
4370,0.366211,-0.530273,0.67041,0
4390,0.36084,-0.532715,0.670898,0
4410,0.365723,-0.53418,0.667969,0
4430,0.366211,-0.535645,0.671387,0
4450,0.369629,-0.532715,0.664062,0
4470,0.366211,-0.533203,0.668457,0
4490,0.364258,-0.53418,0.669434,0
4510,0.365234,-0.532227,0.673828,0
4530,0.367676,-0.536621,0.667969,0
4550,0.364746,-0.528809,0.65918,0
4570,0.366211,-0.532715,0.665527,0
4590,0.364746,-0.540527,0.662109,0
4610,0.370117,-0.535645,0.670898,0
4630,0.363281,-0.534668,0.661133,0
4650,0.362793,-0.530762,0.664062,0
4670,0.361816,-0.53418,0.662598,0
4690,0.363281,-0.542969,0.665527,0
4710,0.366699,-0.534668,0.668457,0
4730,0.366211,-0.541016,0.66748,0
4750,0.35498,-0.537598,0.675781,0
4770,0.362793,-0.540039,0.661133,0
4790,0.362305,-0.541504,0.666504,0
4810,0.365234,-0.539551,0.666016,0
4830,0.36084,-0.536133,0.663574,0
4850,0.361328,-0.540039,0.66748,0
4870,0.364746,-0.536621,0.663574,0
4890,0.369629,-0.533203,0.67041,0
4910,0.359375,-0.529785,0.67334,0
4930,0.36377,-0.530762,0.666504,0
4950,0.357422,-0.537109,0.668945,0
4970,0.357422,-0.534668,0.668945,0
4990,0.363281,-0.536621,0.664062,0
5010,0.359863,-0.536133,0.670898,0
5030,0.362793,-0.532715,0.667969,0
5050,0.361816,-0.537109,0.672852,0
5070,0.364746,-0.538574,0.667969,0
5090,0.365723,-0.535156,0.666504,0
5110,0.359863,-0.540039,0.674805,0
5130,0.36377,-0.533691,0.669922,0
5150,0.36377,-0.535645,0.663574,0
5170,0.369141,-0.535156,0.664062,0
5190,0.368652,-0.536621,0.655273,0
5210,0.371582,-0.539062,0.658691,0
5230,0.375977,-0.537598,0.657715,0
5250,0.378418,-0.533203,0.661133,0
5270,0.371582,-0.529785,0.658203,0
5290,0.375,-0.526367,0.661133,0
5310,0.37793,-0.524902,0.663086,0
5330,0.377441,-0.528809,0.669922,0
5350,0.373535,-0.518555,0.666992,0
5370,0.367676,-0.52832,0.672363,0
5390,0.366211,-0.533691,0.667969,0
5410,0.368164,-0.529785,0.671387,0
5430,0.372559,-0.532227,0.670898,0
5450,0.370605,-0.530273,0.674805,0
5470,0.369141,-0.526367,0.666016,0
5490,0.367188,-0.532227,0.66748,0
5510,0.370117,-0.524902,0.663086,0
5530,0.371094,-0.529785,0.669434,0
5550,0.367676,-0.527344,0.673828,0
5570,0.370117,-0.527832,0.671387,0
5590,0.368652,-0.532715,0.667969,0
5610,0.370117,-0.521973,0.664062,0
5630,0.37207,-0.530273,0.67041,0
5650,0.373047,-0.523926,0.676758,0
5670,0.369629,-0.524414,0.671875,0
5690,0.365723,-0.527832,0.67041,0
5710,0.367188,-0.529297,0.667969,0
5730,0.372559,-0.525391,0.663086,0
5750,0.370605,-0.529297,0.668945,0
5770,0.369141,-0.52002,0.666016,0
5790,0.369141,-0.531738,0.668945,0
5810,0.370605,-0.526855,0.663574,0
5830,0.373535,-0.518066,0.666992,0
5850,0.375488,-0.52832,0.661621,0
5870,0.376465,-0.527344,0.666016,0
5890,0.374512,-0.52832,0.668457,0
5910,0.37207,-0.53125,0.673828,0
5930,0.371582,-0.523926,0.666992,0
5950,0.369629,-0.529785,0.666504,0
5970,0.370117,-0.530762,0.672363,0
5990,0.367676,-0.527344,0.671387,0
6000,0.367676,-0.532715,0.666504,0
6030,0.370605,-0.532227,0.660645,0
6050,0.368164,-0.52832,0.672363,0
6070,0.370605,-0.521973,0.666016,0
6090,0.365723,-0.536133,0.666992,0
6110,0.364746,-0.535156,0.671875,0
6130,0.367676,-0.532715,0.67627,0
6150,0.362793,-0.542969,0.666504,0
6170,0.366699,-0.530273,0.67041,0
6190,0.363281,-0.53125,0.666016,0
6210,0.370117,-0.531738,0.66748,0
6230,0.368652,-0.524414,0.666016,0
6250,0.370117,-0.53418,0.666504,0
6270,0.369141,-0.531738,0.664551,0
6290,0.370117,-0.527344,0.664062,0
6310,0.370605,-0.53125,0.663086,0
6330,0.373047,-0.531738,0.669922,0
6350,0.369141,-0.535645,0.66748,0
6370,0.373047,-0.534668,0.668945,0
6390,0.373047,-0.530273,0.67041,0
6410,0.366211,-0.531738,0.666016,0
6430,0.370605,-0.526855,0.664551,0
6450,0.36377,-0.535156,0.663086,0
6470,0.372559,-0.537598,0.669434,0
6490,0.369141,-0.529785,0.665039,0
6510,0.373047,-0.536133,0.669434,0
6530,0.373047,-0.537109,0.669434,0
6550,0.373047,-0.526367,0.666992,0
6570,0.371094,-0.533691,0.666504,0
6590,0.379883,-0.529297,0.667969,0
6610,0.370117,-0.533203,0.663086,0
6630,0.372559,-0.532227,0.668945,0
6650,0.369629,-0.531738,0.668457,0
6670,0.374023,-0.533691,0.666016,0
6690,0.371094,-0.537598,0.67041,0
6710,0.37207,-0.536133,0.668457,0
6730,0.371582,-0.534668,0.665527,0
6750,0.372559,-0.529785,0.663574,0
6770,0.372559,-0.532227,0.663086,0
6790,0.375,-0.532227,0.660645,0
6810,0.37793,-0.529297,0.661133,0
6830,0.382812,-0.533203,0.658691,0
6850,0.37207,-0.535645,0.668457,0
6870,0.374023,-0.528809,0.655273,0
6890,0.37793,-0.528809,0.662598,0
6910,0.376953,-0.53418,0.662109,0
6930,0.376465,-0.536621,0.664551,0
6950,0.379395,-0.539062,0.669434,0
6970,0.375488,-0.535156,0.655273,0
6990,0.380371,-0.536621,0.65332,0
7010,0.381348,-0.526855,0.660645,0
7030,0.384766,-0.53125,0.666992,0
7050,0.37793,-0.536621,0.663574,0
7070,0.386719,-0.529785,0.649414,0
7090,0.397461,-0.527344,0.658203,0
7110,0.394043,-0.521973,0.647461,0
7130,0.400879,-0.527832,0.654297,0
7150,0.400879,-0.528809,0.657715,0
7170,0.40625,-0.518066,0.653809,0
7190,0.403809,-0.527344,0.644531,0
7210,0.401855,-0.528809,0.655273,0
7230,0.398438,-0.530762,0.653809,0
7250,0.402344,-0.526855,0.648926,0
7270,0.402344,-0.52832,0.647461,0
7290,0.398438,-0.526855,0.646484,0
7310,0.387695,-0.526367,0.654297,0
7330,0.396484,-0.524902,0.645996,0
7350,0.399902,-0.526855,0.650879,0
7370,0.396973,-0.532227,0.653809,0
7390,0.396973,-0.530273,0.650879,0
7410,0.391602,-0.525391,0.657227,0
7430,0.400879,-0.524902,0.658203,0
7450,0.395508,-0.525879,0.660645,0
7470,0.399902,-0.530762,0.660645,0
7500,0.397461,-0.532227,0.652832,0
7510,0.401855,-0.52832,0.649414,0
7530,0.394531,-0.524414,0.644531,0
7550,0.397461,-0.522461,0.645508,0
7570,0.401367,-0.526855,0.652344,0
7590,0.398926,-0.525391,0.647949,0
7610,0.39502,-0.528809,0.650391,0
7630,0.398926,-0.532227,0.657227,0
7660,0.395508,-0.53418,0.651855,0
7680,0.39502,-0.539551,0.65332,0
7700,0.398926,-0.533691,0.650391,0
7720,0.397461,-0.526367,0.654785,0
7740,0.39209,-0.523926,0.65625,0
7770,0.392578,-0.525391,0.65332,0
7790,0.387695,-0.526367,0.656738,0
7810,0.387207,-0.525391,0.664062,0
7830,0.390137,-0.52832,0.657715,0
7850,0.384277,-0.529297,0.664551,0
7870,0.388184,-0.531738,0.661133,0
7890,0.388672,-0.527832,0.656738,0
7910,0.389648,-0.529785,0.657227,0
7930,0.390137,-0.525391,0.659668,0
7940,0.382812,-0.534668,0.660645,0
7960,0.382812,-0.526367,0.662598,0
7980,0.387695,-0.521484,0.668457,0
8000,0.383789,-0.53125,0.666016,0
8020,0.392578,-0.524902,0.656738,0
8040,0.392578,-0.523438,0.652832,0
8060,0.392578,-0.522461,0.65332,0
8080,0.390625,-0.519043,0.655273,0
8100,0.392578,-0.527344,0.658203,0
8120,0.391113,-0.526367,0.664551,0
8140,0.38916,-0.520508,0.666992,0
8160,0.387695,-0.529297,0.658691,0
8180,0.391602,-0.52002,0.657715,0
8200,0.393555,-0.529785,0.65625,0
8220,0.388672,-0.525391,0.651855,0
8250,0.38916,-0.521973,0.658691,0
8290,0.383301,-0.526855,0.663086,0
8310,0.382812,-0.529785,0.672852,0
8330,0.380371,-0.525879,0.660156,0
8350,0.386719,-0.527344,0.661621,0
8370,0.388184,-0.527832,0.665527,0
8390,0.38623,-0.524902,0.659668,0
8420,0.385742,-0.530762,0.663086,0
8440,0.381348,-0.527832,0.662109,0
8460,0.379883,-0.533203,0.664551,0
8480,0.378418,-0.532715,0.661621,0
8500,0.384766,-0.532715,0.659668,0
8520,0.387207,-0.530762,0.656738,0
8540,0.39209,-0.520996,0.651367,0
8560,0.391602,-0.528809,0.659668,0
8580,0.385254,-0.522461,0.658203,0
8600,0.385742,-0.524414,0.662598,0
8620,0.385254,-0.529297,0.656738,0
8640,0.385254,-0.529297,0.663086,0
8660,0.380859,-0.53125,0.660645,0
8680,0.387207,-0.53125,0.657715,0
8700,0.381348,-0.53125,0.661133,0
8720,0.384277,-0.533691,0.657227,0
8740,0.383789,-0.530273,0.658691,0
8760,0.387207,-0.527832,0.661621,0
8780,0.384277,-0.52832,0.656738,0
8800,0.380859,-0.527832,0.658691,0
8820,0.383301,-0.530273,0.661621,0
8850,0.384766,-0.530273,0.656738,0
8870,0.385254,-0.53125,0.658203,0
8890,0.385254,-0.529785,0.657227,0
8910,0.388184,-0.532227,0.660645,0
8930,0.382324,-0.526367,0.658203,0
8950,0.380371,-0.525879,0.66748,0
8970,0.382324,-0.535645,0.655273,0
8990,0.384277,-0.529297,0.664062,0
9010,0.390625,-0.530273,0.659668,0
9030,0.390137,-0.531738,0.662109,0
9050,0.385254,-0.52832,0.658203,0
9070,0.382324,-0.535156,0.65918,0
9090,0.378906,-0.530273,0.663086,0
9110,0.381348,-0.531738,0.663574,0
9130,0.379395,-0.529785,0.658203,0
9150,0.380371,-0.52832,0.660645,0
9170,0.385254,-0.532227,0.659668,0
9190,0.38623,-0.531738,0.662109,0
9210,0.382324,-0.525879,0.658691,0
9230,0.385742,-0.530762,0.662598,0
9250,0.382812,-0.525879,0.65625,0
9270,0.386719,-0.526367,0.657715,0
9290,0.383301,-0.530762,0.662109,0
9310,0.383301,-0.529785,0.65918,0
9330,0.383301,-0.532227,0.65918,0
9350,0.386719,-0.53125,0.663086,0
9370,0.387695,-0.533203,0.657227,0
9390,0.382324,-0.530273,0.658691,0
9410,0.381836,-0.530273,0.661133,0
9430,0.386719,-0.530273,0.657715,0
9450,0.380859,-0.531738,0.661133,0
9470,0.382812,-0.525879,0.663574,0
9490,0.382324,-0.528809,0.663086,0
9510,0.382812,-0.52832,0.656738,0
9530,0.383789,-0.524902,0.660645,0
9550,0.386719,-0.532227,0.657715,0
9570,0.38916,-0.53125,0.665039,0
9590,0.388672,-0.532227,0.661621,0
9610,0.379395,-0.534668,0.657715,0
9630,0.380859,-0.527832,0.654297,0
9650,0.378418,-0.529297,0.660645,0
9670,0.383789,-0.529785,0.664551,0
9690,0.378906,-0.530762,0.663086,0
9710,0.381836,-0.536133,0.664062,0
9730,0.380371,-0.525879,0.667969,0
9750,0.382812,-0.53418,0.657227,0
9770,0.380371,-0.53418,0.661133,0
9790,0.389648,-0.52832,0.653809,0
9810,0.383789,-0.529785,0.658691,0
9830,0.380859,-0.529785,0.65918,0
9850,0.382324,-0.524902,0.657715,0
9870,0.384277,-0.529297,0.664551,0
9890,0.385742,-0.521484,0.659668,0
9910,0.384766,-0.524902,0.654785,0
9930,0.379395,-0.527832,0.659668,0
9950,0.388672,-0.532715,0.660645,0
9970,0.381348,-0.530762,0.662109,0
9990,0.383301,-0.535156,0.660156,0
10010,0.379883,-0.52832,0.666016,0
10030,0.375,-0.529297,0.668457,0
10050,0.378418,-0.530273,0.666992,0
10070,0.381348,-0.525391,0.665039,0
10090,0.388672,-0.531738,0.65918,0
10110,0.385254,-0.520508,0.660156,0
10130,0.384277,-0.527832,0.662598,0
10150,0.380371,-0.527344,0.655273,0
10170,0.388184,-0.521973,0.665039,0
10190,0.378418,-0.525391,0.66748,0
10210,0.38623,-0.521484,0.663574,0
10230,0.379395,-0.527344,0.665039,0
10250,0.379395,-0.526367,0.668457,0
10270,0.384277,-0.526367,0.665527,0
10290,0.380859,-0.528809,0.661133,0
10310,0.383301,-0.526855,0.661133,0
10330,0.380859,-0.527832,0.661621,0
10350,0.378906,-0.524902,0.65918,0
10370,0.383789,-0.526855,0.664551,0
10390,0.381348,-0.529297,0.664062,0
10410,0.380371,-0.527832,0.658691,0
10430,0.380859,-0.524902,0.668945,0
10450,0.379883,-0.530273,0.662109,0
10470,0.378418,-0.523926,0.666504,0
10490,0.380371,-0.525391,0.664062,0
10510,0.376953,-0.526367,0.662109,0
10530,0.378418,-0.524414,0.660645,0
10550,0.380371,-0.531738,0.664551,0
10570,0.378418,-0.529297,0.661621,0
10590,0.385254,-0.521973,0.663086,0
10610,0.377441,-0.526855,0.667969,0
10630,0.379883,-0.525879,0.658691,0
10650,0.382324,-0.525391,0.666504,0
10670,0.381836,-0.523438,0.661621,0
10690,0.375488,-0.522461,0.664551,0
10710,0.375,-0.531738,0.666016,0
10730,0.384277,-0.526367,0.666992,0
10750,0.381836,-0.528809,0.664551,0
10770,0.382812,-0.523438,0.664062,0
10790,0.380859,-0.532715,0.663574,0
10810,0.376465,-0.526855,0.662109,0
10830,0.379395,-0.519531,0.663574,0
10850,0.381348,-0.525879,0.663086,0
10870,0.385742,-0.524414,0.663574,0
10890,0.381836,-0.522461,0.666504,0
10910,0.381836,-0.527832,0.67041,0
10930,0.380371,-0.523438,0.665039,0
10950,0.380859,-0.524902,0.662109,0
10970,0.380371,-0.532227,0.664551,0
10990,0.381348,-0.52832,0.665039,0
11010,0.381836,-0.525879,0.663574,0
11030,0.381348,-0.52002,0.657227,0
11050,0.378418,-0.529297,0.663086,0
11070,0.379883,-0.529785,0.658203,0
11090,0.383301,-0.524902,0.664062,0
11110,0.382324,-0.527832,0.662598,0
11130,0.380859,-0.528809,0.660156,0
11150,0.381348,-0.523438,0.658691,0
11170,0.383789,-0.530273,0.664551,0
11190,0.378418,-0.525879,0.668457,0
11210,0.375,-0.53125,0.669434,0
11230,0.370605,-0.531738,0.668945,0
11250,0.379883,-0.527344,0.669434,0
11270,0.377441,-0.525879,0.659668,0
11290,0.382324,-0.525391,0.652344,0
11310,0.383301,-0.530273,0.665527,0
11320,0.375977,-0.535645,0.669922,0
11330,0.377441,-0.530273,0.665527,0
11350,0.377441,-0.53418,0.658691,0
11370,0.376953,-0.526855,0.663574,0
11390,0.386719,-0.525391,0.667969,0
11410,0.381836,-0.534668,0.663574,0
11430,0.379883,-0.530762,0.666016,0
11450,0.380859,-0.533203,0.664551,0
11470,0.37793,-0.531738,0.67334,0
11490,0.376953,-0.524414,0.664551,0
11510,0.376953,-0.532715,0.669922,0
11530,0.378418,-0.537109,0.657715,0
11550,0.379395,-0.527344,0.663086,0
11570,0.376465,-0.531738,0.658203,0
11590,0.380371,-0.529297,0.669434,0
11610,0.371094,-0.53418,0.672852,0
11630,0.371094,-0.531738,0.661133,0
11650,0.376953,-0.527832,0.664551,0
11670,0.379395,-0.534668,0.664551,0
11690,0.381836,-0.526367,0.65918,0
11710,0.385742,-0.524414,0.662598,0
11730,0.374512,-0.528809,0.65918,0
11750,0.375,-0.527344,0.669922,0
11770,0.375,-0.527344,0.670898,0
11790,0.373535,-0.532715,0.657715,0
11810,0.384277,-0.527344,0.663574,0
11830,0.378906,-0.536133,0.662109,0
11850,0.378418,-0.529785,0.665527,0
11870,0.375,-0.527832,0.663086,0
11890,0.37793,-0.530273,0.660645,0
11910,0.379395,-0.524902,0.664551,0
11930,0.377441,-0.524414,0.66748,0
11950,0.380371,-0.524414,0.664551,0
11970,0.382324,-0.526855,0.664062,0
11990,0.378418,-0.529785,0.65625,0
12010,0.378906,-0.533203,0.658203,0
12030,0.379883,-0.530762,0.661621,0
12050,0.376465,-0.536621,0.663574,0
12070,0.378906,-0.525879,0.663574,0
12090,0.376465,-0.530762,0.661621,0
12110,0.379883,-0.528809,0.658203,0
12130,0.383301,-0.526367,0.65625,0
12150,0.37793,-0.529785,0.657715,0
12170,0.375488,-0.525879,0.658691,0
12190,0.376953,-0.528809,0.661133,0
12210,0.375977,-0.533203,0.667969,0
12230,0.376465,-0.528809,0.670898,0
12250,0.381348,-0.534668,0.664551,0
12270,0.375488,-0.527832,0.660156,0
12290,0.378906,-0.52832,0.667969,0
12310,0.381348,-0.526855,0.664551,0
12330,0.375977,-0.526367,0.666016,0
12350,0.375977,-0.526367,0.662598,0
12370,0.381836,-0.529297,0.664551,0
12390,0.376953,-0.525879,0.663574,0
12410,0.379395,-0.528809,0.660156,0
12430,0.377441,-0.52832,0.664062,0
12450,0.378906,-0.53125,0.665527,0
12470,0.375977,-0.526367,0.665527,0
12490,0.381348,-0.52832,0.664551,0
12510,0.378418,-0.525879,0.664551,0
12530,0.374512,-0.532227,0.666016,0
12550,0.375977,-0.526855,0.663574,0
12570,0.374512,-0.532227,0.665039,0
12590,0.379395,-0.525879,0.66748,0
12610,0.377441,-0.52832,0.668457,0
12630,0.37793,-0.529297,0.666016,0
12650,0.378906,-0.520508,0.663574,0
12670,0.377441,-0.522461,0.668457,0
12690,0.372559,-0.526855,0.668457,0
12710,0.379883,-0.524902,0.670898,0
12730,0.374023,-0.531738,0.66748,0
12750,0.372559,-0.526367,0.672363,0
12770,0.375488,-0.522461,0.668457,0
12790,0.380859,-0.529785,0.665527,0
12810,0.380371,-0.52832,0.657715,0
12830,0.380371,-0.524902,0.663574,0
12850,0.379395,-0.522461,0.66748,0
12870,0.378418,-0.519043,0.665039,0
12890,0.378418,-0.522461,0.666016,0
12910,0.375977,-0.524902,0.669434,0
12930,0.376465,-0.523926,0.660156,0
12950,0.375,-0.523438,0.669922,0
12990,0.375488,-0.526855,0.666992,0
13010,0.373535,-0.526367,0.665527,0
13030,0.373535,-0.526855,0.665039,0
13050,0.375488,-0.532227,0.666992,0
13070,0.376953,-0.520508,0.664551,0
13090,0.374512,-0.524902,0.67041,0
13110,0.371582,-0.52832,0.660645,0
13130,0.37793,-0.51709,0.664551,0
13150,0.37793,-0.526855,0.669434,0
13170,0.379883,-0.53125,0.673828,0
13190,0.376953,-0.526367,0.666016,0
13210,0.373535,-0.526367,0.661621,0
13230,0.377441,-0.527344,0.661621,0
13250,0.376465,-0.521973,0.669434,0
13270,0.375977,-0.52832,0.659668,0
13290,0.37793,-0.525391,0.661133,0
13310,0.375488,-0.533203,0.661621,0
13330,0.379883,-0.53125,0.664551,0
13340,0.380859,-0.533203,0.662598,0
13360,0.379395,-0.538086,0.663086,0
13380,0.369141,-0.526367,0.673828,0
13400,0.37793,-0.519531,0.66748,0
13420,0.378418,-0.522949,0.67334,0
13440,0.384766,-0.519043,0.655273,0
13460,0.38623,-0.523926,0.657227,0
13480,0.382812,-0.524414,0.660156,0
13500,0.380859,-0.527344,0.666992,0
13520,0.377441,-0.535156,0.669922,0
13540,0.375488,-0.530273,0.661621,0
13560,0.379883,-0.536621,0.665039,0
13580,0.382324,-0.530273,0.654297,0
13600,0.376953,-0.524902,0.662598,0
13620,0.381348,-0.527832,0.664062,0
13640,0.376953,-0.525879,0.66748,0
13660,0.381836,-0.526855,0.666504,0
13680,0.381836,-0.527832,0.666992,0
13700,0.383301,-0.522949,0.663574,0
13720,0.381836,-0.530762,0.661133,0
13740,0.379883,-0.533203,0.661621,0
13760,0.382324,-0.527832,0.663086,0
13780,0.376465,-0.532715,0.662109,0
13800,0.379883,-0.530273,0.665527,0
13820,0.375977,-0.533203,0.664551,0
13840,0.37793,-0.53418,0.662598,0
13860,0.380371,-0.52832,0.662598,0
13880,0.376953,-0.529297,0.664062,0
13900,0.375,-0.530273,0.660645,0
13920,0.381836,-0.529297,0.657227,0
13940,0.375488,-0.53125,0.661621,0
13960,0.378906,-0.530762,0.664062,0
13980,0.381348,-0.53125,0.663086,0
14000,0.377441,-0.536621,0.662109,0
14020,0.373047,-0.53125,0.666504,0
14040,0.374512,-0.53418,0.661621,0
14060,0.376465,-0.525391,0.663086,0
14070,0.378906,-0.525391,0.658691,0
14090,0.379395,-0.531738,0.658691,0
14110,0.37793,-0.527344,0.666504,0
14130,0.374023,-0.530273,0.670898,0
14150,0.375488,-0.531738,0.65918,0
14170,0.375977,-0.523926,0.665527,0
14190,0.380371,-0.532715,0.661133,0
14210,0.381348,-0.52832,0.668945,0
14230,0.374023,-0.535645,0.65918,0
14250,0.376953,-0.539551,0.660645,0
14270,0.375488,-0.53125,0.662598,0
14290,0.375488,-0.533203,0.665039,0
14310,0.376465,-0.527832,0.668457,0
14330,0.379883,-0.522949,0.666504,0
14350,0.383301,-0.52832,0.663574,0
14370,0.381836,-0.521973,0.661133,0
14390,0.379395,-0.523438,0.660645,0
14410,0.378906,-0.536133,0.657715,0
14430,0.37793,-0.535156,0.663574,0
14450,0.382324,-0.537598,0.659668,0
14470,0.381348,-0.533691,0.664551,0
14490,0.380859,-0.527832,0.662598,0
14510,0.375977,-0.53125,0.668945,0
14530,0.376953,-0.523438,0.664551,0
14550,0.383301,-0.526367,0.662109,0
14570,0.379883,-0.532227,0.666016,0
14590,0.380371,-0.524902,0.661621,0
14610,0.380371,-0.526855,0.660156,0
14620,0.38623,-0.522461,0.668457,0
14640,0.380859,-0.522949,0.668945,0
14660,0.379395,-0.529297,0.658203,0
14680,0.375,-0.529785,0.667969,0
14700,0.381348,-0.536133,0.662598,0
14720,0.37207,-0.533203,0.664062,0
14740,0.373047,-0.530273,0.665039,0
14760,0.367676,-0.53125,0.669434,0
14780,0.374512,-0.527832,0.670898,0
14800,0.37793,-0.528809,0.661133,0
14820,0.382324,-0.52832,0.665527,0
14840,0.376953,-0.525391,0.660645,0
14860,0.379395,-0.522461,0.658203,0
14880,0.376953,-0.52832,0.663086,0
14900,0.377441,-0.529297,0.66748,0
14920,0.374023,-0.529297,0.665039,0
14940,0.379883,-0.532715,0.666992,0
14960,0.380371,-0.530273,0.669434,0
14970,0.375488,-0.533203,0.663086,0
14990,0.375488,-0.529297,0.664062,0
15010,0.374023,-0.529297,0.668457,0
15030,0.377441,-0.52832,0.67041,0
15050,0.375977,-0.525879,0.666504,0
15080,0.375977,-0.523438,0.665039,0
15100,0.375488,-0.523926,0.666992,0
15120,0.374512,-0.524902,0.668457,0
15140,0.37207,-0.529297,0.668457,0
15160,0.375488,-0.528809,0.663574,0
15180,0.371094,-0.527344,0.668945,0
15200,0.375977,-0.523926,0.658203,0
15230,0.378418,-0.523438,0.671875,0
15250,0.375488,-0.528809,0.665527,0
15270,0.37793,-0.529785,0.66748,0
15290,0.373047,-0.529297,0.668945,0
15310,0.375977,-0.530273,0.664062,0
15330,0.377441,-0.525391,0.669434,0
15350,0.382812,-0.524414,0.662598,0
15370,0.37793,-0.527344,0.662598,0
15390,0.374512,-0.522461,0.669434,0
15410,0.373535,-0.528809,0.669434,0
15430,0.366211,-0.533203,0.665527,0
15450,0.373047,-0.525879,0.660156,0
15470,0.37793,-0.533203,0.663574,0
15490,0.37793,-0.527344,0.668945,0
15510,0.376953,-0.529785,0.668457,0
15530,0.375977,-0.529297,0.666992,0
15550,0.381348,-0.527344,0.669922,0
15570,0.375488,-0.525879,0.662109,0
15590,0.375488,-0.528809,0.666016,0
15610,0.37793,-0.523438,0.669922,0
15630,0.375,-0.526367,0.662598,0
15650,0.377441,-0.531738,0.665527,0
15670,0.375488,-0.528809,0.669434,0
15690,0.380371,-0.532715,0.655762,0
15710,0.376953,-0.522949,0.666016,0
15730,0.376465,-0.527832,0.667969,0
15750,0.376465,-0.529297,0.663574,0
15770,0.371582,-0.523926,0.67334,0
15790,0.374023,-0.529785,0.663086,0
15810,0.374023,-0.527344,0.662598,0
15830,0.375,-0.52832,0.667969,0
15850,0.369629,-0.529297,0.664062,0
15870,0.372559,-0.52832,0.665527,0
15890,0.374512,-0.535645,0.665039,0
15920,0.37793,-0.53125,0.663086,0
15940,0.373047,-0.532715,0.661133,0
15960,0.375488,-0.524902,0.661621,0
15980,0.380859,-0.525391,0.661133,0
16000,0.377441,-0.523926,0.663086,0
16020,0.371094,-0.524902,0.659668,0
16040,0.376953,-0.531738,0.665527,0
16060,0.379883,-0.530273,0.665039,0
16080,0.378906,-0.527344,0.662109,0
16090,0.373535,-0.533691,0.665527,0
16110,0.375488,-0.531738,0.664062,0
16130,0.373047,-0.534668,0.665527,0
16150,0.378418,-0.530273,0.663086,0
16170,0.37793,-0.522461,0.664551,0
16200,0.376953,-0.527344,0.659668,0
16220,0.380371,-0.522949,0.66748,0
16240,0.37793,-0.531738,0.660645,0
16260,0.374023,-0.528809,0.673828,0
16280,0.371582,-0.53418,0.66748,0
16300,0.374512,-0.530762,0.661621,0
16320,0.384766,-0.529297,0.661133,0
16340,0.37793,-0.535156,0.664551,0
16360,0.373535,-0.529785,0.670898,0
16380,0.375,-0.529297,0.665039,0
16400,0.371582,-0.537598,0.667969,0
16420,0.374023,-0.530273,0.659668,0
16440,0.373047,-0.533691,0.658203,0
16460,0.379883,-0.533691,0.665039,0
16480,0.376465,-0.526367,0.660645,0
16500,0.372559,-0.53418,0.664062,0
16520,0.375977,-0.529297,0.666504,0
16540,0.374023,-0.530762,0.660156,0
16560,0.375488,-0.530762,0.660156,0
16580,0.378418,-0.525391,0.669922,0
16600,0.376465,-0.534668,0.668457,0
16620,0.374023,-0.53125,0.668945,0
16640,0.376465,-0.53125,0.658203,0
16660,0.375977,-0.53125,0.658691,0
16680,0.374512,-0.527832,0.658691,0
16700,0.378418,-0.530273,0.666016,0
16710,0.37207,-0.532715,0.664062,0
16730,0.37793,-0.529785,0.65918,0
16750,0.381348,-0.533691,0.66748,0
16770,0.373535,-0.533203,0.66748,0
16790,0.375,-0.529785,0.661621,0
16810,0.374512,-0.53418,0.665527,0
16830,0.370605,-0.527832,0.662598,0
16850,0.37793,-0.526855,0.666992,0
16870,0.375977,-0.524902,0.663086,0
16890,0.376953,-0.524414,0.666992,0
16910,0.375,-0.53418,0.665039,0
16930,0.374023,-0.529297,0.670898,0
16950,0.375488,-0.529785,0.662109,0
16970,0.371582,-0.528809,0.662598,0
16990,0.37793,-0.527832,0.665527,0
17010,0.375977,-0.530762,0.668945,0
17030,0.376953,-0.527832,0.665039,0
17050,0.371582,-0.527344,0.662109,0
17070,0.376465,-0.533691,0.66748,0
17090,0.377441,-0.529785,0.665527,0
17110,0.378906,-0.52832,0.65918,0
17130,0.375977,-0.530273,0.667969,0
17150,0.378418,-0.524902,0.667969,0
17170,0.376953,-0.526855,0.666016,0
17190,0.375977,-0.525391,0.662109,0
17210,0.377441,-0.525879,0.665039,0
17230,0.373047,-0.531738,0.66748,0
17250,0.376465,-0.527832,0.662598,0
17270,0.375977,-0.523926,0.674805,0
17290,0.376465,-0.530273,0.664062,0
17310,0.375488,-0.526855,0.664551,0
17330,0.372559,-0.527832,0.663086,0
17350,0.376953,-0.52832,0.659668,0
17370,0.375488,-0.520996,0.661621,0
17390,0.375,-0.526855,0.672852,0
17410,0.375977,-0.527832,0.666016,0
17430,0.379883,-0.527832,0.67041,0
17450,0.371094,-0.527832,0.664551,0
17470,0.374512,-0.520996,0.665527,0
17490,0.375977,-0.525391,0.667969,0
17510,0.375,-0.533203,0.668457,0
17530,0.375977,-0.527344,0.666016,0
17550,0.371094,-0.526367,0.666992,0
17570,0.37207,-0.526855,0.660156,0
17590,0.378906,-0.527832,0.666504,0
17610,0.373535,-0.530762,0.668945,0
17630,0.375977,-0.524902,0.663574,0
17650,0.374512,-0.527832,0.666992,0
17670,0.380371,-0.532227,0.662598,0
17690,0.373535,-0.525391,0.660645,0
17710,0.37207,-0.52832,0.67627,0
17730,0.374023,-0.532227,0.672363,0
17750,0.376465,-0.526855,0.668457,0
17770,0.381348,-0.523926,0.663086,0
17790,0.37793,-0.523438,0.659668,0
17810,0.375977,-0.532715,0.666992,0
17830,0.373535,-0.527344,0.669434,0
17850,0.379395,-0.530273,0.67334,0
17870,0.377441,-0.533203,0.659668,0
17890,0.380859,-0.520508,0.662598,0
17910,0.384277,-0.528809,0.665527,0
17930,0.379395,-0.526367,0.668945,0
17950,0.374512,-0.523438,0.663086,0
17970,0.379883,-0.530762,0.661621,0
17990,0.380371,-0.522949,0.664062,0
18010,0.377441,-0.521973,0.674316,0
18030,0.378906,-0.527344,0.668945,0
18050,0.379395,-0.520996,0.656738,0
18070,0.381348,-0.525391,0.664062,0
18090,0.383301,-0.526855,0.670898,0
18110,0.379395,-0.526367,0.666504,0
18130,0.37793,-0.525391,0.668457,0
18150,0.376953,-0.521973,0.661133,0
18170,0.380371,-0.530762,0.666016,0
18190,0.37793,-0.536133,0.665039,0
18210,0.384277,-0.523926,0.664551,0
18230,0.381348,-0.532227,0.660156,0
18250,0.375488,-0.53125,0.65625,0
18270,0.379395,-0.529785,0.665039,0
18290,0.376953,-0.532227,0.666016,0
18310,0.379395,-0.526367,0.660156,0
18330,0.37793,-0.530762,0.666992,0
18350,0.373047,-0.529297,0.666016,0
18370,0.379883,-0.526855,0.663574,0
18390,0.37793,-0.533203,0.665039,0
18410,0.378906,-0.528809,0.663086,0
18430,0.379395,-0.525879,0.65625,0
18450,0.376953,-0.532715,0.665527,0
18470,0.379395,-0.528809,0.666992,0
18490,0.378418,-0.527832,0.660156,0
18510,0.378906,-0.523438,0.662598,0
18530,0.379883,-0.524414,0.666016,0
18550,0.373535,-0.533203,0.65918,0
18570,0.381836,-0.526367,0.666992,0
18590,0.379395,-0.525391,0.667969,0
18610,0.374512,-0.529785,0.67041,0
18630,0.380371,-0.527344,0.67041,0
18650,0.383301,-0.526855,0.666016,0
18660,0.375488,-0.529297,0.669922,0
18690,0.375488,-0.522949,0.664062,0
18700,0.381348,-0.529297,0.665039,0
18720,0.378906,-0.528809,0.666992,0
18740,0.374512,-0.530273,0.669922,0
18760,0.372559,-0.53418,0.665527,0
18780,0.379395,-0.527832,0.666016,0
18800,0.382324,-0.527344,0.657715,0
18820,0.380371,-0.529785,0.663574,0
18840,0.37793,-0.528809,0.668945,0
18860,0.37793,-0.530762,0.663574,0
18880,0.380859,-0.529297,0.666016,0
18900,0.383301,-0.522949,0.666992,0
18920,0.381348,-0.532227,0.665039,0
18940,0.37793,-0.530273,0.664551,0
18960,0.376953,-0.52832,0.663086,0
18980,0.373047,-0.528809,0.663574,0
19000,0.380859,-0.527832,0.664551,0
19020,0.376953,-0.532227,0.662109,0
19040,0.377441,-0.522461,0.662598,0
19060,0.378418,-0.522949,0.667969,0
19080,0.375488,-0.534668,0.666504,0
19100,0.376953,-0.528809,0.665527,0
19120,0.376465,-0.52832,0.662109,0
19140,0.380371,-0.526367,0.665039,0
19160,0.379395,-0.525879,0.661621,0
19180,0.376953,-0.530273,0.663574,0
19200,0.381836,-0.526367,0.663574,0
19220,0.380371,-0.521973,0.659668,0
19240,0.377441,-0.526855,0.662598,0
19260,0.379883,-0.527344,0.666504,0
19280,0.381348,-0.527832,0.665039,0
19300,0.376465,-0.526367,0.666504,0
19320,0.380859,-0.52832,0.665527,0
19340,0.374023,-0.531738,0.668457,0
19360,0.372559,-0.523926,0.663574,0
19380,0.374512,-0.52832,0.664062,0
19400,0.373047,-0.525391,0.66748,0
19420,0.377441,-0.524414,0.666504,0
19440,0.372559,-0.52832,0.664062,0
19460,0.374512,-0.524902,0.665039,0
19480,0.373535,-0.522461,0.663574,0
19500,0.375977,-0.531738,0.669434,0
19520,0.375977,-0.528809,0.665039,0
19540,0.376465,-0.526367,0.665527,0
19560,0.372559,-0.531738,0.669922,0
19580,0.375488,-0.524902,0.670898,0
19600,0.376465,-0.529297,0.671387,0
19620,0.37207,-0.526367,0.667969,0
19640,0.374512,-0.522461,0.663574,0
19660,0.37793,-0.52832,0.666016,0
19680,0.379395,-0.523926,0.669434,0
19700,0.374023,-0.527832,0.665039,0
19720,0.369629,-0.530273,0.666504,0
19740,0.373535,-0.526855,0.662109,0
19760,0.379395,-0.533203,0.662598,0
19780,0.377441,-0.534668,0.654785,0
19800,0.376465,-0.533691,0.664062,0
19820,0.369629,-0.540527,0.651855,0
19840,0.369629,-0.543945,0.65332,0
19860,0.379395,-0.524902,0.648438,0
19880,0.412109,-0.52002,0.649902,0
19900,0.417969,-0.524414,0.664062,0
19920,0.378906,-0.516602,0.680176,0
19940,0.370117,-0.521973,0.693359,0
19960,0.359375,-0.529785,0.691406,0
19980,0.351074,-0.529785,0.680664,0
20000,0.345215,-0.527344,0.689453,0
20020,0.34082,-0.530273,0.695312,0
20040,0.343262,-0.522461,0.688965,0
20060,0.350586,-0.507812,0.693359,0
20080,0.344238,-0.519043,0.689453,0
20100,0.354492,-0.507324,0.677246,0
20120,0.366699,-0.516113,0.682129,0
20140,0.374023,-0.52002,0.672852,0
20160,0.376465,-0.515625,0.673828,0
20180,0.370117,-0.518066,0.677734,0
20200,0.37793,-0.526367,0.667969,0
20220,0.374512,-0.526855,0.666504,0
20240,0.375488,-0.535156,0.673828,0
20260,0.368652,-0.533691,0.661621,0
20280,0.374512,-0.536133,0.660645,0
20300,0.373535,-0.530273,0.666016,0
20320,0.382324,-0.534668,0.661621,0
20340,0.376953,-0.531738,0.660156,0
20360,0.375,-0.530273,0.660645,0
20380,0.382812,-0.529785,0.661133,0
20400,0.374023,-0.524414,0.66748,0
20420,0.383301,-0.522949,0.660645,0
20440,0.354492,-0.519531,0.645508,0
20460,0.388184,-0.524902,0.663086,0
20480,0.385742,-0.519531,0.671875,0
20500,0.383789,-0.539551,0.659668,0
20520,0.389648,-0.527832,0.657227,0
20540,0.378906,-0.515137,0.668945,0
20560,0.368652,-0.528809,0.670898,0
20580,0.37207,-0.527344,0.66748,0
20600,0.38623,-0.52832,0.672363,0
20620,0.379395,-0.516113,0.675293,0
20640,0.380371,-0.518555,0.661133,0
20660,0.391602,-0.524902,0.665039,0
20680,0.391602,-0.520508,0.67041,0
20700,0.380859,-0.522461,0.66748,0
20720,0.361816,-0.520996,0.662109,0
20740,0.388672,-0.525391,0.669922,0
20760,0.377441,-0.525879,0.665039,0
20780,0.38623,-0.524414,0.660156,0
20800,0.391113,-0.524414,0.660156,0
20820,0.399902,-0.527344,0.654297,0
20840,0.405762,-0.521484,0.651855,0
20860,0.399414,-0.524902,0.65918,0
20880,0.402832,-0.53418,0.666992,0
20900,0.400391,-0.520996,0.666016,0
20920,0.394531,-0.525391,0.660156,0
20940,0.381836,-0.527832,0.664551,0
20960,0.390137,-0.521973,0.649902,0
20980,0.397461,-0.515625,0.654785,0
21000,0.401367,-0.513672,0.660156,0
21020,0.39502,-0.523926,0.658691,0
21040,0.390137,-0.525879,0.65332,0
21060,0.394043,-0.519043,0.650879,0
21080,0.396484,-0.527832,0.650879,0
21100,0.402832,-0.525879,0.651855,0
21120,0.375488,-0.501465,0.666992,0
21140,0.404785,-0.537109,0.65332,0
21160,0.404297,-0.533203,0.648926,0
21180,0.403809,-0.532227,0.649902,0
21200,0.40332,-0.524902,0.650879,0
21220,0.405762,-0.525391,0.653809,0
21240,0.401855,-0.532715,0.648438,0
21260,0.398438,-0.522461,0.646484,0
21280,0.395508,-0.521973,0.64502,0
21300,0.397461,-0.523438,0.649902,0
21320,0.402832,-0.522461,0.65625,0
21340,0.396484,-0.522949,0.655273,0
21360,0.393066,-0.524902,0.660645,0
21380,0.394043,-0.522461,0.65625,0
21400,0.388672,-0.529297,0.665527,0
21420,0.388672,-0.526367,0.663086,0
21440,0.39209,-0.524902,0.659668,0
21460,0.38916,-0.525879,0.660645,0
21480,0.387695,-0.521973,0.662598,0
21500,0.382812,-0.524902,0.666992,0
21520,0.381836,-0.525879,0.663086,0
21540,0.384766,-0.518555,0.667969,0
21560,0.385742,-0.528809,0.663574,0
21580,0.391602,-0.523926,0.665527,0
21600,0.393066,-0.520996,0.660645,0
21620,0.393555,-0.521484,0.665527,0
21640,0.387695,-0.518555,0.664062,0
21660,0.386719,-0.522461,0.665039,0
21680,0.388184,-0.521973,0.668457,0
21700,0.393066,-0.520996,0.657715,0
21720,0.383789,-0.523926,0.660645,0
21740,0.387695,-0.520508,0.654785,0
21760,0.247559,-0.407227,0.634766,0
21780,0.403809,-0.540039,0.666504,0
21800,0.390137,-0.517578,0.65625,0
21820,0.389648,-0.522949,0.658203,0
21840,0.390137,-0.525879,0.660645,0
21860,0.387207,-0.525391,0.661133,0
21880,0.387695,-0.532715,0.662598,0
21900,0.389648,-0.523926,0.665039,0
21920,0.381348,-0.524902,0.660156,0
21940,0.379395,-0.520996,0.668457,0
21960,0.384766,-0.520508,0.664551,0
21980,0.380859,-0.525879,0.662598,0
22000,0.381836,-0.521484,0.661621,0
22020,0.387207,-0.518555,0.663086,0
22040,0.381348,-0.523438,0.66748,0
22060,0.380371,-0.521484,0.663086,0
22080,0.37793,-0.525879,0.666504,0
22100,0.379883,-0.526367,0.666016,0
22120,0.383301,-0.521484,0.663086,0
22140,0.383789,-0.520996,0.662598,0
22160,0.382812,-0.52002,0.664062,0
22170,0.384277,-0.521484,0.665039,0
22190,0.381836,-0.524414,0.665039,0
22210,0.385254,-0.524414,0.662598,0
22230,0.388672,-0.525391,0.658691,0
22250,0.384277,-0.523438,0.665527,0
22270,0.382324,-0.529785,0.663086,0
22290,0.379395,-0.525879,0.666992,0
22310,0.379883,-0.524902,0.666992,0
22330,0.384277,-0.52832,0.663574,0
22350,0.379883,-0.530273,0.666992,0
22370,0.384766,-0.527344,0.65625,0
22390,0.379395,-0.526855,0.662109,0
22410,0.384766,-0.526367,0.660645,0
22430,0.381836,-0.525391,0.663086,0
22450,0.381836,-0.527344,0.660645,0
22470,0.382812,-0.521484,0.663086,0
22490,0.383789,-0.524902,0.657715,0
22510,0.384277,-0.526855,0.664062,0
22530,0.383789,-0.520508,0.660156,0
22550,0.388184,-0.530762,0.661621,0
22570,0.380371,-0.53125,0.65625,0
22590,0.37793,-0.526855,0.668945,0
22610,0.376953,-0.531738,0.668945,0
22630,0.374023,-0.523926,0.671875,0
22650,0.376465,-0.524902,0.663086,0
22670,0.380371,-0.527832,0.665527,0
22690,0.379395,-0.524902,0.660645,0
22710,0.385742,-0.528809,0.663574,0
22730,0.379395,-0.532715,0.65918,0
22750,0.384277,-0.527344,0.65918,0
22770,0.383301,-0.526367,0.66748,0
22790,0.379395,-0.525391,0.666016,0
22810,0.378418,-0.529297,0.662598,0
22830,0.385742,-0.53125,0.65918,0
22850,0.385254,-0.52832,0.661621,0
22870,0.382812,-0.526367,0.664062,0
22890,0.375977,-0.527344,0.668945,0
22910,0.376465,-0.525391,0.664551,0
22930,0.375488,-0.530762,0.669434,0
22950,0.376465,-0.526855,0.663086,0
22970,0.380371,-0.53125,0.661133,0
22990,0.385254,-0.530273,0.658203,0
23010,0.383301,-0.523438,0.665039,0
23030,0.378418,-0.529297,0.667969,0
23050,0.375488,-0.526855,0.666016,0
23070,0.380371,-0.524414,0.666016,0
23090,0.378906,-0.527344,0.65918,0
23110,0.381836,-0.521484,0.669922,0
23130,0.382812,-0.527344,0.665039,0
23150,0.380859,-0.526367,0.66748,0
23170,0.377441,-0.527832,0.664551,0
23190,0.376953,-0.526855,0.668945,0
23210,0.379395,-0.529297,0.665527,0
23230,0.379395,-0.521484,0.664551,0
23250,0.376465,-0.529785,0.662109,0
23270,0.37793,-0.528809,0.665039,0
23290,0.378418,-0.528809,0.665527,0
23310,0.378418,-0.527832,0.669434,0
23330,0.382324,-0.526367,0.663574,0
23350,0.376953,-0.533691,0.664551,0
23370,0.382324,-0.527344,0.659668,0
23390,0.379395,-0.529297,0.660645,0
23410,0.376953,-0.533203,0.664551,0
23430,0.378418,-0.52832,0.665527,0
23450,0.383301,-0.526855,0.658691,0
23470,0.380859,-0.529297,0.666992,0
23490,0.379395,-0.527344,0.657715,0
23510,0.384277,-0.524902,0.668457,0
23530,0.380371,-0.525879,0.663574,0
23550,0.377441,-0.52832,0.666504,0
23570,0.37793,-0.533203,0.662598,0
23590,0.381348,-0.523926,0.658203,0
23610,0.380859,-0.532227,0.663574,0
23630,0.383301,-0.521973,0.666504,0
23650,0.382812,-0.522949,0.668457,0
23670,0.379395,-0.526855,0.66748,0
23690,0.384277,-0.521973,0.668457,0
23710,0.380371,-0.526367,0.665527,0
23730,0.37793,-0.522949,0.668457,0
23750,0.381348,-0.525879,0.667969,0
23770,0.378418,-0.527832,0.660156,0
23790,0.382324,-0.527832,0.659668,0
23810,0.383301,-0.524414,0.65625,0
23830,0.378418,-0.52832,0.661133,0
23850,0.379883,-0.520508,0.666504,0
23870,0.382812,-0.525391,0.671387,0
23890,0.382812,-0.524414,0.666504,0
23910,0.383301,-0.521973,0.664551,0
23930,0.376465,-0.520508,0.669434,0
23950,0.37793,-0.519043,0.66748,0
23970,0.380371,-0.52002,0.661621,0
23990,0.383789,-0.529785,0.663574,0
24010,0.383789,-0.525879,0.655273,0
24030,0.379883,-0.525391,0.666016,0
24050,0.382324,-0.526367,0.669434,0
24070,0.381348,-0.521484,0.669922,0
24090,0.377441,-0.521973,0.66748,0
24110,0.379395,-0.521484,0.663086,0
24130,0.378418,-0.519531,0.666504,0
24150,0.381348,-0.522949,0.666504,0
24160,0.379883,-0.520996,0.666504,0
24180,0.381348,-0.526367,0.661621,0
24200,0.384277,-0.521973,0.656738,0
24220,0.379395,-0.520508,0.661621,0
24240,0.386719,-0.527832,0.661621,0
24260,0.37793,-0.52002,0.670898,0
24280,0.379395,-0.521973,0.659668,0
24300,0.374512,-0.527832,0.666992,0
24320,0.380859,-0.522461,0.67334,0
24340,0.385254,-0.521973,0.669434,0
24360,0.382812,-0.519531,0.662109,0
24380,0.385254,-0.521973,0.661133,0
24400,0.376953,-0.526367,0.665527,0
24420,0.381348,-0.521484,0.666992,0
24440,0.384766,-0.52002,0.668457,0
24460,0.381836,-0.527344,0.657227,0
24480,0.387695,-0.524902,0.665039,0
24500,0.382812,-0.535156,0.661621,0
24520,0.384277,-0.52832,0.663086,0
24540,0.387207,-0.528809,0.671387,0
24560,0.39209,-0.546387,0.683594,0
24580,0.385742,-0.531738,0.681152,0
24600,0.387207,-0.54248,0.658203,0
24620,0.389648,-0.525391,0.642578,0
24640,0.38916,-0.490234,0.648926,0
24660,0.388184,-0.495117,0.666016,0
24680,0.386719,-0.500488,0.674805,0
24700,0.377441,-0.508789,0.668945,0
24720,0.374023,-0.517578,0.669922,0
24740,0.376465,-0.523438,0.664551,0
24760,0.384277,-0.529297,0.665039,0
24780,0.391602,-0.523438,0.669922,0
24800,0.40918,-0.534668,0.680176,0
24820,0.416992,-0.546875,0.700195,0
24840,0.375977,-0.541504,0.688477,0
24860,0.362793,-0.55957,0.697266,0
24880,0.344238,-0.55127,0.706543,0
24900,0.354492,-0.523926,0.725586,0
24920,0.352539,-0.51123,0.731934,0
24940,0.348145,-0.502441,0.738281,0
24960,0.335449,-0.47998,0.737305,0
24980,0.338867,-0.494629,0.729004,0
25000,0.370605,-0.51123,0.731934,0
25020,0.333496,-0.49707,0.705078,0
25040,0.409668,-0.541504,0.714844,0
25060,0.419922,-0.537598,0.702637,0
25080,0.443848,-0.585449,0.688477,0
25100,0.433105,-0.638184,0.709473,0
25120,0.424316,-0.674805,0.681152,0
25140,0.39502,-0.718262,0.60498,0
25160,0.355469,-0.722168,0.58252,0
25180,0.331543,-0.747559,0.576172,0
25200,0.300781,-0.772461,0.568359,0
25220,0.310059,-0.743652,0.537109,0
25240,0.275879,-0.706543,0.498535,0
25260,0.248535,-0.712402,0.511719,0
25280,0.172852,-0.672852,0.522949,0
25300,0.140625,-0.632812,0.545898,0
25320,0.306641,-0.716797,0.527832,0
25340,0.197266,-0.694336,0.555664,0
25360,0.22168,-0.69043,0.518555,0
25380,0.271484,-0.68457,0.553223,0
25400,0.263184,-0.685547,0.538086,0
25420,0.271484,-0.658203,0.496582,0
25440,0.27002,-0.650391,0.47998,0
25460,0.279297,-0.671875,0.503418,0
25480,0.28418,-0.674316,0.504883,0
25500,0.273926,-0.672363,0.51416,0
25520,0.283203,-0.683594,0.505371,0
25540,0.291992,-0.701172,0.508789,0
25580,0.318359,-0.717773,0.508301,0
25600,0.320801,-0.736816,0.500488,0
25620,0.338379,-0.755859,0.509766,0
25640,0.34082,-0.772949,0.523438,0
25660,0.346191,-0.783691,0.521973,0
25680,0.334961,-0.799805,0.523926,0
25700,0.314941,-0.799316,0.535645,0
25720,0.286133,-0.801758,0.533203,0
25740,0.279297,-0.787598,0.522949,0
25760,0.273926,-0.79834,0.524414,0
25780,0.256348,-0.806152,0.541992,0
25800,0.248047,-0.8125,0.535156,0
25820,0.229492,-0.8125,0.523438,0
25840,0.226562,-0.82959,0.53125,0
25860,0.217285,-0.813477,0.539551,0
25880,0.210449,-0.813477,0.513184,0
25900,0.208496,-0.807129,0.504883,0
25920,0.20752,-0.804199,0.487305,0
25940,0.198242,-0.813477,0.474121,0
25960,0.198242,-0.80957,0.483398,0
25980,0.200195,-0.817871,0.483398,0
26000,0.182129,-0.796387,0.469238,0
26020,0.203613,-0.783691,0.47168,0
26040,0.16748,-0.765137,0.474609,0
26060,0.163574,-0.761719,0.48877,0
26080,0.178711,-0.77832,0.503906,0
26100,0.167969,-0.791992,0.499023,0
26120,0.146484,-0.785645,0.473145,0
26140,0.171387,-0.793945,0.448242,0
26160,0.193848,-0.806641,0.430664,0
26180,0.206055,-0.827637,0.380859,0
26200,0.230957,-0.846191,0.330566,0
26220,0.282715,-0.859863,0.288574,0
26240,0.319336,-0.885254,0.26123,0
26260,0.373047,-0.909668,0.261719,0
26280,0.356934,-0.930176,0.25293,0
26300,0.355469,-0.930664,0.230469,0
26320,0.384766,-0.929688,0.210449,0
26340,0.390137,-0.913086,0.20459,0
26360,0.382812,-0.87793,0.22998,0
26380,0.376953,-0.822266,0.256836,0
26400,0.338379,-0.787598,0.270996,0
26420,0.28418,-0.76416,0.271484,0
26440,0.240723,-0.765625,0.236328,0
26460,0.193359,-0.810547,0.205078,0
26480,0.18457,-0.848145,0.181152,0
26500,0.202637,-0.894043,0.138672,0
26520,0.195312,-0.951172,0.172363,0
26540,0.216797,-1.02148,0.15918,0
26560,0.178223,-1.07373,0.19043,0
26580,0.133789,-1.0835,0.201172,0
26600,0.0126953,-1.06836,0.202148,0
26620,-0.0478516,-1.03467,0.228027,0
26640,-0.109375,-0.980957,0.342773,0
26660,-0.22168,-0.945312,0.453613,0
26680,-0.455078,-0.953613,0.525391,0
26700,-0.753418,-0.920898,0.54834,0
26720,-1.0542,-0.925293,0.504395,0
26740,-1.26025,-1.02393,0.375488,0
26760,-1.31055,-1.04004,0.289062,0
26780,-1.29004,-1.02832,0.175781,0
26800,-1.34668,-0.954102,0.105469,0
26820,-1.32178,-0.933105,0.0375977,0
26840,-1.21924,-0.879883,0.0307617,0
26860,-1.07715,-0.837891,0.0458984,0
26880,-0.945312,-0.844238,0.0688477,0
26900,-0.9375,-0.842773,0.151367,0
26920,-0.941406,-0.855957,0.195312,0
26940,-0.918945,-0.894043,0.230957,0
26960,-0.88916,-0.917969,0.290039,0
26980,-0.827637,-0.921387,0.371094,0
27000,-0.774902,-0.987793,0.44043,0
27020,-0.741699,-0.933594,0.476074,0
27040,-0.730469,-0.869629,0.510254,0
27060,-0.758789,-0.791992,0.574219,0
27080,-0.78125,-0.814941,0.600586,0
27100,-0.766113,-0.875977,0.639648,0
27120,-0.794922,-0.920898,0.63916,0
27140,-0.760742,-0.944824,0.64502,0
27160,-0.772949,-0.979492,0.582031,0
27180,-0.8125,-0.93457,0.546387,0
27200,-0.823242,-0.78418,0.388184,0
27220,-0.73291,-0.732422,0.277832,0
27240,-0.62207,-0.720215,0.283203,0
27260,-0.521973,-0.706543,0.30127,0
27280,-0.486816,-0.726562,0.293457,0
27300,-0.520508,-0.717773,0.255859,0
27320,-0.56543,-0.635742,0.168945,0
27340,-0.654297,-0.501465,0.12207,0
27360,-0.755859,-0.323242,0.0429688,0
27380,-0.852539,-0.165039,-0.0527344,0
27400,-0.938477,-0.0888672,-0.126465,0
27420,-0.957031,-0.0771484,-0.194336,0
27440,-0.931641,-0.128906,-0.205078,0
27460,-0.890137,-0.192871,-0.201172,0
27480,-0.831543,-0.246094,-0.155273,0
27500,-0.803711,-0.294434,-0.0786133,0
27520,-0.805664,-0.308105,-0.00976562,0
27540,-0.828125,-0.268066,0.0253906,0
27560,-0.844238,-0.233398,0.0556641,0
27580,-0.82373,-0.200195,0.0498047,0
27600,-0.810059,-0.179199,0.090332,0
27620,-0.775391,-0.188965,0.0703125,0
27640,-0.758301,-0.210938,0.0664062,0
27650,-0.764648,-0.25,0.0786133,0
27670,-0.820801,-0.31543,0.0834961,0
27690,-0.873047,-0.339844,0.0732422,0
27710,-0.930664,-0.370605,0.0810547,0
27730,-0.992188,-0.383789,0.111328,0
27750,-1.05273,-0.384766,0.0961914,0
27770,-1.06543,-0.416016,0.0849609,0
27790,-1.07324,-0.391602,0.0908203,0
27810,-1.09863,-0.381836,0.09375,0
27830,-1.08643,-0.379883,0.0825195,0
27850,-1.01807,-0.375,0.0703125,0
27870,-0.98877,-0.322266,0.0556641,0
27890,-0.950195,-0.286621,0.0727539,0
27910,-0.953125,-0.226562,0.129883,0
27930,-1.02832,-0.22168,0.172852,0
27950,-1.08398,-0.277344,0.177734,0
27980,-1.19678,-0.408691,0.101562,0
28000,-1.19531,-0.398926,-0.0195312,0
28020,-1.09082,-0.341309,-0.148438,0
28040,-0.972168,-0.256348,-0.203125,0
28060,-0.896973,-0.209961,-0.149902,0
28080,-0.912598,-0.199219,-0.0683594,0
28100,-0.98291,-0.198242,-0.0141602,0
28120,-1.02051,-0.220215,0.0112305,0
28140,-1.00439,-0.277832,0.0234375,0
28160,-1.00439,-0.337402,0.046875,0
28180,-0.999023,-0.362305,0.034668,0
28200,-0.970703,-0.363281,-0.00537109,0
28220,-0.921875,-0.369141,-0.0336914,0
28240,-0.900391,-0.356445,-0.0219727,0
28260,-0.896973,-0.353516,0.00830078,0
28280,-0.875488,-0.362305,-0.00439453,0
28300,-0.841797,-0.373047,-0.00195312,0
28320,-0.835938,-0.365723,0.0214844,0
28340,-0.860352,-0.351562,0.0107422,0
28360,-0.887207,-0.35498,-0.0166016,0
28380,-0.922363,-0.332031,-0.0473633,0
28400,-0.943848,-0.294922,-0.0849609,0
28420,-1.00195,-0.250977,-0.11084,0
28440,-1.0249,-0.230469,-0.133301,0
28460,-0.978027,-0.220703,-0.145996,0
28480,-0.975586,-0.234863,-0.097168,0
28500,-1.05811,-0.257324,0.0185547,0
28520,-1.1792,-0.261719,0.106445,0
28540,-1.26416,-0.252441,0.101074,0
28560,-1.24756,-0.290527,0.027832,0
28580,-1.15674,-0.305664,-0.0112305,0
28600,-1.0708,-0.240723,-0.0253906,0
28620,-1.00293,-0.20752,-0.0419922,0
28640,-0.972168,-0.20166,-0.0410156,0
28660,-0.984863,-0.19043,-0.0327148,0
28680,-1.00977,-0.196289,-0.015625,0
28700,-0.966797,-0.232422,0.019043,0
28720,-0.93457,-0.235352,0.0581055,0
28740,-0.971191,-0.210938,0.050293,0
28760,-0.974609,-0.212402,0.0249023,0
28780,-0.932129,-0.200684,0.0268555,0
28800,-0.911621,-0.186035,0.0322266,0
28820,-0.93457,-0.175293,0.0141602,0
28840,-0.947754,-0.161133,0.00341797,0
28860,-0.918945,-0.173828,0.0117188,0
28880,-0.915527,-0.180664,0.0239258,0
28900,-0.952148,-0.137695,0.0205078,0
28920,-0.940918,-0.108398,0.0078125,0
28940,-0.905762,-0.111816,0.00439453,0
28960,-0.916016,-0.0913086,-0.0170898,0
28980,-0.905273,-0.0766602,-0.0551758,0
29000,-0.845703,-0.0952148,-0.105469,0
29020,-0.8125,-0.109375,-0.157715,0
29040,-0.820801,-0.116699,-0.213867,0
29060,-0.846191,-0.155762,-0.233887,0
29080,-0.88916,-0.185059,-0.223145,0
29100,-0.918457,-0.165527,-0.248535,0
29120,-0.914551,-0.14209,-0.300293,0
29140,-0.887207,-0.17041,-0.291016,0
29160,-0.896973,-0.141113,-0.291504,0
29180,-0.910645,-0.0830078,-0.294434,0
29200,-0.92627,-0.0551758,-0.272461,0
29220,-0.881836,-0.0415039,-0.248535,0
29240,-0.885254,-0.0341797,-0.225586,0
29260,-0.97998,0.0478516,-0.226074,0
29280,-0.974609,0.129395,-0.210449,0
29300,-0.928711,0.103027,-0.126953,0
29320,-1.0166,0.146973,-0.0722656,0
29340,-1.08545,0.231934,-0.0952148,0
29360,-1.13916,0.245117,-0.118164,0
29380,-1.22119,0.368652,-0.0625,0
29400,-1.23389,0.424805,-0.11084,0
29420,-1.27979,0.39502,-0.097168,0
29440,-1.27393,0.342285,-0.109375,0
29460,-1.17383,0.275879,-0.0849609,0
29480,-1.12256,0.203613,-0.034668,0
29500,-1.23291,0.183105,-0.0449219,0
29520,-1.26514,0.197266,-0.231934,0
29540,-1.31055,0.081543,-0.393066,0
29560,-1.24072,0.00683594,-0.174805,0
29580,-0.981934,0.150879,0.228027,0
29600,-1.00732,0.302246,0.463867,0
29620,-0.993652,0.338379,0.505371,0
29630,-0.805176,0.333008,0.422363,0
29650,-0.669922,0.342773,0.475098,0
29670,-0.625,0.279785,0.46582,0
29690,-0.660156,0.172363,0.479004,0
29710,-0.736816,0.14502,0.495117,0
29730,-0.765137,0.161133,0.505859,0
29750,-0.754883,0.14209,0.504395,0
29770,-0.834473,0.168457,0.370117,0
29790,-0.935547,0.138672,0.297852,0
29810,-1.06348,0.0444336,0.342773,0
29830,-1.25342,-0.0571289,0.12793,0
29850,-1.48682,-0.213379,0.0234375,0
29870,-1.68506,-0.174316,0.119629,0
29890,-1.62305,-0.0957031,0.283691,0
29910,-1.54688,-0.318848,0.352539,0
29930,-1.30322,-0.315918,0.226074,0
29950,-1.19043,-0.253906,0.112305,0
29970,-1.15723,-0.23291,0.0737305,0
29990,-1.01221,-0.273438,0.111328,0
30010,-0.884277,-0.34668,0.14209,0
30030,-0.910645,-0.466309,0.0717773,0
30050,-0.870605,-0.604004,0.0561523,0
30070,-0.875977,-0.489258,0.155273,0
30100,-0.925293,-0.518555,0.160645,0
30120,-0.905762,-0.552734,0.116699,0
30140,-0.941895,-0.578613,0.0634766,0
30160,-0.932129,-0.560547,0.019043,0
30180,-0.852539,-0.515625,0.0537109,0
30200,-0.820801,-0.520508,0.12207,0
30220,-0.783691,-0.555176,0.155762,0
30240,-0.779785,-0.569336,0.193359,0
30260,-0.760742,-0.588379,0.227051,0
30280,-0.737305,-0.589355,0.256348,0
30300,-0.713379,-0.605957,0.283203,0
30320,-0.71875,-0.642578,0.297363,0
30340,-0.725098,-0.683105,0.303223,0
30360,-0.736816,-0.700195,0.287598,0
30380,-0.719238,-0.683105,0.275879,0
30400,-0.382324,-0.586914,0.350098,0
30420,-1.33301,-0.779297,-0.0688477,0
30440,-0.195801,-0.53125,0.966797,0
30460,-0.0961914,-0.531738,0.793457,0
30480,-0.154297,-0.61084,0.565918,0
30500,-0.345703,-0.6875,0.254395,0
30520,-0.593262,-0.760742,-0.0551758,0
30540,-1.17236,-0.888672,-0.17334,0
30560,-0.753418,-0.775879,0.164551,0
30580,-0.591797,-0.825684,0.324707,0
30600,-0.582031,-0.772949,0.342285,0
30620,-0.593262,-0.750977,0.359863,0
30640,-0.601562,-0.751465,0.378906,0
30660,-1.02148,-0.945801,0.154297,0
30680,-0.227051,-0.670898,0.395508,0
30700,-0.392578,-0.703613,0.227539,0
30720,-1.09131,-0.890137,0.0483398,0
30740,0.0576172,-0.804688,0.660156,0
30760,-0.539062,-0.769043,0.0820312,0
30780,-0.550781,-0.924805,0.435547,0
30800,0.109863,-0.71875,0.454102,0
30820,-0.983398,-0.935059,0.154297,0
30840,0.273926,-0.809082,0.709473,0
30860,-0.810547,-0.845703,0.0996094,0
30880,-0.171387,-0.899902,0.677734,0
30900,-0.163086,-0.72998,0.349121,0
30920,-0.794922,-0.959473,0.319336,0
30940,0.338379,-0.758789,0.644531,0
30960,-0.857422,-0.908691,0.0805664,0
30980,0.238281,-0.882324,0.629883,0
31000,-0.234375,-0.88916,0.325684,0
31020,-0.144043,-0.929199,0.342285,0
31040,-0.059082,-0.984375,0.298828,0
31060,0.0649414,-1.00049,0.27002,0
31080,0.165527,-1.01562,0.295898,0
31100,0.213379,-0.978027,0.309082,0
31120,0.186523,-1.00439,0.329102,0
31140,0.155762,-1.00732,0.335938,0
31160,0.156738,-1.00391,0.333496,0
31180,0.165527,-0.992188,0.350586,0
31200,0.145996,-0.962402,0.371094,0
31220,0.181641,-0.940918,0.379883,0
31240,0.202148,-0.939453,0.370117,0
31260,0.206055,-0.938477,0.388184,0
31280,0.210938,-0.917969,0.383789,0
31300,0.237793,-0.92334,0.328613,0
31320,0.273926,-0.898438,0.345703,0
31340,0.274414,-0.869629,0.351074,0
31360,0.214844,-0.814941,0.337891,0
31380,0.126953,-0.750488,0.325195,0
31400,0.111328,-0.72168,0.308594,0
31420,0.177246,-0.732422,0.321289,0
31440,0.208984,-0.772949,0.338867,0
31460,0.224609,-0.779785,0.314453,0
31480,0.233887,-0.756348,0.309082,0
31500,0.259277,-0.705078,0.331055,0
31520,0.282227,-0.657715,0.316406,0
31540,0.340332,-0.679688,0.26709,0
31560,0.374512,-0.700195,0.272461,0
31580,0.404297,-0.698242,0.285645,0
31600,0.431641,-0.700195,0.281738,0
31620,0.453613,-0.711426,0.257324,0
31640,0.502441,-0.70166,0.23291,0
31660,0.561523,-0.710938,0.210938,0
31680,0.589844,-0.692383,0.230469,0
31700,0.597656,-0.664551,0.233887,0
31720,0.620117,-0.664551,0.204102,0
31740,0.685059,-0.67334,0.195312,0
31760,0.734375,-0.688477,0.187988,0
31780,0.72168,-0.694824,0.157715,0
31800,0.721191,-0.654785,0.154297,0
31820,0.760254,-0.659668,0.135254,0
31840,0.774414,-0.648438,0.113281,0
31860,0.822754,-0.645996,0.09375,0
31880,0.863281,-0.635742,0.0878906,0
31900,0.841309,-0.652344,0.0600586,0
31920,0.831543,-0.591797,0.0859375,0
31940,0.811523,-0.602539,0.0639648,0
31960,0.786621,-0.586914,0.0551758,0
31980,0.762695,-0.586426,0.027832,0
32000,0.770996,-0.561035,0.0170898,0
32020,0.774902,-0.564941,0.0112305,0
32040,0.77002,-0.544922,0,0
32060,0.769531,-0.532227,-0.012207,0
32080,0.806152,-0.510742,-0.0234375,0
32100,0.787109,-0.541504,-0.0585938,0
32120,0.791016,-0.532227,-0.0957031,0
32140,0.735352,-0.520996,-0.12207,0
32160,0.71875,-0.517578,-0.122559,0
32180,0.756836,-0.527832,-0.130859,0
32200,0.783691,-0.522949,-0.0869141,0
32220,0.816406,-0.573242,-0.0292969,0
32240,0.750977,-0.56543,0.0288086,0
32260,0.733398,-0.554199,0.0146484,0
32280,0.768066,-0.53418,0,0
32300,0.795898,-0.554688,-0.0195312,0
32320,0.822754,-0.543457,-0.0234375,0
32340,0.837402,-0.5625,-0.0361328,0
32360,0.852051,-0.558594,-0.0771484,0
32380,0.861328,-0.546875,-0.106445,0
32400,0.878418,-0.544434,-0.130859,0
32420,0.862305,-0.549316,-0.138672,0
32440,0.850586,-0.566406,-0.147949,0
32460,0.825684,-0.567871,-0.0991211,0
32480,0.780762,-0.558594,-0.0683594,0
32500,0.762207,-0.574707,-0.0463867,0
32520,0.755371,-0.563965,-0.0249023,0
32540,0.761719,-0.552734,-0.0224609,0
32560,0.776855,-0.563477,-0.0258789,0
32580,0.777344,-0.553711,-0.034668,0
32600,0.788086,-0.572266,-0.0561523,0
32620,0.786621,-0.577637,-0.065918,0
32640,0.805664,-0.591309,-0.074707,0
32660,0.791504,-0.580078,-0.0473633,0
32680,0.775391,-0.599121,-0.0571289,0
32700,0.773438,-0.610352,-0.0571289,0
32720,0.772461,-0.602539,-0.0371094,0
32740,0.769531,-0.58252,-0.0214844,0
32760,0.758301,-0.583496,-0.0224609,0
32780,0.757324,-0.570801,-0.015625,0
32800,0.774902,-0.574219,-0.0439453,0
32820,0.785156,-0.572754,-0.0375977,0
32840,0.799805,-0.580078,-0.0507812,0
32860,0.819824,-0.570801,-0.0620117,0
32880,0.84375,-0.590332,-0.0419922,0
32900,0.833008,-0.603027,-0.0424805,0
32920,0.832031,-0.613281,-0.0332031,0
32930,0.822754,-0.602539,-0.00927734,0
32950,0.811035,-0.604004,0.0166016,0
32970,0.796875,-0.57666,0.0180664,0
32990,0.824707,-0.564453,-0.00976562,0
33010,0.824707,-0.567871,-0.0249023,0
33030,0.789551,-0.576172,-0.0244141,0
33050,0.779297,-0.577148,-0.0273438,0
33070,0.818848,-0.606934,-0.0151367,0
33090,0.790527,-0.57666,-0.0185547,0
33110,0.773438,-0.561035,-0.0141602,0
33130,0.714844,-0.510254,-0.0297852,0
33150,0.758789,-0.578613,-0.0341797,0
33170,0.751953,-0.591797,-0.0634766,0
33190,0.758789,-0.614746,-0.0288086,0
33210,0.74707,-0.610352,-0.0400391,0
33230,0.741699,-0.646973,-0.0268555,0
33250,0.748535,-0.619629,-0.0151367,0
33270,0.748535,-0.605469,-0.0253906,0
33290,0.750488,-0.630371,-0.034668,0
33310,0.761719,-0.637695,-0.0537109,0
33330,0.763672,-0.635254,-0.0615234,0
33350,0.763184,-0.648438,-0.0488281,0
33370,0.782715,-0.662598,-0.0761719,0
33390,0.745605,-0.65332,-0.0708008,0
33410,0.729004,-0.645508,-0.0776367,0
33430,0.742676,-0.63916,-0.0698242,0
33450,0.752441,-0.65625,-0.0625,0
33470,0.765625,-0.641602,-0.0439453,0
33490,0.774414,-0.631836,-0.0366211,0
33510,0.784668,-0.642578,-0.0571289,0
33530,0.765137,-0.631348,-0.0498047,0
33550,0.748047,-0.629883,-0.0708008,0
33570,0.741699,-0.632324,-0.0639648,0
33590,0.719727,-0.629883,-0.0605469,0
33610,0.707031,-0.640137,-0.0615234,0
33630,0.697266,-0.644043,-0.0405273,0
33650,0.692383,-0.640625,-0.03125,0
33670,0.69043,-0.65918,-0.0351562,0
33690,0.687012,-0.663086,-0.0429688,0
33710,0.681152,-0.673828,-0.0458984,0
33730,0.68457,-0.669434,-0.0458984,0
33750,0.686523,-0.666016,-0.0439453,0
33770,0.705078,-0.656738,-0.046875,0
33790,0.730469,-0.668945,-0.0566406,0
33810,0.740234,-0.663086,-0.0517578,0
33830,0.749512,-0.654785,-0.0517578,0
33850,0.771973,-0.678711,-0.0498047,0
33870,0.751465,-0.668457,-0.0302734,0
33890,0.743652,-0.662598,-0.0605469,0
33910,0.755371,-0.669434,-0.0458984,0
33930,0.729004,-0.68457,-0.0483398,0
33950,0.715332,-0.643066,-0.0444336,0
33970,0.732422,-0.644043,-0.0454102,0
33990,0.754883,-0.67041,-0.0610352,0
34010,0.758789,-0.65332,-0.0639648,0
34030,0.750977,-0.649414,-0.059082,0
34050,0.768066,-0.64502,-0.0517578,0
34070,0.780273,-0.67334,-0.0483398,0
34090,0.739258,-0.655273,-0.03125,0
34110,0.727539,-0.634766,-0.0688477,0
34130,0.728027,-0.628906,-0.0683594,0
34150,0.725586,-0.632812,-0.0712891,0
34170,0.719727,-0.632812,-0.0722656,0
34190,0.714844,-0.638672,-0.0595703,0
34210,0.720703,-0.644043,-0.0541992,0
34230,0.702637,-0.635742,-0.0537109,0
34250,0.707031,-0.640625,-0.0493164,0
34270,0.728027,-0.640137,-0.0561523,0
34290,0.737305,-0.643555,-0.0400391,0
34310,0.74707,-0.654785,-0.0698242,0
34330,0.762695,-0.663574,-0.0966797,0
34350,0.75293,-0.668945,-0.126465,0
34370,0.719238,-0.666992,-0.113281,0
34390,0.731934,-0.66748,-0.105957,0
34410,0.728027,-0.683594,-0.0825195,0
34430,0.719727,-0.682129,-0.0522461,0
34450,0.710449,-0.681152,-0.0410156,0
34470,0.723145,-0.675293,-0.059082,0
34490,0.737305,-0.67627,-0.0795898,0
34510,0.728516,-0.667969,-0.078125,0
34530,0.713867,-0.656738,-0.0673828,0
34550,0.715332,-0.666016,-0.0668945,0
34570,0.712402,-0.670898,-0.0546875,0
34590,0.695312,-0.670898,-0.0522461,0
34610,0.708008,-0.667969,-0.0585938,0
34630,0.732422,-0.678223,-0.0522461,0
34650,0.732422,-0.682617,-0.0527344,0
34670,0.722168,-0.681152,-0.0639648,0
34690,0.717773,-0.674805,-0.0649414,0
34710,0.720703,-0.678223,-0.0727539,0
34730,0.73291,-0.661133,-0.0688477,0
34750,0.734863,-0.652832,-0.0644531,0
34770,0.731934,-0.654297,-0.0708008,0
34790,0.737305,-0.655273,-0.0722656,0
34810,0.732422,-0.646484,-0.0678711,0
34830,0.732422,-0.641602,-0.0649414,0
34850,0.725098,-0.634766,-0.0625,0
34870,0.72998,-0.637207,-0.0654297,0
34890,0.739258,-0.631836,-0.0786133,0
34910,0.754883,-0.62793,-0.0810547,0
34930,0.743652,-0.637207,-0.0839844,0
34940,0.734375,-0.636719,-0.0722656,0
34960,0.729492,-0.63623,-0.0742188,0
34980,0.714844,-0.644531,-0.065918,0
35000,0.725098,-0.643555,-0.0742188,0
35020,0.720215,-0.635254,-0.0810547,0
35040,0.741699,-0.639648,-0.0732422,0
35060,0.751953,-0.655762,-0.0708008,0
35080,0.734375,-0.661621,-0.0791016,0
35100,0.733398,-0.665527,-0.078125,0
35120,0.750488,-0.664062,-0.0864258,0
35140,0.753906,-0.665527,-0.078125,0
35160,0.749512,-0.654785,-0.0634766,0
35180,0.722656,-0.660645,-0.0576172,0
35200,0.726074,-0.664551,-0.0703125,0
35220,0.730957,-0.658691,-0.0786133,0
35240,0.728516,-0.647461,-0.0683594,0
35260,0.730957,-0.658691,-0.0649414,0
35280,0.73291,-0.655273,-0.0561523,0
35300,0.722656,-0.657715,-0.0585938,0
35320,0.727051,-0.644531,-0.0639648,0
35340,0.735352,-0.648438,-0.065918,0
35360,0.740723,-0.649414,-0.0668945,0
35380,0.729492,-0.645996,-0.0629883,0
35400,0.719238,-0.644531,-0.0551758,0
35420,0.727051,-0.639648,-0.0571289,0
35440,0.731445,-0.648438,-0.0751953,0
35460,0.721191,-0.641113,-0.0668945,0
35480,0.73291,-0.638672,-0.0556641,0
35500,0.746582,-0.649902,-0.0742188,0
35520,0.743652,-0.646484,-0.0688477,0
35540,0.738281,-0.649414,-0.0825195,0
35560,0.742188,-0.657227,-0.0761719,0
35580,0.744629,-0.647461,-0.0722656,0
35600,0.736816,-0.650391,-0.081543,0
35620,0.740234,-0.63916,-0.0766602,0
35640,0.730469,-0.628418,-0.0649414,0
35660,0.736328,-0.635254,-0.0776367,0
35680,0.741211,-0.642578,-0.0717773,0
35700,0.745117,-0.635742,-0.0678711,0
35720,0.750488,-0.63623,-0.0761719,0
35740,0.775879,-0.634766,-0.0673828,0
35760,0.760254,-0.652832,-0.0639648,0
35780,0.749512,-0.643066,-0.0571289,0
35800,0.740723,-0.64209,-0.0639648,0
35820,0.745117,-0.645996,-0.0722656,0
35840,0.739258,-0.646484,-0.0654297,0
35860,0.740234,-0.633301,-0.0576172,0
35880,0.729004,-0.634277,-0.0493164,0
35900,0.732422,-0.631836,-0.0625,0
35920,0.746582,-0.624023,-0.078125,0
35940,0.740234,-0.611328,-0.0810547,0
35960,0.724609,-0.588379,-0.09375,0
35980,0.728516,-0.611328,-0.0805664,0
36000,0.763672,-0.593262,-0.0517578,0
36020,0.759277,-0.602051,-0.0283203,0
36040,0.782227,-0.612305,-0.0166016,0
36060,0.817383,-0.624023,0.0273438,0
36080,0.837891,-0.652344,0.0112305,0
36100,0.759766,-0.649414,0.0151367,0
36120,0.689453,-0.614258,0.0600586,0
36140,0.669434,-0.625977,0.104492,0
36160,0.685547,-0.649414,0.133301,0
36180,0.70752,-0.67334,0.139648,0
36200,0.718262,-0.700195,0.154297,0
36220,0.711426,-0.694824,0.152832,0
36240,0.691406,-0.713867,0.162109,0
36260,0.666504,-0.695312,0.171387,0
36280,0.666016,-0.698242,0.172852,0
36300,0.641602,-0.704102,0.186523,0
36320,0.619629,-0.720215,0.172852,0
36340,0.603027,-0.736328,0.173828,0
36360,0.572754,-0.739746,0.182129,0
36380,0.561035,-0.754395,0.193359,0
36400,0.538574,-0.762207,0.196289,0
36420,0.519531,-0.764648,0.185547,0
36440,0.520508,-0.779297,0.190918,0
36460,0.502441,-0.767578,0.216797,0
36480,0.49707,-0.782227,0.200195,0
36500,0.510254,-0.766113,0.189941,0
36520,0.506836,-0.773926,0.171875,0
36540,0.479492,-0.789551,0.188965,0
36560,0.453125,-0.780273,0.216797,0
36580,0.461914,-0.805176,0.21582,0
36600,0.48877,-0.824219,0.210449,0
36620,0.505371,-0.82959,0.195801,0
36640,0.512695,-0.821289,0.20459,0
36660,0.503418,-0.827148,0.21582,0
36680,0.490723,-0.810059,0.20752,0
36700,0.502441,-0.810547,0.204102,0
36720,0.501465,-0.819336,0.206543,0
36740,0.495605,-0.822754,0.21582,0
36760,0.505371,-0.831055,0.214355,0
36780,0.495117,-0.813965,0.216309,0
36800,0.511719,-0.800781,0.197266,0
36820,0.525879,-0.80127,0.196289,0
36840,0.526855,-0.804199,0.194336,0
36860,0.518066,-0.819336,0.205078,0
36880,0.503906,-0.828125,0.193359,0
36900,0.502441,-0.81543,0.194336,0
36920,0.509277,-0.794434,0.193848,0
36940,0.495605,-0.794922,0.19043,0
36960,0.508789,-0.806641,0.194824,0
36980,0.510254,-0.816895,0.199707,0
37000,0.509766,-0.812012,0.188477,0
37020,0.515137,-0.806152,0.191895,0
37040,0.513672,-0.802246,0.205078,0
37060,0.494629,-0.794434,0.203613,0
37080,0.492676,-0.794434,0.195312,0
37100,0.505859,-0.828125,0.192383,0
37120,0.505371,-0.807129,0.217285,0
37140,0.494141,-0.795898,0.211914,0
37160,0.495117,-0.793945,0.187988,0
37180,0.509277,-0.797363,0.1875,0
37200,0.505859,-0.808594,0.210449,0
37220,0.490234,-0.805664,0.215332,0
37240,0.489746,-0.800293,0.203125,0
37260,0.498047,-0.808105,0.204102,0
37280,0.498047,-0.805176,0.20752,0
37300,0.493652,-0.806152,0.196777,0
37320,0.491699,-0.810547,0.191895,0
37340,0.486816,-0.801758,0.208984,0
37360,0.489746,-0.808105,0.19873,0
37380,0.489746,-0.813965,0.203125,0
37400,0.484375,-0.820312,0.203125,0
37420,0.481934,-0.836426,0.19043,0
37440,0.477051,-0.823242,0.207031,0
37460,0.478027,-0.824219,0.200195,0
37480,0.48877,-0.828125,0.20459,0
37500,0.495117,-0.833008,0.197266,0
37520,0.484863,-0.836914,0.189941,0
37540,0.493164,-0.837891,0.198242,0
37560,0.490723,-0.823242,0.20166,0
37580,0.482422,-0.808105,0.188965,0
37600,0.481934,-0.774902,0.183594,0
37620,0.48291,-0.805664,0.193848,0
37640,0.467285,-0.820312,0.199707,0
37660,0.473633,-0.812988,0.186035,0
37680,0.487793,-0.818848,0.189941,0
37700,0.489258,-0.790527,0.193848,0
37720,0.484375,-0.797363,0.200684,0
37740,0.467285,-0.801758,0.211914,0
37760,0.463379,-0.807129,0.210449,0
37780,0.46582,-0.821777,0.212402,0
37800,0.473145,-0.823242,0.212402,0
37820,0.479492,-0.814941,0.218262,0
37840,0.469238,-0.820801,0.202148,0
37860,0.480957,-0.826172,0.202148,0
37880,0.492676,-0.847168,0.21875,0
37900,0.480957,-0.831055,0.216797,0
37920,0.466797,-0.829102,0.224609,0
37940,0.467285,-0.828125,0.23584,0
37960,0.472168,-0.819824,0.211426,0
37980,0.47998,-0.824219,0.208008,0
38000,0.469727,-0.806641,0.222168,0
38020,0.462891,-0.799316,0.225098,0
38040,0.45459,-0.798828,0.22168,0
38060,0.461426,-0.803711,0.226074,0
38080,0.474121,-0.797363,0.21875,0
38100,0.470215,-0.783691,0.236328,0
38120,0.464355,-0.765625,0.220703,0
38140,0.478516,-0.769043,0.216797,0
38160,0.491211,-0.792969,0.249023,0
38180,0.489258,-0.817383,0.255371,0
38200,0.497559,-0.816895,0.245117,0
38220,0.498047,-0.826172,0.234863,0
38240,0.500977,-0.824707,0.222656,0
38260,0.480469,-0.821289,0.21875,0
38280,0.473145,-0.82373,0.23584,0
38300,0.461914,-0.817383,0.264648,0
38320,0.436523,-0.8125,0.284668,0
38340,0.40918,-0.821777,0.259277,0
38360,0.411621,-0.813965,0.266113,0
38380,0.42334,-0.833496,0.268555,0
38390,0.419922,-0.826172,0.283691,0
38410,0.404785,-0.824219,0.291504,0
38430,0.400879,-0.810547,0.285645,0
38450,0.399414,-0.807129,0.308105,0
38470,0.397461,-0.82373,0.318359,0
38490,0.394531,-0.8125,0.30127,0
38510,0.393066,-0.828613,0.297363,0
38530,0.381348,-0.829102,0.307617,0
38550,0.390137,-0.807129,0.302246,0
38570,0.384766,-0.816406,0.298828,0
38590,0.413574,-0.827148,0.307617,0
38610,0.407715,-0.830078,0.288574,0
38630,0.392578,-0.82959,0.280762,0
38650,0.393066,-0.826172,0.28125,0
38670,0.383301,-0.8125,0.28418,0
38690,0.383789,-0.82666,0.272949,0
38710,0.369629,-0.838379,0.289062,0
38730,0.382812,-0.862305,0.289551,0
38750,0.388672,-0.862793,0.289551,0
38770,0.392578,-0.857422,0.279785,0
38790,0.375977,-0.848145,0.274902,0
38810,0.370117,-0.854492,0.282227,0
38830,0.355469,-0.870605,0.283203,0
38850,0.36084,-0.864746,0.289551,0
38870,0.364258,-0.830566,0.294434,0
38890,0.353027,-0.864258,0.300781,0
38910,0.338867,-0.866699,0.300293,0
38930,0.332031,-0.862305,0.307617,0
38950,0.319336,-0.877441,0.304688,0
38970,0.313965,-0.858887,0.310059,0
38990,0.305664,-0.867188,0.301758,0
39010,0.301758,-0.855469,0.322754,0
39030,0.314453,-0.876465,0.324219,0
39050,0.307129,-0.853027,0.321777,0
39070,0.296875,-0.890137,0.32666,0
39090,0.297852,-0.87207,0.331055,0
39110,0.301758,-0.864258,0.334473,0
39130,0.299316,-0.86377,0.32666,0
39150,0.288574,-0.858887,0.342285,0
39170,0.275879,-0.859863,0.348145,0
39190,0.274902,-0.870117,0.336914,0
39210,0.27832,-0.859375,0.340332,0
39230,0.267578,-0.826172,0.348145,0
39250,0.251465,-0.823242,0.352051,0
39270,0.250977,-0.853027,0.365723,0
39290,0.253906,-0.870117,0.370605,0
39310,0.251953,-0.887207,0.362793,0
39330,0.246094,-0.878418,0.353027,0
39350,0.259277,-0.868164,0.354492,0
39370,0.253418,-0.857422,0.35791,0
39390,0.24707,-0.864258,0.35791,0
39410,0.240234,-0.855957,0.36377,0
39430,0.240234,-0.878418,0.367188,0
39450,0.243164,-0.878418,0.356445,0
39470,0.233887,-0.862793,0.367188,0
39490,0.224609,-0.867676,0.369141,0
39510,0.222656,-0.87793,0.35791,0
39530,0.226562,-0.888184,0.342773,0
39550,0.232422,-0.876953,0.356934,0
39570,0.223145,-0.893555,0.362305,0
39590,0.21875,-0.888184,0.36084,0
39610,0.228027,-0.907227,0.354004,0
39630,0.222168,-0.894043,0.351562,0
39650,0.230469,-0.904297,0.348145,0
39670,0.240234,-0.905273,0.34668,0
39690,0.241699,-0.894531,0.348633,0
39710,0.235352,-0.887207,0.353027,0
39730,0.233887,-0.885254,0.352051,0
39750,0.22998,-0.88623,0.34668,0
39770,0.23584,-0.891602,0.352539,0
39790,0.234863,-0.888184,0.353516,0
39810,0.228027,-0.876465,0.349609,0
39830,0.241699,-0.870117,0.34668,0
39850,0.247559,-0.876465,0.338867,0
39870,0.257324,-0.870117,0.353027,0
39890,0.258789,-0.861328,0.347656,0
39910,0.268066,-0.859375,0.348633,0
39930,0.291992,-0.847168,0.36377,0
39950,0.305664,-0.825684,0.388184,0
39970,0.32373,-0.819336,0.355957,0
39990,0.321777,-0.812012,0.32666,0
40010,0.321289,-0.81543,0.340332,0
40030,0.324707,-0.818359,0.364258,0
40050,0.311035,-0.824707,0.344727,0
40070,0.309082,-0.826172,0.367676,0
40090,0.290527,-0.84668,0.364258,0
40110,0.288086,-0.870605,0.354492,0
40130,0.283203,-0.847168,0.334473,0
40150,0.283691,-0.870117,0.350586,0
40170,0.282715,-0.893555,0.354004,0
40190,0.275391,-0.886719,0.342773,0
40210,0.276855,-0.898438,0.334473,0
40230,0.275391,-0.872559,0.340332,0
40250,0.273926,-0.893066,0.352051,0
40270,0.257812,-0.89209,0.333496,0
40280,0.251465,-0.878418,0.32373,0
40310,0.243652,-0.879395,0.303711,0
40330,0.245605,-0.881348,0.302734,0
40350,0.226074,-0.855469,0.330078,0
40370,0.217285,-0.865234,0.327148,0
40390,0.216309,-0.864258,0.333008,0
40410,0.235352,-0.854492,0.32959,0
40420,0.24707,-0.859863,0.328125,0
40440,0.245117,-0.847656,0.320801,0
40460,0.240234,-0.850586,0.326172,0
40480,0.227051,-0.857422,0.327148,0
40500,0.233398,-0.86377,0.334473,0
40520,0.232422,-0.863281,0.328125,0
40540,0.229004,-0.865234,0.321289,0
40560,0.211914,-0.890137,0.318359,0
40580,0.19873,-0.905762,0.320312,0
40600,0.193359,-0.901855,0.313965,0
40620,0.173828,-0.911133,0.300293,0
40640,0.158691,-0.922852,0.270996,0
40660,0.161621,-0.929688,0.26416,0
40680,0.175293,-0.942871,0.318359,0
40700,0.205078,-0.931152,0.327148,0
40720,0.219238,-0.931152,0.307617,0
40740,0.231445,-0.933594,0.316406,0
40760,0.220703,-0.925781,0.346191,0
40780,0.21582,-0.90332,0.349121,0
40800,0.232422,-0.885254,0.348145,0
40820,0.242676,-0.860352,0.34668,0
40840,0.230957,-0.855957,0.353516,0
40860,0.227051,-0.827148,0.342285,0
40880,0.237305,-0.821289,0.341797,0
40900,0.249023,-0.832031,0.34375,0
40920,0.251953,-0.844238,0.344238,0
40940,0.243164,-0.856445,0.328125,0
40960,0.237793,-0.869629,0.321777,0
40980,0.247559,-0.878906,0.337891,0
41000,0.255371,-0.890137,0.35498,0
41020,0.258301,-0.898438,0.352539,0
41040,0.263184,-0.890625,0.344238,0
41060,0.254883,-0.890625,0.345703,0
41080,0.252441,-0.890137,0.342773,0
41100,0.234375,-0.885254,0.339844,0
41120,0.219727,-0.886719,0.355469,0
41140,0.21875,-0.886719,0.366699,0
41160,0.22998,-0.884277,0.375,0
41190,0.231934,-0.865723,0.364746,0
41210,0.241699,-0.864258,0.372559,0
41230,0.245117,-0.845703,0.373535,0
41250,0.246094,-0.862305,0.37793,0
41270,0.243164,-0.855957,0.38623,0
41290,0.248047,-0.833008,0.397949,0
41310,0.249512,-0.849609,0.410645,0
41330,0.252441,-0.849121,0.405273,0
41350,0.256348,-0.856934,0.409668,0
41370,0.262695,-0.870605,0.385254,0
41390,0.265137,-0.849121,0.396484,0
41410,0.240234,-0.824707,0.411621,0
41430,0.243164,-0.833984,0.41748,0
41450,0.248535,-0.836426,0.428223,0
41470,0.238281,-0.814453,0.422852,0
41490,0.23291,-0.826172,0.427734,0
41510,0.215332,-0.794434,0.431641,0
41530,0.206543,-0.796387,0.427246,0
41550,0.208496,-0.79834,0.438965,0
41570,0.205566,-0.808594,0.438965,0
41590,0.198242,-0.807129,0.445312,0
41610,0.197754,-0.805176,0.451172,0
41630,0.193359,-0.809082,0.460449,0
41650,0.203125,-0.82959,0.456543,0
41670,0.222168,-0.835938,0.446289,0
41690,0.229492,-0.820312,0.445801,0
41710,0.224609,-0.800781,0.461914,0
41730,0.216797,-0.78125,0.458008,0
41750,0.228516,-0.799316,0.46582,0
41770,0.243652,-0.8125,0.484375,0
41790,0.241211,-0.810059,0.475586,0
41810,0.247559,-0.788086,0.473145,0
41830,0.258789,-0.804199,0.470215,0
41850,0.267578,-0.802734,0.479004,0
41870,0.263184,-0.800293,0.479004,0
41890,0.245117,-0.812012,0.472168,0
41910,0.241211,-0.80957,0.480469,0
41930,0.235352,-0.79541,0.497559,0
41950,0.226074,-0.803223,0.492676,0
41970,0.220215,-0.802246,0.491699,0
41990,0.220703,-0.810547,0.490234,0
42010,0.21582,-0.796875,0.479492,0
42030,0.22168,-0.802246,0.472168,0
42050,0.222656,-0.794922,0.476562,0
42070,0.21875,-0.797363,0.479492,0
42090,0.21875,-0.79834,0.47998,0
42110,0.211914,-0.802734,0.473633,0
42130,0.208496,-0.79834,0.473633,0
42150,0.206055,-0.795898,0.48584,0
42170,0.214844,-0.800293,0.476074,0
42190,0.23291,-0.801758,0.473633,0
42210,0.234375,-0.79834,0.483398,0
42230,0.246094,-0.789551,0.483398,0
42250,0.246582,-0.787109,0.50293,0
42270,0.245117,-0.806152,0.509766,0
42290,0.243164,-0.788574,0.477539,0
42310,0.239746,-0.813965,0.459961,0
42330,0.276367,-0.877441,0.460449,0
42350,0.285645,-0.827637,0.418457,0
42370,0.271484,-0.763184,0.452148,0
42390,0.27002,-0.75,0.473633,0
42410,0.285156,-0.808105,0.469727,0
42430,0.288574,-0.831543,0.478027,0
42450,0.28418,-0.790527,0.479492,0
42470,0.308594,-0.791992,0.478027,0
42490,0.29834,-0.759277,0.470215,0
42510,0.299805,-0.751953,0.496582,0
42530,0.304199,-0.746094,0.496094,0
42550,0.327148,-0.736816,0.486328,0
42570,0.333984,-0.737793,0.480957,0
42590,0.320801,-0.710449,0.476074,0
42610,0.325195,-0.717285,0.493652,0
42630,0.337891,-0.726562,0.491699,0
42650,0.337402,-0.70166,0.489258,0
42670,0.324707,-0.684082,0.513184,0
42690,0.327148,-0.703613,0.51123,0
42710,0.341309,-0.711426,0.505859,0
42730,0.346191,-0.731445,0.500977,0
42750,0.341309,-0.736816,0.480957,0
42770,0.333984,-0.715332,0.494141,0
42790,0.310547,-0.723145,0.506348,0
42810,0.316406,-0.736816,0.51416,0
42830,0.308105,-0.757324,0.513184,0
42850,0.306641,-0.77002,0.504883,0
42870,0.314941,-0.780762,0.484863,0
42890,0.336426,-0.83252,0.474609,0
42910,0.374023,-0.891113,0.459961,0
42930,0.423828,-0.907227,0.450684,0
42950,0.444336,-0.894043,0.470215,0
42970,0.442871,-0.868652,0.501953,0
42990,0.444824,-0.861328,0.556152,0
43010,0.506348,-0.841797,0.568848,0
43030,0.601074,-0.764648,0.577148,0
43050,0.651367,-0.713867,0.555176,0
43070,0.724121,-0.652832,0.541016,0
43090,0.785156,-0.565918,0.523926,0
43110,0.750488,-0.570312,0.524902,0
43130,0.667969,-0.593262,0.538086,0
43150,0.596191,-0.577637,0.453125,0
43170,0.581543,-0.725586,0.371094,0
43190,0.379395,-0.736816,0.336914,0
43210,0.0756836,-0.730469,0.345215,0
43230,-0.165039,-0.729492,0.330566,0
43250,-0.275879,-0.505859,0.363281,0
43270,-0.140137,-0.526367,0.412109,0
43290,0.210938,-0.592285,0.374512,0
43310,0.557129,-0.724121,0.358887,0
43330,0.761719,-0.720703,0.397949,0
43350,0.697754,-0.651855,0.43457,0
43370,0.473633,-0.558105,0.518555,0
43390,0.362793,-0.536133,0.554688,0
43410,0.319824,-0.609375,0.561523,0
43430,0.288574,-0.658203,0.572754,0
43450,0.283203,-0.669922,0.588867,0
43470,0.374512,-0.720703,0.572754,0
43490,0.45752,-0.716797,0.563477,0
43510,0.496582,-0.688965,0.514648,0
43530,0.474121,-0.697266,0.503418,0
43550,0.452148,-0.72168,0.507324,0
43570,0.445312,-0.705078,0.513184,0
43590,0.430664,-0.710449,0.509277,0
43610,0.429688,-0.691406,0.509766,0
43630,0.416016,-0.675293,0.513672,0
43650,0.402344,-0.657227,0.521973,0
43670,0.411621,-0.654785,0.516113,0
43690,0.411621,-0.675781,0.486328,0
43710,0.413574,-0.660156,0.480957,0
43730,0.422363,-0.663574,0.486816,0
43750,0.430664,-0.677246,0.504395,0
43770,0.413574,-0.644531,0.513672,0
43790,0.400879,-0.64209,0.507324,0
43810,0.403809,-0.65625,0.518555,0
43830,0.412598,-0.679199,0.521973,0
43840,0.427246,-0.702637,0.505371,0
43860,0.437988,-0.713867,0.495117,0
43880,0.44873,-0.710449,0.492676,0
43900,0.447754,-0.709473,0.490234,0
43920,0.45459,-0.693359,0.501953,0
43940,0.466309,-0.703125,0.477539,0
43960,0.435059,-0.680176,0.479004,0
43980,0.399414,-0.683105,0.5,0
44000,0.398926,-0.686035,0.520996,0
44020,0.390137,-0.686035,0.506348,0
44040,0.381348,-0.681152,0.52002,0
44060,0.378418,-0.67334,0.531738,0
44080,0.405273,-0.671875,0.519531,0
44100,0.428711,-0.669922,0.515137,0
44120,0.424805,-0.660645,0.510742,0
44140,0.411621,-0.674316,0.508301,0
44160,0.407715,-0.705566,0.508789,0
44180,0.412598,-0.692871,0.503418,0
44200,0.403809,-0.685547,0.498047,0
44220,0.396484,-0.686035,0.494141,0
44240,0.390625,-0.679688,0.502441,0
44260,0.402832,-0.686035,0.490723,0
44280,0.422363,-0.690918,0.500488,0
44300,0.435547,-0.690918,0.478516,0
44320,0.419434,-0.677246,0.482422,0
44340,0.411133,-0.680176,0.497559,0
44360,0.400879,-0.683594,0.514648,0
44380,0.400879,-0.693848,0.489746,0
44400,0.415527,-0.694336,0.480957,0
44420,0.418457,-0.691895,0.489258,0
44440,0.416504,-0.69873,0.499512,0
44460,0.411133,-0.704102,0.491211,0
44480,0.408691,-0.711426,0.489746,0
44500,0.415527,-0.697754,0.490723,0
44520,0.398438,-0.697754,0.489746,0
44540,0.393555,-0.695312,0.497559,0
44560,0.399902,-0.696777,0.490234,0
44580,0.401367,-0.701172,0.483887,0
44600,0.391113,-0.685059,0.495117,0
44620,0.396484,-0.688477,0.454102,0
44640,0.370117,-0.686035,0.443359,0
44660,0.367676,-0.683594,0.4375,0
44680,0.345215,-0.672852,0.427734,0
44700,0.320312,-0.661621,0.404785,0
44720,0.341309,-0.71582,0.380371,0
44740,0.334961,-0.689453,0.438477,0
44760,0.311035,-0.699219,0.474121,0
44780,0.283691,-0.6875,0.461426,0
44800,0.219727,-0.68457,0.385254,0
44820,0.18457,-0.671387,0.374023,0
44840,0.140625,-0.688477,0.360352,0
44860,0.0556641,-0.775391,0.386719,0
44880,-0.0151367,-0.741211,0.359375,0
44900,-0.0561523,-0.766113,0.369629,0
44920,-0.0927734,-0.773438,0.433105,0
44940,-0.106445,-0.820312,0.447754,0
44960,-0.124023,-0.855469,0.480469,0
44980,-0.09375,-0.855469,0.51709,0
45000,-0.0727539,-0.899902,0.600586,0
45020,0.00439453,-0.873535,0.657227,0
45040,0.0683594,-0.93457,0.598145,0
45060,0.133301,-1.07031,0.58252,0
45080,0.249512,-1.07666,0.65918,0
45100,0.284668,-1.05078,0.635742,0
45120,0.262207,-1.01367,0.612793,0
45140,0.225586,-0.920898,0.581543,0
45160,0.169434,-0.862305,0.560059,0
45180,0.151367,-0.859863,0.541504,0
45200,0.154785,-0.920898,0.560059,0
45220,0.0961914,-0.931152,0.586426,0
45240,0.0576172,-0.945312,0.563965,0
45260,0.0214844,-0.943359,0.558105,0
45280,-0.0332031,-0.946777,0.553223,0
45300,-0.0761719,-0.952637,0.54248,0
45320,-0.120605,-0.924805,0.501465,0
45340,-0.130859,-0.868164,0.489258,0
45360,-0.145996,-0.845703,0.460449,0
45380,-0.15918,-0.805664,0.416504,0
45400,-0.177734,-0.787598,0.387695,0
45420,-0.193848,-0.777344,0.387207,0
45440,-0.200684,-0.786621,0.390137,0
45460,-0.197266,-0.781738,0.392578,0
45480,-0.196777,-0.797852,0.382324,0
45500,-0.177734,-0.824219,0.367188,0
45520,-0.182617,-0.843262,0.363281,0
45540,-0.131836,-0.858887,0.385254,0
45560,-0.0776367,-0.877441,0.391113,0
45580,-0.00341797,-0.900879,0.375977,0
45600,0.0483398,-0.92334,0.395996,0
45620,0.0771484,-0.926758,0.424805,0
45640,0.110352,-0.917969,0.453613,0
45660,0.110352,-0.899902,0.457031,0
45680,0.118164,-0.891602,0.475586,0
45700,0.105469,-0.874512,0.494141,0
45720,0.0913086,-0.873047,0.504883,0
45740,0.0639648,-0.856934,0.509277,0
45760,0.0405273,-0.862793,0.503418,0
45780,0.0336914,-0.856934,0.483398,0
45800,0.0170898,-0.859863,0.469727,0
45820,0.0102539,-0.860352,0.447754,0
45840,0.00927734,-0.866211,0.431641,0
45860,-0.00439453,-0.877441,0.40625,0
45870,-0.00732422,-0.878418,0.411133,0
45890,-0.0209961,-0.874512,0.414551,0
45910,-0.015625,-0.875977,0.412109,0
45930,-0.0249023,-0.882324,0.402344,0
45950,-0.00878906,-0.903809,0.402344,0
45970,-0.000976562,-0.901367,0.404785,0
45990,-0.00732422,-0.882812,0.402832,0
46010,-0.0141602,-0.874023,0.42041,0
46030,-0.00390625,-0.869141,0.443848,0
46050,-0.00439453,-0.880371,0.44873,0
46070,0.00195312,-0.887207,0.443848,0
46090,-0.015625,-0.884766,0.441406,0
46110,-0.0400391,-0.888672,0.45752,0
46130,-0.0439453,-0.887207,0.469727,0
46150,-0.0561523,-0.887695,0.450195,0
46170,-0.0551758,-0.878906,0.427246,0
46190,-0.0385742,-0.876465,0.414551,0
46210,-0.0307617,-0.870605,0.425781,0
46230,-0.019043,-0.87207,0.407227,0
46250,-0.00146484,-0.876953,0.398926,0
46270,0.0141602,-0.87207,0.400391,0
46290,0.0317383,-0.861328,0.404785,0
46310,0.0493164,-0.877441,0.393066,0
46330,0.059082,-0.907227,0.400391,0
46350,0.0585938,-0.893066,0.396484,0
46370,0.0522461,-0.912598,0.376465,0
46390,0.0908203,-0.924805,0.39502,0
46410,0.111816,-0.95166,0.414551,0
46430,0.101562,-0.968262,0.437012,0
46450,0.0678711,-0.961426,0.379883,0
46470,0.104004,-0.97168,0.336914,0
46490,0.176758,-0.962891,0.339844,0
46510,0.274414,-1.00439,0.358398,0
46530,0.297363,-1.03076,0.376953,0
46550,0.307617,-1.06787,0.317383,0
46570,0.307617,-1.03125,0.296875,0
46590,0.310547,-1.02148,0.305664,0
46610,0.309082,-1.0127,0.327148,0
46630,0.306152,-1.02539,0.300293,0
46650,0.286133,-0.98584,0.277832,0
46670,0.260254,-0.951172,0.245117,0
46690,0.271973,-0.963379,0.241211,0
46710,0.276855,-0.945801,0.217285,0
46730,0.268066,-0.956543,0.164551,0
46750,0.254395,-0.930664,0.125,0
46770,0.248535,-0.913574,0.110352,0
46790,0.279785,-0.899414,0.0561523,0
46810,0.28418,-0.870117,0.0566406,0
46830,0.244629,-0.888184,0.0380859,0
46850,0.194336,-0.850098,0.0288086,0
46870,0.183105,-0.801758,-0.00976562,0
46890,0.218262,-0.813965,-0.0263672,0
46910,0.212891,-0.800781,-0.0336914,0
46930,0.195801,-0.790039,-0.0634766,0
46950,0.1875,-0.798828,-0.0717773,0
46970,0.21875,-0.804199,-0.0683594,0
46990,0.232422,-0.820801,-0.105957,0
47010,0.238281,-0.826172,-0.114258,0
47030,0.242188,-0.846191,-0.090332,0
47050,0.255371,-0.859863,-0.097168,0
47070,0.258301,-0.880859,-0.127441,0
47090,0.282715,-0.915527,-0.134766,0
47110,0.305664,-0.94043,-0.143555,0
47130,0.317383,-0.96582,-0.14502,0
47150,0.317871,-0.978027,-0.140137,0
47170,0.324219,-0.992676,-0.13916,0
47190,0.332031,-0.993652,-0.146484,0
47210,0.344238,-1.00146,-0.144043,0
47230,0.34668,-0.979004,-0.129395,0
47250,0.342285,-0.976562,-0.128906,0
47270,0.350586,-0.976562,-0.121094,0
47290,0.345703,-0.979004,-0.106445,0
47310,0.346191,-0.983887,-0.102051,0
47330,0.342285,-0.969727,-0.105469,0
47350,0.345215,-0.949707,-0.09375,0
47370,0.327148,-0.959473,-0.102539,0
47390,0.317871,-0.949707,-0.0893555,0
47410,0.316895,-0.950195,-0.0791016,0
47430,0.307129,-0.884766,-0.0664062,0
47450,0.35791,-0.954102,0.0234375,0
47470,0.368164,-0.942871,-0.136719,0
47490,0.271973,-0.984375,-0.108398,0
47510,0.16748,-1.01807,-0.0258789,0
47530,0.308594,-0.928711,-0.0649414,0
47550,0.47998,-0.997559,-0.0717773,0
47570,0.506836,-1.03467,-0.0786133,0
47590,0.474609,-0.999023,-0.103027,0
47610,0.43457,-0.92627,-0.0917969,0
47630,0.416992,-0.88916,-0.012207,0
47650,0.401367,-0.874512,0.0556641,0
47670,0.362793,-0.804688,0.132324,0
47690,0.390625,-0.828125,0.104492,0
47710,0.47168,-0.895508,0.0561523,0
47730,0.489746,-0.891602,0.0649414,0
47750,0.443848,-0.827148,0.0991211,0
47770,0.418945,-0.790039,0.113281,0
47790,0.418457,-0.777832,0.101074,0
47810,0.409668,-0.809082,0.109863,0
47830,0.388184,-0.861328,0.169922,0
47850,0.37793,-0.869629,0.155273,0
47870,0.392578,-0.85791,0.141113,0
47890,0.396973,-0.853516,0.148926,0
47910,0.388184,-0.845703,0.178711,0
47930,0.381348,-0.849121,0.181641,0
47950,0.385742,-0.869141,0.188965,0
47970,0.385742,-0.877441,0.200684,0
47990,0.409668,-0.873047,0.165039,0
48010,0.424316,-0.884766,0.180664,0
48030,0.403809,-0.892578,0.202148,0
48050,0.401367,-0.87793,0.194336,0
48070,0.400879,-0.866699,0.182617,0
48090,0.411133,-0.85791,0.189453,0
48110,0.414551,-0.87793,0.182129,0
48130,0.402832,-0.881836,0.175293,0
48150,0.400879,-0.87207,0.177734,0
48170,0.407715,-0.885254,0.177734,0
48190,0.398438,-0.882324,0.166992,0
48210,0.387207,-0.865234,0.180176,0
48230,0.392578,-0.870605,0.179199,0
48250,0.409668,-0.869629,0.178711,0
48270,0.402344,-0.884766,0.176758,0
48290,0.392578,-0.874512,0.185547,0
48310,0.397461,-0.863281,0.182129,0
48330,0.406738,-0.875977,0.195801,0
48350,0.410645,-0.887207,0.177246,0
48370,0.40625,-0.876953,0.180176,0
48390,0.396973,-0.868652,0.192871,0
48410,0.396973,-0.869141,0.176758,0
48430,0.400391,-0.867676,0.18457,0
48450,0.410156,-0.869629,0.19043,0
48470,0.412109,-0.876953,0.168457,0
48490,0.404297,-0.880371,0.165527,0
48510,0.397949,-0.875977,0.174316,0
48530,0.385254,-0.862793,0.184082,0
48550,0.389648,-0.880371,0.17627,0
48570,0.409668,-0.866211,0.165039,0
48590,0.418457,-0.865723,0.169434,0
48610,0.418457,-0.864258,0.185059,0
48630,0.406738,-0.859863,0.19043,0
48650,0.405273,-0.862305,0.196289,0
48670,0.428711,-0.876465,0.183105,0
48690,0.429199,-0.87207,0.174805,0
48710,0.418945,-0.87207,0.17627,0
48730,0.411133,-0.857422,0.185547,0
48750,0.40332,-0.866699,0.180176,0
48770,0.39502,-0.876465,0.184082,0
48790,0.393066,-0.877441,0.187012,0
48810,0.388672,-0.862305,0.191895,0
48830,0.383301,-0.857422,0.198242,0
48850,0.375,-0.859375,0.197754,0
48870,0.371094,-0.880371,0.213867,0
48890,0.388672,-0.89502,0.212891,0
48910,0.393555,-0.881348,0.210938,0
48930,0.399902,-0.871094,0.212402,0
48950,0.391602,-0.868164,0.21582,0
48970,0.386719,-0.884766,0.220703,0
48990,0.382812,-0.891113,0.218262,0
49010,0.38916,-0.875488,0.215332,0
49030,0.399414,-0.876953,0.22168,0
49050,0.398438,-0.873535,0.219727,0
49070,0.390625,-0.855957,0.215332,0
49090,0.387695,-0.868164,0.21582,0
49110,0.391113,-0.859863,0.223145,0
49130,0.381836,-0.866699,0.239258,0
49150,0.385742,-0.858398,0.227539,0
49170,0.405762,-0.866699,0.236328,0
49190,0.412598,-0.873535,0.223633,0
49210,0.403809,-0.849121,0.220215,0
49230,0.397949,-0.83252,0.243652,0
49250,0.395508,-0.844238,0.236328,0
49270,0.396973,-0.850098,0.210938,0
49290,0.403809,-0.865234,0.208984,0
49300,0.395508,-0.844238,0.228027,0
49320,0.380371,-0.82373,0.233398,0
49340,0.380859,-0.826172,0.234863,0
49360,0.390625,-0.814941,0.237793,0
49380,0.38916,-0.807617,0.244141,0
49400,0.391602,-0.814941,0.241211,0
49420,0.398438,-0.813965,0.249023,0
49440,0.40332,-0.821289,0.245605,0
49460,0.402344,-0.839355,0.239746,0
49480,0.412598,-0.858887,0.226074,0
49500,0.410645,-0.878906,0.241211,0
49520,0.409668,-0.878418,0.242676,0
49540,0.401855,-0.880371,0.242676,0
49560,0.392578,-0.882812,0.248535,0
49580,0.401855,-0.899902,0.244629,0
49600,0.395508,-0.891602,0.255859,0
49620,0.375,-0.872559,0.253418,0
49640,0.370605,-0.870117,0.241211,0
49660,0.375977,-0.870605,0.262695,0
49680,0.365234,-0.864746,0.265137,0
49700,0.366211,-0.860352,0.25293,0
49720,0.357422,-0.84375,0.263184,0
49740,0.357422,-0.836914,0.259277,0
49760,0.355957,-0.84082,0.26123,0
49780,0.356934,-0.834473,0.26416,0
49800,0.358887,-0.835938,0.268066,0
49820,0.356934,-0.837891,0.263672,0
49840,0.363281,-0.84082,0.262207,0
49860,0.351562,-0.847656,0.260742,0
49880,0.342285,-0.828125,0.28125,0
49900,0.331055,-0.825684,0.274902,0
49920,0.331543,-0.830566,0.27002,0
49940,0.305176,-0.809082,0.276855,0
49960,0.283203,-0.817871,0.273438,0
49980,0.311035,-0.858887,0.296875,0
50000,0.367188,-0.90625,0.234863,0
50020,0.383301,-0.900879,0.216797,0
50040,0.317871,-0.82666,0.289551,0
50060,0.258301,-0.783203,0.378906,0
50080,0.242188,-0.799805,0.366211,0
50100,0.259766,-0.821777,0.35498,0
50120,0.288086,-0.869629,0.319824,0
50140,0.290527,-0.868164,0.375977,0
50160,0.28418,-0.791016,0.412598,0
50180,0.275391,-0.76123,0.381348,0
50200,0.286621,-0.785156,0.36377,0
50220,0.320801,-0.760742,0.368164,0
50240,0.365723,-0.834473,0.344727,0
50260,0.38916,-0.868652,0.316406,0
50280,0.367188,-0.883789,0.319824,0
50300,0.339355,-0.833008,0.323242,0
50320,0.341797,-0.85498,0.297852,0
50340,0.323242,-0.88916,0.341309,0
50360,0.302246,-0.830078,0.358398,0
50380,0.250977,-0.893066,0.33252,0
50400,0.251465,-0.913574,0.308105,0
50420,0.310547,-0.988281,0.27002,0
50440,0.316895,-0.970215,0.280273,0
50460,0.306152,-0.939453,0.232422,0
50480,0.310059,-0.938965,0.27002,0
50500,0.336426,-0.945312,0.271484,0
50520,0.325195,-0.930664,0.297363,0
50540,0.292969,-0.950684,0.294922,0
50560,0.263184,-0.970703,0.277344,0
50580,0.260254,-0.883301,0.300293,0
50600,0.240234,-0.869629,0.288086,0
50620,0.209473,-0.870605,0.311035,0
50640,0.189941,-0.90332,0.344238,0
50660,0.199219,-0.906738,0.335449,0
50680,0.209961,-0.879883,0.293457,0
50700,0.191895,-0.870117,0.300293,0
50720,0.205078,-0.922363,0.317383,0
50740,0.226074,-0.918457,0.325195,0
50760,0.233398,-0.924316,0.296387,0
50780,0.20752,-0.893066,0.300781,0
50800,0.188965,-0.902832,0.287598,0
50820,0.173828,-0.912109,0.312012,0
50840,0.13916,-0.915039,0.303711,0
50860,0.120117,-0.929199,0.29541,0
50880,0.0698242,-0.945312,0.278809,0
50900,0.0678711,-0.95752,0.29834,0
50920,0.0727539,-0.945801,0.313477,0
50940,0.107422,-0.926758,0.326172,0
50960,0.149414,-0.924316,0.317383,0
50980,0.15332,-0.913574,0.315918,0
51000,0.160645,-0.90918,0.34082,0
51020,0.159668,-0.90625,0.334961,0
51040,0.154785,-0.893066,0.335938,0
51060,0.139648,-0.896973,0.339355,0
51080,0.13916,-0.908203,0.352539,0
51100,0.144043,-0.89209,0.348633,0
51120,0.140137,-0.888672,0.34082,0
51140,0.140625,-0.907227,0.339355,0
51160,0.147949,-0.930176,0.33252,0
51180,0.152344,-0.933594,0.329102,0
51200,0.145996,-0.914551,0.333496,0
51220,0.138184,-0.896484,0.336426,0
51240,0.148926,-0.896973,0.34082,0
51260,0.17041,-0.88916,0.342285,0
51280,0.17627,-0.900879,0.331543,0
51300,0.162109,-0.887695,0.339355,0
51320,0.146973,-0.874023,0.333008,0
51330,0.141602,-0.868164,0.340332,0
51350,0.132324,-0.879395,0.338867,0
51370,0.141602,-0.898926,0.335938,0
51390,0.146484,-0.91748,0.335938,0
51410,0.151855,-0.916016,0.354492,0
51430,0.157227,-0.894531,0.341797,0
51450,0.162598,-0.894043,0.348145,0
51470,0.17041,-0.908203,0.365723,0
51490,0.171387,-0.904297,0.36377,0
51510,0.18457,-0.90918,0.351562,0
51530,0.188477,-0.89502,0.35791,0
51550,0.178711,-0.894531,0.361328,0
51570,0.176758,-0.894531,0.36377,0
51590,0.174316,-0.876953,0.359863,0
51610,0.169434,-0.877441,0.352051,0
51630,0.165527,-0.875,0.349609,0
51650,0.159668,-0.875,0.359863,0
51670,0.150879,-0.873047,0.373535,0
51690,0.158203,-0.850098,0.388184,0
51710,0.164551,-0.831543,0.37793,0
51730,0.177734,-0.841309,0.377441,0
51750,0.18457,-0.851074,0.391113,0
51770,0.185059,-0.86084,0.391113,0
51790,0.178223,-0.864746,0.383301,0
51810,0.176758,-0.871094,0.387695,0
51830,0.174316,-0.873047,0.377441,0
51850,0.165039,-0.876953,0.380371,0
51870,0.178711,-0.897461,0.382812,0
51890,0.188477,-0.904297,0.373535,0
51910,0.19873,-0.903809,0.375488,0
51930,0.20752,-0.933594,0.366211,0
51950,0.222656,-0.950195,0.362305,0
51970,0.256348,-0.992188,0.334473,0
51990,0.328613,-1.03711,0.321289,0
52010,0.401855,-1.07324,0.333984,0
52030,0.467773,-1.13477,0.353516,0
52050,0.532227,-1.20068,0.361816,0
52070,0.547852,-1.25586,0.383301,0
52090,0.581543,-1.31934,0.356934,0
52110,0.692383,-1.27881,0.418945,0
52130,0.69043,-1.14404,0.470215,0
52150,0.644043,-1.01807,0.513184,0
52170,0.507324,-0.980469,0.425293,0
52190,0.374512,-0.916504,0.411621,0
52210,0.226562,-0.897461,0.400879,0
52230,0.166992,-0.882812,0.408691,0
52250,0.0756836,-0.865723,0.305664,0
52270,0.0473633,-0.833496,0.251953,0
52290,0.0390625,-0.757812,0.225098,0
52310,0.0322266,-0.651855,0.146484,0
52330,-0.00927734,-0.569824,0.157227,0
52350,-0.0639648,-0.536621,0.10498,0
52370,-0.11084,-0.478516,0.0605469,0
52370,-0.11084,-0.478516,0.0605469,0
52380,0.374512,-0.916504,0.411621,0
52410,-0.132324,-0.462891,0.0117188,0
52430,-0.156738,-0.438965,-0.00927734,0
52450,-0.145996,-0.42627,-0.0166016,0
52470,-0.0844727,-0.462402,0.00683594,0
52490,-0.00976562,-0.512695,0.0512695,0
52510,0.102051,-0.561035,0.135254,0
52530,0.205566,-0.675781,0.217285,0
52550,0.303711,-0.742676,0.224609,0
52570,0.372559,-0.753906,0.191406,0
52590,0.376953,-0.843262,0.171387,0
52610,0.541016,-0.98877,0.186035,0
52630,0.67334,-0.998047,0.275391,0
52650,0.674316,-1.11816,0.212402,0
52670,0.671875,-1.03271,0.143555,0
52690,0.702637,-1.01416,0.195312,0
52710,0.793945,-1.03906,0.215332,0
52720,0.76709,-1.03418,0.171387,0
52760,0.532715,-0.898926,0.281738,0
52780,0.575684,-0.900879,0.266602,0
52800,0.549805,-0.907715,0.191895,0
52820,0.473633,-0.870605,0.263672,0
52840,0.437988,-0.830078,0.341797,0
52850,0.436523,-0.824219,0.345703,0
52870,0.403809,-0.839355,0.31543,0
52890,0.368652,-0.867676,0.299805,0
52910,0.373047,-0.869141,0.34375,0
52930,0.366211,-0.827148,0.348145,0
52950,0.36377,-0.828125,0.309082,0
52970,0.374023,-0.846191,0.393555,0
52990,0.370117,-0.828613,0.430176,0
53010,0.332031,-0.843262,0.365723,0
53030,0.328125,-0.846191,0.358887,0
53050,0.317871,-0.819336,0.385742,0
53070,0.285156,-0.830078,0.379883,0
53090,0.288086,-0.856445,0.357422,0
53110,0.325684,-0.876953,0.38916,0
53130,0.333496,-0.888672,0.409668,0
53150,0.297363,-0.878418,0.40332,0
53170,0.265625,-0.887695,0.369629,0
53190,0.266113,-0.897461,0.35498,0
53210,0.280273,-0.891602,0.384766,0
53230,0.280273,-0.901855,0.402832,0
53250,0.262207,-0.903809,0.390625,0
53270,0.256348,-0.888184,0.397949,0
53290,0.279297,-0.888672,0.411621,0
53310,0.286133,-0.862305,0.404297,0
53330,0.304688,-0.849121,0.418457,0
53350,0.294434,-0.820312,0.428223,0
53370,0.276855,-0.805176,0.437988,0
53390,0.257324,-0.811523,0.438965,0
53410,0.243652,-0.812012,0.428711,0
53430,0.239258,-0.810547,0.410645,0
53450,0.229492,-0.804688,0.40332,0
53470,0.221191,-0.810059,0.402344,0
53490,0.224121,-0.822754,0.385254,0
53510,0.225098,-0.83252,0.389648,0
53530,0.234863,-0.839355,0.40625,0
53550,0.241699,-0.838867,0.422363,0
53570,0.249023,-0.830566,0.42334,0
53590,0.268555,-0.827637,0.419922,0
53610,0.282715,-0.819336,0.429688,0
53630,0.293457,-0.812988,0.421387,0
53650,0.308105,-0.806152,0.40625,0
53670,0.310547,-0.819824,0.406738,0
53690,0.303223,-0.816406,0.413574,0
53710,0.297852,-0.819824,0.395508,0
53730,0.279785,-0.820312,0.399414,0
53750,0.263672,-0.80957,0.402344,0
53770,0.267578,-0.803711,0.384766,0
53790,0.212891,-0.836426,0.399902,0
53810,0.17627,-0.835938,0.407227,0
53830,0.132812,-0.816895,0.415039,0
53850,0.135742,-0.813477,0.43457,0
53870,0.103027,-0.862793,0.436523,0
53890,0.121582,-0.861816,0.430176,0
53910,0.145996,-0.850098,0.418457,0
53930,0.160645,-0.860352,0.438965,0
53950,0.166016,-0.852539,0.453613,0
53970,0.169922,-0.858398,0.454102,0
53990,0.195312,-0.867676,0.438477,0
54010,0.226562,-0.87793,0.42627,0
54030,0.216309,-0.884766,0.42334,0
54050,0.200195,-0.867676,0.433594,0
54070,0.188965,-0.847656,0.428223,0
54090,0.183105,-0.853027,0.430664,0
54110,0.181152,-0.873535,0.421387,0
54130,0.172363,-0.86084,0.412109,0
54150,0.15625,-0.833008,0.402344,0
54170,0.127441,-0.836426,0.393555,0
54190,0.114258,-0.854004,0.401855,0
54210,0.108398,-0.864258,0.413086,0
54230,0.125488,-0.870605,0.408203,0
54250,0.140625,-0.87793,0.423828,0
54270,0.159668,-0.858398,0.437012,0
54290,0.154785,-0.849121,0.419922,0
54310,0.144043,-0.865723,0.407715,0
54330,0.154785,-0.880859,0.42041,0
54350,0.166992,-0.881348,0.425293,0
54370,0.166504,-0.850586,0.417969,0
54390,0.172852,-0.862793,0.433105,0
54410,0.187988,-0.859863,0.446289,0
54430,0.189453,-0.841309,0.430664,0
54450,0.180664,-0.849609,0.407227,1000
54470,0.177246,-0.867188,0.410645,0
54490,0.175293,-0.856445,0.402832,0
54510,0.15332,-0.864258,0.404297,0
54530,0.134277,-0.85791,0.415039,0
54550,0.0932617,-0.879395,0.40625,0
54570,0.043457,-0.907227,0.380859,0
54590,0.0195312,-0.910156,0.388184,0
54610,0.0253906,-0.92334,0.409668,0
54630,0.0449219,-0.922363,0.418945,0
54650,0.0986328,-0.924805,0.391602,0
54670,0.130859,-0.92334,0.375488,0
54690,0.17627,-0.91748,0.374023,0
54710,0.160156,-0.894531,0.361816,0
54730,0.141113,-0.895508,0.352051,0
54750,0.138672,-0.901855,0.345215,0
54760,0.15332,-0.90918,0.33252,0
54780,0.180664,-0.918945,0.328613,0
54800,0.183594,-0.88623,0.316406,0
54820,0.176758,-0.858887,0.305664,0
54840,0.180176,-0.834473,0.28418,0
54860,0.205566,-0.836426,0.26709,0
54880,0.213379,-0.848145,0.271973,0
54900,0.22998,-0.851562,0.272461,0
54920,0.258301,-0.862793,0.278809,0
54940,0.263672,-0.852539,0.269531,0
54960,0.270996,-0.840332,0.259277,0
54980,0.316406,-0.852051,0.240234,0
55000,0.366699,-0.857422,0.220215,0
55020,0.424805,-0.847168,0.220703,0
55040,0.449707,-0.861816,0.211914,0
55060,0.45166,-0.842773,0.218262,0
55080,0.444824,-0.80127,0.225586,0
55100,0.448242,-0.799805,0.191406,0
55120,0.478027,-0.799805,0.187012,0
55140,0.503906,-0.805176,0.179688,0
55160,0.533691,-0.798828,0.17334,0
55180,0.544434,-0.794434,0.170898,0
55200,0.56543,-0.775879,0.172852,0
55220,0.597656,-0.770508,0.160156,0
55240,0.624023,-0.769043,0.174316,0
55260,0.647949,-0.734375,0.184082,0
55280,0.651367,-0.719727,0.202148,0
55300,0.683105,-0.707031,0.211914,0
55320,0.727051,-0.679688,0.205566,0
55340,0.749023,-0.67627,0.228516,0
55360,0.73877,-0.642578,0.243652,0
55380,0.757324,-0.630371,0.27002,0
55400,0.740234,-0.644043,0.291992,0
55420,0.722656,-0.644531,0.330078,0
55440,0.728516,-0.635254,0.40332,0
55460,0.710938,-0.651367,0.460938,0
55480,0.650391,-0.641113,0.449219,0
55500,0.61084,-0.656738,0.530762,0
55520,0.608398,-0.646484,0.555176,0
55540,0.588867,-0.642578,0.55127,0
55560,0.545898,-0.650391,0.567871,0
55580,0.479492,-0.640137,0.619141,0
55600,0.428223,-0.627441,0.635742,0
55620,0.355957,-0.600586,0.67627,0
55640,0.320312,-0.614746,0.682129,0
55660,0.30127,-0.670898,0.696289,0
55680,0.286621,-0.635254,0.728027,0
55700,0.26416,-0.594238,0.706543,0
55720,0.240234,-0.595215,0.695312,0
55740,0.181641,-0.583008,0.677246,0
55760,0.151855,-0.615234,0.665039,0
55780,0.156738,-0.646973,0.672852,0
55800,0.200684,-0.640137,0.647949,0
55820,0.187988,-0.632812,0.623535,0
55840,0.143066,-0.63916,0.588867,0
55860,0.0991211,-0.666992,0.592773,0
55880,0.0390625,-0.693359,0.570801,0
55900,-0.0117188,-0.717285,0.51123,0
55920,-0.0424805,-0.745117,0.48291,0
55940,-0.0703125,-0.769531,0.432129,0
55960,-0.0673828,-0.771484,0.410645,0
55980,-0.074707,-0.796875,0.374023,0
56000,-0.0727539,-0.834961,0.327637,0
56020,-0.0429688,-0.875,0.327148,0
56040,0.00146484,-0.902344,0.320312,0
56060,0.0458984,-0.902344,0.30127,0
56080,0.0717773,-0.916504,0.29541,0
56100,0.0986328,-0.937012,0.306152,0
56120,0.171387,-0.94873,0.320801,0
56140,0.208008,-0.977051,0.326172,0
56160,0.3125,-0.952637,0.291016,0
56180,0.350586,-0.931152,0.253418,0
56200,0.398438,-0.903809,0.246582,0
56220,0.418945,-0.864258,0.253906,0
56240,0.443359,-0.855957,0.238281,0
56260,0.472168,-0.84375,0.21582,0
56280,0.498535,-0.802734,0.226562,0
56300,0.536133,-0.806641,0.180664,0
56320,0.565918,-0.811523,0.108887,0
56340,0.609375,-0.794434,0.0947266,0
56360,0.654297,-0.722656,0.117188,0
56380,0.666504,-0.675781,0.09375,0
56400,0.67334,-0.68457,0.0463867,0
56420,0.76123,-0.677246,0.0205078,0
56440,0.797852,-0.606934,0.0517578,0
56460,0.839355,-0.560547,0.0546875,0
56480,0.870117,-0.563477,0.0317383,0
56500,0.910645,-0.51123,0.0449219,0
56520,0.925293,-0.469727,0.0742188,0
56540,0.941895,-0.439453,0.0844727,0
56560,0.970215,-0.434082,0.0883789,0
56580,0.99707,-0.413574,0.107422,0
56600,1.01221,-0.376953,0.117676,0
56620,1.01318,-0.36084,0.149902,0
56640,1.02197,-0.334961,0.206055,0
56660,1.01318,-0.336426,0.286621,0
56680,0.929199,-0.286621,0.354492,0
56700,0.916992,-0.396484,0.42627,0
56720,0.887207,-0.318848,0.546875,0
56740,0.882812,-0.258789,0.60791,0
56750,0.802734,-0.19873,0.655273,0
56770,0.624512,-0.208496,0.692871,0
56790,0.546387,-0.193359,0.756348,0
56810,0.492188,-0.211914,0.793457,0
56830,0.419434,-0.210938,0.807129,0
56850,0.35498,-0.259277,0.859863,0
56870,0.358398,-0.351074,0.823242,0
56890,0.341309,-0.395508,0.738281,0
56910,0.313965,-0.356445,0.76709,0
56930,0.259277,-0.319336,0.807617,0
56950,0.237793,-0.413086,0.732422,0
56970,0.230957,-0.462891,0.649902,0
56990,0.135742,-0.475586,0.599121,0
57010,0.0258789,-0.496094,0.533691,0
57030,-0.0546875,-0.591797,0.479004,0
57050,-0.0454102,-0.672852,0.445312,0
57070,0.0175781,-0.726562,0.407227,0
57090,0.0537109,-0.744141,0.350586,0
57110,0.0717773,-0.79541,0.315918,0
57130,0.0898438,-0.830078,0.299316,0
57150,0.151855,-0.861328,0.296387,0
57170,0.238281,-0.866699,0.299805,0
57190,0.28418,-0.888672,0.243164,0
57210,0.320801,-0.906738,0.209473,0
57230,0.368164,-0.863281,0.234863,0
57250,0.458496,-0.794434,0.226074,0
57270,0.539551,-0.805664,0.186035,0
57290,0.623047,-0.794434,0.139648,0
57310,0.730957,-0.785156,0.0927734,0
57330,0.710938,-0.685059,0.12207,0
57350,0.759766,-0.629883,0.0522461,0
57370,0.856445,-0.618652,-0.0078125,0
57390,0.928711,-0.597656,0.0415039,0
57410,0.97168,-0.504883,0.0424805,0
57430,0.932129,-0.447754,-0.00732422,0
57450,0.943848,-0.413086,-0.0708008,0
57470,1.04932,-0.339355,-0.0234375,0
57490,1.10303,-0.296875,0.0136719,0
57510,1.10449,-0.28418,0.00537109,0
57530,1.10205,-0.210449,0.0234375,0
57550,1.10938,-0.180664,0.0639648,0
57570,1.11328,-0.181152,0.0859375,0
57590,1.10596,-0.155273,0.100098,0
57610,1.10547,-0.115234,0.148438,0
57630,1.10254,-0.120605,0.233887,0
57650,1.12402,-0.0239258,0.277832,0
57670,1.16504,-0.0131836,0.320801,0
57690,1.1416,0.00732422,0.349609,0
57710,1.05371,0.0976562,0.422363,0
57730,0.929688,0.15918,0.472656,0
57750,0.964355,0.137207,0.499023,0
57770,0.824707,0.0893555,0.608887,0
57790,0.690918,0.0991211,0.681152,0
57810,0.537598,0.059082,0.834961,0
57830,0.333496,-0.09375,0.899902,0
57850,0.291504,-0.224609,0.730469,0
57870,0.266602,-0.23877,0.612305,0
57890,0.116699,-0.208984,0.69043,0
57910,0.0849609,-0.225586,0.67334,0
57930,0.165039,-0.290527,0.597168,0
57950,0.189941,-0.432129,0.54248,0
57970,0.156738,-0.50293,0.476074,0
57990,0.148438,-0.57373,0.42627,0
58010,0.165527,-0.604492,0.404297,0
58030,0.178223,-0.65918,0.358887,0
58050,0.229492,-0.692383,0.292969,0
58070,0.302734,-0.74707,0.258789,0
58090,0.336914,-0.791016,0.260254,0
58110,0.411133,-0.822754,0.226562,0
58130,0.509766,-0.786133,0.198242,0
58150,0.530273,-0.766602,0.223633,0
58170,0.57666,-0.813477,0.163574,0
58190,0.67334,-0.819336,0.10498,0
58210,0.712891,-0.765625,0.104004,0
58230,0.654785,-0.709473,0.0644531,0
58250,0.708008,-0.734375,0.0263672,0
58270,0.79834,-0.70459,-0.0424805,0
58290,0.885742,-0.67334,-0.0380859,0
58310,0.889648,-0.592773,-0.0297852,0
58330,0.888184,-0.524902,-0.0947266,0
58350,0.908203,-0.5,-0.104004,0
58370,0.895996,-0.50293,-0.120605,0
58390,0.933105,-0.454102,-0.125977,0
58410,1.00342,-0.45166,-0.151367,0
58430,1.01855,-0.435547,-0.158203,0
58450,0.983398,-0.424316,-0.152344,1001
58470,0.932129,-0.416016,-0.156738,0
58490,0.916016,-0.402832,-0.12793,0
58510,0.91748,-0.376953,-0.0742188,0
58530,0.893066,-0.374512,-0.0571289,0
58550,0.844238,-0.356445,-0.0600586,0
58570,0.775391,-0.32373,0.0341797,0
58590,0.774902,-0.277344,0.0708008,0
58610,0.772461,-0.29541,0.0893555,0
58630,0.74707,-0.375,0.0546875,0
58650,0.73877,-0.4375,0.0410156,0
58670,0.680664,-0.479492,0.0361328,0
58690,0.594238,-0.513184,-0.0263672,0
58710,0.524414,-0.539062,-0.0629883,0
58730,0.481934,-0.533691,-0.0722656,0
58750,0.478027,-0.574707,-0.0332031,0
58770,0.504395,-0.620605,0.0351562,0
58790,0.521973,-0.641602,0.0742188,0
58810,0.566406,-0.655273,0.0712891,0
58830,0.623047,-0.659668,0.0683594,0
58850,0.668457,-0.6875,0.149414,0
58870,0.632324,-0.708496,0.224609,0
58890,0.653809,-0.697266,0.301758,0
58910,0.748535,-0.698242,0.350098,0
58930,0.806641,-0.694336,0.362793,0
58950,0.723633,-0.602539,0.408203,0
58970,0.610352,-0.620117,0.395996,0
58990,0.736816,-0.658203,0.441895,0
59010,0.83252,-0.668945,0.520996,0
59030,0.813965,-0.810547,0.547852,0
59050,0.746094,-0.773438,0.481934,0
59070,0.702637,-0.754395,0.465332,0
59090,0.68457,-0.778809,0.453613,0
59110,0.686035,-0.794434,0.458984,0
59130,0.667969,-0.84668,0.405273,0
59150,0.642578,-0.877441,0.388672,0
59170,0.585449,-0.882812,0.441895,0
59190,0.51709,-0.867676,0.464844,0
59210,0.456543,-0.883789,0.446777,0
59230,0.425293,-0.896973,0.448242,0
59250,0.397461,-0.89502,0.455566,0
59270,0.348633,-0.869629,0.450195,0
59290,0.319824,-0.864746,0.450684,0
59310,0.316895,-0.87793,0.458008,0
59330,0.304688,-0.852539,0.456055,0
59350,0.250488,-0.800293,0.429199,0
59370,0.204102,-0.800293,0.394531,0
59390,0.158691,-0.835938,0.361816,0
59410,0.107422,-0.848145,0.36377,0
59430,0.0244141,-0.827637,0.393066,0
59450,-0.0317383,-0.850098,0.388672,0
59470,-0.0317383,-0.883789,0.374023,0
59490,0.00927734,-0.924316,0.32959,0
59510,0.0195312,-0.917969,0.347168,0
59530,0.0253906,-0.906738,0.382324,0
59550,0.101562,-0.911621,0.384766,0
59570,0.181641,-0.904297,0.364258,1000
59590,0.200684,-0.914551,0.359863,0
59610,0.217773,-0.936035,0.439453,0
59630,0.246582,-0.920898,0.439941,0
59650,0.289551,-0.878418,0.40918,0
59670,0.271973,-0.847168,0.405762,0
59690,0.259277,-0.864258,0.385254,0
59710,0.286621,-0.891602,0.376953,0
59740,0.33252,-0.808594,0.29541,0
59760,0.323242,-0.79248,0.248047,0
59780,0.338379,-0.828125,0.253418,0
59800,0.367676,-0.828613,0.283691,0
59820,0.352051,-0.805176,0.246582,0
59840,0.376465,-0.777344,0.245605,0
59860,0.426758,-0.774414,0.230469,0
59880,0.433594,-0.752441,0.225586,0
59900,0.506348,-0.761719,0.243652,0
59920,0.581543,-0.743652,0.263672,0
59940,0.663086,-0.70752,0.234863,0
59960,0.649902,-0.670898,0.215332,0
59980,0.63916,-0.662598,0.189453,0
60000,0.687988,-0.621582,0.236328,0
60020,0.723633,-0.613281,0.237305,0
60040,0.801758,-0.583496,0.258301,0
60060,0.87207,-0.591309,0.288086,0
60080,0.895508,-0.543945,0.302734,0
60100,0.864746,-0.51416,0.307617,0
60120,0.871094,-0.518555,0.307129,0
60140,0.925781,-0.486816,0.277344,0
60160,0.91748,-0.429688,0.292969,0
60180,0.867676,-0.396973,0.384766,0
60190,0.855957,-0.303223,0.467285,0
60210,0.876953,-0.374023,0.522461,0
60230,0.880371,-0.466309,0.583008,0
60250,0.822266,-0.559082,0.623535,0
60270,0.679688,-0.271484,0.706543,0
60290,0.645996,-0.438477,0.78125,0
60310,0.53418,-0.358887,0.842773,0
60330,0.521484,-0.284668,0.809082,0
60350,0.414551,-0.338379,0.861328,0
60370,0.263672,-0.393066,0.960449,0
60390,0.197754,-0.459473,0.958984,0
60410,0.216309,-0.517578,0.873047,0
60430,0.16748,-0.513184,0.830566,0
60450,0.0683594,-0.525391,0.797852,0
60470,-0.0439453,-0.522949,0.754395,0
60490,-0.106934,-0.524902,0.700195,0
60510,-0.171387,-0.556152,0.563477,0
60530,-0.236816,-0.602539,0.459961,0
60550,-0.299805,-0.646484,0.439453,0
60570,-0.287109,-0.702637,0.356445,0
60590,-0.210938,-0.754395,0.316895,0
60610,-0.145996,-0.797852,0.258789,0
60630,-0.109863,-0.82959,0.231934,0
60650,-0.105469,-0.874023,0.225586,0
60670,-0.0473633,-0.917969,0.233398,0
60690,0.078125,-0.931152,0.250977,0
60710,0.223145,-0.92334,0.208008,0
60730,0.309082,-0.958496,0.189453,0
60750,0.450195,-0.914062,0.229492,0
60770,0.587402,-0.904297,0.217285,0
60790,0.625488,-0.874023,0.185059,0
60810,0.657715,-0.813965,0.0830078,0
60830,0.70459,-0.727539,0.078125,0
60850,0.800293,-0.681641,0.0961914,0
60870,0.87207,-0.678223,0.0556641,0
60890,0.943848,-0.649902,-0.00878906,0
60910,0.974121,-0.571289,-0.0102539,0
60930,1.00049,-0.491699,-0.034668,0
60950,1.00586,-0.429688,-0.090332,0
60970,1.08643,-0.378418,-0.0571289,0
60990,1.10596,-0.310059,0.00927734,0
61010,1.10693,-0.251465,0.0400391,0
61030,1.07959,-0.200195,0.0449219,0
61050,1.07324,-0.152344,0.0703125,0
61070,1.07568,-0.186035,0.104492,0
61090,0.992676,-0.182617,0.161621,0
61110,0.958984,-0.152344,0.220703,0
61130,0.976562,-0.13916,0.314453,0
61150,1.14648,-0.17627,0.407715,0
61170,1.03174,-0.259766,0.348633,0
61190,0.883301,-0.199219,0.477539,0
61210,0.896973,0.081543,0.663574,0
61230,1.00732,-0.129395,0.721191,0
61250,0.991211,-0.294922,0.600586,0
61270,0.784668,-0.0131836,0.678711,0
61290,0.521973,0.0317383,0.868164,0
61310,0.352051,-0.0947266,0.929199,0
61330,0.388184,-0.223145,0.882324,0
61350,0.439941,-0.271973,0.801758,0
61370,0.339355,-0.211914,0.76123,0
61390,0.22168,-0.253418,0.800293,0
61410,0.175781,-0.367188,0.830566,0
61430,0.196289,-0.443848,0.660645,0
61450,0.121582,-0.417969,0.465332,0
61470,-0.0380859,-0.409668,0.414062,0
61490,-0.0878906,-0.536133,0.351562,0
61510,-0.0478516,-0.624512,0.194336,0
61530,-0.0717773,-0.722168,0.117188,0
61550,-0.0258789,-0.773926,0.158691,0
61570,0.0556641,-0.868164,0.125488,0
61590,0.0419922,-0.907227,0.0800781,0
61610,0.0249023,-0.870605,0.10498,0
61630,0.159668,-0.856445,0.118652,0
61650,0.358398,-0.842773,0.151367,0
61670,0.48291,-0.805176,0.183105,0
61690,0.57959,-0.745117,0.136719,0
61710,0.566406,-0.683105,0.168457,0
61730,0.686035,-0.548828,0.22168,0
61750,0.840332,-0.514648,0.161621,0
61770,0.954102,-0.552734,0.0214844,0
61790,1.00977,-0.508789,0.00732422,0
61810,1.03174,-0.422363,0.0571289,0
61830,1.02002,-0.379883,0.0161133,0
61850,1.12598,-0.393555,-0.0239258,0
61870,1.22217,-0.364746,-0.0449219,0
61890,1.25195,-0.32373,-0.00732422,0
61910,1.20068,-0.241211,0.0639648,0
61930,1.19727,-0.142578,0.0947266,0
61950,1.18799,-0.050293,0.132324,0
61970,1.14453,-0.0161133,0.149902,0
61990,1.12891,0.00390625,0.193359,0
62010,1.11475,0.00976562,0.251953,0
62030,1.1333,0.0307617,0.268066,0
62050,1.13916,0.105957,0.31543,0
62070,1.16748,0.0976562,0.304199,0
62090,1.13818,0.182617,0.397949,0
62100,1.00977,0.183594,0.467773,0
62130,0.915039,0.0932617,0.571289,0
62150,0.824219,0.012207,0.692383,0
62170,0.783691,-0.0922852,0.695312,0
62190,0.712402,-0.0981445,0.655762,0
62200,0.504883,-0.0771484,0.701172,0
62220,0.330566,-0.105957,0.744629,0
62240,0.27832,-0.129395,0.750977,0
62260,0.254395,-0.189941,0.709473,0
62280,0.270508,-0.28125,0.664551,0
62300,0.237793,-0.35791,0.591797,0
62320,0.132324,-0.419922,0.460449,0
62340,0.043457,-0.522949,0.418457,0
62360,0.108887,-0.635254,0.394531,0
62380,0.19873,-0.743652,0.323242,0
62400,0.19873,-0.793457,0.228516,0
62420,0.213867,-0.786621,0.146484,0
62440,0.254395,-0.746094,0.141113,0
62460,0.289062,-0.716797,0.105469,0
62480,0.352051,-0.785156,0.050293,0
62500,0.485352,-0.821777,-0.0200195,0
62520,0.570801,-0.765625,-0.00634766,0
62540,0.580566,-0.682129,0.0366211,0
62560,0.587402,-0.667969,0.015625,0
62580,0.702148,-0.696777,-0.0664062,0
62600,0.822266,-0.675293,-0.0932617,0
62620,0.840332,-0.597656,-0.034668,0
62640,0.689941,-0.522461,-0.0673828,0
62660,0.871094,-0.42334,-0.179688,0
62680,1.08594,-0.407715,-0.168457,0
62700,1.11572,-0.430664,-0.175781,1001
62720,0.998047,-0.38916,-0.233398,0
62740,1.00439,-0.333008,-0.198242,0
62750,1.10693,-0.300781,-0.15625,0
62770,1.09082,-0.292969,-0.226562,0
62790,1.01172,-0.266113,-0.17334,0
62810,0.960938,-0.248535,-0.097168,0
62830,0.946777,-0.302734,-0.0976562,0
62850,0.917969,-0.315918,-0.090332,0
62870,0.832031,-0.313477,-0.0961914,0
62890,0.786133,-0.318359,-0.0581055,0
62910,0.787109,-0.296875,-0.0361328,0
62930,0.771484,-0.305664,-0.0195312,0
62950,0.734375,-0.298828,0.0117188,0
62970,0.665527,-0.303711,0.0170898,0
62990,0.626465,-0.332031,0.0244141,0
63010,0.639648,-0.340332,0.00439453,0
63030,0.686523,-0.388184,0.00390625,0
63050,0.696777,-0.454102,0.0253906,0
63070,0.664551,-0.474121,0.0195312,0
63090,0.657715,-0.445801,0.0126953,0
63110,0.686523,-0.433594,0.0708008,0
63130,0.755859,-0.412109,0.146973,0
63150,0.818359,-0.425781,0.147461,0
63170,0.8125,-0.432129,0.141113,0
63190,0.793945,-0.416992,0.1875,0
63210,0.900391,-0.416504,0.27002,0
63230,0.996094,-0.438965,0.276367,0
63250,0.969238,-0.425293,0.268066,0
63270,0.867188,-0.444336,0.218262,0
63290,0.844727,-0.424805,0.266602,0
63310,0.897461,-0.407715,0.319824,0
63330,0.890137,-0.456055,0.330566,0
63350,0.887207,-0.505859,0.308105,0
63370,0.852539,-0.542969,0.311523,0
63390,0.853516,-0.562988,0.337402,0
63410,0.83252,-0.613281,0.384766,0
63430,0.804199,-0.626465,0.396973,0
63450,0.775391,-0.669922,0.402832,0
63470,0.78125,-0.723145,0.394043,0
63490,0.774902,-0.746582,0.41748,0
63510,0.716797,-0.757324,0.427734,0
63530,0.638672,-0.763184,0.435059,0
63550,0.479004,-0.744141,0.451172,0
63560,0.344238,-0.838379,0.468262,0
63590,0.287598,-0.842773,0.464844,0
63610,0.189453,-0.858887,0.430664,0
63630,0.144531,-0.871582,0.40625,0
63650,0.158691,-0.864746,0.430176,0
63670,0.179199,-0.919922,0.404785,0
63690,0.217285,-0.92627,0.400391,0
63710,0.227051,-0.901855,0.375488,0
63730,0.251953,-0.870117,0.348633,0
63750,0.276855,-0.862793,0.352051,0
63770,0.283691,-0.874023,0.369141,0
63790,0.267578,-0.875977,0.374023,0
63810,0.281738,-0.89209,0.381348,1000
63830,0.29834,-0.864746,0.405762,0
63850,0.260254,-0.830078,0.412109,0
63870,0.20752,-0.831055,0.407227,0
63890,0.191406,-0.838867,0.407227,0
63910,0.178711,-0.830566,0.407715,0
63930,0.15918,-0.85791,0.40918,0
63950,0.161621,-0.865234,0.404297,0
63970,0.176758,-0.870605,0.405273,0
63990,0.209473,-0.868652,0.376465,0
64010,0.245117,-0.862305,0.372559,0
64030,0.292969,-0.855469,0.347168,0
64050,0.333496,-0.825195,0.336426,0
64070,0.374512,-0.828613,0.329102,0
64090,0.392578,-0.811035,0.305176,0
64110,0.398438,-0.768066,0.264648,0
64130,0.413574,-0.806641,0.254883,0
64150,0.354004,-0.782227,0.266113,0
64170,0.347168,-0.774902,0.247559,0
64190,0.372559,-0.743652,0.28125,0
64210,0.462891,-0.786621,0.268555,0
64230,0.543457,-0.771484,0.266113,0
64250,0.57666,-0.768066,0.217285,0
64270,0.583496,-0.719238,0.19873,0
64290,0.665527,-0.68457,0.242188,0
64310,0.732422,-0.64209,0.278809,0
64330,0.79834,-0.634277,0.239746,0
64350,0.829102,-0.612305,0.251953,0
64370,0.834473,-0.567383,0.272461,0
64390,0.836426,-0.501953,0.308105,0
64410,0.845215,-0.504883,0.332031,0
64430,0.865723,-0.501953,0.312988,0
64450,0.916016,-0.531738,0.387207,0
64470,0.836426,-0.453125,0.416016,0
64490,0.805176,-0.393066,0.441406,0
64510,0.859863,-0.409668,0.611816,0
64530,0.850098,-0.48877,0.670898,0
64550,0.661621,-0.27832,0.682129,0
64570,0.802246,-0.543945,0.775879,0
64590,0.498047,-0.423828,0.891602,0
64610,0.38916,-0.269531,0.953613,0
64630,0.389648,-0.280762,0.947266,0
64650,0.377441,-0.314941,0.902344,0
64670,0.241211,-0.362793,0.914062,0
64690,0.123047,-0.349609,0.92334,0
64710,0.112305,-0.380859,0.902832,0
64730,0.133301,-0.383301,0.817871,0
64750,0.104492,-0.384277,0.817383,0
64770,-0.0585938,-0.405273,0.793457,0
64790,-0.143066,-0.453125,0.728516,0
64810,-0.0961914,-0.536133,0.661133,0
64830,-0.0869141,-0.521973,0.572754,0
64850,-0.130371,-0.612305,0.530762,0
64870,-0.141602,-0.690918,0.495117,0
64890,-0.111816,-0.78125,0.419434,0
64910,-0.0864258,-0.819824,0.346191,0
64930,-0.106934,-0.828613,0.30957,0
64950,-0.0966797,-0.868164,0.334961,0
64970,-0.0273438,-0.884766,0.31543,0
64990,0.0712891,-0.919434,0.27002,0
65010,0.137695,-0.913574,0.256836,0
65030,0.173828,-0.925781,0.271973,0
65050,0.248047,-0.879395,0.343262,0
65070,0.342285,-0.859375,0.314941,0
65090,0.449219,-0.864258,0.256348,0
65110,0.506348,-0.897949,0.154785,0
65130,0.518066,-0.820312,0.239746,0
65150,0.493164,-0.676758,0.22998,0
65170,0.544922,-0.651367,0.15625,0
65190,0.711426,-0.711914,0.137695,0
65210,0.766602,-0.747559,0.0605469,0
65230,0.762207,-0.671875,0.0981445,0
65250,0.778809,-0.592285,0.10791,0
65270,0.885254,-0.597656,0.0473633,0
65290,1,-0.524414,0.0908203,0
65310,1.02686,-0.429199,0.152344,0
65330,1.02588,-0.387695,0.138184,0
65350,1.02734,-0.336914,0.139648,0
65370,1.11426,-0.337402,0.176758,0
65390,1.11279,-0.317383,0.204102,0
65410,1.06934,-0.256348,0.23877,0
65430,1.07715,-0.260742,0.291992,0
65450,1.0332,-0.199707,0.262695,0
65470,1.02002,-0.218262,0.280273,0
65490,1.07227,-0.233887,0.356445,0
65510,1.01221,-0.204102,0.430176,0
65530,0.956055,-0.16748,0.565918,0
65550,0.952148,-0.243164,0.64209,0
65570,0.914551,-0.217773,0.627441,0
65590,0.898926,-0.138184,0.619629,0
65610,0.693848,-0.0878906,0.733887,0
65620,0.551758,0.0209961,0.747559,0
65640,0.50293,0.046875,0.804199,0
65660,0.412109,0.0361328,0.851074,0
65680,0.302246,-0.0991211,0.853516,0
65700,0.210938,-0.246582,0.77832,0
65720,0.168945,-0.331543,0.752441,0
65740,0.215332,-0.344727,0.733398,0
65760,0.15625,-0.396973,0.666504,0
65780,0.0556641,-0.433105,0.536621,0
65800,0.0898438,-0.502441,0.496094,0
65820,0.122559,-0.557129,0.44873,0
65840,0.120117,-0.600098,0.36084,0
65860,0.143066,-0.722168,0.325684,0
65880,0.198242,-0.80957,0.263672,0
65900,0.196289,-0.83252,0.174316,0
65920,0.152832,-0.84668,0.172852,0
65940,0.181641,-0.86377,0.15332,0
65960,0.297363,-0.869629,0.153809,0
65980,0.374023,-0.863281,0.145996,0
66000,0.41748,-0.786133,0.135742,0
66020,0.464844,-0.758301,0.115234,0
66040,0.594238,-0.722656,0.0966797,0
66060,0.665039,-0.70166,0.123535,0
66080,0.736816,-0.661621,0.105469,0
66100,0.705566,-0.622559,0.0380859,0
66120,0.811035,-0.60498,-0.015625,0
66140,0.995117,-0.575195,-0.00439453,0
66160,0.968262,-0.492676,0.0361328,0
66180,0.862793,-0.446777,-0.0200195,0
66200,0.900879,-0.366699,-0.0927734,0
66220,1.12744,-0.331543,-0.0537109,0
66240,1.19336,-0.291016,0.0200195,0
66260,1.15479,-0.263184,0.00683594,0
66280,1.14795,-0.185547,0.0239258,0
66300,1.17529,-0.140137,0.0419922,0
66320,1.19434,-0.131836,0.0458984,0
66340,1.21094,-0.0830078,0.0761719,0
66360,1.19238,-0.0639648,0.116699,0
66380,1.17041,-0.0151367,0.154785,0
66400,1.16699,-0.0151367,0.211914,0
66420,1.11133,-0.078125,0.293457,0
66440,1.07764,-0.0668945,0.34375,0
66460,1.10254,0.00732422,0.402344,0
66480,1.07666,0.0732422,0.419922,0
66500,0.95166,0.133789,0.529297,0
66520,0.92334,0.0273438,0.542969,0
66540,0.843262,-0.0473633,0.589844,0
66560,0.678711,0.00585938,0.68457,0
66580,0.519531,-0.015625,0.698242,0
66600,0.500488,-0.0976562,0.748047,0
66620,0.425781,-0.185547,0.728027,0
66640,0.300781,-0.199707,0.685059,0
66660,0.269531,-0.185059,0.71582,0
66680,0.247559,-0.222656,0.685059,0
66700,0.192383,-0.303711,0.588867,0
66720,0.121582,-0.377441,0.527832,0
66740,0.187012,-0.48877,0.508789,0
66760,0.241211,-0.522461,0.42334,0
66780,0.177246,-0.481445,0.313477,0
66800,0.133789,-0.587891,0.292969,0
66820,0.216309,-0.776855,0.312988,0
66840,0.269043,-0.786621,0.200684,0
