Timestamp, Acceleration x, Acceleration y, Acceleration z, Marker
30,-0.0952148,-0.930176,0.30957,0
50,-0.0986328,-0.923828,0.309082,0
70,-0.0932617,-0.924805,0.310547,0
90,-0.0874023,-0.933594,0.310547,0
110,-0.0898438,-0.928223,0.302734,0
120,-0.0874023,-0.943359,0.303711,0
120,-0.0908203,-0.935547,0.306152,0
160,-0.0917969,-0.928711,0.313477,0
180,-0.0878906,-0.921875,0.308594,0
200,-0.0869141,-0.921387,0.311035,0
220,-0.0854492,-0.928711,0.3125,0
240,-0.0917969,-0.935059,0.311035,0
260,-0.0952148,-0.933105,0.302246,0
280,-0.0947266,-0.931152,0.307129,0
300,-0.0981445,-0.929199,0.303223,0
320,-0.101562,-0.92334,0.310059,0
340,-0.0917969,-0.922363,0.314453,0
360,-0.0913086,-0.929199,0.311523,0
380,-0.0864258,-0.920898,0.318359,0
400,-0.0976562,-0.926758,0.316406,0
420,-0.097168,-0.935547,0.302246,0
440,-0.09375,-0.936035,0.302246,0
460,-0.09375,-0.929199,0.308105,0
480,-0.0947266,-0.921875,0.313477,0
500,-0.0908203,-0.919434,0.305664,0
520,-0.0839844,-0.918945,0.307129,0
540,-0.0913086,-0.92334,0.307129,0
560,-0.0878906,-0.919434,0.307617,0
580,-0.0957031,-0.927246,0.312012,0
600,-0.0952148,-0.930664,0.299805,0
620,-0.0927734,-0.929199,0.306152,0
640,-0.090332,-0.930176,0.307617,0
660,-0.102051,-0.931641,0.31543,0
680,-0.0952148,-0.928711,0.307617,0
700,-0.0927734,-0.926758,0.313477,0
720,-0.0932617,-0.924316,0.312012,0
740,-0.0913086,-0.923828,0.314453,0
760,-0.0888672,-0.928223,0.307617,0
780,-0.0888672,-0.928711,0.314453,0
800,-0.0888672,-0.931152,0.310059,0
820,-0.0957031,-0.931641,0.313965,0
840,-0.0947266,-0.927734,0.312988,0
860,-0.0922852,-0.92334,0.314453,0
880,-0.0927734,-0.928711,0.310547,0
900,-0.0947266,-0.928711,0.314941,0
920,-0.0927734,-0.930176,0.31543,0
940,-0.0942383,-0.92334,0.316406,0
960,-0.0932617,-0.929199,0.311523,0
980,-0.0952148,-0.929688,0.314941,0
1000,-0.0947266,-0.930664,0.313477,0
1020,-0.0908203,-0.925293,0.312988,0
1040,-0.0898438,-0.927734,0.307129,0
1060,-0.0922852,-0.931641,0.313477,0
1080,-0.090332,-0.922363,0.312012,0
1100,-0.0917969,-0.924805,0.311523,0
1120,-0.0913086,-0.924316,0.3125,0
1140,-0.0942383,-0.92334,0.3125,0
1160,-0.09375,-0.920898,0.30957,0
1180,-0.0908203,-0.925781,0.309082,0
1200,-0.0913086,-0.929199,0.313477,0
1220,-0.0874023,-0.925293,0.313965,0
1240,-0.0859375,-0.929199,0.316406,0
1260,-0.0932617,-0.928223,0.31543,0
1280,-0.0942383,-0.936035,0.305664,0
1300,-0.0883789,-0.92627,0.309082,0
1320,-0.0942383,-0.920898,0.307617,0
1340,-0.0981445,-0.92627,0.310059,0
1360,-0.0932617,-0.925293,0.308105,0
1380,-0.0908203,-0.92627,0.311523,0
1400,-0.0878906,-0.927734,0.312988,0
1420,-0.0908203,-0.928711,0.312012,0
1440,-0.0942383,-0.929199,0.30957,0
1460,-0.0947266,-0.927246,0.305176,0
1480,-0.0893555,-0.931152,0.307617,0
1500,-0.09375,-0.928711,0.304688,0
1520,-0.0986328,-0.925781,0.31543,0
1540,-0.0913086,-0.923828,0.315918,0
1560,-0.0893555,-0.930664,0.308594,0
1580,-0.0932617,-0.929688,0.306641,0
1600,-0.0957031,-0.927246,0.30957,0
1620,-0.0893555,-0.924316,0.308105,0
1640,-0.0913086,-0.931641,0.308594,0
1660,-0.0913086,-0.930664,0.307617,0
1680,-0.0961914,-0.926758,0.307129,0
1700,-0.0922852,-0.930664,0.306152,0
1720,-0.0898438,-0.939941,0.3125,0
1740,-0.0932617,-0.942383,0.309082,0
1760,-0.0952148,-0.942383,0.312012,0
1780,-0.0981445,-0.937988,0.307129,0
1800,-0.103516,-0.932617,0.311035,0
1820,-0.122559,-0.952637,0.323242,0
1840,-0.0869141,-0.905762,0.312012,0
1860,-0.0830078,-0.902832,0.311035,0
1880,-0.0854492,-0.922852,0.305176,0
1900,-0.0922852,-0.932617,0.304199,0
1920,-0.0961914,-0.938477,0.306641,0
1940,-0.0976562,-0.938965,0.29541,0
1960,-0.100098,-0.936035,0.293457,0
1980,-0.0986328,-0.929688,0.302734,0
2000,-0.0986328,-0.921387,0.300293,0
2020,-0.0976562,-0.921387,0.314941,0
2040,-0.102051,-0.925781,0.311523,0
2060,-0.104492,-0.92334,0.306641,0
2080,-0.10791,-0.930176,0.310059,0
2100,-0.10791,-0.935547,0.301758,0
2120,-0.0981445,-0.937012,0.294434,0
2140,-0.0976562,-0.934082,0.300781,0
2160,-0.0947266,-0.936035,0.306641,0
2180,-0.102051,-0.937012,0.310547,0
2200,-0.0976562,-0.932129,0.309082,0
2220,-0.0976562,-0.922363,0.316406,0
2240,-0.0961914,-0.923828,0.305176,0
2260,-0.0981445,-0.928711,0.309082,0
2280,-0.0981445,-0.929688,0.306641,0
2300,-0.100098,-0.928711,0.305664,0
2320,-0.101074,-0.928223,0.309082,0
2340,-0.10498,-0.928223,0.322266,0
2360,-0.101562,-0.921875,0.3125,0
2380,-0.0961914,-0.929199,0.305664,0
2400,-0.0878906,-0.932617,0.314941,0
2420,-0.0957031,-0.932617,0.312988,0
2440,-0.0947266,-0.928711,0.314453,0
2460,-0.0961914,-0.934082,0.320801,0
2480,-0.101562,-0.938965,0.304199,0
2500,-0.101074,-0.962402,0.308594,0
2510,-0.102051,-0.932129,0.301758,0
2530,-0.0976562,-0.927734,0.306152,0
2550,-0.100586,-0.938965,0.299805,0
2570,-0.10791,-0.937012,0.296387,0
2590,-0.105957,-0.922852,0.29834,0
2610,-0.107422,-0.931152,0.300781,0
2630,-0.112305,-0.943359,0.304688,0
2650,-0.11377,-0.948242,0.303223,0
2670,-0.108887,-0.942871,0.29248,0
2690,-0.109375,-0.935547,0.291992,0
2710,-0.120605,-0.934082,0.294922,0
2730,-0.118164,-0.942383,0.293945,0
2750,-0.120605,-0.937012,0.293945,0
2770,-0.114258,-0.929199,0.282715,0
2790,-0.121094,-0.915039,0.26709,0
2810,-0.129395,-0.908203,0.281738,0
2830,-0.126953,-0.908691,0.288086,0
2850,-0.117676,-0.928711,0.29834,0
2870,-0.119141,-0.924805,0.299805,0
2890,-0.118164,-0.929199,0.28125,0
2910,-0.117676,-0.93457,0.277344,0
2930,-0.120117,-0.941895,0.28418,0
2950,-0.131836,-0.949219,0.280762,0
2970,-0.135742,-0.944336,0.28418,0
2990,-0.132324,-0.9375,0.27832,0
3010,-0.134766,-0.939453,0.278809,0
3030,-0.135254,-0.942871,0.275391,0
3050,-0.125,-0.936523,0.272461,0
3070,-0.135742,-0.937988,0.273438,0
3090,-0.13916,-0.93457,0.27002,0
3110,-0.131836,-0.930176,0.275391,0
3130,-0.131836,-0.928711,0.275879,0
3150,-0.137695,-0.941406,0.275879,0
3170,-0.134766,-0.941895,0.277832,0
3190,-0.132812,-0.932617,0.281738,0
3210,-0.133789,-0.929688,0.27832,0
3230,-0.140137,-0.927734,0.273926,0
3250,-0.137695,-0.924805,0.285156,0
3270,-0.134766,-0.925293,0.284668,0
3290,-0.135742,-0.93457,0.278809,0
3310,-0.134766,-0.9375,0.277832,0
3330,-0.140137,-0.943359,0.277832,0
3350,-0.137695,-0.945312,0.28418,0
3370,-0.13623,-0.944336,0.286133,0
3390,-0.134277,-0.945801,0.285645,0
3410,-0.131836,-0.945312,0.285156,0
3430,-0.133789,-0.936035,0.286133,0
3450,-0.139648,-0.935547,0.280762,0
3470,-0.134766,-0.94043,0.284668,0
3490,-0.137207,-0.929688,0.286133,0
3510,-0.134277,-0.935547,0.289551,0
3530,-0.134277,-0.937988,0.291016,0
3550,-0.133789,-0.937012,0.281738,0
3570,-0.135254,-0.928711,0.281738,0
3590,-0.137695,-0.933594,0.277344,0
3610,-0.143555,-0.939941,0.276855,0
3630,-0.138184,-0.933594,0.285645,0
3650,-0.134766,-0.933594,0.275879,0
3670,-0.14502,-0.936523,0.278809,0
3690,-0.143066,-0.935059,0.271484,0
3710,-0.137695,-0.933105,0.268066,0
3730,-0.144043,-0.927734,0.274902,0
3750,-0.147461,-0.924316,0.279297,0
3770,-0.143555,-0.931152,0.277832,0
3790,-0.137207,-0.925781,0.27832,0
3810,-0.136719,-0.922852,0.280762,0
3830,-0.137207,-0.930176,0.285156,0
3850,-0.136719,-0.93457,0.278809,0
3870,-0.14209,-0.932617,0.279785,0
3890,-0.143066,-0.928711,0.279297,0
3910,-0.13623,-0.936035,0.280762,0
3930,-0.137695,-0.933594,0.289062,0
3950,-0.13623,-0.934082,0.288086,0
3970,-0.130371,-0.937988,0.293457,0
3990,-0.132324,-0.93457,0.291504,0
4010,-0.138184,-0.926758,0.305664,0
4030,-0.13623,-0.916016,0.306152,0
4050,-0.130859,-0.916016,0.29248,0
4070,-0.131348,-0.920898,0.299316,0
4090,-0.134277,-0.923828,0.276367,0
4110,-0.112305,-0.921387,0.283691,0
4130,-0.10791,-0.919434,0.289062,0
4150,-0.119629,-0.904785,0.287109,0
4170,-0.123535,-0.891113,0.304199,0
4190,-0.12207,-0.896484,0.312012,0
4210,-0.121582,-0.90918,0.318359,0
4230,-0.115234,-0.922852,0.335938,0
4250,-0.10498,-0.917969,0.337891,0
4270,-0.0981445,-0.92041,0.331543,0
4290,-0.0986328,-0.931641,0.353027,0
4310,-0.0942383,-0.938477,0.351074,0
4330,-0.0893555,-0.921387,0.357422,0
4350,-0.0786133,-0.921875,0.378906,0
4370,-0.0805664,-0.918945,0.397949,0
4390,-0.0693359,-0.904785,0.409668,0
4410,-0.0678711,-0.897461,0.417969,0
4430,-0.0722656,-0.903809,0.435547,0
4450,-0.0688477,-0.900391,0.424316,0
4470,-0.0737305,-0.884766,0.418945,0
4490,-0.0820312,-0.867188,0.42334,0
4500,-0.102539,-0.871582,0.419922,0
4520,-0.101562,-0.861328,0.40625,0
4540,-0.105469,-0.854492,0.406738,0
4560,-0.0986328,-0.862793,0.390625,0
4580,-0.0849609,-0.862305,0.374512,0
4600,-0.0844727,-0.874023,0.379395,0
4620,-0.0820312,-0.88916,0.376953,0
4640,-0.0820312,-0.90625,0.355469,0
4660,-0.0712891,-0.908691,0.354492,0
4680,-0.0786133,-0.902344,0.371094,0
4700,-0.0791016,-0.900879,0.369141,0
4720,-0.0727539,-0.902344,0.381348,0
4740,-0.0727539,-0.900391,0.388184,0
4760,-0.0703125,-0.899902,0.405273,0
4780,-0.0673828,-0.900391,0.416992,0
4800,-0.0688477,-0.908691,0.407227,0
4820,-0.0742188,-0.915039,0.400391,0
4840,-0.0761719,-0.907715,0.391113,0
4860,-0.0771484,-0.910156,0.392578,0
4880,-0.0869141,-0.904297,0.396973,0
4900,-0.0864258,-0.897461,0.378418,0
4920,-0.078125,-0.887207,0.37207,0
4940,-0.081543,-0.891602,0.367188,0
4960,-0.0805664,-0.887695,0.356445,0
4980,-0.0830078,-0.898438,0.354004,0
5000,-0.0869141,-0.899414,0.354492,0
5020,-0.0917969,-0.900391,0.347168,0
5040,-0.0839844,-0.907227,0.342773,0
5060,-0.0834961,-0.914551,0.339844,0
5080,-0.0805664,-0.91748,0.336426,0
5100,-0.0849609,-0.92627,0.333984,0
5120,-0.0917969,-0.92041,0.321289,0
5140,-0.0942383,-0.916992,0.314453,0
5160,-0.0922852,-0.90918,0.318359,0
5180,-0.0913086,-0.915039,0.321289,0
5200,-0.090332,-0.922363,0.324219,0
5220,-0.0874023,-0.921387,0.328125,0
5240,-0.081543,-0.916992,0.333984,0
5260,-0.0864258,-0.91748,0.328125,0
5280,-0.0849609,-0.915527,0.330566,0
5300,-0.0898438,-0.908203,0.33252,0
5320,-0.0859375,-0.910156,0.328613,0
5340,-0.0825195,-0.912598,0.332031,0
5360,-0.0810547,-0.922363,0.337402,0
5380,-0.0805664,-0.92627,0.333984,0
5400,-0.0878906,-0.929199,0.341309,0
5420,-0.0864258,-0.919922,0.338379,0
5440,-0.0849609,-0.916992,0.352051,0
5460,-0.0805664,-0.907715,0.349121,0
5480,-0.078125,-0.904297,0.359375,0
5500,-0.0820312,-0.907715,0.352539,0
5520,-0.0756836,-0.909668,0.350586,0
5540,-0.0771484,-0.914062,0.359863,0
5560,-0.0844727,-0.911621,0.377441,0
5580,-0.0805664,-0.909668,0.371582,0
5600,-0.0800781,-0.907715,0.370117,0
5620,-0.0791016,-0.901367,0.369141,0
5640,-0.0751953,-0.90332,0.364746,0
5660,-0.0825195,-0.904785,0.359863,0
5680,-0.0834961,-0.893555,0.361816,0
5700,-0.0751953,-0.907715,0.36084,0
5720,-0.0771484,-0.908691,0.363281,0
5740,-0.0820312,-0.90332,0.368164,0
5760,-0.0810547,-0.904297,0.363281,0
5780,-0.0786133,-0.90625,0.355957,0
5800,-0.0761719,-0.922363,0.352539,0
5820,-0.0737305,-0.937988,0.349609,0
5840,-0.0742188,-0.928223,0.356934,0
5860,-0.0830078,-0.92334,0.362793,0
5880,-0.090332,-0.921387,0.379883,0
5900,-0.0786133,-0.916504,0.358398,0
5920,-0.0625,-0.924805,0.353027,0
5940,-0.0776367,-0.939453,0.387695,0
5960,-0.0678711,-0.914551,0.34668,0
5980,-0.0664062,-0.957031,0.314941,0
6000,-0.0786133,-0.936523,0.348145,0
6020,-0.0698242,-0.894531,0.354492,0
6040,-0.0541992,-0.849609,0.320312,0
6060,-0.0913086,-0.857422,0.333496,0
6080,-0.0551758,-0.850098,0.35791,0
6100,0.0102539,-0.933594,0.333496,0
6120,-0.0361328,-0.935547,0.372559,0
6140,-0.065918,-0.895508,0.365723,0
6160,-0.0356445,-0.887207,0.347656,0
6180,-0.0131836,-0.87793,0.331055,0
6200,-0.0327148,-0.885254,0.321777,0
6220,-0.0585938,-0.913086,0.311035,0
6240,-0.0688477,-0.916992,0.309082,0
6260,-0.0698242,-0.86377,0.289551,0
6280,-0.0170898,-0.868652,0.242188,0
6300,-0.0795898,-0.942383,0.460449,0
6320,-0.0605469,-0.98584,0.320312,0
6340,-0.0185547,-0.919434,0.377441,0
6360,-0.0498047,-0.862793,0.403809,0
6380,-0.0126953,-0.859863,0.321289,0
6400,-0.00244141,-0.949219,0.322266,0
6420,-0.0410156,-0.992676,0.310547,0
6440,-0.0820312,-0.972656,0.330078,0
6460,-0.0888672,-0.933594,0.339355,0
6480,-0.0898438,-0.94873,0.341797,0
6500,-0.0595703,-0.946777,0.339844,0
6520,-0.0405273,-0.930176,0.335938,0
6540,-0.0537109,-0.896973,0.34375,0
6560,-0.0493164,-0.888672,0.348633,0
6580,-0.0566406,-0.899902,0.35498,0
6600,-0.0473633,-0.908203,0.343262,0
6620,-0.0561523,-0.909668,0.333008,0
6640,-0.0629883,-0.909668,0.322754,0
6660,-0.0693359,-0.919922,0.31543,0
6680,-0.0727539,-0.921875,0.304688,0
6700,-0.0825195,-0.915039,0.308594,0
6720,-0.0756836,-0.915039,0.305176,0
6740,-0.0834961,-0.921387,0.320801,0
6760,-0.0986328,-0.966309,0.323242,0
6780,-0.0673828,-0.930176,0.305176,0
6800,-0.0629883,-0.930176,0.314453,0
6820,-0.074707,-0.929688,0.318359,0
6840,-0.0698242,-0.927246,0.315918,0
6860,-0.0703125,-0.927734,0.320801,0
6880,-0.0966797,-0.962402,0.348145,0
6900,-0.0478516,-0.913574,0.317871,0
6920,-0.0527344,-0.920898,0.33252,0
6940,-0.0595703,-0.933105,0.341309,0
6960,-0.0634766,-0.935059,0.342773,0
6980,-0.0649414,-0.922852,0.34668,0
7000,-0.0688477,-0.917969,0.342773,0
7020,-0.0649414,-0.910156,0.33252,0
7040,-0.0644531,-0.90625,0.335449,0
7060,-0.0712891,-0.908691,0.331055,0
7080,-0.0717773,-0.915527,0.328613,0
7100,-0.125977,-0.980469,0.359375,0
7120,-0.0483398,-0.899902,0.32666,0
7140,-0.0585938,-0.913086,0.343262,0
7160,-0.0688477,-0.926758,0.328613,0
7180,-0.0620117,-0.920898,0.330566,0
7200,-0.065918,-0.914551,0.323242,0
7220,-0.0688477,-0.920898,0.325684,0
7240,-0.0761719,-0.927246,0.324707,0
7260,-0.0732422,-0.922852,0.323242,0
7280,-0.0766602,-0.92334,0.331055,0
7300,-0.0727539,-0.920898,0.333008,0
7320,-0.0722656,-0.92041,0.331543,0
7340,-0.0693359,-0.928223,0.330566,0
7360,-0.0678711,-0.92041,0.335938,0
7380,-0.0683594,-0.918457,0.338867,0
7400,-0.0727539,-0.91748,0.329102,0
7420,-0.0717773,-0.92334,0.334473,0
7440,-0.0722656,-0.918457,0.34082,0
7460,-0.0654297,-0.921875,0.337891,0
7480,-0.0629883,-0.923828,0.339844,0
7500,-0.0649414,-0.914551,0.342285,0
7520,-0.0649414,-0.912598,0.338379,0
7540,-0.0673828,-0.918457,0.334473,0
7560,-0.0678711,-0.914062,0.335938,0
7580,-0.0673828,-0.908203,0.336426,0
7600,-0.0654297,-0.910645,0.334473,0
7620,-0.0625,-0.921875,0.33252,0
7640,-0.0634766,-0.922363,0.339844,0
7660,-0.0717773,-0.921387,0.333984,0
7680,-0.0683594,-0.921875,0.327148,0
7700,-0.0649414,-0.927734,0.334473,0
7720,-0.0693359,-0.924316,0.327637,0
7740,-0.0678711,-0.917969,0.328125,0
7760,-0.0717773,-0.92041,0.32959,0
7780,-0.0712891,-0.915527,0.32959,0
7800,-0.0693359,-0.917969,0.33252,0
7820,-0.0688477,-0.915039,0.328613,0
7840,-0.0717773,-0.92041,0.330078,0
7860,-0.0688477,-0.922852,0.325195,0
7880,-0.0698242,-0.919922,0.32373,0
7890,-0.0712891,-0.914551,0.32959,0
7910,-0.0805664,-0.91748,0.332031,0
7930,-0.0742188,-0.919434,0.331543,0
7950,-0.0664062,-0.917969,0.327637,0
7970,-0.0678711,-0.920898,0.336426,0
7990,-0.0673828,-0.921387,0.330078,0
8010,-0.0678711,-0.922363,0.330566,0
8030,-0.0683594,-0.918945,0.33252,0
8050,-0.0639648,-0.924316,0.33252,0
8070,-0.0664062,-0.922363,0.328613,0
8090,-0.065918,-0.917969,0.330566,0
8110,-0.0634766,-0.918457,0.32666,0
8130,-0.0654297,-0.92627,0.329102,0
8150,-0.0649414,-0.922363,0.333496,0
8170,-0.0644531,-0.914062,0.340332,0
8190,-0.0678711,-0.92041,0.335449,0
8210,-0.0683594,-0.922363,0.330078,0
8230,-0.0678711,-0.921387,0.337402,0
8250,-0.0703125,-0.916016,0.336914,0
8270,-0.0693359,-0.917969,0.333984,0
8290,-0.074707,-0.924316,0.333008,0
8310,-0.0727539,-0.916016,0.327148,0
8330,-0.0712891,-0.915527,0.32373,0
8350,-0.0698242,-0.918945,0.336426,0
8370,-0.0688477,-0.927246,0.332031,0
8390,-0.0683594,-0.917969,0.324707,0
8410,-0.0673828,-0.917969,0.329102,0
8430,-0.0620117,-0.922852,0.326172,0
8450,-0.0644531,-0.918945,0.330566,0
8470,-0.0678711,-0.913574,0.338379,0
8490,-0.0625,-0.918457,0.337891,0
8510,-0.0678711,-0.92334,0.339355,0
8530,-0.0761719,-0.921875,0.334961,0
8550,-0.0703125,-0.922852,0.322266,0
8570,-0.0639648,-0.922363,0.328613,0
8590,-0.0654297,-0.918457,0.333008,0
8610,-0.0874023,-0.92334,0.339844,0
8630,-0.046875,-0.911133,0.327637,0
8650,-0.0649414,-0.910156,0.333984,0
8670,-0.0664062,-0.921875,0.330566,0
8690,-0.0698242,-0.922852,0.335449,0
8710,-0.0688477,-0.921387,0.33252,0
8730,-0.0742188,-0.922363,0.325195,0
8750,-0.0698242,-0.922852,0.324707,0
8770,-0.0727539,-0.922852,0.333496,0
8790,-0.0742188,-0.916504,0.337891,0
8810,-0.0756836,-0.917969,0.330078,0
8830,-0.0761719,-0.919434,0.32959,0
8850,-0.0834961,-0.924316,0.32959,0
8870,-0.0634766,-0.914062,0.331055,0
8890,-0.0678711,-0.91748,0.327637,0
8910,-0.0717773,-0.927734,0.330078,0
8930,-0.0776367,-0.927246,0.329102,0
8950,-0.0698242,-0.91748,0.32666,0
8970,-0.0786133,-0.922363,0.332031,0
8990,-0.0917969,-0.947266,0.320801,0
9010,-0.0561523,-0.906738,0.325195,0
9030,-0.0683594,-0.913086,0.336914,0
9050,-0.074707,-0.923828,0.325195,0
9070,-0.0756836,-0.920898,0.328125,0
9090,-0.0756836,-0.916992,0.32373,0
9110,-0.0786133,-0.924316,0.329102,0
9130,-0.078125,-0.927246,0.32373,0
9150,-0.0805664,-0.919922,0.328125,0
9170,-0.0786133,-0.919434,0.328125,0
9190,-0.0742188,-0.921387,0.326172,0
9210,-0.0766602,-0.921387,0.328125,0
9230,-0.0791016,-0.916016,0.325195,0
9250,-0.0776367,-0.919434,0.325684,0
9270,-0.0830078,-0.925781,0.32959,0
9290,-0.078125,-0.92041,0.322266,0
9310,-0.0756836,-0.922363,0.32666,0
9330,-0.0751953,-0.919922,0.329102,0
9350,-0.0791016,-0.919922,0.329102,0
9370,-0.0732422,-0.919922,0.328613,0
9390,-0.0722656,-0.92041,0.338867,0
9410,-0.0771484,-0.928223,0.327148,0
9430,-0.0771484,-0.932617,0.32373,0
9450,-0.0732422,-0.926758,0.327148,0
9470,-0.0756836,-0.916992,0.328613,0
9490,-0.0800781,-0.915039,0.334473,0
9510,-0.0751953,-0.92041,0.328613,0
9530,-0.0717773,-0.919434,0.327148,0
9550,-0.0742188,-0.921875,0.328125,0
9570,-0.0712891,-0.92627,0.326172,0
9590,-0.0761719,-0.922363,0.324219,0
9610,-0.0761719,-0.919434,0.317383,0
9630,-0.0698242,-0.921387,0.323242,0
9650,-0.0825195,-0.922363,0.330078,0
9670,-0.078125,-0.920898,0.32666,0
9690,-0.0751953,-0.919922,0.325195,0
9710,-0.074707,-0.919922,0.329102,0
9730,-0.0771484,-0.92334,0.321777,0
9750,-0.0791016,-0.925781,0.323242,0
9770,-0.0722656,-0.923828,0.325195,0
9790,-0.0771484,-0.921875,0.321289,0
9810,-0.0727539,-0.919434,0.325195,0
9830,-0.0703125,-0.929199,0.328125,0
9850,-0.0732422,-0.922363,0.331543,0
9860,-0.0737305,-0.92334,0.329102,0
9880,-0.0722656,-0.928711,0.325195,0
9900,-0.0737305,-0.923828,0.322754,0
9920,-0.0737305,-0.918945,0.328613,0
9940,-0.0698242,-0.924316,0.327148,0
9960,-0.0766602,-0.922852,0.323242,0
9980,-0.0698242,-0.918457,0.32373,0
10000,-0.0712891,-0.919922,0.325684,0
10020,-0.0776367,-0.92041,0.326172,0
10040,-0.0727539,-0.918945,0.32666,0
10060,-0.0737305,-0.921387,0.325684,0
10080,-0.0708008,-0.92334,0.328613,0
10100,-0.0712891,-0.921387,0.328613,0
10120,-0.0766602,-0.917969,0.325195,0
10140,-0.0727539,-0.916016,0.327637,0
10160,-0.0776367,-0.919434,0.325195,0
10180,-0.0776367,-0.927246,0.320312,0
10200,-0.0786133,-0.916016,0.328613,0
10220,-0.0703125,-0.916504,0.325684,0
10240,-0.0722656,-0.922363,0.327637,0
10260,-0.0761719,-0.922852,0.333984,0
10280,-0.0805664,-0.922363,0.326172,0
10300,-0.0727539,-0.927246,0.317871,0
10320,-0.0693359,-0.92334,0.329102,0
10340,-0.0795898,-0.92334,0.324707,0
10360,-0.0751953,-0.920898,0.330566,0
10380,-0.0727539,-0.916504,0.32959,0
10400,-0.074707,-0.919434,0.321289,0
10420,-0.0717773,-0.920898,0.327637,0
10440,-0.0742188,-0.92041,0.327148,0
10460,-0.0722656,-0.926758,0.322754,0
10480,-0.0693359,-0.927734,0.322266,0
10500,-0.0737305,-0.918457,0.327637,0
10520,-0.0761719,-0.916992,0.327637,0
10540,-0.0751953,-0.921875,0.330566,0
10560,-0.0737305,-0.925293,0.325684,0
10580,-0.0717773,-0.922852,0.32666,0
10600,-0.0712891,-0.92334,0.322266,0
10620,-0.0756836,-0.919922,0.327148,0
10640,-0.0732422,-0.926758,0.325684,0
10660,-0.0737305,-0.921875,0.322266,0
10680,-0.0732422,-0.922852,0.32666,0
10700,-0.0717773,-0.920898,0.321289,0
10720,-0.0693359,-0.925293,0.324219,0
10740,-0.0737305,-0.921875,0.327637,0
10760,-0.0722656,-0.925293,0.32373,0
10780,-0.074707,-0.921875,0.324219,0
10800,-0.0722656,-0.92334,0.323242,0
10820,-0.0703125,-0.921387,0.324219,0
10840,-0.0717773,-0.921387,0.330566,0
10860,-0.0732422,-0.923828,0.328125,0
10880,-0.0771484,-0.919922,0.328613,0
10900,-0.0742188,-0.918457,0.331055,0
10920,-0.0732422,-0.921875,0.327637,0
10940,-0.0727539,-0.913086,0.334961,0
10960,-0.0727539,-0.919922,0.317383,0
10980,-0.0688477,-0.929688,0.326172,0
11000,-0.0761719,-0.922363,0.318848,0
11020,-0.0776367,-0.927734,0.318848,0
11040,-0.0742188,-0.920898,0.321777,0
11060,-0.0766602,-0.919434,0.320801,0
11080,-0.0693359,-0.919922,0.328613,0
11100,-0.0708008,-0.923828,0.326172,0
11120,-0.0732422,-0.923828,0.324707,0
11140,-0.0673828,-0.92041,0.329102,0
11160,-0.0732422,-0.924316,0.333496,0
11180,-0.0786133,-0.927246,0.317871,0
11200,-0.0698242,-0.922363,0.317383,0
11220,-0.0717773,-0.917969,0.325195,0
11240,-0.0761719,-0.919922,0.328125,0
11260,-0.0717773,-0.92041,0.327148,0
11280,-0.0693359,-0.920898,0.326172,0
11300,-0.0678711,-0.920898,0.326172,0
11320,-0.0756836,-0.925293,0.321777,0
11340,-0.0737305,-0.923828,0.32373,0
11360,-0.0717773,-0.92041,0.322266,0
11380,-0.0664062,-0.921875,0.317383,0
11400,-0.074707,-0.921875,0.32373,0
11420,-0.0751953,-0.916504,0.333008,0
11440,-0.0712891,-0.916016,0.324707,0
11460,-0.0668945,-0.933594,0.32666,0
11480,-0.0727539,-0.925781,0.324707,0
11500,-0.0717773,-0.926758,0.326172,0
11520,-0.0683594,-0.917969,0.327148,0
11540,-0.0703125,-0.927246,0.325684,0
11560,-0.0703125,-0.922852,0.32959,0
11580,-0.0737305,-0.92041,0.330566,0
11600,-0.0717773,-0.922852,0.325684,0
11620,-0.0732422,-0.92627,0.321289,0
11640,-0.0732422,-0.931641,0.325195,0
11660,-0.0688477,-0.924805,0.323242,0
11680,-0.0717773,-0.922852,0.32666,0
11700,-0.0732422,-0.921387,0.320312,0
11720,-0.0751953,-0.92041,0.324219,0
11740,-0.0727539,-0.91748,0.323242,0
11760,-0.0722656,-0.918945,0.330078,0
11780,-0.0693359,-0.925781,0.328613,0
11800,-0.074707,-0.921387,0.328613,0
11820,-0.0722656,-0.920898,0.323242,0
11840,-0.0717773,-0.927734,0.324707,0
11860,-0.0766602,-0.920898,0.329102,0
11880,-0.0712891,-0.91748,0.32959,0
11900,-0.0703125,-0.919922,0.326172,0
11920,-0.0708008,-0.92334,0.325684,0
11940,-0.0737305,-0.924805,0.318359,0
11960,-0.0722656,-0.922852,0.323242,0
11980,-0.0742188,-0.92041,0.323242,0
12000,-0.0712891,-0.92041,0.327637,0
12020,-0.0708008,-0.916504,0.328613,0
12040,-0.0654297,-0.922363,0.32666,0
12060,-0.0727539,-0.924805,0.332031,0
12080,-0.0786133,-0.926758,0.328613,0
12100,-0.0751953,-0.931641,0.31543,0
12120,-0.0703125,-0.923828,0.324219,0
12140,-0.074707,-0.921387,0.321777,0
12160,-0.0737305,-0.926758,0.327637,0
12180,-0.0673828,-0.921387,0.327637,0
12200,-0.0649414,-0.91748,0.32373,0
12220,-0.0703125,-0.926758,0.321289,0
12240,-0.0776367,-0.925293,0.321289,0
12260,-0.0761719,-0.915527,0.325684,0
12280,-0.0708008,-0.922363,0.321289,0
12300,-0.0678711,-0.925781,0.321777,0
12320,-0.0791016,-0.922852,0.329102,0
12340,-0.0776367,-0.912598,0.334473,0
12360,-0.0761719,-0.917969,0.326172,0
12380,-0.0698242,-0.921387,0.328125,0
12400,-0.0737305,-0.922852,0.32666,0
12420,-0.0698242,-0.92041,0.324219,0
12440,-0.0727539,-0.921875,0.324707,0
12460,-0.0737305,-0.924805,0.328125,0
12480,-0.0698242,-0.91748,0.321289,0
12500,-0.0722656,-0.919922,0.324219,0
12520,-0.0786133,-0.92627,0.319824,0
12540,-0.0708008,-0.922363,0.325684,0
12560,-0.0742188,-0.918945,0.323242,0
12580,-0.0732422,-0.921875,0.325684,0
12600,-0.0771484,-0.918457,0.327637,0
12620,-0.074707,-0.927734,0.321777,0
12640,-0.0712891,-0.917969,0.32666,0
12660,-0.0742188,-0.923828,0.322754,0
12680,-0.0732422,-0.92041,0.328125,0
12700,-0.0766602,-0.913574,0.329102,0
12720,-0.0722656,-0.914551,0.332031,0
12740,-0.0737305,-0.922363,0.328125,0
12760,-0.0717773,-0.930176,0.328125,0
12780,-0.0703125,-0.929199,0.328613,0
12800,-0.0732422,-0.92627,0.326172,0
12820,-0.0737305,-0.924805,0.332031,0
12840,-0.163574,-1.00684,0.363281,0
12860,-0.0415039,-0.901855,0.322754,0
12880,-0.065918,-0.905762,0.344238,0
12900,-0.0805664,-0.924316,0.328613,0
12920,-0.0732422,-0.92041,0.32666,0
12940,-0.0712891,-0.914551,0.325195,0
12960,-0.0756836,-0.921875,0.32959,0
12980,-0.0751953,-0.92334,0.330566,0
13000,-0.0786133,-0.931641,0.32959,0
13020,-0.0727539,-0.925293,0.323242,0
13040,-0.0727539,-0.921875,0.318359,0
13060,-0.078125,-0.920898,0.330566,0
13080,-0.0810547,-0.920898,0.326172,0
13100,-0.0737305,-0.910645,0.320801,0
13120,-0.074707,-0.916504,0.320312,0
13140,-0.0761719,-0.923828,0.324219,0
13160,-0.11084,-0.965332,0.329102,0
13180,-0.0688477,-0.909668,0.311523,0
13200,-0.0756836,-0.922363,0.322266,0
13220,-0.0742188,-0.928223,0.317383,0
13240,-0.078125,-0.92041,0.33252,0
13260,-0.0737305,-0.914062,0.328125,0
13270,-0.0742188,-0.925781,0.325684,0
13290,-0.0722656,-0.922363,0.321777,0
13310,-0.0771484,-0.916504,0.324707,0
13330,-0.078125,-0.924316,0.324219,0
13350,-0.0737305,-0.92627,0.328613,0
13370,-0.0727539,-0.927734,0.328613,0
13390,-0.0771484,-0.917969,0.325195,0
13410,-0.0732422,-0.918457,0.324219,0
13430,-0.0751953,-0.918457,0.335938,0
13450,-0.0756836,-0.918945,0.322754,0
13470,-0.0712891,-0.92041,0.331543,0
13490,-0.0722656,-0.923828,0.327148,0
13510,-0.0771484,-0.926758,0.332031,0
13530,-0.074707,-0.918945,0.322754,0
13550,-0.0751953,-0.91748,0.329102,0
13570,-0.074707,-0.915039,0.334961,0
13590,-0.0756836,-0.916992,0.336426,0
13610,-0.0737305,-0.924805,0.331543,0
13630,-0.0717773,-0.921387,0.332031,0
13650,-0.0761719,-0.918457,0.329102,0
13670,-0.0756836,-0.924805,0.330078,0
13690,-0.0732422,-0.920898,0.334473,0
13710,-0.0727539,-0.916992,0.334961,0
13730,-0.0727539,-0.92041,0.327637,0
13750,-0.0722656,-0.919434,0.328613,0
13770,-0.0688477,-0.918945,0.327148,0
13790,-0.0703125,-0.918945,0.325684,0
13810,-0.0717773,-0.915527,0.334961,0
13830,-0.0771484,-0.916016,0.326172,0
13850,-0.065918,-0.922363,0.32959,0
13870,-0.0737305,-0.92041,0.337402,0
13890,-0.0761719,-0.92334,0.320801,0
13910,-0.0698242,-0.926758,0.325195,0
13930,-0.0717773,-0.919922,0.316406,0
13950,-0.0756836,-0.918945,0.326172,0
13970,-0.0766602,-0.922852,0.328613,0
13990,-0.0756836,-0.916504,0.331055,0
14010,-0.0722656,-0.915527,0.319336,0
14030,-0.0791016,-0.922852,0.328613,0
14050,-0.0766602,-0.924316,0.325195,0
14070,-0.0698242,-0.922363,0.316895,0
14090,-0.0673828,-0.922363,0.321289,0
14110,-0.0742188,-0.92334,0.326172,0
14130,-0.0708008,-0.921875,0.331055,0
14150,-0.0766602,-0.916992,0.328613,0
14170,-0.078125,-0.919922,0.329102,0
14190,-0.0751953,-0.921875,0.323242,0
14210,-0.0742188,-0.919922,0.326172,0
14230,-0.0727539,-0.923828,0.325195,0
14250,-0.074707,-0.918945,0.322754,0
14270,-0.0727539,-0.929199,0.32666,0
14290,-0.0722656,-0.922363,0.32666,0
14310,-0.0712891,-0.918457,0.329102,0
14330,-0.0698242,-0.925781,0.331543,0
14350,-0.0698242,-0.92627,0.32666,0
14370,-0.0668945,-0.924805,0.324707,0
14390,-0.0703125,-0.918945,0.32373,0
14410,-0.0761719,-0.926758,0.319336,0
14430,-0.074707,-0.924316,0.32959,0
14450,-0.0766602,-0.919434,0.329102,0
14470,-0.0786133,-0.919434,0.328125,0
14490,-0.0737305,-0.919434,0.328613,0
14510,-0.0698242,-0.919922,0.327637,0
14530,-0.0712891,-0.92041,0.329102,0
14550,-0.078125,-0.925781,0.32373,0
14570,-0.0717773,-0.927734,0.322266,0
14590,-0.0688477,-0.924316,0.331055,0
14610,-0.0693359,-0.916992,0.329102,0
14630,-0.0698242,-0.911133,0.329102,0
14650,-0.0683594,-0.92627,0.329102,0
14670,-0.0717773,-0.926758,0.321777,0
14690,-0.0771484,-0.92041,0.323242,0
14710,-0.0737305,-0.918945,0.325684,0
14730,-0.0712891,-0.919922,0.32373,0
14750,-0.0703125,-0.922363,0.321289,0
14770,-0.0751953,-0.92041,0.33252,0
14790,-0.081543,-0.925293,0.321777,0
14810,-0.0761719,-0.920898,0.32373,0
14830,-0.0727539,-0.921387,0.328125,0
14850,-0.0727539,-0.921387,0.325684,0
14870,-0.0732422,-0.925781,0.327148,0
14890,-0.0678711,-0.92627,0.32373,0
14910,-0.0654297,-0.92041,0.330078,0
14930,-0.0673828,-0.916504,0.32959,0
14950,-0.0742188,-0.91748,0.326172,0
14970,-0.0791016,-0.923828,0.330078,0
14990,-0.0761719,-0.918457,0.324707,0
15010,-0.0732422,-0.921387,0.321777,0
15030,-0.0761719,-0.916992,0.331055,0
15050,-0.0737305,-0.916504,0.333008,0
15070,-0.0698242,-0.914062,0.332031,0
15090,-0.0678711,-0.922852,0.321777,0
15110,-0.0693359,-0.930176,0.32373,0
15130,-0.0717773,-0.922363,0.322754,0
15150,-0.0688477,-0.924316,0.322266,0
15170,-0.0693359,-0.926758,0.329102,0
15190,-0.0732422,-0.920898,0.325195,0
15210,-0.074707,-0.919922,0.324219,0
15230,-0.0751953,-0.92041,0.32666,0
15240,-0.0771484,-0.921875,0.325195,0
15260,-0.0800781,-0.919922,0.322266,0
15280,-0.0766602,-0.916992,0.329102,0
15300,-0.0742188,-0.919922,0.332031,0
15320,-0.0703125,-0.918457,0.328613,0
15340,-0.0712891,-0.92334,0.331543,0
15360,-0.0737305,-0.90625,0.333496,0
15380,-0.065918,-0.930664,0.317871,0
15400,-0.0673828,-0.931152,0.326172,0
15420,-0.0712891,-0.922363,0.32373,0
15440,-0.0688477,-0.922363,0.325684,0
15460,-0.0742188,-0.924805,0.32666,0
15480,-0.0717773,-0.918945,0.327148,0
15500,-0.0776367,-0.917969,0.337891,0
15520,-0.0737305,-0.919434,0.320312,0
15540,-0.0737305,-0.919922,0.321777,0
15560,-0.0742188,-0.924316,0.324707,0
15580,-0.0732422,-0.924805,0.327148,0
15600,-0.0688477,-0.919922,0.328125,0
15620,-0.0717773,-0.917969,0.321289,0
15640,-0.0664062,-0.920898,0.336426,0
15660,-0.0703125,-0.921875,0.334961,0
15680,-0.0776367,-0.922363,0.325195,0
15700,-0.0712891,-0.923828,0.323242,0
15720,-0.0717773,-0.92334,0.322754,0
15740,-0.0722656,-0.918945,0.320801,0
15760,-0.074707,-0.919434,0.328125,0
15780,-0.0737305,-0.923828,0.333984,0
15800,-0.074707,-0.923828,0.329102,0
15820,-0.0703125,-0.91748,0.324219,0
15840,-0.0712891,-0.92334,0.324707,0
15860,-0.0678711,-0.922363,0.328613,0
15880,-0.0703125,-0.918945,0.317383,0
15900,-0.0683594,-0.919922,0.325195,0
15920,-0.0722656,-0.919434,0.337891,0
15940,-0.0761719,-0.920898,0.331055,0
15960,-0.0703125,-0.92041,0.322754,0
15980,-0.0698242,-0.922852,0.32373,0
16000,-0.0722656,-0.92334,0.324707,0
16020,-0.0732422,-0.92627,0.328613,0
16040,-0.0703125,-0.919922,0.334473,0
16060,-0.0712891,-0.921387,0.324219,0
16080,-0.0742188,-0.925781,0.327637,0
16100,-0.0708008,-0.92041,0.321777,0
16120,-0.0717773,-0.920898,0.322266,0
16140,-0.0717773,-0.922363,0.324707,0
16160,-0.0722656,-0.920898,0.325195,0
16180,-0.0737305,-0.924316,0.32373,0
16200,-0.0708008,-0.921875,0.323242,0
16220,-0.0742188,-0.924316,0.324707,0
16240,-0.0737305,-0.921387,0.325684,0
16260,-0.0751953,-0.919434,0.325195,0
16280,-0.0732422,-0.92041,0.325195,0
16300,-0.0703125,-0.92334,0.328125,0
16320,-0.074707,-0.922363,0.32666,0
16340,-0.0712891,-0.922852,0.32666,0
16360,-0.0751953,-0.921387,0.330078,0
16380,-0.0708008,-0.924316,0.322266,0
16400,-0.0737305,-0.918457,0.33252,0
16420,-0.0693359,-0.919434,0.326172,0
16440,-0.0717773,-0.918945,0.322754,0
16460,-0.0693359,-0.924316,0.327148,0
16480,-0.0717773,-0.91748,0.325684,0
16500,-0.0708008,-0.918457,0.327148,0
16520,-0.0698242,-0.919922,0.32666,0
16540,-0.0756836,-0.919434,0.329102,0
16560,-0.0708008,-0.924316,0.326172,0
16580,-0.0673828,-0.921387,0.336914,0
16600,-0.0800781,-0.922363,0.330566,0
16620,-0.074707,-0.92627,0.324707,0
16640,-0.0693359,-0.921387,0.325195,0
16660,-0.0737305,-0.919434,0.327148,0
16680,-0.078125,-0.92041,0.329102,0
16700,-0.0712891,-0.916992,0.326172,0
16720,-0.0712891,-0.91748,0.328125,0
16740,-0.0742188,-0.919434,0.327637,0
16760,-0.0708008,-0.924805,0.324219,0
16780,-0.0722656,-0.924805,0.32666,0
16800,-0.0771484,-0.92041,0.319336,0
16820,-0.0727539,-0.921387,0.322754,0
16840,-0.0737305,-0.920898,0.331543,0
16860,-0.0800781,-0.91748,0.333496,0
16880,-0.0727539,-0.912109,0.332031,0
16900,-0.0708008,-0.921875,0.32666,0
16920,-0.0742188,-0.926758,0.328613,0
16940,-0.0751953,-0.922852,0.325195,0
16960,-0.074707,-0.915527,0.325195,0
16980,-0.074707,-0.922363,0.325684,0
17000,-0.0712891,-0.921387,0.322266,0
17020,-0.0742188,-0.915039,0.327637,0
17040,-0.0737305,-0.920898,0.328613,0
17060,-0.0717773,-0.920898,0.32373,0
17080,-0.0742188,-0.919922,0.324219,0
17100,-0.0742188,-0.916016,0.325195,0
17120,-0.0732422,-0.924805,0.323242,0
17140,-0.0766602,-0.921875,0.331055,0
17160,-0.0751953,-0.92334,0.32959,0
17180,-0.0732422,-0.918457,0.32959,0
17200,-0.074707,-0.919434,0.331055,0
17220,-0.0771484,-0.92334,0.328613,0
17240,-0.0751953,-0.920898,0.324219,0
17260,-0.0712891,-0.922363,0.32666,0
17280,-0.0737305,-0.924316,0.33252,0
17300,-0.0732422,-0.922852,0.322754,0
17320,-0.0751953,-0.916992,0.322266,0
17340,-0.0717773,-0.916016,0.327148,0
17360,-0.0668945,-0.922852,0.332031,0
17380,-0.0703125,-0.928711,0.331055,0
17400,-0.0673828,-0.924316,0.338867,0
17420,-0.0756836,-0.915527,0.333008,0
17440,-0.0771484,-0.924805,0.330566,0
17460,-0.0756836,-0.924805,0.339355,0
17480,-0.0771484,-0.916504,0.337402,0
17500,-0.0737305,-0.923828,0.32666,0
17520,-0.0751953,-0.928223,0.320801,0
17540,-0.0727539,-0.924316,0.322754,0
17560,-0.0751953,-0.921387,0.324707,0
17580,-0.0761719,-0.918945,0.32959,0
17600,-0.0712891,-0.922852,0.322754,0
17620,-0.0693359,-0.92041,0.323242,0
17640,-0.0756836,-0.918457,0.328613,0
17660,-0.0751953,-0.92041,0.32959,0
17680,-0.0644531,-0.930176,0.306152,0
17700,-0.0761719,-0.901855,0.324219,0
17720,-0.0712891,-0.916992,0.311035,0
17740,-0.0791016,-0.934082,0.326172,0
17760,-0.0761719,-0.922363,0.319824,0
17780,-0.0839844,-0.917969,0.317871,0
17800,-0.0742188,-0.922363,0.313965,0
17820,-0.0766602,-0.925293,0.320312,0
17840,-0.0786133,-0.925293,0.323242,0
17860,-0.0766602,-0.921875,0.317383,0
17880,-0.0805664,-0.923828,0.320312,0
17900,-0.0791016,-0.930176,0.321777,0
17920,-0.0786133,-0.926758,0.314941,0
17940,-0.0761719,-0.921387,0.319336,0
17960,-0.0766602,-0.925293,0.325684,0
17980,-0.0761719,-0.921387,0.316895,0
18000,-0.0766602,-0.923828,0.313965,0
18020,-0.0761719,-0.917969,0.318848,0
18040,-0.078125,-0.927734,0.324219,0
18060,-0.0786133,-0.933594,0.322266,0
18080,-0.0761719,-0.926758,0.323242,0
18100,-0.0776367,-0.921875,0.319824,0
18120,-0.0800781,-0.926758,0.317383,0
18140,-0.0795898,-0.92627,0.322754,0
18160,-0.074707,-0.922363,0.314453,0
18180,-0.0776367,-0.922363,0.320801,0
18200,-0.0791016,-0.925293,0.319336,0
18220,-0.074707,-0.922852,0.319336,0
18240,-0.0776367,-0.925293,0.312012,0
18260,-0.0805664,-0.924805,0.321777,0
18280,-0.0786133,-0.925293,0.319824,0
18300,-0.0820312,-0.921875,0.322266,0
18320,-0.0742188,-0.916504,0.328613,0
18340,-0.0771484,-0.916016,0.321777,0
18360,-0.0776367,-0.924805,0.321289,0
18380,-0.074707,-0.926758,0.325195,0
18400,-0.081543,-0.924805,0.316895,0
18420,-0.0761719,-0.931152,0.312988,0
18440,-0.0717773,-0.931152,0.319336,0
18460,-0.0766602,-0.919434,0.320312,0
18480,-0.0756836,-0.918457,0.320801,0
18500,-0.0761719,-0.922363,0.323242,0
18520,-0.0732422,-0.92334,0.320801,0
18540,-0.0732422,-0.921875,0.317871,0
18560,-0.0756836,-0.925781,0.314453,0
18580,-0.0756836,-0.927734,0.323242,0
18600,-0.0786133,-0.923828,0.316406,0
18620,-0.0761719,-0.923828,0.313965,0
18630,-0.074707,-0.918457,0.316895,0
18650,-0.0776367,-0.921387,0.324219,0
18670,-0.0771484,-0.92334,0.32373,0
18690,-0.0756836,-0.925781,0.323242,0
18710,-0.0732422,-0.920898,0.321289,0
18730,-0.078125,-0.929199,0.317383,0
18750,-0.0756836,-0.923828,0.322266,0
18770,-0.0742188,-0.923828,0.318359,0
18790,-0.0805664,-0.921387,0.319336,0
18810,-0.0795898,-0.922852,0.318359,0
18830,-0.0791016,-0.922852,0.321289,0
18850,-0.0786133,-0.923828,0.317383,0
18870,-0.0761719,-0.927246,0.311035,0
18890,-0.0766602,-0.929199,0.313965,0
18910,-0.0791016,-0.92334,0.317871,0
18930,-0.078125,-0.923828,0.317871,0
18950,-0.0786133,-0.924805,0.317383,0
18970,-0.0810547,-0.92334,0.318359,0
18990,-0.0766602,-0.922363,0.320312,0
19010,-0.081543,-0.927246,0.324707,0
19030,-0.0810547,-0.919434,0.31543,0
19050,-0.0830078,-0.918945,0.3125,0
19070,-0.0737305,-0.919922,0.311523,0
19090,-0.0581055,-0.920898,0.304688,0
19110,-0.0844727,-0.919434,0.322266,0
19130,-0.078125,-0.937012,0.317871,0
19150,-0.0800781,-0.930664,0.317871,0
19170,-0.0864258,-0.922852,0.320312,0
19190,-0.0864258,-0.92334,0.319336,0
19210,-0.0786133,-0.916992,0.327637,0
19230,-0.081543,-0.911133,0.324219,0
19250,-0.0771484,-0.929688,0.322266,0
19270,-0.0820312,-0.929688,0.328613,0
19290,-0.0874023,-0.921387,0.321777,0
19310,-0.078125,-0.925781,0.319824,0
19330,-0.0712891,-0.928223,0.310547,0
19350,-0.0756836,-0.918945,0.324219,0
19370,-0.074707,-0.914062,0.326172,0
19390,-0.074707,-0.916992,0.325195,0
19410,-0.0756836,-0.920898,0.319824,0
19430,-0.0800781,-0.922363,0.321777,0
19450,-0.0771484,-0.92334,0.32666,0
19470,-0.0742188,-0.926758,0.320801,0
19490,-0.081543,-0.926758,0.324707,0
19510,-0.0742188,-0.925293,0.318848,0
19530,-0.0766602,-0.916016,0.327148,0
19550,-0.0800781,-0.919922,0.328125,0
19570,-0.0795898,-0.92334,0.332031,0
19590,-0.0786133,-0.92041,0.331543,0
19610,-0.0742188,-0.921387,0.327148,0
19630,-0.0791016,-0.919434,0.324219,0
19650,-0.0761719,-0.92627,0.325684,0
19670,-0.0712891,-0.919922,0.330566,0
19690,-0.0737305,-0.922852,0.324219,0
19710,-0.0742188,-0.92627,0.325684,0
19730,-0.0756836,-0.924316,0.325195,0
19750,-0.0751953,-0.92041,0.32373,0
19770,-0.0727539,-0.924805,0.327148,0
19790,-0.0742188,-0.922852,0.322266,0
19810,-0.0820312,-0.927246,0.329102,0
19830,-0.0693359,-0.92627,0.330566,0
19850,-0.0766602,-0.931152,0.332031,0
19870,-0.0820312,-0.923828,0.335938,0
19890,-0.074707,-0.912109,0.335449,0
19910,-0.081543,-0.907715,0.334473,0
19930,-0.120605,-0.943359,0.333984,0
19950,-0.0610352,-0.912598,0.320801,0
19970,-0.0825195,-0.915527,0.333008,0
19990,-0.0834961,-0.925293,0.323242,0
20010,-0.0737305,-0.922363,0.321777,0
20030,-0.0805664,-0.929688,0.323242,0
20050,-0.0805664,-0.924805,0.325684,0
20070,-0.0942383,-0.924316,0.317383,0
20090,-0.0742188,-0.917969,0.319824,0
20110,-0.090332,-0.925781,0.330566,0
20130,-0.0854492,-0.924316,0.321289,0
20150,-0.0883789,-0.929688,0.328613,0
20170,-0.0859375,-0.930664,0.327637,0
20190,-0.0898438,-0.927246,0.321289,0
20210,-0.0917969,-0.914551,0.32666,0
20230,-0.0751953,-0.902344,0.324219,0
20250,-0.0927734,-0.900879,0.335449,0
20270,-0.0947266,-0.896484,0.333984,0
20290,-0.0952148,-0.907227,0.336426,0
20310,-0.09375,-0.907715,0.334473,0
20330,-0.0952148,-0.920898,0.334473,0
20350,-0.0957031,-0.913086,0.331055,0
20370,-0.097168,-0.928223,0.334961,0
20390,-0.0961914,-0.925293,0.327637,0
20410,-0.0986328,-0.919922,0.329102,0
20430,-0.090332,-0.913574,0.335449,0
20450,-0.0874023,-0.911133,0.337891,0
20470,-0.0830078,-0.914062,0.336426,0
20490,-0.0800781,-0.918457,0.338379,0
20510,-0.0844727,-0.927734,0.333984,0
20530,-0.0878906,-0.924805,0.329102,0
20550,-0.0952148,-0.925781,0.326172,0
20570,-0.0898438,-0.917969,0.32959,0
20590,-0.0893555,-0.911621,0.333984,0
20600,-0.0893555,-0.90625,0.335938,0
20620,-0.0947266,-0.898438,0.353027,0
20640,-0.0859375,-0.901855,0.349609,0
20660,-0.0727539,-0.908203,0.345215,0
20680,-0.0791016,-0.919434,0.337891,0
20700,-0.0869141,-0.930176,0.324707,0
20720,-0.0991211,-0.92627,0.318848,0
20740,-0.0942383,-0.936523,0.313477,0
20760,-0.0854492,-0.932129,0.322754,0
20780,-0.0712891,-0.916016,0.330078,0
20800,-0.0727539,-0.902344,0.333008,0
20820,-0.0742188,-0.909668,0.339844,0
20840,-0.0751953,-0.912109,0.330078,0
20860,-0.0795898,-0.918457,0.336914,0
20880,-0.0844727,-0.918457,0.337402,0
20900,-0.0854492,-0.924805,0.334473,0
20920,-0.0878906,-0.919922,0.335449,0
20940,-0.0859375,-0.930664,0.327148,0
20960,-0.0805664,-0.924316,0.339355,0
20980,-0.0830078,-0.922363,0.348145,0
21000,-0.0839844,-0.921875,0.338867,0
21020,-0.0751953,-0.916992,0.338379,0
21040,-0.0742188,-0.914551,0.332031,0
21060,-0.0771484,-0.911133,0.330078,0
21080,-0.0791016,-0.925781,0.327637,0
21100,-0.0800781,-0.924805,0.327637,0
21120,-0.0810547,-0.918457,0.330566,0
21140,-0.0825195,-0.919922,0.32666,0
21160,-0.0810547,-0.922363,0.335938,0
21180,-0.0771484,-0.914062,0.333008,0
21200,-0.0786133,-0.915527,0.320312,0
21220,-0.0795898,-0.918945,0.333496,0
21240,-0.0839844,-0.916992,0.336914,0
21260,-0.0834961,-0.919434,0.337402,0
21280,-0.0805664,-0.922852,0.330566,0
21300,-0.078125,-0.928223,0.334961,0
21320,-0.0805664,-0.922363,0.331055,0
21340,-0.0800781,-0.918457,0.328125,0
21360,-0.0825195,-0.91748,0.32959,0
21380,-0.0805664,-0.920898,0.328125,0
21400,-0.0810547,-0.912109,0.330078,0
21420,-0.0800781,-0.916016,0.327148,0
21440,-0.0800781,-0.925781,0.33252,0
21460,-0.0805664,-0.924805,0.334961,0
21480,-0.078125,-0.92041,0.32666,0
21500,-0.0766602,-0.91748,0.330078,0
21520,-0.078125,-0.922363,0.333008,0
21540,-0.0800781,-0.922363,0.333496,0
21560,-0.078125,-0.917969,0.328125,0
21580,-0.0805664,-0.915039,0.33252,0
21600,-0.081543,-0.922363,0.330078,0
21620,-0.0776367,-0.921875,0.331055,0
21640,-0.0786133,-0.92041,0.32666,0
21660,-0.0810547,-0.919434,0.335938,0
21680,-0.0810547,-0.92041,0.331543,0
21700,-0.0795898,-0.918945,0.335449,0
21720,-0.0771484,-0.919922,0.334961,0
21740,-0.0786133,-0.915527,0.328613,0
21760,-0.0795898,-0.922363,0.334473,0
21780,-0.0800781,-0.915527,0.333008,0
21800,-0.0800781,-0.915039,0.32959,0
21820,-0.0786133,-0.92334,0.33252,0
21840,-0.0844727,-0.922363,0.335938,0
21860,-0.0849609,-0.918945,0.330078,0
21880,-0.0761719,-0.921875,0.32959,0
21900,-0.0761719,-0.924805,0.324707,0
21920,-0.0820312,-0.916992,0.32959,0
21940,-0.0791016,-0.918945,0.335449,0
21960,-0.0786133,-0.921387,0.337402,0
21980,-0.0771484,-0.919434,0.326172,0
22000,-0.078125,-0.921387,0.32666,0
22020,-0.0791016,-0.92041,0.33252,0
22040,-0.0786133,-0.92334,0.326172,0
22060,-0.0771484,-0.922363,0.328125,0
22080,-0.0766602,-0.918457,0.32959,0
22100,-0.0805664,-0.914551,0.334961,0
22120,-0.0830078,-0.919434,0.331543,0
22140,-0.0776367,-0.917969,0.336914,0
22160,-0.0810547,-0.915527,0.330078,0
22180,-0.078125,-0.918945,0.333008,0
22200,-0.0820312,-0.921387,0.32959,0
22220,-0.0791016,-0.920898,0.334961,0
22240,-0.0795898,-0.916504,0.334473,0
22260,-0.0795898,-0.919434,0.336426,0
22280,-0.078125,-0.92334,0.329102,0
22300,-0.0766602,-0.918945,0.333984,0
22320,-0.0810547,-0.919922,0.330078,0
22340,-0.0810547,-0.923828,0.33252,0
22360,-0.0800781,-0.926758,0.327637,0
22380,-0.078125,-0.919434,0.328613,0
22400,-0.0786133,-0.91748,0.331543,0
22420,-0.0766602,-0.919434,0.333496,0
22440,-0.0795898,-0.921387,0.329102,0
22460,-0.074707,-0.914551,0.330078,0
22480,-0.081543,-0.915527,0.330078,0
22500,-0.0791016,-0.918457,0.330078,0
22520,-0.081543,-0.920898,0.332031,0
22540,-0.074707,-0.915527,0.324219,0
22560,-0.0791016,-0.916504,0.328613,0
22580,-0.078125,-0.922852,0.331055,0
22600,-0.0786133,-0.922363,0.332031,0
22620,-0.0776367,-0.914062,0.331543,0
22640,-0.0795898,-0.916504,0.329102,0
22660,-0.0810547,-0.917969,0.328125,0
22680,-0.0795898,-0.924316,0.332031,0
22700,-0.0805664,-0.915527,0.334961,0
22720,-0.0766602,-0.916992,0.327148,0
22740,-0.0776367,-0.925293,0.331055,0
22760,-0.0791016,-0.919434,0.341797,0
22780,-0.0854492,-0.918457,0.32666,0
22800,-0.0776367,-0.923828,0.326172,0
22820,-0.0830078,-0.92041,0.327637,0
22840,-0.0800781,-0.916016,0.334961,0
22860,-0.0795898,-0.922852,0.333496,0
22880,-0.0771484,-0.918457,0.32959,0
22900,-0.0751953,-0.91748,0.330566,0
22920,-0.0766602,-0.92041,0.331055,0
22940,-0.0810547,-0.92041,0.330078,0
22960,-0.0771484,-0.924316,0.333496,0
22980,-0.0756836,-0.920898,0.32666,0
23000,-0.0786133,-0.918457,0.33252,0
23020,-0.0834961,-0.917969,0.336426,0
23040,-0.0844727,-0.921875,0.34082,0
23060,-0.0810547,-0.91748,0.338379,0
23080,-0.074707,-0.921387,0.328613,0
23100,-0.0751953,-0.921387,0.335449,0
23120,-0.0776367,-0.922363,0.332031,0
23140,-0.0776367,-0.916992,0.333496,0
23160,-0.0791016,-0.919922,0.32959,0
23180,-0.0771484,-0.91748,0.332031,0
23200,-0.0795898,-0.925781,0.333984,0
23220,-0.078125,-0.919434,0.330078,0
23240,-0.078125,-0.918457,0.32959,0
23260,-0.0791016,-0.922852,0.32959,0
23280,-0.078125,-0.92627,0.330566,0
23300,-0.081543,-0.917969,0.32959,0
23320,-0.0800781,-0.916504,0.33252,0
23340,-0.081543,-0.919434,0.331543,0
23360,-0.0844727,-0.92041,0.33252,0
23380,-0.078125,-0.917969,0.331055,0
23400,-0.0791016,-0.916504,0.328125,0
23420,-0.0795898,-0.920898,0.331055,0
23440,-0.078125,-0.921387,0.329102,0
23460,-0.081543,-0.919434,0.332031,0
23480,-0.078125,-0.922852,0.331543,0
23500,-0.0825195,-0.917969,0.333984,0
23520,-0.0800781,-0.919434,0.334473,0
23540,-0.0800781,-0.916992,0.326172,0
23560,-0.0795898,-0.92041,0.330078,0
23580,-0.0839844,-0.922363,0.328125,0
23600,-0.0834961,-0.91748,0.32666,0
23620,-0.0810547,-0.916504,0.332031,0
23640,-0.0830078,-0.918457,0.328125,0
23660,-0.078125,-0.923828,0.340332,0
23680,-0.0805664,-0.91748,0.335449,0
23700,-0.0795898,-0.921387,0.326172,0
23720,-0.0776367,-0.92334,0.320312,0
23740,-0.0791016,-0.919922,0.328613,0
23760,-0.0805664,-0.91748,0.331543,0
23780,-0.0825195,-0.910645,0.335449,0
23800,-0.0776367,-0.916504,0.336426,0
23820,-0.0786133,-0.911133,0.334473,0
23840,-0.0766602,-0.910645,0.334961,0
23860,-0.0805664,-0.92627,0.32959,0
23880,-0.0839844,-0.92334,0.328125,0
23900,-0.0795898,-0.920898,0.328125,0
23920,-0.0751953,-0.914551,0.335938,0
23940,-0.081543,-0.913574,0.34082,0
23960,-0.0830078,-0.91748,0.333496,0
23980,-0.078125,-0.913574,0.337891,0
24000,-0.0776367,-0.916504,0.331543,0
24010,-0.0805664,-0.91748,0.335449,0
24030,-0.0786133,-0.918457,0.335449,0
24050,-0.0761719,-0.917969,0.33252,0
24070,-0.0786133,-0.913086,0.333496,0
24090,-0.0800781,-0.924805,0.33252,0
24110,-0.0825195,-0.918945,0.342285,0
24130,-0.0786133,-0.918457,0.334473,0
24150,-0.074707,-0.919434,0.33252,0
24170,-0.0756836,-0.920898,0.337402,0
24190,-0.078125,-0.918457,0.329102,0
24210,-0.081543,-0.91748,0.334961,0
24230,-0.0800781,-0.919434,0.328125,0
24250,-0.0786133,-0.91748,0.332031,0
24270,-0.0795898,-0.916016,0.334473,0
24290,-0.0776367,-0.915527,0.335449,0
24310,-0.0751953,-0.917969,0.33252,0
24330,-0.0800781,-0.916992,0.337891,0
24350,-0.0795898,-0.920898,0.331543,0
24370,-0.0791016,-0.916016,0.333496,0
24390,-0.0786133,-0.92041,0.33252,0
24410,-0.0795898,-0.918457,0.333008,0
24430,-0.0810547,-0.919434,0.333008,0
24450,-0.0791016,-0.918945,0.335449,0
24470,-0.0786133,-0.920898,0.330078,0
24490,-0.0805664,-0.913574,0.334473,0
24510,-0.0795898,-0.909668,0.326172,0
24530,-0.0756836,-0.922363,0.333984,0
24550,-0.0791016,-0.921875,0.34082,0
24570,-0.0849609,-0.919922,0.332031,0
24590,-0.0771484,-0.920898,0.326172,0
24610,-0.0751953,-0.917969,0.330566,0
24630,-0.0805664,-0.916016,0.335938,0
24650,-0.0810547,-0.916016,0.332031,0
24670,-0.078125,-0.915527,0.324707,0
24690,-0.0776367,-0.918457,0.327637,0
24710,-0.0795898,-0.92041,0.333008,0
24730,-0.0786133,-0.922852,0.334473,0
24750,-0.0795898,-0.924316,0.331543,0
24770,-0.0825195,-0.921387,0.324219,0
24790,-0.0776367,-0.917969,0.331543,0
24810,-0.0800781,-0.915039,0.333984,0
24830,-0.0825195,-0.919922,0.331543,0
24850,-0.0839844,-0.922852,0.332031,0
24870,-0.0766602,-0.92334,0.330078,0
24890,-0.0771484,-0.916992,0.326172,0
24910,-0.0825195,-0.920898,0.326172,0
24930,-0.0786133,-0.92334,0.330078,0
24950,-0.0795898,-0.916992,0.328613,0
24970,-0.0776367,-0.91748,0.32959,0
24990,-0.0791016,-0.92334,0.330566,0
25010,-0.0805664,-0.919922,0.333008,0
25030,-0.081543,-0.919434,0.328613,0
25050,-0.0771484,-0.919434,0.32666,0
25070,-0.0810547,-0.923828,0.330078,0
25090,-0.0771484,-0.92041,0.324219,0
25110,-0.0786133,-0.919434,0.332031,0
25130,-0.0756836,-0.917969,0.334473,0
25150,-0.0771484,-0.922363,0.330566,0
25170,-0.0800781,-0.920898,0.333984,0
25190,-0.0751953,-0.917969,0.335938,0
25210,-0.0795898,-0.92041,0.331055,0
25230,-0.0805664,-0.92041,0.331543,0
25250,-0.0795898,-0.921387,0.328613,0
25270,-0.0791016,-0.918457,0.32959,0
25290,-0.0791016,-0.914062,0.337891,0
25310,-0.0776367,-0.920898,0.321777,0
25330,-0.0786133,-0.92041,0.329102,0
25350,-0.0771484,-0.91748,0.329102,0
25370,-0.0795898,-0.919434,0.329102,0
25390,-0.0776367,-0.918945,0.333496,0
25410,-0.0795898,-0.912109,0.333008,0
25430,-0.0786133,-0.917969,0.32959,0
25450,-0.0805664,-0.922852,0.336426,0
25470,-0.0795898,-0.916992,0.330078,0
25490,-0.0766602,-0.922852,0.332031,0
25510,-0.0751953,-0.912598,0.322754,0
25530,-0.0825195,-0.915527,0.330566,0
25550,-0.0834961,-0.916504,0.333984,0
25570,-0.074707,-0.916992,0.336914,0
25590,-0.0756836,-0.916504,0.330566,0
25610,-0.0766602,-0.922363,0.326172,0
25630,-0.0766602,-0.922852,0.326172,0
25650,-0.0791016,-0.922852,0.330566,0
25670,-0.0771484,-0.923828,0.32959,0
25690,-0.0761719,-0.921387,0.333008,0
25710,-0.0791016,-0.91748,0.333984,0
25730,-0.0820312,-0.916016,0.339844,0
25750,-0.0805664,-0.922852,0.334473,0
25770,-0.0810547,-0.928711,0.32959,0
25790,-0.0795898,-0.918457,0.328125,0
25810,-0.0761719,-0.919922,0.32959,0
25830,-0.0805664,-0.916992,0.329102,0
25850,-0.0776367,-0.916992,0.331055,0
25870,-0.0761719,-0.917969,0.33252,0
25890,-0.078125,-0.911621,0.327637,0
25910,-0.0761719,-0.921387,0.327148,0
25930,-0.0810547,-0.92627,0.327637,0
25950,-0.0776367,-0.919434,0.32959,0
25970,-0.0810547,-0.922852,0.324707,0
25980,-0.0800781,-0.92627,0.322266,0
26000,-0.0795898,-0.922363,0.320801,0
26020,-0.0795898,-0.918945,0.324219,0
26040,-0.0795898,-0.919434,0.324219,0
26060,-0.081543,-0.920898,0.332031,0
26080,-0.0839844,-0.916992,0.333984,0
26100,-0.0810547,-0.918457,0.332031,0
26120,-0.081543,-0.922363,0.324707,0
26140,-0.0810547,-0.921875,0.336426,0
26160,-0.0786133,-0.916016,0.32959,0
26180,-0.0795898,-0.913086,0.335449,0
26200,-0.0820312,-0.921875,0.327148,0
26220,-0.0810547,-0.921875,0.324707,0
26240,-0.078125,-0.914551,0.335449,0
26260,-0.0795898,-0.912109,0.327148,0
26280,-0.0839844,-0.915527,0.322754,0
26300,-0.0825195,-0.911621,0.325684,0
26320,-0.0771484,-0.924316,0.32666,0
26340,-0.0751953,-0.940918,0.330078,0
26360,-0.0712891,-0.94873,0.331543,0
26380,-0.0668945,-0.9375,0.332031,0
26400,-0.0742188,-0.92627,0.339355,0
26420,-0.0869141,-0.914062,0.340332,0
26440,-0.0888672,-0.912109,0.336426,0
26460,-0.0800781,-0.898926,0.333496,0
26480,-0.0805664,-0.906738,0.336426,0
26500,-0.078125,-0.911133,0.328125,0
26520,-0.0864258,-0.892578,0.318359,0
26540,-0.0727539,-0.885742,0.319336,0
26560,-0.0805664,-0.92334,0.324219,0
26580,-0.0761719,-0.930176,0.320801,0
26600,-0.0874023,-0.914551,0.328125,0
26620,-0.0849609,-0.911133,0.32666,0
26640,-0.0756836,-0.925293,0.312988,0
26660,-0.0825195,-0.927734,0.33252,0
26680,-0.0898438,-0.922852,0.32959,0
26700,-0.090332,-0.915527,0.298828,0
26720,-0.0810547,-0.938477,0.336914,0
26740,-0.0771484,-0.931152,0.334473,0
26760,-0.0805664,-0.90332,0.348145,0
26770,-0.0698242,-0.886719,0.371094,0
26790,-0.0683594,-0.908203,0.352539,0
26810,-0.0810547,-0.94043,0.354492,0
26830,-0.0517578,-0.94873,0.350098,0
26850,-0.03125,-0.91748,0.328613,0
26870,-0.0668945,-0.918457,0.328125,0
26890,-0.012207,-0.882324,0.338867,0
26910,-0.0390625,-0.916992,0.33252,0
26940,-0.0327148,-0.930176,0.333984,0
26960,-0.0395508,-0.899902,0.34375,0
26980,-0.0444336,-0.905273,0.343262,0
27000,-0.0561523,-0.910156,0.29541,0
27020,-0.0581055,-0.888672,0.332031,0
27040,-0.0717773,-0.900879,0.35791,0
27060,-0.0644531,-0.909668,0.370605,0
27080,-0.0493164,-0.908691,0.374023,0
27100,-0.0522461,-0.918945,0.374023,0
27120,-0.0439453,-0.914062,0.368652,0
27140,-0.0512695,-0.908203,0.380371,0
27160,-0.0678711,-0.897461,0.379395,0
27180,-0.0776367,-0.895508,0.368652,0
27200,-0.0703125,-0.888184,0.365723,0
27220,-0.065918,-0.888184,0.364258,0
27240,-0.065918,-0.894531,0.367676,0
27260,-0.0576172,-0.897461,0.373535,0
27280,-0.0585938,-0.895508,0.364746,0
27300,-0.0625,-0.899414,0.365723,0
27320,-0.0693359,-0.900391,0.371582,0
27340,-0.0737305,-0.902832,0.370605,0
27360,-0.0708008,-0.900391,0.368164,0
27380,-0.0668945,-0.904785,0.366699,0
27400,-0.0712891,-0.901855,0.376465,0
27420,-0.0688477,-0.895508,0.370605,0
27440,-0.0634766,-0.896973,0.375488,0
27460,-0.0610352,-0.900879,0.371582,0
27480,-0.0649414,-0.90332,0.370605,0
27500,-0.065918,-0.906738,0.362793,0
27520,-0.0678711,-0.906738,0.370605,0
27540,-0.0683594,-0.912598,0.370605,0
27560,-0.0717773,-0.902344,0.370117,0
27580,-0.0688477,-0.895996,0.362793,0
27600,-0.0664062,-0.891602,0.365723,0
27620,-0.0683594,-0.900391,0.365723,0
27640,-0.0693359,-0.896973,0.368652,0
27660,-0.0644531,-0.897949,0.364746,0
27680,-0.0703125,-0.899902,0.361816,0
27700,-0.0698242,-0.906738,0.365234,0
27720,-0.0717773,-0.904785,0.369629,0
27740,-0.0668945,-0.904297,0.364746,0
27760,-0.065918,-0.906738,0.364258,0
27780,-0.065918,-0.910156,0.363281,0
27800,-0.0668945,-0.903809,0.355957,0
27820,-0.0649414,-0.897949,0.357422,0
27840,-0.0620117,-0.904297,0.368164,0
27860,-0.0649414,-0.901367,0.375977,0
27880,-0.0629883,-0.899414,0.375977,0
27900,-0.0576172,-0.90332,0.374023,0
27920,-0.0649414,-0.906738,0.382812,0
27940,-0.0678711,-0.902832,0.371582,0
27960,-0.0620117,-0.901367,0.367676,0
27980,-0.0615234,-0.88916,0.372559,0
28000,-0.0664062,-0.893066,0.375977,0
28020,-0.0615234,-0.895996,0.380859,0
28040,-0.059082,-0.895508,0.374512,0
28060,-0.0581055,-0.899902,0.37793,0
28080,-0.0561523,-0.900391,0.373047,0
28100,-0.0595703,-0.900391,0.374023,0
28120,-0.0620117,-0.901855,0.372559,0
28140,-0.0600586,-0.898438,0.365234,0
28160,-0.0546875,-0.907715,0.371094,0
28180,-0.0649414,-0.894531,0.37793,0
28200,-0.0620117,-0.896484,0.375977,0
28220,-0.0620117,-0.896484,0.366699,0
28240,-0.0605469,-0.904785,0.376953,0
28260,-0.0654297,-0.896973,0.380859,0
28280,-0.0625,-0.898926,0.366699,0
28300,-0.0620117,-0.898926,0.368652,0
28320,-0.0610352,-0.90625,0.375977,0
28340,-0.0615234,-0.897949,0.37793,0
28360,-0.0620117,-0.903809,0.371094,0
28380,-0.0620117,-0.903809,0.374023,0
28400,-0.0644531,-0.905273,0.371094,0
28420,-0.0600586,-0.903809,0.365723,0
28440,-0.0639648,-0.909668,0.368164,0
28460,-0.0664062,-0.904297,0.370117,0
28480,-0.0639648,-0.902344,0.363281,0
28500,-0.0625,-0.902832,0.367188,0
28520,-0.112793,-0.908203,0.358887,0
28540,-0.0424805,-0.909668,0.367188,0
28560,-0.0712891,-0.90918,0.37207,0
28580,-0.0805664,-0.908203,0.362305,0
28600,-0.0742188,-0.912598,0.369629,0
28620,-0.0703125,-0.907715,0.361816,0
28640,-0.0717773,-0.912109,0.356445,0
28660,-0.0854492,-0.92334,0.355957,0
28680,-0.0864258,-0.922363,0.338379,0
28700,-0.0825195,-0.903809,0.34082,0
28720,-0.0957031,-0.884766,0.336426,0
28740,-0.101074,-0.887695,0.322266,0
28760,-0.0825195,-0.878906,0.32666,0
28780,-0.0771484,-0.888672,0.331055,0
28800,-0.081543,-0.90332,0.339844,0
28820,-0.081543,-0.905762,0.332031,0
28840,-0.0795898,-0.915039,0.331055,0
28860,-0.0825195,-0.91748,0.342285,0
28880,-0.0844727,-0.912109,0.350098,0
28900,-0.0795898,-0.908691,0.358398,0
28920,-0.0834961,-0.90625,0.354492,0
28940,-0.0893555,-0.897461,0.350586,0
28960,-0.0883789,-0.898926,0.348633,0
28980,-0.0825195,-0.900391,0.372559,0
29000,-0.0839844,-0.906738,0.375977,0
29020,-0.0722656,-0.901855,0.384766,0
29040,-0.0644531,-0.904785,0.377441,0
29060,-0.0610352,-0.907715,0.382812,0
29080,-0.059082,-0.904297,0.373047,0
29100,-0.0654297,-0.89502,0.375977,0
29120,-0.0600586,-0.894043,0.373047,0
29140,-0.065918,-0.897949,0.380371,0
29160,-0.065918,-0.886719,0.388184,0
29180,-0.0634766,-0.875977,0.379395,0
29200,-0.0585938,-0.882812,0.381836,0
29220,-0.0551758,-0.895508,0.392578,0
29240,-0.0522461,-0.895996,0.397949,0
29260,-0.0527344,-0.894043,0.399902,0
29280,-0.0483398,-0.89502,0.394531,0
29300,-0.0571289,-0.903809,0.407715,0
29320,-0.0668945,-0.897949,0.414062,0
29340,-0.0566406,-0.890137,0.400879,0
29360,-0.0551758,-0.887695,0.407715,0
29370,-0.0537109,-0.884766,0.409668,0
29390,-0.0517578,-0.885742,0.410645,0
29410,-0.0551758,-0.879395,0.415527,0
29430,-0.0532227,-0.880371,0.414062,0
29450,-0.0498047,-0.883789,0.415527,0
29470,-0.0512695,-0.87793,0.411133,0
29490,-0.0556641,-0.875,0.406738,0
29510,-0.0600586,-0.881836,0.405762,0
29530,-0.0561523,-0.875488,0.40918,0
29550,-0.0585938,-0.872559,0.414062,0
29570,-0.0629883,-0.872559,0.410156,0
29590,-0.0576172,-0.88916,0.400391,0
29610,-0.050293,-0.888184,0.395996,0
29630,-0.0507812,-0.883789,0.396484,0
29650,-0.0571289,-0.888184,0.388672,0
29670,-0.0537109,-0.886719,0.391113,0
29690,-0.0532227,-0.883301,0.392578,0
29710,-0.0566406,-0.883301,0.398926,0
29730,-0.0561523,-0.890625,0.394043,0
29750,-0.0561523,-0.892578,0.395508,0
29770,-0.0576172,-0.883301,0.395996,0
29790,-0.0576172,-0.891113,0.39502,0
29810,-0.0610352,-0.889648,0.391113,0
29830,-0.0556641,-0.884766,0.408691,0
29850,-0.065918,-0.884277,0.404785,0
29870,-0.059082,-0.879883,0.400879,0
29890,-0.0629883,-0.878906,0.405273,0
29910,-0.065918,-0.875488,0.402832,0
29930,-0.0649414,-0.874023,0.397949,0
29950,-0.0556641,-0.87793,0.397949,0
29970,-0.0595703,-0.883301,0.404785,0
29990,-0.0600586,-0.879883,0.402344,0
30010,-0.0566406,-0.890137,0.404297,0
30030,-0.0585938,-0.888672,0.401367,0
30050,-0.0605469,-0.884766,0.398926,0
30070,-0.0581055,-0.891602,0.394043,0
30090,-0.0541992,-0.887207,0.395508,0
30110,-0.0581055,-0.891113,0.392578,0
30130,-0.0595703,-0.887207,0.393066,0
30150,-0.0576172,-0.87793,0.405762,0
30170,-0.0566406,-0.886719,0.393555,0
30190,-0.0625,-0.891113,0.395508,0
30210,-0.0595703,-0.890625,0.393066,0
30230,-0.0493164,-0.887207,0.391602,0
30250,-0.0527344,-0.889648,0.393555,0
30270,-0.0629883,-0.888672,0.390625,0
30290,-0.0546875,-0.887207,0.401367,0
30310,-0.0556641,-0.875977,0.413086,0
30330,-0.0571289,-0.874023,0.405762,0
30350,-0.059082,-0.864258,0.412109,0
30370,-0.0610352,-0.87207,0.402344,0
30390,-0.0517578,-0.882324,0.404297,0
30410,-0.0541992,-0.876465,0.426758,0
30430,-0.0561523,-0.873047,0.418457,0
30450,-0.0488281,-0.867188,0.41748,0
30470,-0.0498047,-0.879883,0.426758,0
30490,-0.0473633,-0.875977,0.433105,0
30510,-0.050293,-0.868652,0.42334,0
30530,-0.0473633,-0.870605,0.432617,0
30550,-0.0507812,-0.871582,0.44043,0
30570,-0.0439453,-0.870117,0.432129,0
30590,-0.0424805,-0.874512,0.432129,0
30610,-0.0478516,-0.882324,0.433105,0
30630,-0.0512695,-0.873535,0.425781,0
30650,-0.0507812,-0.868652,0.416504,0
30670,-0.0561523,-0.861816,0.42627,0
30690,-0.0537109,-0.861816,0.433105,0
30710,-0.0571289,-0.854492,0.427734,0
30730,-0.0483398,-0.856934,0.41748,0
30750,-0.0454102,-0.86084,0.420898,0
30770,-0.043457,-0.871582,0.42627,0
30790,-0.0439453,-0.878418,0.424805,0
30810,-0.0371094,-0.881348,0.425781,0
30830,-0.0395508,-0.880371,0.430176,0
30850,-0.0419922,-0.882324,0.433105,0
30870,-0.0463867,-0.878418,0.425781,0
30890,-0.0532227,-0.865723,0.425293,0
30910,-0.0488281,-0.866211,0.433105,0
30930,-0.0507812,-0.864746,0.425781,0
30950,-0.046875,-0.869629,0.425781,0
30970,-0.0429688,-0.870117,0.419434,0
30990,-0.046875,-0.876465,0.417969,0
31010,-0.0449219,-0.885254,0.418457,0
31030,-0.0458984,-0.876465,0.422363,0
31050,-0.0410156,-0.878418,0.415039,0
31070,-0.0473633,-0.874023,0.419922,0
31090,-0.050293,-0.871582,0.428223,0
31110,-0.050293,-0.873047,0.423828,0
31130,-0.0493164,-0.880859,0.416016,0
31150,-0.0532227,-0.873535,0.412109,0
31170,-0.0537109,-0.875977,0.414062,0
31190,-0.0561523,-0.87207,0.411621,0
31210,-0.0556641,-0.879883,0.410156,0
31230,-0.0512695,-0.887207,0.412109,0
31250,-0.0522461,-0.875977,0.407715,0
31270,-0.0522461,-0.875488,0.403809,0
31290,-0.0483398,-0.878906,0.404785,0
31310,-0.0527344,-0.875977,0.40332,0
31320,-0.0498047,-0.878418,0.402832,0
31340,-0.0458984,-0.882324,0.415039,0
31360,-0.0571289,-0.887207,0.40625,0
31380,-0.0507812,-0.891113,0.404785,0
31400,-0.0483398,-0.884277,0.402832,0
31420,-0.0512695,-0.878418,0.404297,0
31440,-0.0532227,-0.876953,0.410156,0
31460,-0.0522461,-0.878418,0.411621,0
31480,-0.0458984,-0.874023,0.407715,0
31500,-0.0478516,-0.869141,0.404785,0
31520,-0.0512695,-0.882324,0.407227,0
31540,-0.0541992,-0.880859,0.404785,0
31560,-0.0478516,-0.881348,0.410645,0
31580,-0.0463867,-0.888184,0.404297,0
31600,-0.0522461,-0.880371,0.40918,0
31620,-0.0527344,-0.877441,0.415039,0
31640,-0.0507812,-0.878906,0.415527,0
31660,-0.0517578,-0.879883,0.415527,0
31680,-0.0463867,-0.887207,0.416504,0
31700,-0.0488281,-0.887695,0.41748,0
31720,-0.0566406,-0.882324,0.413086,0
31740,-0.0576172,-0.878418,0.40918,0
31760,-0.0522461,-0.884277,0.416992,0
31780,-0.0527344,-0.874512,0.40332,0
31800,-0.0512695,-0.878418,0.40918,0
31820,-0.050293,-0.883789,0.398438,0
31840,-0.0522461,-0.890625,0.400879,0
31860,-0.0473633,-0.884277,0.391602,0
31880,-0.0507812,-0.894531,0.395996,0
31900,-0.0600586,-0.88623,0.39209,0
31920,-0.0556641,-0.895508,0.393555,0
31940,-0.0537109,-0.886719,0.401367,0
31960,-0.0585938,-0.880371,0.388672,0
31980,-0.0571289,-0.888184,0.39502,0
32000,-0.0605469,-0.887207,0.393555,0
32020,-0.0615234,-0.884277,0.392578,0
32040,-0.0595703,-0.887207,0.392578,0
32060,-0.0629883,-0.890625,0.391602,0
32080,-0.0649414,-0.88916,0.393555,0
32100,-0.0620117,-0.887695,0.387207,0
32120,-0.059082,-0.891113,0.395996,0
32140,-0.059082,-0.889648,0.391602,0
32160,-0.059082,-0.887207,0.387207,0
32180,-0.0600586,-0.889648,0.39209,0
32200,-0.0629883,-0.88916,0.38916,0
32220,-0.0620117,-0.886719,0.391602,0
32240,-0.0605469,-0.88623,0.396484,0
32260,-0.0541992,-0.891113,0.389648,0
32280,-0.0605469,-0.89502,0.401855,0
32300,-0.0673828,-0.893555,0.395996,0
32320,-0.0654297,-0.893066,0.385254,0
32340,-0.0566406,-0.891113,0.388184,0
32360,-0.0595703,-0.89209,0.390137,0
32380,-0.0620117,-0.887695,0.394043,0
32400,-0.0576172,-0.885742,0.393066,0
32420,-0.0595703,-0.888184,0.388672,0
32440,-0.0605469,-0.888672,0.38916,0
32460,-0.0629883,-0.88916,0.390625,0
32480,-0.0620117,-0.894531,0.393066,0
32500,-0.0625,-0.893555,0.387695,0
32520,-0.0600586,-0.893555,0.384766,0
32540,-0.0629883,-0.887207,0.391602,0
32560,-0.0634766,-0.883301,0.394531,0
32580,-0.0644531,-0.88623,0.396973,0
32600,-0.0620117,-0.88916,0.389648,0
32620,-0.0561523,-0.89502,0.395508,0
32640,-0.0649414,-0.88916,0.39502,0
32660,-0.0649414,-0.894043,0.390625,0
32680,-0.0654297,-0.882324,0.386719,0
32700,-0.0610352,-0.883301,0.396973,0
32720,-0.0581055,-0.888672,0.394531,0
32740,-0.0571289,-0.891602,0.396973,0
32760,-0.059082,-0.88916,0.394043,0
32780,-0.0595703,-0.88916,0.391602,0
32800,-0.0649414,-0.892578,0.39502,0
32820,-0.0649414,-0.892578,0.39502,0
32840,-0.0585938,-0.892578,0.391113,0
32860,-0.0605469,-0.887207,0.388184,0
32880,-0.0644531,-0.891602,0.391113,0
32900,-0.0581055,-0.888672,0.390625,0
32920,-0.0576172,-0.88916,0.39209,0
32940,-0.059082,-0.887207,0.392578,0
32960,-0.0634766,-0.895996,0.393066,0
32980,-0.0634766,-0.896484,0.388672,0
33000,-0.0605469,-0.890137,0.393066,0
33020,-0.0620117,-0.890625,0.391113,0
33040,-0.0610352,-0.890625,0.39502,0
33060,-0.0629883,-0.888184,0.38916,0
33080,-0.0600586,-0.885742,0.388184,0
33100,-0.0620117,-0.890625,0.386719,0
33120,-0.0625,-0.890625,0.389648,0
33140,-0.0610352,-0.88623,0.389648,0
33160,-0.0556641,-0.891113,0.386719,0
33180,-0.0566406,-0.896484,0.392578,0
33200,-0.0629883,-0.895508,0.400879,0
33220,-0.0634766,-0.890625,0.386719,0
33240,-0.0581055,-0.89502,0.390137,0
33260,-0.0546875,-0.894531,0.385742,0
33280,-0.0610352,-0.888184,0.390137,0
33300,-0.0571289,-0.890625,0.391602,0
33320,-0.059082,-0.891602,0.391602,0
33340,-0.0581055,-0.891113,0.393555,0
33360,-0.0664062,-0.890625,0.385742,0
33380,-0.0634766,-0.890137,0.384277,0
33400,-0.0620117,-0.896484,0.386719,0
33420,-0.0610352,-0.893066,0.385254,0
33450,-0.059082,-0.88916,0.390625,0
33470,-0.0634766,-0.890137,0.389648,0
33490,-0.0620117,-0.895996,0.384766,0
33510,-0.0595703,-0.891113,0.380859,0
33530,-0.0620117,-0.892578,0.38623,0
33550,-0.0639648,-0.89209,0.382324,0
33570,-0.0649414,-0.890137,0.382812,0
33590,-0.059082,-0.891602,0.39209,0
33610,-0.0605469,-0.887207,0.381348,0
33630,-0.0610352,-0.897949,0.385254,0
33650,-0.0639648,-0.894043,0.393555,0
33670,-0.0610352,-0.894531,0.391113,0
33690,-0.0625,-0.900879,0.38623,0
33710,-0.0615234,-0.898438,0.390137,0
33730,-0.0634766,-0.891602,0.386719,0
33750,-0.0610352,-0.891113,0.381348,0
33770,-0.0576172,-0.888184,0.387207,0
33790,-0.0600586,-0.890625,0.38916,0
33810,-0.0620117,-0.89209,0.393555,0
33830,-0.0625,-0.893555,0.386719,0
33850,-0.0644531,-0.899414,0.386719,0
33870,-0.0615234,-0.899902,0.385254,0
33890,-0.0634766,-0.894531,0.381348,0
33910,-0.0644531,-0.887695,0.381836,0
33930,-0.0625,-0.893555,0.386719,0
33950,-0.0639648,-0.893555,0.379883,0
33970,-0.0625,-0.891602,0.381348,0
33990,-0.0649414,-0.895508,0.378906,0
34010,-0.0634766,-0.901367,0.380371,0
34030,-0.0654297,-0.895508,0.376465,0
34050,-0.0644531,-0.895996,0.380859,0
34070,-0.0605469,-0.89209,0.385254,0
34090,-0.0620117,-0.895996,0.378906,0
34110,-0.0625,-0.899414,0.391113,0
34130,-0.065918,-0.896484,0.391602,0
34150,-0.0737305,-0.892578,0.378418,0
34170,-0.0654297,-0.897461,0.379883,0
34190,-0.0664062,-0.892578,0.37793,0
34210,-0.065918,-0.894531,0.37793,0
34230,-0.0712891,-0.893555,0.383301,0
34250,-0.0610352,-0.896973,0.376953,0
34270,-0.0664062,-0.895508,0.376953,0
34290,-0.0664062,-0.892578,0.375488,0
34310,-0.0634766,-0.901367,0.373047,0
34330,-0.0639648,-0.900879,0.373047,0
34350,-0.0615234,-0.893066,0.374512,0
34370,-0.065918,-0.89209,0.374023,0
34390,-0.0712891,-0.894043,0.383301,0
34410,-0.0644531,-0.893555,0.382324,0
34430,-0.065918,-0.899414,0.376953,0
34450,-0.0610352,-0.897949,0.379883,0
34470,-0.0678711,-0.899902,0.373535,0
34490,-0.0708008,-0.898926,0.382324,0
34510,-0.0639648,-0.894531,0.383301,0
34530,-0.0634766,-0.896973,0.382812,0
34550,-0.0673828,-0.896973,0.384277,0
34570,-0.0644531,-0.895996,0.383301,0
34590,-0.0629883,-0.89502,0.379395,0
34610,-0.0629883,-0.901367,0.385742,0
34630,-0.0629883,-0.900879,0.372559,0
34650,-0.0605469,-0.898438,0.379883,0
34670,-0.0654297,-0.885254,0.373535,0
34690,-0.0581055,-0.907227,0.370605,0
34710,-0.0786133,-0.887695,0.381836,0
34720,-0.0551758,-0.892578,0.379395,0
34740,-0.0605469,-0.900391,0.375488,0
34760,-0.0688477,-0.896484,0.379883,0
34780,-0.0708008,-0.895508,0.378906,0
34800,-0.0693359,-0.88916,0.378906,0
34820,-0.074707,-0.891602,0.374512,0
34840,-0.0708008,-0.88916,0.377441,0
34860,-0.0722656,-0.896484,0.378906,0
34880,-0.0634766,-0.895996,0.377441,0
34900,-0.0625,-0.900879,0.379395,0
34920,-0.0673828,-0.898926,0.378418,0
34940,-0.0673828,-0.901855,0.38623,0
34960,-0.0634766,-0.897949,0.384766,0
34980,-0.0639648,-0.897949,0.384766,0
35000,-0.0673828,-0.900879,0.392578,0
35020,-0.0673828,-0.890625,0.398438,0
35040,-0.0717773,-0.887695,0.388672,0
35060,-0.0703125,-0.895996,0.383301,0
35080,-0.0708008,-0.891113,0.379395,0
35100,-0.0673828,-0.887695,0.382812,0
35120,-0.0634766,-0.894043,0.381348,0
35140,-0.0620117,-0.89502,0.37793,0
35160,-0.0620117,-0.895996,0.383789,0
35180,-0.0629883,-0.893066,0.376953,0
35200,-0.0688477,-0.89502,0.381348,0
35220,-0.0708008,-0.899902,0.377441,0
35240,-0.0688477,-0.897461,0.371582,0
35260,-0.0678711,-0.890137,0.373047,0
35280,-0.0722656,-0.890625,0.380859,0
35300,-0.0712891,-0.895508,0.377441,0
35320,-0.0688477,-0.897461,0.375977,0
35340,-0.0698242,-0.897461,0.368652,0
35360,-0.0688477,-0.903809,0.370117,0
35380,-0.0688477,-0.911133,0.366211,0
35400,-0.0664062,-0.91748,0.359375,0
35420,-0.0649414,-0.947754,0.347656,0
35440,-0.0537109,-1.00781,0.308594,0
35460,-0.0175781,-1.05762,0.32666,0
35480,-0.0249023,-1.04541,0.364258,0
35500,-0.0507812,-1.08252,0.316406,0
35520,0.0200195,-1.08838,0.266113,0
35540,0.112305,-1.16162,0.398926,0
35560,0.0517578,-1.04883,0.497559,0
35580,-0.0327148,-1.03223,0.634277,0
35600,0.059082,-0.908203,0.568359,0
35620,0.0102539,-1.13184,0.660156,0
35640,0.137695,-1.27637,0.567871,0
35660,0.219238,-1.08301,0.543945,0
35680,0.223145,-0.966309,0.549316,0
35700,0.246582,-0.876953,0.46582,0
35720,0.270508,-0.828125,0.393555,0
35740,0.262207,-0.780762,0.350098,0
35760,0.216309,-0.723145,0.331055,0
35780,0.20166,-0.666504,0.284668,0
35800,0.205566,-0.600098,0.229492,0
35820,0.180176,-0.602539,0.171387,0
35840,0.192383,-0.633301,0.148926,0
35860,0.195312,-0.678711,0.112305,0
35880,0.186523,-0.743164,0.0986328,0
35900,0.122559,-0.783203,0.125488,0
35920,0.0942383,-0.731934,0.124023,0
35940,0.109863,-0.733887,0.101562,0
35960,0.178223,-0.809082,0.081543,0
35980,0.208984,-0.869141,0.108887,0
36000,0.195801,-0.898926,0.119141,0
36020,0.210938,-0.899902,0.126465,0
36040,0.246582,-0.897461,0.115234,0
36060,0.287109,-0.902344,0.115234,0
36080,0.325684,-0.927246,0.117676,0
36100,0.349609,-0.940918,0.131836,0
36120,0.36084,-0.935059,0.138184,0
36140,0.365723,-0.927246,0.147461,0
36160,0.395508,-0.912598,0.143555,0
36180,0.417969,-0.916504,0.160156,0
36200,0.400879,-0.900391,0.17041,0
36220,0.411133,-0.864746,0.202637,0
36240,0.418945,-0.859375,0.19873,0
36260,0.414551,-0.881348,0.191895,0
36280,0.416016,-0.901855,0.20166,0
36300,0.39209,-0.876465,0.216797,0
36320,0.374023,-0.861328,0.206543,0
36340,0.382812,-0.879395,0.1875,0
36360,0.399902,-0.886719,0.200195,0
36380,0.399414,-0.86377,0.19873,0
36400,0.400391,-0.867188,0.188477,0
36420,0.411133,-0.876465,0.180664,0
36440,0.421875,-0.883789,0.197754,0
36460,0.416992,-0.871094,0.20752,0
36480,0.44043,-0.891113,0.183594,0
36500,0.4375,-0.916504,0.183105,0
36520,0.412598,-0.901855,0.194824,0
36540,0.382812,-0.899414,0.167969,0
36560,0.370117,-0.895508,0.188477,0
36580,0.353516,-0.873047,0.213867,0
36600,0.361816,-0.874023,0.211426,0
36620,0.36377,-0.895508,0.19043,0
36640,0.380859,-0.891113,0.198242,0
36650,0.383301,-0.893066,0.199219,0
36670,0.374023,-0.905273,0.187988,0
36690,0.350098,-0.910645,0.169434,0
36710,0.348145,-0.896973,0.182129,0
36730,0.350098,-0.890137,0.171875,0
36750,0.350586,-0.904785,0.196777,0
36770,0.347168,-0.892578,0.193359,0
36790,0.335449,-0.875488,0.217773,0
36810,0.351074,-0.890625,0.21582,0
36830,0.365234,-0.897949,0.20459,0
36850,0.368164,-0.900879,0.210449,0
36870,0.354492,-0.888672,0.193359,0
36890,0.354492,-0.894043,0.191406,0
36910,0.352051,-0.88623,0.194336,0
36930,0.336914,-0.883301,0.211914,0
36950,0.337891,-0.887207,0.195312,0
36970,0.334961,-0.900391,0.198242,0
36990,0.322266,-0.881836,0.20752,0
37010,0.328613,-0.857422,0.210938,0
37030,0.327637,-0.881348,0.216309,1000
37050,0.34375,-0.910156,0.226074,0
37070,0.352539,-0.902832,0.209473,0
37090,0.354492,-0.887207,0.206543,0
37110,0.345215,-0.88623,0.208496,0
37130,0.339844,-0.888672,0.208984,0
37150,0.354004,-0.901855,0.212891,0
37170,0.36377,-0.902344,0.206543,0
37190,0.356445,-0.901855,0.197266,0
37210,0.352051,-0.884277,0.19873,0
37230,0.349609,-0.876465,0.205566,0
37250,0.347656,-0.898438,0.214844,0
37270,0.338379,-0.894531,0.210449,0
37290,0.341797,-0.882812,0.208008,0
37310,0.337891,-0.884277,0.206055,0
37330,0.32959,-0.876953,0.208008,0
37350,0.326172,-0.882324,0.207031,0
37370,0.325684,-0.881348,0.194824,0
37390,0.315918,-0.879883,0.192871,0
37410,0.316406,-0.879395,0.201172,0
37430,0.321777,-0.882324,0.19873,0
37450,0.321289,-0.883789,0.200684,0
37470,0.324707,-0.874023,0.19043,0
37490,0.338379,-0.883789,0.211426,0
37510,0.371582,-0.882812,0.21875,0
37530,0.378906,-0.884766,0.18457,0
37550,0.393066,-0.887207,0.17334,0
37570,0.408691,-0.878906,0.182617,0
37590,0.415527,-0.882324,0.191406,0
37610,0.416016,-0.877441,0.168457,0
37630,0.41748,-0.878418,0.151855,0
37650,0.425293,-0.867188,0.146973,0
37670,0.408203,-0.865723,0.148926,0
37690,0.397461,-0.868652,0.164062,0
37710,0.415527,-0.879883,0.171387,0
37730,0.4375,-0.880371,0.15332,0
37750,0.427734,-0.855957,0.147461,0
37770,0.419434,-0.84082,0.154785,0
37790,0.42041,-0.858398,0.158203,0
37810,0.431152,-0.859375,0.147461,0
37830,0.436035,-0.862305,0.146973,0
37850,0.450195,-0.85498,0.129883,0
37870,0.454102,-0.85498,0.146484,0
37890,0.443359,-0.841309,0.144043,0
37910,0.452148,-0.83252,0.136719,0
37930,0.492676,-0.850586,0.142578,0
37950,0.5,-0.838867,0.137695,0
37970,0.504395,-0.822266,0.126953,0
37990,0.53125,-0.825684,0.124512,0
38010,0.558105,-0.821289,0.117676,0
38020,0.557617,-0.813477,0.108887,0
38040,0.561035,-0.801758,0.10791,0
38060,0.562988,-0.798828,0.0908203,0
38080,0.578125,-0.813477,0.102539,0
38100,0.555176,-0.817383,0.112793,0
38120,0.525879,-0.783203,0.135742,0
38140,0.503906,-0.780762,0.144531,0
38160,0.48877,-0.796875,0.148926,0
38180,0.488281,-0.80957,0.155273,0
38200,0.48877,-0.818359,0.149414,0
38220,0.474609,-0.833008,0.150391,0
38240,0.422852,-0.818848,0.185547,0
38260,0.438477,-0.828125,0.202637,0
38280,0.449219,-0.839844,0.203613,0
38300,0.443848,-0.835449,0.192871,0
38320,0.455078,-0.812012,0.200195,0
38340,0.506836,-0.807617,0.187012,0
38360,0.503906,-0.804688,0.191406,0
38380,0.523438,-0.810547,0.197754,0
38400,0.546387,-0.782227,0.191895,0
38420,0.587891,-0.788086,0.194336,0
38440,0.612305,-0.779297,0.180664,0
38460,0.619141,-0.740234,0.161133,0
38480,0.61084,-0.731445,0.149902,0
38500,0.634277,-0.71582,0.149902,0
38520,0.65332,-0.719727,0.169434,0
38540,0.668457,-0.694824,0.165039,0
38560,0.65625,-0.677246,0.150391,0
38580,0.680176,-0.672852,0.152832,0
38600,0.674316,-0.651855,0.187012,0
38620,0.68457,-0.638184,0.182617,0
38640,0.695312,-0.637207,0.171875,0
38660,0.706055,-0.621094,0.193848,0
38680,0.73291,-0.606445,0.185059,0
38700,0.741699,-0.59082,0.179688,0
38720,0.727051,-0.578613,0.189941,0
38740,0.733398,-0.580078,0.185059,0
38760,0.748535,-0.593262,0.185547,0
38780,0.752441,-0.560547,0.199707,0
38800,0.753906,-0.55127,0.199219,0
38810,0.745605,-0.55127,0.186523,0
38830,0.749023,-0.548828,0.191895,0
38850,0.742188,-0.552734,0.19873,0
38870,0.730957,-0.548828,0.20459,0
38890,0.753906,-0.553711,0.210938,0
38910,0.741211,-0.549805,0.229492,0
38930,0.737793,-0.544922,0.225098,0
38950,0.742676,-0.540039,0.227539,0
38970,0.76416,-0.533203,0.246582,0
38990,0.787109,-0.542969,0.251465,0
39010,0.742188,-0.538086,0.267578,0
39030,0.730957,-0.547852,0.272949,0
39050,0.719238,-0.546387,0.286133,0
39070,0.75,-0.526855,0.299316,0
39090,0.769043,-0.524902,0.30127,0
39110,0.759766,-0.523438,0.297852,0
39130,0.740723,-0.510254,0.32373,0
39150,0.700195,-0.527344,0.340332,0
39170,0.694824,-0.532227,0.34668,0
39190,0.745605,-0.524902,0.354492,0
39210,0.714844,-0.52002,0.351562,0
39230,0.678711,-0.514648,0.382812,0
39250,0.679199,-0.561035,0.384766,0
39270,0.684082,-0.56543,0.369141,0
39290,0.686523,-0.545898,0.395996,0
39310,0.689453,-0.510254,0.385742,0
39330,0.655762,-0.514648,0.384277,0
39350,0.641113,-0.57666,0.411621,0
39370,0.614258,-0.642578,0.487305,0
39390,0.566895,-0.628906,0.472656,0
39410,0.543945,-0.608887,0.437988,0
39430,0.541992,-0.597168,0.479492,0
39450,0.486816,-0.601562,0.520996,0
39470,0.4375,-0.643066,0.522461,0
39490,0.474609,-0.655273,0.532227,0
39510,0.521973,-0.644531,0.494629,0
39530,0.511719,-0.638672,0.523438,0
39550,0.460938,-0.650391,0.527344,0
39570,0.437988,-0.665527,0.496094,0
39590,0.469238,-0.67334,0.481934,0
39610,0.485352,-0.648438,0.491211,0
39630,0.479492,-0.648926,0.47168,0
39650,0.440918,-0.658203,0.499512,0
39670,0.433105,-0.666992,0.507812,0
39690,0.447754,-0.680176,0.497559,0
39710,0.455078,-0.68457,0.48877,0
39730,0.454102,-0.673828,0.479004,0
39750,0.432617,-0.691406,0.473633,0
39770,0.420898,-0.708008,0.485352,0
39790,0.406738,-0.70459,0.510742,0
39810,0.390137,-0.695801,0.485352,0
39830,0.367188,-0.691895,0.48584,0
39850,0.364746,-0.691895,0.520996,0
39870,0.377441,-0.704102,0.531738,0
39890,0.380859,-0.708496,0.502441,0
39910,0.374023,-0.711914,0.474609,0
39930,0.37207,-0.735352,0.492676,0
39950,0.358887,-0.724121,0.482422,0
39970,0.330566,-0.717773,0.486328,0
39990,0.319824,-0.729004,0.475586,0
40010,0.338379,-0.746582,0.477539,0
40020,0.331055,-0.735352,0.487793,0
40040,0.316406,-0.74707,0.47168,0
40060,0.295898,-0.741211,0.479492,0
40080,0.288574,-0.746094,0.486328,0
40100,0.301758,-0.745117,0.458984,0
40120,0.305176,-0.748047,0.473145,0
40140,0.317871,-0.760254,0.468262,0
40160,0.313477,-0.762207,0.466797,0
40180,0.310547,-0.76123,0.45459,0
40200,0.324219,-0.760742,0.455566,0
40220,0.331543,-0.767578,0.448242,0
40240,0.311035,-0.78125,0.438477,0
40260,0.322266,-0.796875,0.42627,0
40280,0.353516,-0.79834,0.418945,0
40300,0.352051,-0.779785,0.415039,0
40320,0.347656,-0.802734,0.430664,0
40340,0.359375,-0.830566,0.423828,0
40360,0.367676,-0.822754,0.40918,0
40380,0.338867,-0.79541,0.385254,0
40400,0.333984,-0.79834,0.368164,0
40420,0.352539,-0.822754,0.365723,0
40440,0.364746,-0.827637,0.360352,0
40460,0.350098,-0.821289,0.35498,0
40480,0.339844,-0.80957,0.307129,0
40500,0.355469,-0.821289,0.318848,0
40520,0.353516,-0.817871,0.325195,0
40540,0.32373,-0.826172,0.318359,0
40560,0.347168,-0.847656,0.303223,0
40580,0.365234,-0.842285,0.293945,0
40600,0.359375,-0.843262,0.280762,0
40620,0.35498,-0.847168,0.282227,0
40640,0.349609,-0.825684,0.291504,0
40660,0.360352,-0.834473,0.287598,0
40680,0.37207,-0.852051,0.260742,0
40700,0.361816,-0.844238,0.260254,0
40720,0.382812,-0.864258,0.280762,0
40740,0.393555,-0.839355,0.27002,0
40760,0.354492,-0.827148,0.248535,0
40780,0.354004,-0.84375,0.246094,0
40800,0.385742,-0.833984,0.265137,0
40820,0.382812,-0.842773,0.267578,0
40840,0.362793,-0.852051,0.228027,0
40860,0.383301,-0.837891,0.241211,0
40880,0.386719,-0.811035,0.251953,0
40900,0.384277,-0.814453,0.245605,0
40920,0.431641,-0.842285,0.253906,0
40940,0.484375,-0.840332,0.237793,0
40960,0.486816,-0.83252,0.209961,0
40980,0.493652,-0.82959,0.209961,0
41000,0.500977,-0.807617,0.199707,0
41020,0.493652,-0.79834,0.208984,0
41040,0.501465,-0.797852,0.179199,0
41060,0.533203,-0.812988,0.170898,0
41080,0.521484,-0.785156,0.178711,0
41100,0.518555,-0.769043,0.180176,0
41120,0.558594,-0.780762,0.164062,0
41140,0.557617,-0.770508,0.163574,0
41160,0.543945,-0.755371,0.173828,0
41180,0.547363,-0.764648,0.166016,0
41200,0.555176,-0.75293,0.132324,0
41220,0.584473,-0.758301,0.133789,0
41240,0.597656,-0.74707,0.135254,0
41260,0.613281,-0.739746,0.113281,0
41280,0.634277,-0.731445,0.117188,0
41300,0.644043,-0.719727,0.100098,0
41320,0.663574,-0.703613,0.0869141,0
41340,0.695801,-0.696289,0.0830078,0
41360,0.700684,-0.693848,0.0830078,0
41380,0.696777,-0.671387,0.0834961,0
41400,0.690918,-0.657227,0.0756836,0
41420,0.71582,-0.658691,0.0693359,0
41440,0.748535,-0.644043,0.0947266,0
41460,0.740723,-0.635254,0.0888672,0
41480,0.727051,-0.612305,0.059082,0
41500,0.725586,-0.588867,0.0976562,0
41520,0.739746,-0.597656,0.10498,0
41540,0.759766,-0.60498,0.0991211,0
41560,0.74707,-0.587891,0.106445,0
41580,0.739258,-0.554688,0.121582,0
41600,0.788086,-0.563477,0.105469,0
41620,0.797852,-0.555664,0.105469,0
41640,0.767578,-0.545898,0.131348,0
41660,0.771973,-0.544434,0.129883,0
41680,0.783691,-0.532715,0.107422,0
41700,0.771973,-0.510254,0.103027,0
41720,0.783203,-0.509277,0.12207,0
41740,0.797852,-0.525391,0.145996,0
41760,0.819824,-0.493652,0.17041,0
41780,0.829102,-0.475098,0.150391,0
41800,0.814453,-0.462402,0.137207,0
41820,0.828125,-0.469238,0.154785,0
41840,0.845703,-0.463867,0.185059,0
41860,0.844238,-0.44873,0.191406,0
41880,0.841309,-0.438965,0.161133,0
41900,0.860352,-0.413574,0.151855,0
41920,0.851562,-0.411133,0.177734,0
41940,0.842285,-0.414551,0.188965,0
41960,0.834961,-0.408691,0.214355,0
41970,0.825195,-0.395508,0.202637,0
41990,0.838379,-0.375,0.210449,0
42010,0.851562,-0.367676,0.229492,0
42030,0.86084,-0.374023,0.227051,0
42050,0.841309,-0.365234,0.242188,0
42070,0.836426,-0.333984,0.261719,0
42090,0.853027,-0.344727,0.264648,0
42110,0.851074,-0.342285,0.262207,0
42130,0.856445,-0.332031,0.26123,0
42150,0.858398,-0.333496,0.281738,0
42170,0.851562,-0.332031,0.299316,0
42190,0.828613,-0.32666,0.288086,0
42210,0.820312,-0.318848,0.30127,0
42230,0.825195,-0.339844,0.312012,0
42250,0.825195,-0.337402,0.334961,0
42270,0.82373,-0.342285,0.32666,0
42290,0.805664,-0.330078,0.337402,0
42310,0.793945,-0.333984,0.351074,0
42330,0.78418,-0.34375,0.341309,0
42350,0.814453,-0.381836,0.363281,0
42370,0.788574,-0.371582,0.375977,0
42390,0.73877,-0.349121,0.394043,0
42410,0.757324,-0.378418,0.385742,0
42430,0.777344,-0.381348,0.390137,0
42450,0.757324,-0.367188,0.42041,0
42470,0.738281,-0.386719,0.427246,0
42490,0.720215,-0.394043,0.445312,0
42510,0.730957,-0.383301,0.453125,0
42530,0.75293,-0.391113,0.431152,0
42550,0.718262,-0.399902,0.438965,0
42570,0.70166,-0.4375,0.474609,0
42590,0.706543,-0.441406,0.47998,0
42610,0.696289,-0.432617,0.46875,0
42630,0.689941,-0.439941,0.473145,0
42650,0.66748,-0.436523,0.484375,0
42670,0.644043,-0.448242,0.498047,0
42690,0.622559,-0.480957,0.48291,0
42710,0.597168,-0.463379,0.523926,0
42730,0.589844,-0.464844,0.507812,0
42750,0.60791,-0.477539,0.495605,0
42770,0.609863,-0.475098,0.508789,0
42790,0.592773,-0.48584,0.533691,0
42810,0.595703,-0.539062,0.538574,0
42830,0.603027,-0.525879,0.489746,0
42850,0.605957,-0.489258,0.52832,0
42870,0.563477,-0.501953,0.568359,0
42890,0.533203,-0.524414,0.547852,0
42910,0.577148,-0.556152,0.508789,0
42930,0.588867,-0.552246,0.549805,0
42950,0.524414,-0.512695,0.564453,0
42970,0.51123,-0.530273,0.538574,0
42990,0.550293,-0.539062,0.541016,0
43010,0.542969,-0.547852,0.553711,0
43030,0.51709,-0.544922,0.540039,0
43050,0.532227,-0.53125,0.551758,0
43070,0.511719,-0.522461,0.558594,0
43090,0.512695,-0.549316,0.523926,0
43110,0.520508,-0.552734,0.52832,0
43130,0.518066,-0.528809,0.534668,0
43150,0.51123,-0.522949,0.521973,0
43170,0.530762,-0.562988,0.522461,0
43190,0.532715,-0.560547,0.524414,0
43210,0.516602,-0.552246,0.520996,0
43230,0.539551,-0.547363,0.495605,0
43250,0.549805,-0.572266,0.513672,0
43270,0.547852,-0.583984,0.500977,0
43290,0.544434,-0.575195,0.509277,0
43310,0.540039,-0.571289,0.516113,0
43330,0.542969,-0.587891,0.49707,0
43350,0.543457,-0.599609,0.474121,0
43370,0.540527,-0.584473,0.497559,0
43390,0.525879,-0.572754,0.509766,0
43410,0.510254,-0.589844,0.499512,0
43430,0.516113,-0.609375,0.499023,0
43450,0.517578,-0.625977,0.489746,0
43470,0.519531,-0.626953,0.474121,0
43490,0.547363,-0.625488,0.463379,0
43510,0.534668,-0.639648,0.495117,0
43530,0.491699,-0.652344,0.47168,0
43550,0.488281,-0.675781,0.481445,0
43570,0.504883,-0.65918,0.472656,0
43590,0.483887,-0.655273,0.465332,0
43610,0.466309,-0.691406,0.459961,0
43630,0.489258,-0.712402,0.443848,0
43650,0.495117,-0.703613,0.438477,0
43670,0.485352,-0.69043,0.460449,0
43690,0.467285,-0.709961,0.444336,0
43710,0.466797,-0.731445,0.428223,0
43730,0.460938,-0.726562,0.424316,0
43750,0.443848,-0.717285,0.415039,0
43770,0.429688,-0.727539,0.411133,0
43790,0.422852,-0.720215,0.399902,0
43810,0.42627,-0.727051,0.413086,0
43830,0.430176,-0.730957,0.413574,0
43850,0.445312,-0.722656,0.393066,0
43870,0.453125,-0.726562,0.401367,0
43890,0.455078,-0.737305,0.407715,0
43910,0.447754,-0.738281,0.384277,0
43930,0.451172,-0.72168,0.365234,0
43950,0.470703,-0.733398,0.39209,0
43970,0.450195,-0.724609,0.372559,0
43990,0.439941,-0.730469,0.353027,0
44010,0.486816,-0.734375,0.34668,0
44030,0.511719,-0.758301,0.345703,0
44050,0.495605,-0.76123,0.336426,0
44070,0.497559,-0.759277,0.336426,0
44090,0.480957,-0.76709,0.322754,0
44110,0.483398,-0.771484,0.293945,0
44130,0.500488,-0.76709,0.291016,0
44150,0.498535,-0.767578,0.290527,0
44170,0.481445,-0.784668,0.274414,0
44190,0.477051,-0.781738,0.269531,0
44210,0.489258,-0.780762,0.253418,0
44230,0.479004,-0.787598,0.23584,0
44250,0.467285,-0.791992,0.238281,0
44270,0.469238,-0.784668,0.231445,0
44290,0.472656,-0.775879,0.214844,0
44310,0.484863,-0.797363,0.209961,0
44330,0.467773,-0.806152,0.200684,0
44350,0.47168,-0.794922,0.185547,0
44370,0.492676,-0.80127,0.195801,0
44390,0.486816,-0.797852,0.174805,0
44410,0.484863,-0.80127,0.165527,0
44430,0.522461,-0.802734,0.184082,0
44450,0.508789,-0.807129,0.179688,0
44470,0.458496,-0.807129,0.157227,0
44490,0.476562,-0.792969,0.143066,0
44510,0.549316,-0.800781,0.158203,0
44530,0.551758,-0.799805,0.144043,0
44550,0.54248,-0.800781,0.146973,0
44570,0.576172,-0.819336,0.146973,0
44590,0.600098,-0.810547,0.125977,0
44610,0.571777,-0.790039,0.125977,0
44630,0.589844,-0.78418,0.109375,0
44650,0.61377,-0.78125,0.0957031,0
44670,0.61377,-0.77002,0.0810547,0
44690,0.602539,-0.767578,0.0795898,0
44710,0.592773,-0.771484,0.0805664,0
44730,0.611816,-0.763184,0.0766602,0
44750,0.638184,-0.745117,0.0439453,0
44770,0.611328,-0.699707,0.0336914,0
44790,0.614746,-0.696289,0.0668945,0
44810,0.630371,-0.742188,0.0712891,0
44830,0.620605,-0.729492,0.0551758,0
44850,0.628418,-0.708984,0.0424805,0
44870,0.630371,-0.705078,0.0429688,0
44890,0.619141,-0.682617,0.0371094,0
44910,0.617188,-0.679199,0.03125,0
44930,0.663086,-0.705566,0.0102539,0
44950,0.691406,-0.700684,0.0161133,0
44970,0.677734,-0.708496,0.0292969,0
44990,0.669434,-0.701172,0.0107422,0
45010,0.706055,-0.678223,0.00634766,0
45030,0.744629,-0.678223,-0.0288086,0
45050,0.740723,-0.666016,-0.0341797,0
45070,0.736328,-0.679199,-0.0341797,0
45090,0.736816,-0.682129,-0.0375977,0
45110,0.755371,-0.671875,-0.0649414,0
45130,0.76123,-0.652344,-0.0668945,0
45150,0.731934,-0.610352,-0.0737305,0
45170,0.722656,-0.619629,-0.0532227,0
45190,0.721191,-0.636719,-0.0717773,0
45210,0.731445,-0.617676,-0.101562,0
45230,0.756348,-0.625,-0.107422,0
45250,0.783203,-0.602051,-0.0927734,0
45270,0.766602,-0.596191,-0.0605469,0
45290,0.768555,-0.591797,-0.0595703,0
45310,0.775391,-0.564941,-0.0805664,0
45330,0.791016,-0.543945,-0.0952148,0
45350,0.818848,-0.536621,-0.0898438,0
45370,0.825684,-0.561523,-0.074707,0
45380,0.8125,-0.560059,-0.0732422,0
45400,0.83252,-0.539062,-0.0810547,0
45420,0.836426,-0.513672,-0.0737305,0
45440,0.831543,-0.493164,-0.0766602,0
45460,0.819824,-0.509277,-0.0581055,0
45480,0.84375,-0.512695,-0.034668,0
45500,0.875488,-0.502441,-0.0532227,0
45520,0.876953,-0.491699,-0.0678711,0
45540,0.865723,-0.46875,-0.0498047,0
45560,0.840332,-0.461914,0.00585938,0
45580,0.831055,-0.460938,0,0
45580,0.864258,-0.427734,-0.0473633,0
45600,0.884277,-0.380371,-0.0244141,0
45620,0.875,-0.351074,-0.00292969,0
45640,0.866211,-0.359375,-0.0258789,0
45660,0.875488,-0.365234,-0.00830078,0
45680,0.864746,-0.349121,0.0161133,0
45700,0.853027,-0.326172,-0.00390625,0
45720,0.850586,-0.331543,-0.0161133,0
45740,0.849121,-0.348145,-0.00537109,0
45760,0.888672,-0.317871,0.00146484,0
45780,0.913574,-0.304688,0.0244141,0
45800,0.91748,-0.306641,0.034668,0
45820,0.911621,-0.3125,0.0595703,0
45840,0.902344,-0.317383,0.0761719,0
45860,0.897949,-0.312988,0.0664062,0
45880,0.923828,-0.279297,0.0952148,0
45900,0.924316,-0.269531,0.0991211,0
45920,0.905762,-0.25293,0.100586,0
45940,0.898926,-0.280273,0.0952148,0
45960,0.911133,-0.288086,0.081543,0
45980,0.921875,-0.272949,0.0996094,0
46000,0.928223,-0.260254,0.11377,0
46020,0.921387,-0.271973,0.0947266,0
46040,0.942383,-0.263184,0.0913086,0
46060,0.956543,-0.265137,0.141113,0
46080,0.929199,-0.271484,0.152344,0
46100,0.912109,-0.276855,0.146484,0
46120,0.912109,-0.266113,0.186035,0
46140,0.904297,-0.266602,0.176758,0
46160,0.888184,-0.243164,0.189453,0
46180,0.895996,-0.212891,0.20166,0
46200,0.896484,-0.22168,0.188965,0
46220,0.890137,-0.254395,0.183105,0
46240,0.858398,-0.32959,0.231934,0
46260,0.835449,-0.354004,0.302734,0
46280,0.875977,-0.304688,0.302734,0
46300,0.875977,-0.227051,0.281738,0
46320,0.838379,-0.222168,0.317871,0
46340,0.850586,-0.296387,0.331055,0
46360,0.868652,-0.357422,0.318359,0
46380,0.853516,-0.39502,0.339355,0
46400,0.790527,-0.370605,0.367676,0
46420,0.759277,-0.349121,0.375,0
46440,0.789062,-0.32666,0.365723,0
46460,0.786133,-0.323242,0.364746,0
46480,0.739746,-0.375,0.397949,0
46500,0.748047,-0.438965,0.427246,0
46520,0.806152,-0.394531,0.413574,0
46540,0.818848,-0.376953,0.391602,0
46560,0.754883,-0.388672,0.441406,0
46580,0.725586,-0.438477,0.445801,0
46600,0.776855,-0.474609,0.39209,0
46620,0.773438,-0.436035,0.401855,0
46640,0.683105,-0.431641,0.43457,0
46660,0.646484,-0.48584,0.435547,0
46680,0.722168,-0.501953,0.4375,0
46700,0.765625,-0.48877,0.425293,0
46720,0.752441,-0.526855,0.43457,0
46740,0.671387,-0.553223,0.478027,0
46760,0.625,-0.538574,0.467773,0
46780,0.64502,-0.564453,0.483887,0
46800,0.607422,-0.548828,0.484863,0
46820,0.540527,-0.559082,0.423828,0
46840,0.541992,-0.601074,0.436035,0
46860,0.537598,-0.562012,0.452148,0
46880,0.55957,-0.541992,0.450195,0
46900,0.585938,-0.571289,0.470703,0
46920,0.583984,-0.583984,0.475098,0
46940,0.586914,-0.587402,0.457031,0
46960,0.601562,-0.612305,0.412109,0
46980,0.607422,-0.59082,0.410645,0
47000,0.605469,-0.558594,0.439453,0
47020,0.578613,-0.57959,0.416504,0
47040,0.589844,-0.602539,0.39502,0
47060,0.630371,-0.611328,0.413086,0
47080,0.616211,-0.604492,0.413574,0
47100,0.580078,-0.593262,0.383789,0
47120,0.584473,-0.586426,0.401855,0
47140,0.576172,-0.608398,0.411133,0
47160,0.579102,-0.609375,0.390625,0
47180,0.593262,-0.618164,0.397461,0
47200,0.561523,-0.63916,0.388672,0
47220,0.533691,-0.630859,0.392578,0
47240,0.527832,-0.634766,0.390137,0
47260,0.523438,-0.639648,0.388672,0
47280,0.508301,-0.658691,0.377441,0
47300,0.541504,-0.674805,0.352051,0
47320,0.5625,-0.669434,0.360352,0
47330,0.530762,-0.668945,0.347656,0
47350,0.526367,-0.712402,0.329102,0
47370,0.52002,-0.714355,0.323242,0
47390,0.507324,-0.703125,0.305176,0
47410,0.543945,-0.716797,0.29248,0
47430,0.53418,-0.722168,0.303223,0
47450,0.503418,-0.720215,0.28418,0
47470,0.524902,-0.749512,0.279785,0
47490,0.522949,-0.746582,0.285645,0
47510,0.532715,-0.713867,0.273926,0
47530,0.554688,-0.723145,0.259277,0
47550,0.572266,-0.744141,0.243652,0
47570,0.571289,-0.73877,0.249023,0
47590,0.563965,-0.736328,0.223633,0
47610,0.584473,-0.75,0.211426,0
47630,0.585938,-0.745117,0.20752,0
47650,0.574219,-0.744629,0.191406,0
47670,0.574707,-0.743652,0.179688,0
47690,0.588867,-0.760254,0.177246,0
47710,0.61377,-0.766113,0.155762,0
47730,0.599609,-0.759277,0.143555,0
47750,0.588867,-0.753418,0.134766,0
47770,0.616699,-0.725098,0.119629,0
47790,0.622559,-0.728027,0.107422,0
47810,0.64209,-0.733398,0.0908203,0
47830,0.667969,-0.724609,0.0771484,0
47850,0.697754,-0.713379,0.0825195,0
47870,0.688965,-0.705566,0.0854492,0
47890,0.669434,-0.701172,0.0585938,0
47910,0.703613,-0.679688,0.0449219,0
47930,0.744141,-0.662109,0.0478516,0
47950,0.732422,-0.650391,0.0288086,0
47970,0.69873,-0.647461,0.0195312,0
47990,0.727539,-0.646484,0.0175781,0
48010,0.760254,-0.64502,0.00341797,0
48030,0.733398,-0.630859,-0.0102539,0
48050,0.682129,-0.629883,-0.00830078,0
48070,0.696289,-0.612305,-0.00292969,0
48090,0.782715,-0.585449,-0.0229492,0
48110,0.814941,-0.562988,-0.078125,0
48130,0.783691,-0.537598,-0.0834961,0
48150,0.760254,-0.562988,-0.0551758,0
48170,0.77832,-0.567871,-0.059082,0
48190,0.8125,-0.550293,-0.101074,0
48210,0.827148,-0.509277,-0.138672,0
48230,0.838379,-0.47168,-0.14502,0
48250,0.828125,-0.459473,-0.138672,0
48270,0.839844,-0.467285,-0.145996,0
48290,0.875488,-0.45459,-0.155762,0
48310,0.880371,-0.431641,-0.165527,0
48330,0.869629,-0.394043,-0.188965,0
48350,0.874023,-0.375488,-0.184082,0
48370,0.873047,-0.376465,-0.175781,0
48390,0.875,-0.379883,-0.185547,0
48410,0.861328,-0.366699,-0.200684,0
48430,0.866211,-0.36377,-0.179688,0
48450,0.895508,-0.358398,-0.15625,0
48470,0.894531,-0.350586,-0.174805,0
48490,0.894531,-0.365234,-0.181641,0
48510,0.893555,-0.361328,-0.186523,0
48530,0.913574,-0.362793,-0.179688,0
48550,0.900391,-0.387695,-0.164551,0
48570,0.887695,-0.402832,-0.169922,0
48590,0.887207,-0.401367,-0.146484,0
48610,0.894043,-0.390137,-0.137207,0
48630,0.892578,-0.386719,-0.158691,0
48650,0.901367,-0.384766,-0.155273,0
48670,0.892578,-0.399414,-0.110352,1001
48690,0.875,-0.425293,-0.0996094,0
48710,0.886719,-0.425781,-0.0947266,0
48730,0.891113,-0.400391,-0.106934,0
48750,0.900391,-0.381836,-0.11377,0
48770,0.906738,-0.373047,-0.114258,0
48790,0.891113,-0.384277,-0.0961914,0
48810,0.879883,-0.415527,-0.074707,0
48830,0.875,-0.406738,-0.0688477,0
48850,0.878418,-0.394043,-0.0913086,0
48870,0.886719,-0.391113,-0.104004,0
48890,0.882324,-0.390625,-0.0698242,0
48910,0.868164,-0.415039,-0.0625,0
48930,0.866211,-0.426758,-0.0810547,0
48950,0.877441,-0.437988,-0.0942383,0
48970,0.872559,-0.416016,-0.0859375,0
48990,0.862793,-0.398438,-0.097168,0
49010,0.854492,-0.42627,-0.0834961,0
49030,0.835449,-0.426758,-0.0766602,0
49050,0.838379,-0.425781,-0.0766602,0
49070,0.853516,-0.424316,-0.0800781,0
49090,0.840332,-0.413574,-0.0844727,0
49110,0.817871,-0.410156,-0.0869141,0
49130,0.822754,-0.407227,-0.106934,0
49150,0.870117,-0.427734,-0.101562,0
49170,0.824219,-0.42334,-0.0766602,0
49190,0.781738,-0.400879,-0.0522461,0
49210,0.705078,-0.413086,-0.0600586,0
49230,0.599609,-0.408203,-0.0698242,0
49250,0.548828,-0.424316,-0.126953,0
49270,0.611328,-0.453125,-0.134277,0
49290,0.712891,-0.461426,-0.0786133,0
49310,0.653809,-0.460938,-0.00244141,0
49330,0.587891,-0.46582,0.0336914,0
49350,0.634277,-0.48877,0.0507812,0
49370,0.659668,-0.511719,0.142578,0
49390,0.608398,-0.514648,0.119141,0
49410,0.623047,-0.534668,0.0239258,0
49430,0.69873,-0.552246,0.102051,0
49450,0.663574,-0.524414,0.297363,0
49470,0.583496,-0.555664,0.233398,0
49490,0.75293,-0.688965,0.12207,0
49510,0.893066,-0.758301,0.32666,0
49530,0.8125,-0.659668,0.322754,0
49550,0.766113,-0.640625,0.248535,0
49570,0.856445,-0.779297,0.186035,0
49590,0.87793,-0.871582,0.351562,0
49610,0.725586,-0.831543,0.353027,0
49630,0.706055,-0.821289,0.229004,0
49650,0.831055,-0.841309,0.174805,0
49670,0.810547,-0.833496,0.268555,0
49690,0.666992,-0.864746,0.220215,0
49710,0.683594,-0.95752,0.164551,0
49730,0.712402,-0.952637,0.234863,0
49750,0.609375,-0.861816,0.258789,0
49770,0.494141,-0.831543,0.251953,0
49790,0.433594,-0.889648,0.272949,0
49810,0.418457,-0.888672,0.269043,0
49830,0.393066,-0.858398,0.243652,0
49850,0.364746,-0.86084,0.266602,0
49870,0.374512,-0.871094,0.301758,0
49890,0.38916,-0.867188,0.314941,0
49910,0.382812,-0.861816,0.304199,0
49930,0.367676,-0.884766,0.304199,0
49950,0.356445,-0.881348,0.309082,0
49970,0.34668,-0.858887,0.302246,0
49990,0.330566,-0.852539,0.292969,1000
50010,0.331055,-0.866699,0.275879,0
50030,0.344727,-0.86377,0.274902,0
50050,0.346191,-0.854004,0.307129,0
50070,0.34375,-0.850586,0.302246,0
50090,0.351562,-0.868652,0.283203,0
50110,0.355469,-0.869141,0.290039,0
50130,0.355469,-0.854004,0.288086,0
50150,0.361816,-0.838867,0.28125,0
50170,0.350586,-0.84375,0.273438,0
50190,0.354004,-0.858398,0.270508,0
50210,0.354004,-0.865234,0.276367,0
50230,0.35498,-0.862793,0.270996,0
50250,0.350098,-0.852051,0.279785,0
50270,0.345703,-0.835938,0.283203,0
50290,0.34668,-0.832031,0.28125,0
50310,0.345703,-0.856445,0.292969,0
50330,0.359375,-0.86377,0.302246,0
50350,0.369141,-0.862793,0.293457,0
50370,0.363281,-0.853027,0.279297,0
50390,0.362793,-0.855957,0.285156,0
50410,0.370605,-0.85791,0.287598,0
50430,0.353516,-0.861816,0.282715,0
50450,0.333008,-0.861328,0.276367,0
50470,0.352051,-0.848145,0.279785,0
50490,0.357422,-0.849609,0.282227,0
50510,0.335938,-0.85498,0.267578,0
50530,0.330566,-0.857422,0.268555,0
50550,0.349121,-0.853516,0.287109,0
50570,0.359375,-0.853027,0.286621,0
50590,0.343262,-0.848145,0.276367,0
50610,0.351074,-0.875,0.273438,0
50630,0.37207,-0.869629,0.293457,0
50650,0.36377,-0.850586,0.291016,0
50670,0.343262,-0.845703,0.271484,0
50690,0.341309,-0.863281,0.271973,0
50710,0.348145,-0.866699,0.271973,0
50730,0.349121,-0.868164,0.27002,0
50740,0.350586,-0.866699,0.272949,0
50760,0.349121,-0.861328,0.266113,0
50780,0.353516,-0.849121,0.272461,0
50800,0.34668,-0.850586,0.273438,0
50820,0.325684,-0.845215,0.277832,0
50840,0.344238,-0.848145,0.269531,0
50860,0.350586,-0.867676,0.266602,0
50880,0.356934,-0.867188,0.27832,0
50900,0.346191,-0.837402,0.282715,0
50920,0.333984,-0.853027,0.268555,0
50940,0.356934,-0.882812,0.264648,0
50960,0.364746,-0.871094,0.266602,0
50980,0.341797,-0.864746,0.266113,0
51000,0.336914,-0.851074,0.26416,0
51020,0.336914,-0.855957,0.26123,0
51040,0.335938,-0.855957,0.270996,0
51060,0.335938,-0.868164,0.264648,0
51080,0.330078,-0.876465,0.26123,0
51100,0.335938,-0.872559,0.262695,0
51120,0.337891,-0.867188,0.26416,0
51140,0.34082,-0.866211,0.275391,0
51160,0.325684,-0.859863,0.263672,0
51180,0.325684,-0.860352,0.264648,0
51200,0.330566,-0.874512,0.269531,0
51220,0.335938,-0.873047,0.271484,0
51240,0.34668,-0.867188,0.270996,0
51260,0.355957,-0.868164,0.269043,0
51280,0.356445,-0.856445,0.27002,0
51300,0.358398,-0.867676,0.260742,0
51320,0.372559,-0.871582,0.272949,0
51340,0.374023,-0.857422,0.270508,0
51360,0.371582,-0.861816,0.250977,0
51380,0.381836,-0.862793,0.251465,0
51400,0.400391,-0.850586,0.257324,0
51420,0.397949,-0.861816,0.254395,0
51440,0.395996,-0.867188,0.247559,0
51460,0.399902,-0.851074,0.247559,0
51480,0.404297,-0.834961,0.236328,0
51500,0.405762,-0.844727,0.235352,0
51520,0.411621,-0.86377,0.238281,0
51540,0.404297,-0.850098,0.231934,0
51560,0.416992,-0.84668,0.229492,0
51580,0.42334,-0.834473,0.213379,0
51600,0.419922,-0.837891,0.213867,0
51620,0.439941,-0.834961,0.211426,0
51640,0.445801,-0.827148,0.20166,0
51660,0.458984,-0.837402,0.190918,0
51680,0.473633,-0.844238,0.187012,0
51700,0.479492,-0.827148,0.1875,0
51720,0.484375,-0.82666,0.192871,0
51740,0.480469,-0.82373,0.193359,0
51760,0.49707,-0.827637,0.163086,0
51780,0.503418,-0.821289,0.161133,0
51800,0.519531,-0.807129,0.161133,0
51820,0.523926,-0.810547,0.158691,0
51840,0.501465,-0.805664,0.150391,0
51860,0.510254,-0.801758,0.140625,0
51880,0.51416,-0.793945,0.159668,0
51900,0.510254,-0.780762,0.155273,0
51920,0.525391,-0.786133,0.144531,0
51940,0.535156,-0.780273,0.127441,0
51960,0.557617,-0.791992,0.134277,0
51980,0.560547,-0.783203,0.132324,0
52000,0.567383,-0.76416,0.114746,0
52020,0.59082,-0.766113,0.0961914,0
52040,0.586914,-0.762207,0.0957031,0
52060,0.601562,-0.765625,0.102051,0
52080,0.614746,-0.751465,0.0986328,0
52100,0.628418,-0.747559,0.0864258,0
52120,0.640625,-0.73291,0.0786133,0
52140,0.628418,-0.731445,0.0742188,0
52160,0.644531,-0.71875,0.0615234,0
52180,0.652344,-0.703613,0.065918,0
52200,0.661621,-0.712891,0.0561523,0
52220,0.652832,-0.693359,0.0551758,0
52240,0.664062,-0.693848,0.0595703,0
52260,0.657715,-0.679688,0.0595703,0
52280,0.658203,-0.67041,0.0556641,0
52300,0.671387,-0.664551,0.0512695,0
52320,0.681641,-0.655273,0.0561523,0
52350,0.669434,-0.661133,0.0678711,0
52370,0.688477,-0.644043,0.0756836,0
52450,0.777832,-0.609863,0.0273438,0
52480,0.801758,-0.57959,0.0263672,0
52500,0.796875,-0.566406,0.0107422,0
52520,0.794434,-0.552734,0.019043,0
52540,0.785156,-0.541992,0.0205078,0
52560,0.802246,-0.530273,0.0136719,0
52580,0.779785,-0.516602,0.0268555,0
52600,0.780762,-0.522949,0.050293,0
52620,0.816406,-0.514648,0.0600586,0
52640,0.821289,-0.488281,0.0444336,0
52660,0.809082,-0.487793,0.0473633,0
52670,0.822754,-0.498047,0.0517578,0
52690,0.816406,-0.491211,0.0605469,0
52710,0.820801,-0.47998,0.0849609,0
52730,0.839355,-0.479492,0.112305,0
52750,0.845215,-0.467773,0.0908203,0
52770,0.833008,-0.461426,0.0805664,0
52790,0.826172,-0.458984,0.103516,0
52810,0.833008,-0.466797,0.11377,0
52830,0.880371,-0.45166,0.0996094,0
52850,0.824219,-0.451172,0.130371,0
52870,0.822754,-0.459473,0.134277,0
52890,0.828613,-0.476562,0.158691,0
52910,0.812012,-0.461914,0.168945,0
52930,0.799316,-0.452148,0.196289,0
52950,0.807617,-0.458984,0.203613,0
52970,0.811035,-0.475098,0.206543,0
52990,0.804688,-0.479004,0.233887,0
53010,0.758789,-0.467285,0.267578,0
53030,0.766113,-0.47168,0.282227,0
53050,0.783691,-0.469238,0.290039,0
53070,0.759766,-0.479492,0.296875,0
53090,0.762695,-0.509277,0.321777,0
53110,0.719727,-0.520996,0.371094,0
53130,0.69043,-0.50293,0.367676,0
53150,0.709473,-0.499512,0.356934,0
53170,0.723633,-0.493652,0.379395,0
53190,0.689941,-0.512207,0.401367,0
53210,0.648438,-0.52832,0.412598,0
53230,0.668457,-0.540527,0.443359,0
53250,0.671875,-0.539551,0.44873,0
53270,0.633301,-0.542969,0.450684,0
53290,0.643066,-0.564453,0.455078,0
53310,0.63916,-0.550781,0.460938,0
53330,0.628418,-0.546387,0.463867,0
53350,0.619629,-0.582031,0.475586,0
53370,0.625977,-0.592285,0.473633,0
53390,0.629395,-0.595215,0.463867,0
53400,0.618164,-0.567383,0.456055,0
53420,0.580078,-0.556641,0.463867,0
53440,0.561523,-0.563477,0.467285,0
53460,0.564941,-0.591797,0.462402,0
53480,0.578613,-0.601074,0.481934,0
53500,0.547363,-0.586426,0.480957,0
53520,0.494629,-0.573242,0.483887,0
53540,0.518555,-0.586426,0.469238,0
53560,0.52832,-0.593262,0.474121,0
53580,0.497559,-0.571289,0.491211,0
53600,0.467773,-0.574219,0.506836,0
53620,0.490234,-0.593262,0.51416,0
53640,0.543457,-0.611328,0.478027,0
53660,0.52832,-0.586914,0.498535,0
53680,0.478516,-0.59668,0.532227,0
53700,0.477051,-0.620117,0.513184,0
53720,0.523926,-0.625977,0.493652,0
53740,0.537109,-0.62793,0.506348,0
53760,0.50293,-0.643555,0.527344,0
53780,0.489746,-0.630371,0.503418,0
53800,0.492188,-0.63623,0.519531,0
53820,0.499512,-0.646484,0.510254,0
53840,0.494141,-0.65625,0.525879,0
53860,0.506836,-0.649902,0.519043,0
53880,0.481934,-0.634766,0.532715,0
53900,0.447754,-0.641113,0.52832,0
53920,0.458984,-0.671875,0.516602,0
53950,0.438477,-0.645508,0.546875,0
53970,0.40625,-0.645508,0.52002,0
53990,0.4375,-0.671875,0.503906,0
54010,0.436035,-0.673828,0.522461,0
54030,0.394043,-0.660156,0.521973,0
54050,0.370605,-0.658203,0.522461,0
54070,0.38623,-0.662598,0.527832,0
54100,0.394043,-0.683594,0.499023,0
54120,0.390137,-0.67627,0.532715,0
54140,0.375488,-0.67041,0.527832,0
54160,0.371582,-0.680176,0.507324,0
54180,0.375488,-0.691406,0.51416,0
54200,0.368164,-0.691406,0.501465,0
54230,0.36377,-0.696289,0.520508,0
54250,0.36377,-0.699219,0.496094,0
54270,0.367676,-0.717285,0.509766,0
54300,0.34375,-0.720703,0.490723,0
54320,0.354004,-0.714844,0.48877,0
54340,0.358398,-0.720215,0.493652,0
54360,0.358398,-0.730957,0.491211,0
54380,0.352051,-0.727051,0.473633,0
54400,0.346191,-0.724121,0.472168,0
54420,0.341309,-0.728027,0.476074,0
54440,0.333496,-0.733398,0.470215,0
54460,0.343262,-0.753906,0.461426,0
54480,0.371094,-0.764648,0.450684,0
54500,0.401855,-0.763184,0.45166,0
54520,0.393555,-0.777832,0.444336,0
54540,0.380859,-0.774414,0.423828,0
54560,0.381348,-0.762207,0.438477,0
54580,0.385742,-0.775391,0.4375,0
54600,0.380371,-0.784668,0.419922,0
54620,0.383789,-0.773438,0.404785,0
54640,0.38916,-0.783691,0.40332,0
54660,0.368164,-0.794434,0.399414,0
54680,0.377441,-0.785156,0.391113,0
54700,0.396484,-0.771484,0.402344,0
54720,0.361816,-0.770996,0.391113,0
54740,0.352539,-0.799316,0.373535,0
54760,0.374512,-0.796387,0.370605,0
54780,0.375488,-0.781738,0.373047,0
54800,0.367676,-0.782715,0.366211,0
54820,0.38916,-0.811523,0.354004,0
54840,0.374512,-0.806641,0.369141,0
54860,0.348145,-0.80127,0.354004,0
54880,0.373535,-0.81543,0.333008,0
54900,0.382812,-0.812988,0.346191,0
54920,0.338379,-0.806641,0.336426,0
54940,0.345703,-0.809082,0.328125,0
54960,0.382812,-0.825684,0.330566,0
54980,0.350098,-0.815918,0.321777,0
55000,0.336426,-0.819336,0.317383,0
55020,0.381836,-0.823242,0.313965,0
55040,0.394043,-0.829102,0.304199,0
55060,0.361328,-0.822266,0.302734,0
55080,0.368164,-0.827637,0.297852,0
55100,0.38916,-0.83252,0.300293,0
55120,0.374023,-0.836914,0.290039,0
55140,0.366699,-0.820801,0.275391,0
55160,0.385742,-0.822754,0.274902,0
55180,0.409668,-0.836426,0.272461,0
55200,0.396973,-0.834961,0.266113,0
55220,0.387695,-0.827148,0.256348,0
55240,0.417969,-0.829102,0.253906,0
55260,0.439453,-0.838379,0.245605,0
55280,0.419434,-0.834961,0.238281,0
55300,0.416016,-0.818848,0.229004,0
55320,0.446289,-0.834473,0.244629,0
55340,0.463379,-0.835938,0.229004,0
55360,0.454102,-0.839844,0.226074,0
55380,0.457031,-0.836426,0.220703,0
55400,0.481934,-0.824219,0.216797,0
55420,0.469727,-0.818848,0.213379,0
55440,0.440918,-0.816406,0.221191,0
55460,0.443359,-0.817383,0.215332,0
55480,0.477051,-0.814941,0.189453,0
55500,0.504395,-0.805664,0.19043,0
55520,0.490723,-0.790527,0.175781,0
55540,0.471191,-0.784668,0.180664,0
55560,0.475586,-0.816406,0.180664,0
55580,0.487305,-0.828125,0.170898,0
55600,0.498047,-0.828125,0.164062,0
55620,0.508789,-0.808105,0.163574,0
55640,0.525879,-0.804688,0.164551,0
55660,0.529297,-0.819824,0.163574,0
55680,0.514648,-0.816895,0.167969,0
55700,0.516113,-0.800781,0.172363,0
55720,0.540527,-0.79834,0.151855,0
55740,0.536133,-0.797852,0.148926,0
55760,0.535645,-0.801758,0.135742,0
55780,0.547852,-0.805664,0.121582,0
55800,0.5625,-0.786621,0.118652,0
55820,0.564453,-0.782227,0.104004,0
55840,0.549805,-0.77832,0.112793,0
55860,0.555664,-0.780762,0.114746,0
55880,0.574707,-0.789551,0.0991211,0
55900,0.589844,-0.779297,0.0957031,0
55920,0.598145,-0.77002,0.0859375,0
55940,0.604004,-0.762695,0.0883789,0
55960,0.583496,-0.751953,0.0810547,0
55980,0.601074,-0.758301,0.0712891,0
56000,0.622559,-0.744629,0.0722656,0
56010,0.64502,-0.733398,0.059082,0
56030,0.658203,-0.737793,0.0463867,0
56050,0.656738,-0.709961,0.0317383,0
56070,0.681641,-0.686523,0.0195312,0
56090,0.706543,-0.688965,0.00830078,0
56110,0.696777,-0.677246,-0.00341797,0
56130,0.696289,-0.664551,-0.000976562,0
56150,0.702637,-0.681641,0.0112305,0
56170,0.708496,-0.666504,0.0078125,0
56190,0.705078,-0.65918,-0.0166016,0
56210,0.703125,-0.645996,-0.0161133,0
56230,0.728516,-0.625977,-0.0219727,0
56250,0.740234,-0.633789,-0.0151367,0
56270,0.734863,-0.627441,-0.0102539,0
56290,0.735352,-0.628906,-0.0131836,0
56310,0.759766,-0.608887,-0.0219727,0
56330,0.773438,-0.594238,-0.015625,0
56350,0.766113,-0.592285,-0.0249023,0
56370,0.77832,-0.595215,-0.0283203,0
56390,0.786621,-0.59082,-0.0126953,0
56410,0.795898,-0.562012,-0.0166016,0
56430,0.81543,-0.551758,-0.0327148,0
56450,0.793945,-0.555664,-0.0361328,0
56470,0.814941,-0.544434,-0.0102539,0
56490,0.831543,-0.535645,-0.00976562,0
56510,0.836426,-0.507812,-0.0322266,0
56530,0.848633,-0.493652,-0.03125,0
56550,0.868164,-0.484375,-0.0209961,0
56570,0.850098,-0.49707,-0.019043,0
56590,0.853027,-0.463867,-0.00830078,0
56610,0.876953,-0.424316,-0.00488281,0
56630,0.880371,-0.417969,-0.0253906,0
56650,0.861816,-0.411621,-0.012207,0
56670,0.87207,-0.398926,0.00830078,0
56690,0.890137,-0.387695,0.00488281,0
56710,0.883789,-0.365234,-0.000488281,0
56730,0.888184,-0.352051,-0.0102539,0
56750,0.886719,-0.351074,-0.0146484,0
56770,0.866699,-0.349121,-0.0112305,0
56790,0.875488,-0.354492,0,0
56810,0.883789,-0.351074,-0.00244141,0
56830,0.859863,-0.320801,0.0166016,0
56850,0.899902,-0.307129,0.0336914,0
56870,0.90918,-0.299805,0.0395508,0
56890,0.880859,-0.289062,0.0317383,0
56910,0.886719,-0.282227,0.0439453,0
56930,0.900879,-0.28125,0.0649414,0
56950,0.908691,-0.270996,0.0644531,0
56970,0.90918,-0.270996,0.0585938,0
56990,0.919434,-0.254883,0.078125,0
57010,0.936035,-0.254395,0.108398,0
57030,0.93457,-0.256348,0.116211,0
57050,0.900879,-0.242188,0.114258,0
57070,0.897461,-0.258789,0.135742,0
57090,0.875488,-0.247559,0.175293,0
57110,0.861328,-0.269531,0.17627,0
57130,0.850098,-0.27832,0.196289,0
57150,0.831055,-0.271973,0.22168,0
57170,0.860352,-0.266113,0.240234,0
57190,0.894531,-0.258301,0.209473,0
57210,0.931152,-0.244629,0.200684,0
57230,0.914062,-0.25293,0.23584,0
57250,0.897461,-0.29834,0.269043,0
57270,0.897461,-0.34375,0.286133,0
57290,0.888672,-0.334961,0.278809,0
57310,0.889648,-0.299805,0.248535,0
57330,0.897461,-0.283691,0.233887,0
57350,0.894531,-0.305664,0.26123,0
57370,0.880859,-0.338867,0.300781,0
57390,0.902344,-0.361816,0.310059,0
57410,0.933594,-0.345215,0.304688,0
57430,0.858398,-0.294922,0.333496,0
57450,0.821777,-0.322754,0.347656,0
57470,0.828613,-0.356934,0.353027,0
57490,0.824219,-0.35498,0.36084,0
57510,0.811523,-0.289551,0.340332,0
57530,0.804688,-0.291016,0.337402,0
57550,0.780762,-0.339355,0.40332,0
57570,0.755371,-0.404297,0.424805,0
57590,0.757812,-0.413574,0.402344,0
57610,0.742188,-0.381836,0.414062,0
57630,0.714355,-0.362305,0.45459,0
57650,0.730957,-0.350586,0.435059,0
57670,0.737793,-0.37793,0.435547,0
57690,0.669434,-0.438477,0.493652,0
57710,0.641113,-0.473633,0.522461,0
57730,0.678711,-0.437988,0.462891,0
57750,0.678223,-0.382324,0.47168,0
57770,0.623047,-0.393555,0.503906,0
57790,0.610352,-0.466797,0.48584,0
57810,0.625977,-0.483398,0.501953,0
57830,0.611816,-0.445801,0.531738,0
57850,0.583496,-0.447754,0.503418,0
57870,0.581055,-0.484863,0.535156,0
57890,0.603027,-0.524902,0.555176,0
57910,0.598145,-0.494629,0.512695,0
57930,0.578125,-0.479492,0.510254,0
57950,0.543945,-0.532227,0.587891,0
57970,0.514648,-0.573242,0.563965,0
57990,0.547363,-0.589355,0.518555,0
58000,0.541504,-0.553223,0.556641,0
58020,0.473145,-0.550781,0.563965,0
58040,0.493652,-0.568359,0.539062,0
58060,0.552246,-0.595703,0.557617,0
58080,0.531738,-0.590332,0.53418,0
58100,0.485352,-0.580078,0.525391,0
58120,0.503906,-0.587402,0.54248,0
58140,0.512695,-0.584473,0.557617,0
58160,0.488281,-0.582031,0.518066,0
58180,0.506836,-0.592773,0.508301,0
58200,0.51416,-0.609375,0.519043,0
58220,0.482422,-0.589844,0.506836,0
58240,0.480957,-0.575195,0.484375,0
58260,0.531738,-0.604492,0.496582,0
58280,0.513184,-0.606934,0.494629,0
58300,0.487793,-0.610352,0.489258,0
58320,0.504883,-0.614746,0.474121,0
58340,0.513184,-0.598633,0.463379,0
58360,0.501465,-0.600586,0.478516,0
58380,0.499512,-0.61084,0.476074,0
58400,0.496582,-0.635742,0.473145,0
58420,0.505859,-0.640137,0.449219,0
58440,0.526855,-0.635742,0.466309,0
58460,0.505859,-0.64209,0.477051,0
58480,0.499023,-0.651855,0.453613,0
58500,0.515137,-0.668457,0.452148,0
58520,0.512695,-0.664062,0.449707,0
58540,0.496094,-0.676758,0.444824,0
58560,0.497559,-0.690918,0.422363,0
58580,0.531738,-0.696777,0.427246,0
58600,0.506836,-0.682617,0.435547,0
58620,0.466309,-0.674316,0.416992,0
58640,0.494629,-0.717285,0.395996,0
58660,0.490723,-0.717285,0.396973,0
58680,0.477051,-0.706543,0.391113,0
58700,0.490234,-0.718262,0.397461,0
58720,0.536133,-0.73877,0.393066,0
58740,0.521484,-0.736328,0.375977,0
58760,0.480469,-0.740723,0.365234,0
58780,0.479004,-0.762207,0.362793,0
58800,0.493164,-0.766113,0.362305,0
58820,0.475586,-0.748535,0.354004,0
58840,0.441895,-0.731934,0.321289,0
58860,0.462402,-0.755859,0.34375,0
58880,0.476074,-0.763672,0.35498,0
58900,0.431641,-0.761719,0.330078,0
58920,0.42627,-0.758789,0.309082,0
58940,0.487793,-0.765625,0.334473,0
58960,0.466797,-0.776367,0.325684,0
58980,0.425293,-0.797363,0.311523,0
59000,0.461426,-0.785645,0.303711,0
59020,0.488281,-0.760742,0.304688,0
59040,0.451172,-0.750977,0.294922,0
59060,0.425781,-0.760254,0.273438,0
59080,0.45459,-0.783691,0.250488,0
59100,0.494629,-0.801758,0.239258,0
59120,0.493164,-0.814453,0.242676,0
59140,0.494629,-0.801758,0.243164,0
59160,0.512695,-0.802246,0.259277,0
59180,0.496582,-0.813965,0.239746,0
59200,0.496582,-0.819336,0.225586,0
59220,0.510254,-0.805664,0.232422,0
59240,0.51416,-0.799316,0.222168,0
59260,0.507324,-0.819336,0.182129,0
59280,0.512695,-0.837891,0.192871,0
59300,0.511719,-0.826172,0.213867,0
59320,0.511719,-0.803711,0.152344,0
59340,0.535156,-0.825195,0.139648,0
59360,0.539062,-0.835449,0.148438,0
59380,0.51123,-0.82666,0.134277,0
59400,0.509766,-0.819336,0.101562,0
59420,0.541992,-0.822266,0.0830078,0
59440,0.55127,-0.821777,0.0947266,0
59460,0.543945,-0.806641,0.0683594,0
59480,0.541992,-0.81543,0.0444336,0
59500,0.566406,-0.823242,0.0268555,0
59520,0.588867,-0.814453,0.0205078,0
59540,0.580078,-0.789551,0.00244141,0
59560,0.586426,-0.782715,-0.0200195,0
59580,0.590332,-0.802246,-0.00195312,0
59600,0.54248,-0.801758,-0.0205078,0
59620,0.534668,-0.776855,-0.0546875,0
59640,0.595215,-0.767578,-0.0449219,0
59660,0.618164,-0.751465,-0.0498047,0
59680,0.594727,-0.736816,-0.0844727,0
59700,0.598633,-0.734375,-0.104492,0
59720,0.620117,-0.751465,-0.0898438,0
59740,0.616211,-0.750488,-0.0888672,0
59760,0.591309,-0.741699,-0.117676,0
59780,0.615234,-0.719238,-0.134766,0
59800,0.650391,-0.708984,-0.131836,0
59820,0.65625,-0.716309,-0.143555,0
59840,0.646484,-0.724609,-0.148438,0
59860,0.661133,-0.723145,-0.134277,0
59880,0.677246,-0.706543,-0.15332,0
59900,0.689941,-0.687012,-0.165039,0
59920,0.691895,-0.674316,-0.154785,0
59940,0.685059,-0.67627,-0.151855,0
59960,0.706055,-0.679199,-0.183594,0
59980,0.733887,-0.675293,-0.199219,0
60000,0.731445,-0.659668,-0.181641,0
60020,0.729492,-0.654785,-0.189453,0
60040,0.734375,-0.655273,-0.199707,0
60060,0.741211,-0.643555,-0.205078,0
60080,0.757324,-0.630371,-0.202637,0
60100,0.757324,-0.61377,-0.237793,0
60120,0.768066,-0.604492,-0.227051,0
60140,0.770508,-0.588379,-0.198242,0
60160,0.78418,-0.57666,-0.216309,0
60180,0.771484,-0.564941,-0.222168,0
60200,0.794922,-0.54248,-0.225586,0
60220,0.80127,-0.533203,-0.224609,0
60240,0.794434,-0.523926,-0.218262,0
60260,0.810059,-0.522949,-0.230469,0
60280,0.831543,-0.50293,-0.225586,0
60300,0.834473,-0.46875,-0.218262,0
60320,0.835449,-0.434082,-0.207031,0
60340,0.845215,-0.433594,-0.206055,0
60360,0.839844,-0.431152,-0.203613,0
60380,0.828125,-0.437988,-0.180176,0
60400,0.812012,-0.419922,-0.17041,0
60420,0.808105,-0.40625,-0.167969,0
60440,0.832031,-0.394531,-0.144531,0
60460,0.874023,-0.368164,-0.117676,0
60480,0.897461,-0.344727,-0.131836,0
60500,0.893555,-0.339844,-0.131348,0
60520,0.904785,-0.34375,-0.108887,0
60540,0.922363,-0.33252,-0.0927734,0
60560,0.938477,-0.310547,-0.0805664,0
60580,0.949219,-0.294922,-0.0766602,0
60600,0.958496,-0.280273,-0.0703125,0
60620,0.957031,-0.27002,-0.0668945,0
60640,0.966309,-0.268555,-0.0498047,0
60660,0.956055,-0.259766,-0.0258789,0
60680,0.935547,-0.224121,-0.00488281,0
60700,0.939941,-0.179688,-0.00244141,0
60720,0.979004,-0.170898,-0.00341797,0
60740,1.01318,-0.174316,0.0214844,0
60760,0.976074,-0.146973,0.0400391,0
60780,0.942871,-0.155273,0.0820312,0
60800,0.917969,-0.182617,0.108398,0
60820,0.915039,-0.164062,0.0888672,0
60840,0.924805,-0.128906,0.10791,0
60860,0.933594,-0.112793,0.125977,0
60880,0.910156,-0.120117,0.145508,0
60900,0.896973,-0.137695,0.160156,0
60920,0.90332,-0.152832,0.168945,0
60940,0.900391,-0.144043,0.191406,0
60960,0.90332,-0.149902,0.204102,0
60980,0.879883,-0.164062,0.257324,0
61000,0.879883,-0.172363,0.248535,0
61020,0.909668,-0.148926,0.234863,0
61040,0.902344,-0.158203,0.282715,0
61060,0.889648,-0.189453,0.315918,0
61080,0.882324,-0.195801,0.331055,0
61100,0.884277,-0.202637,0.345215,0
61120,0.910156,-0.23877,0.336426,0
61140,0.910156,-0.237793,0.332031,0
61160,0.852539,-0.235352,0.338379,0
61180,0.817383,-0.277832,0.358398,0
61200,0.789551,-0.328125,0.364746,0
61220,0.787109,-0.340332,0.377441,0
61240,0.813965,-0.334473,0.373535,0
61260,0.82666,-0.303223,0.366211,0
61280,0.843262,-0.304688,0.36377,0
61300,0.82666,-0.32959,0.410645,0
61320,0.751953,-0.364746,0.432617,0
61340,0.761719,-0.420898,0.413086,0
61360,0.783203,-0.450684,0.407227,0
61380,0.767578,-0.416504,0.441895,0
61390,0.73291,-0.389648,0.445312,0
61410,0.731934,-0.388184,0.421875,0
61430,0.751953,-0.414062,0.408691,0
61450,0.743652,-0.443848,0.410156,0
61470,0.702637,-0.458008,0.415527,0
61490,0.693848,-0.462891,0.436523,0
61510,0.707031,-0.452148,0.431152,0
61530,0.681641,-0.437988,0.422363,0
61550,0.668945,-0.467285,0.421387,0
61570,0.662109,-0.499512,0.443848,0
61590,0.630371,-0.468262,0.433105,0
61610,0.637695,-0.477051,0.416992,0
61630,0.674805,-0.507324,0.415527,0
61650,0.656738,-0.513184,0.436523,0
61670,0.64502,-0.492676,0.407715,0
61690,0.695801,-0.512695,0.422363,0
61710,0.694336,-0.51709,0.410645,0
61730,0.638672,-0.52002,0.398438,0
61750,0.655762,-0.5625,0.400879,0
61770,0.682617,-0.563965,0.38916,0
61790,0.641113,-0.541016,0.383789,0
61810,0.635254,-0.569824,0.363281,0
61830,0.657715,-0.615723,0.354492,0
61850,0.624512,-0.60498,0.352539,0
61870,0.570801,-0.581055,0.339355,0
61890,0.57373,-0.612305,0.338379,0
61910,0.65625,-0.630371,0.32373,0
61930,0.650879,-0.636719,0.324219,0
61950,0.617188,-0.677734,0.303223,0
61970,0.64502,-0.675781,0.29834,0
61990,0.626953,-0.662598,0.300781,0
62010,0.593262,-0.665527,0.287598,0
62030,0.60498,-0.672363,0.268555,0
62050,0.643555,-0.671875,0.26709,0
62070,0.621094,-0.675293,0.263672,0
62090,0.591309,-0.691895,0.237305,0
62110,0.628906,-0.715332,0.240723,0
62130,0.624512,-0.702637,0.24707,0
62150,0.597656,-0.696289,0.223145,0
62170,0.620605,-0.729004,0.205078,0
62190,0.638672,-0.728027,0.215332,0
62210,0.600098,-0.706543,0.193848,0
62230,0.614746,-0.73291,0.170898,0
62250,0.629883,-0.753418,0.168457,0
62270,0.585938,-0.719727,0.156738,0
62290,0.594238,-0.727051,0.129395,0
62310,0.638184,-0.763184,0.117188,0
62330,0.619141,-0.745605,0.116699,0
62350,0.555176,-0.740234,0.0981445,0
62370,0.602539,-0.754395,0.0629883,0
62390,0.663574,-0.764648,0.059082,0
62410,0.594727,-0.766602,0.0581055,0
62430,0.541992,-0.782715,0.0473633,0
62450,0.59375,-0.789551,0.0336914,0
62470,0.631836,-0.788574,0.0390625,0
62490,0.586426,-0.770996,0.0244141,0
62510,0.575684,-0.764648,0.0112305,0
62530,0.626953,-0.777832,-0.00341797,0
62550,0.631836,-0.791504,-0.00488281,0
62570,0.591797,-0.791016,-0.019043,0
62590,0.579102,-0.782715,-0.0361328,0
62610,0.607422,-0.76123,-0.0527344,0
62630,0.611816,-0.764648,-0.0634766,0
62650,0.575684,-0.758789,-0.0712891,0
62670,0.578613,-0.766602,-0.0859375,0
62690,0.629395,-0.789551,-0.12207,0
62710,0.633789,-0.807617,-0.114258,0
62730,0.60791,-0.769043,-0.123535,0
62750,0.613281,-0.733887,-0.117188,0
62770,0.665527,-0.724609,-0.121582,0
62790,0.679199,-0.73584,-0.15332,0
62810,0.667969,-0.738281,-0.187988,0
62830,0.660156,-0.735352,-0.17334,0
62850,0.661133,-0.740234,-0.143555,0
62870,0.688965,-0.709961,-0.191895,0
62890,0.73584,-0.662598,-0.271484,0
62910,0.737793,-0.611328,-0.252441,0
62930,0.705078,-0.620117,-0.212402,0
62950,0.709961,-0.65625,-0.231934,0
62970,0.713379,-0.64209,-0.248535,0
62990,0.723633,-0.592285,-0.275391,0
63010,0.733398,-0.557617,-0.299316,0
63030,0.753906,-0.546387,-0.273926,0
63050,0.766602,-0.552734,-0.277344,0
63070,0.803223,-0.550293,-0.317871,0
63090,0.804199,-0.536621,-0.288086,0
63110,0.783691,-0.525391,-0.283203,0
63130,0.796387,-0.499512,-0.300293,0
63150,0.800781,-0.473633,-0.295898,1001
63170,0.785156,-0.459961,-0.271973,0
63190,0.798828,-0.450195,-0.255371,0
63210,0.822754,-0.453125,-0.26416,0
63230,0.824219,-0.435059,-0.255859,0
63250,0.825195,-0.413086,-0.258301,0
63270,0.846191,-0.411133,-0.25293,0
63290,0.858887,-0.40918,-0.256348,0
63310,0.861328,-0.425781,-0.260742,0
63330,0.85498,-0.420898,-0.247559,0
63350,0.84375,-0.413086,-0.240723,0
63360,0.846191,-0.41748,-0.246582,0
63380,0.854004,-0.424316,-0.236328,0
63400,0.840332,-0.42334,-0.236816,0
63420,0.813965,-0.411133,-0.241211,0
63440,0.796387,-0.407715,-0.239258,0
63460,0.777832,-0.422852,-0.235352,0
63480,0.73877,-0.435547,-0.230469,0
63500,0.692383,-0.429199,-0.231445,0
63520,0.636719,-0.413574,-0.188965,0
63540,0.598145,-0.390137,-0.168457,0
63560,0.641602,-0.385742,-0.18457,0
63580,0.642578,-0.385254,-0.143555,0
63600,0.559082,-0.389648,-0.151855,0
63620,0.557129,-0.408203,-0.239258,0
63640,0.714844,-0.458496,-0.17334,0
63660,0.763184,-0.47168,-0.0732422,0
63680,0.638672,-0.463379,-0.0629883,0
63700,0.645508,-0.508789,-0.152832,0
63720,0.76709,-0.585938,-0.0820312,0
63740,0.773926,-0.602051,0.0429688,0
63760,0.719727,-0.588379,0.0366211,0
63780,0.714355,-0.621582,0.0849609,0
63800,0.71875,-0.647461,0.175781,0
63820,0.696289,-0.685059,0.242676,0
63840,0.716309,-0.74707,0.0527344,0
63860,0.829102,-0.807617,0.106445,0
63880,0.746582,-0.779785,0.206055,0
63900,0.641602,-0.710938,0.233887,0
63920,0.615723,-0.77002,0.28125,0
63940,0.700195,-0.927246,0.197266,0
63960,0.749512,-0.987793,0.182617,0
63980,0.695801,-0.92334,0.286621,0
64000,0.653809,-0.839844,0.329102,0
64020,0.63916,-0.837402,0.255859,0
64040,0.633789,-0.898438,0.209473,0
64060,0.583008,-0.928223,0.29248,0
64080,0.512695,-0.900391,0.291504,0
64100,0.436523,-0.869629,0.250488,0
64120,0.433105,-0.88623,0.25,0
64140,0.424316,-0.884277,0.272949,0
64160,0.399902,-0.904785,0.249512,0
64180,0.421387,-0.901367,0.277832,0
64200,0.419922,-0.910645,0.29834,0
64220,0.35791,-0.939941,0.290039,0
64240,0.322754,-0.963379,0.265137,0
64260,0.368164,-0.972168,0.304688,0
64280,0.401855,-0.90332,0.310059,0
64300,0.377441,-0.85791,0.303223,0
64320,0.357422,-0.884277,0.318848,0
64340,0.369629,-0.931641,0.32373,0
64360,0.387207,-0.931152,0.324707,1000
64380,0.365234,-0.880859,0.29834,0
64400,0.352539,-0.830566,0.293457,0
64420,0.356445,-0.839355,0.302246,0
64440,0.32666,-0.859375,0.291016,0
64460,0.298828,-0.873535,0.289551,0
64480,0.291504,-0.851074,0.283691,0
64500,0.311035,-0.834961,0.281738,0
64520,0.310547,-0.839355,0.276855,0
64540,0.308594,-0.862793,0.27002,0
64560,0.319336,-0.866211,0.272949,0
64580,0.338379,-0.861328,0.280273,0
64600,0.341309,-0.862305,0.266113,0
64620,0.323242,-0.880371,0.28125,0
64640,0.32373,-0.876465,0.282715,0
64660,0.348633,-0.866211,0.269043,0
64680,0.367676,-0.871582,0.273438,0
64700,0.36084,-0.881836,0.276367,0
64720,0.361328,-0.886719,0.277832,0
64740,0.364258,-0.88916,0.28125,0
64760,0.345215,-0.875977,0.271484,0
64780,0.320801,-0.851074,0.264648,0
64800,0.30127,-0.835449,0.266602,0
64820,0.287598,-0.842773,0.267578,0
64840,0.291992,-0.866211,0.270508,0
64860,0.296875,-0.878906,0.274414,0
64880,0.321289,-0.879395,0.268555,0
64900,0.313477,-0.868164,0.285645,0
64920,0.313965,-0.849121,0.268066,0
64940,0.316895,-0.850586,0.262695,0
64960,0.32666,-0.881348,0.289062,0
64980,0.328613,-0.880859,0.290527,0
65000,0.331543,-0.878906,0.274414,0
65020,0.341797,-0.870117,0.253906,0
65040,0.343262,-0.862305,0.266113,0
65060,0.324707,-0.863281,0.264648,0
65080,0.320801,-0.883301,0.25293,0
65100,0.330566,-0.884766,0.257324,0
65120,0.334473,-0.881348,0.257812,0
65140,0.313965,-0.877441,0.251953,0
65160,0.306641,-0.87207,0.227539,0
65180,0.308594,-0.887207,0.219238,0
65200,0.307617,-0.911621,0.207031,0
