Timestamp, Acceleration x, Acceleration y, Acceleration z, Marker
30,-0.690918,-0.510742,0.47168,0
60,-0.693359,-0.512207,0.475098,0
80,-0.694336,-0.508301,0.464844,0
100,-0.70166,-0.506348,0.454102,0
120,-0.712402,-0.522949,0.44043,0
130,-0.792969,-0.545898,0.432617,0
150,-0.808105,-0.525391,0.410156,0
150,-0.777344,-0.625977,0.391602,0
190,-0.527344,-0.741699,0.639648,0
210,-0.430176,-0.803223,0.61084,0
230,-0.399902,-0.780273,0.636719,0
250,-0.349121,-0.717285,0.655273,0
260,-0.229492,-0.696289,0.625977,0
280,-0.169922,-0.715332,0.632812,0
300,-0.145508,-0.713379,0.629883,0
310,-0.0942383,-0.664062,0.608398,0
310,-0.0737305,-0.632812,0.605957,0
360,-0.0449219,-0.623535,0.600586,0
380,-0.0214844,-0.63623,0.589355,0
400,-0.0517578,-0.635254,0.623047,0
420,-0.126465,-0.602051,0.632812,0
440,-0.161133,-0.608398,0.642578,0
460,-0.174805,-0.652832,0.631836,0
470,-0.240234,-0.685059,0.583496,0
510,-0.154297,-0.760742,0.574219,0
530,-0.0454102,-0.703613,0.53125,0
550,-0.00292969,-0.688965,0.489746,0
570,-0.0195312,-0.794434,0.439941,0
590,-0.00976562,-0.914062,0.408203,0
610,-0.0209961,-0.930176,0.413086,0
630,-0.115723,-0.863281,0.465332,0
640,-0.117188,-0.819336,0.499512,0
660,-0.0678711,-0.806152,0.521484,0
680,-0.0458984,-0.797852,0.484375,0
700,-0.046875,-0.809082,0.53418,0
720,0.00634766,-0.854492,0.59375,0
740,0.0141602,-0.863281,0.548828,0
760,0.0336914,-0.893066,0.516602,0
780,0.0771484,-0.857422,0.541504,0
800,0.0742188,-0.838867,0.500977,0
820,0.00683594,-0.827637,0.411621,0
840,-0.0654297,-0.791016,0.36084,0
860,-0.132812,-0.762695,0.304688,0
860,-0.188477,-0.745117,0.328125,0
880,-0.203125,-0.722168,0.367676,0
900,-0.170898,-0.753418,0.390625,0
900,-0.166016,-0.755371,0.384766,0
920,-0.132324,-0.755859,0.385742,0
920,-0.142578,-0.754883,0.412598,0
940,-0.219238,-0.73877,0.436523,0
950,-0.219727,-0.804199,0.549805,0
960,-0.105469,-0.823242,0.597168,0
1030,0.03125,-0.699707,0.541504,0
1050,-0.1875,-0.700195,0.550293,0
1070,-0.113281,-0.718262,0.581055,0
1090,-0.102051,-0.767578,0.581543,0
1100,-0.199707,-0.790039,0.619141,0
1120,-0.459961,-0.727539,0.64502,0
1140,-0.522461,-0.638672,0.650879,0
1160,-0.380371,-0.605469,0.690918,0
1180,-0.325684,-0.594727,0.624023,0
1210,-0.460449,-0.582031,0.611816,0
1240,-0.509766,-0.606934,0.474609,0
1260,-0.68457,-0.547363,0.497559,0
1300,-0.401855,-0.660645,0.597656,0
1330,-0.624023,-0.445801,0.393066,0
1370,-0.783203,-0.609375,0.454102,0
1390,-0.744141,-0.50293,0.503418,0
1410,-0.734863,-0.547363,0.424316,0
1430,-0.618164,-0.689453,0.429688,0
1460,-0.503906,-0.958008,0.427246,0
1480,-0.57959,-1.04102,0.658691,0
1500,-0.70166,-1.10156,0.852051,0
1520,-0.666016,-1.0459,0.959961,0
1540,-0.543457,-0.959473,0.941895,0
1560,-0.424805,-0.75293,0.833984,0
1580,-0.397949,-0.572754,0.961426,0
1600,-0.345703,-0.650879,0.976562,0
1620,-0.283691,-0.623047,0.928711,0
1640,-0.21875,-0.578613,0.924316,0
1660,-0.20459,-0.544922,0.871094,0
1680,-0.149414,-0.433105,0.810059,0
1700,-0.144043,-0.321289,0.773438,0
1720,-0.0805664,-0.292969,0.67334,0
1740,-0.0273438,-0.328125,0.625488,0
1760,0.0253906,-0.32959,0.583496,0
1780,0.0991211,-0.343262,0.513184,0
1800,0.141602,-0.328613,0.478516,0
1820,0.163574,-0.341797,0.474609,0
1840,0.20166,-0.322754,0.431152,0
1860,0.237305,-0.339844,0.411133,0
1880,0.305176,-0.353027,0.427246,0
1900,0.380371,-0.393555,0.439453,0
1920,0.447266,-0.412598,0.422363,0
1940,0.506348,-0.429688,0.407715,0
1960,0.538574,-0.45459,0.430176,0
1980,0.55127,-0.47168,0.447754,0
2000,0.558105,-0.480469,0.461426,0
2020,0.532227,-0.481445,0.504395,0
2040,0.53418,-0.46582,0.527344,0
2060,0.585449,-0.463867,0.51709,0
2080,0.631348,-0.47168,0.509766,0
2100,0.607422,-0.461426,0.515137,0
2120,0.587891,-0.45166,0.525391,0
2140,0.675781,-0.461426,0.48584,0
2160,0.693848,-0.475098,0.450195,0
2180,0.632812,-0.451172,0.500977,0
2200,0.632324,-0.484863,0.524902,0
2220,0.682617,-0.519531,0.500977,0
2240,0.695801,-0.484375,0.473145,0
2260,0.663086,-0.441895,0.48291,0
2280,0.605957,-0.462402,0.512695,0
2300,0.616699,-0.446777,0.51123,0
2320,0.63623,-0.44043,0.510742,0
2340,0.618652,-0.416992,0.500488,0
2360,0.592773,-0.426758,0.489746,0
2380,0.597168,-0.454102,0.485352,0
2400,0.600586,-0.448242,0.466309,0
2420,0.58252,-0.422363,0.453613,0
2440,0.54541,-0.422363,0.433105,0
2460,0.501953,-0.407715,0.416992,0
2480,0.441895,-0.400879,0.404297,0
2500,0.376465,-0.38623,0.379395,0
2520,0.302734,-0.375,0.368164,0
2540,0.250977,-0.378906,0.352539,0
2560,0.273438,-0.424316,0.34375,0
2580,0.272461,-0.44043,0.416016,0
2590,0.25293,-0.398438,0.520508,0
2610,0.274902,-0.450684,0.583496,0
2630,0.343262,-0.519043,0.585449,0
2650,0.311035,-0.555176,0.682129,0
2670,0.198242,-0.492676,0.73877,0
2680,0.130371,-0.532715,0.752441,0
2700,0.160645,-0.619141,0.729004,0
2720,0.128418,-0.686523,0.70752,0
2740,-0.09375,-0.697266,0.739258,0
2760,-0.333984,-0.724121,0.724121,0
2780,-0.463867,-0.827148,0.674805,0
2800,-0.442871,-0.924316,0.725586,0
2820,-0.384766,-0.998047,0.70752,0
2840,-0.399414,-0.998535,0.667969,0
2860,-0.47998,-0.922852,0.644531,0
2880,-0.534668,-0.814941,0.596191,0
2900,-0.556152,-0.73584,0.558105,0
2920,-0.621094,-0.625488,0.552246,0
2960,-0.645996,-0.793457,0.693359,0
2980,-0.553223,-1.49756,0.561035,0
3000,-0.341797,-1.31592,0.464844,0
3020,-0.334473,-0.887695,0.381348,0
3040,-0.462891,-0.571289,0.373535,0
3060,-0.506348,-0.389648,0.394043,0
3080,-0.556152,-0.319824,0.444824,0
3100,-0.60498,-0.406738,0.497559,0
3120,-0.641602,-0.521484,0.520508,0
3140,-0.69043,-0.620117,0.525879,0
3160,-0.709473,-0.671875,0.519043,0
3180,-0.68457,-0.67334,0.509277,0
3200,-0.67627,-0.611816,0.481934,0
3220,-0.690918,-0.548828,0.467773,0
3240,-0.69873,-0.501465,0.456055,0
3260,-0.694336,-0.490723,0.460449,0
3260,-0.695801,-0.481445,0.470703,0
3300,-0.663574,-0.535645,0.488281,0
3330,-0.651855,-0.565918,0.500488,0
3350,-0.644531,-0.572266,0.502441,0
3380,-0.645508,-0.550781,0.490723,0
3400,-0.654297,-0.538086,0.486328,0
3420,-0.649414,-0.54541,0.483887,0
3440,-0.647461,-0.541016,0.482422,0
3460,-0.648926,-0.541016,0.467285,0
3480,-0.644043,-0.533691,0.466309,0
3500,-0.648438,-0.535156,0.467285,0
3500,-0.661133,-0.536621,0.481934,0
3520,-0.65918,-0.544922,0.494141,0
3540,-0.65625,-0.551758,0.484863,0
3550,-0.647949,-0.555664,0.492676,0
3550,-0.641113,-0.554688,0.486816,0
3570,-0.64209,-0.546875,0.494629,0
3590,-0.644043,-0.562012,0.496582,0
3630,-0.644531,-0.54834,0.482422,0
3640,-0.66748,-0.539551,0.493164,0
3640,-0.658203,-0.525879,0.487305,0
3680,-0.653809,-0.538086,0.492188,0
3690,-0.65332,-0.538574,0.490234,0
3730,-0.643066,-0.556641,0.488281,0
3740,-0.650879,-0.54248,0.483398,0
3760,-0.660645,-0.522949,0.47168,0
3790,-0.681641,-0.527344,0.490234,0
3810,-0.661133,-0.524902,0.486328,0
3830,-0.65918,-0.536621,0.490723,0
3850,-0.654785,-0.528809,0.48584,0
3860,-0.653809,-0.533203,0.48291,0
3880,-0.656738,-0.542969,0.486328,0
3900,-0.661133,-0.55127,0.483887,0
3930,-0.658691,-0.543457,0.485352,0
3960,-0.655273,-0.535645,0.483887,0
3990,-0.665527,-0.532715,0.483887,0
4010,-0.661133,-0.536133,0.495117,0
4030,-0.65918,-0.53125,0.483398,0
4050,-0.655762,-0.532227,0.481934,0
4070,-0.661621,-0.529297,0.490723,0
4090,-0.666504,-0.535156,0.484863,0
4120,-0.666016,-0.535156,0.477539,0
4140,-0.662598,-0.532715,0.470215,0
4160,-0.662109,-0.527832,0.463379,0
4230,-0.65625,-0.516602,0.504395,0
4250,-0.641602,-0.53418,0.48291,0
4260,-0.641113,-0.555176,0.513672,0
4260,-0.64502,-0.557129,0.49707,0
4280,-0.642578,-0.599609,0.471191,0
4310,-0.654785,-0.569336,0.498535,0
4330,-0.648438,-0.562988,0.503906,0
4360,-0.637207,-0.556641,0.495117,0
4380,-0.633789,-0.538086,0.491211,0
4390,-0.650879,-0.553223,0.516602,0
4420,-0.631836,-0.565918,0.487793,0
4440,-0.633301,-0.522461,0.458496,0
4460,-0.651367,-0.520996,0.459961,0
4470,-0.668457,-0.546875,0.477051,0
4490,-0.676758,-0.560547,0.492676,0
4530,-0.648926,-0.536133,0.487793,0
4550,-0.646973,-0.53418,0.491211,0
4560,-0.65918,-0.533203,0.485352,0
4580,-0.664062,-0.539062,0.485352,0
4600,-0.669434,-0.540527,0.48877,0
4600,-0.666504,-0.543457,0.483398,0
4620,-0.666016,-0.542969,0.477051,0
4640,-0.65918,-0.535156,0.469727,0
4660,-0.661621,-0.541016,0.474121,0
4680,-0.666016,-0.544434,0.482422,0
4700,-0.665039,-0.546387,0.481445,0
4710,-0.666504,-0.539551,0.480469,0
4730,-0.666016,-0.540039,0.483887,0
4750,-0.66748,-0.53418,0.479004,0
4780,-0.664551,-0.535645,0.476074,0
4800,-0.66748,-0.536133,0.470703,0
4830,-0.669434,-0.540527,0.47168,0
4850,-0.664551,-0.536621,0.46875,0
4880,-0.667969,-0.540527,0.476074,0
4910,-0.66748,-0.536621,0.476562,0
4940,-0.672363,-0.540039,0.474121,0
4960,-0.671875,-0.544922,0.477051,0
4980,-0.666504,-0.550781,0.478027,0
5000,-0.671875,-0.538086,0.456543,0
5030,-0.671875,-0.537598,0.47168,0
5040,-0.666016,-0.547363,0.461426,0
5090,-0.666992,-0.553711,0.470215,0
5110,-0.674316,-0.540039,0.456055,0
5130,-0.678223,-0.54541,0.462402,0
5150,-0.666016,-0.562988,0.454102,0
5190,-0.678711,-0.537109,0.464844,0
5210,-0.669922,-0.53418,0.455566,0
5250,-0.67041,-0.549805,0.459961,0
5280,-0.678223,-0.54834,0.461426,0
5320,-0.669434,-0.546875,0.454102,0
5340,-0.66748,-0.546875,0.456543,0
5360,-0.666992,-0.54248,0.455566,0
5380,-0.669922,-0.551758,0.465332,0
5400,-0.672852,-0.554688,0.46582,0
5420,-0.663086,-0.558105,0.459473,0
5440,-0.664062,-0.554199,0.461914,0
5460,-0.662598,-0.547852,0.457031,0
5470,-0.666992,-0.549316,0.46582,0
5490,-0.671387,-0.552246,0.467285,0
5510,-0.670898,-0.543457,0.469238,0
5530,-0.675293,-0.539062,0.46875,0
5540,-0.676758,-0.538086,0.458984,0
5560,-0.672852,-0.528809,0.466797,0
5560,-0.66748,-0.538086,0.469238,0
5560,-0.664062,-0.544434,0.467773,0
5580,-0.663574,-0.547852,0.464355,0
5590,-0.660156,-0.55127,0.460938,0
5630,-0.659668,-0.560059,0.470703,0
5640,-0.666992,-0.555664,0.471191,0
5660,-0.661621,-0.553223,0.467285,0
5670,-0.662109,-0.544922,0.474609,0
5690,-0.662109,-0.544434,0.466797,0
5710,-0.665039,-0.546387,0.469727,0
5730,-0.671387,-0.544922,0.480469,0
5730,-0.662109,-0.546387,0.466797,0
5750,-0.659668,-0.547363,0.46875,0
5780,-0.66748,-0.546875,0.467773,0
5810,-0.664062,-0.54541,0.479004,0
5850,-0.664551,-0.54834,0.473145,0
5860,-0.660645,-0.54248,0.466309,0
5880,-0.663086,-0.545898,0.475098,0
5880,-0.665039,-0.549316,0.472656,0
5880,-0.663086,-0.54541,0.467285,0
5900,-0.665527,-0.55127,0.473633,0
5910,-0.664551,-0.548828,0.467773,0
5960,-0.663086,-0.548828,0.472656,0
5970,-0.662109,-0.545898,0.473633,0
5990,-0.65918,-0.540527,0.468262,0
6020,-0.666992,-0.545898,0.486328,0
6040,-0.657715,-0.555664,0.476562,0
6080,-0.653809,-0.557129,0.473633,0
6100,-0.661621,-0.561035,0.484375,0
6120,-0.663574,-0.556152,0.484375,0
6140,-0.656738,-0.557617,0.478516,0
6160,-0.655273,-0.550293,0.472168,0
6180,-0.652832,-0.554199,0.470703,0
6200,-0.655273,-0.550781,0.475586,0
6220,-0.658691,-0.549316,0.478516,0
6240,-0.669434,-0.540527,0.483398,0
6260,-0.669922,-0.534668,0.479004,0
6280,-0.673828,-0.532715,0.472168,0
6300,-0.673828,-0.53418,0.470215,0
6320,-0.681152,-0.532715,0.475098,0
6340,-0.677734,-0.53125,0.473633,0
6360,-0.680176,-0.53125,0.474609,0
6390,-0.666504,-0.54834,0.470703,0
6410,-0.665039,-0.541992,0.469238,0
6430,-0.665527,-0.540039,0.46875,0
6450,-0.665039,-0.538086,0.466797,0
6470,-0.665527,-0.539062,0.472168,0
6490,-0.665039,-0.535156,0.467285,0
6540,-0.668457,-0.54248,0.463867,0
6580,-0.672363,-0.540039,0.467773,0
6600,-0.677246,-0.541504,0.468262,0
6620,-0.672363,-0.538574,0.462402,0
6630,-0.675781,-0.544922,0.462402,0
6650,-0.672852,-0.542969,0.463867,0
6670,-0.677246,-0.541016,0.463379,0
6710,-0.678223,-0.54248,0.470703,0
6740,-0.671875,-0.540039,0.461426,0
6780,-0.669434,-0.535156,0.468262,0
6810,-0.67627,-0.540039,0.476074,0
6830,-0.675781,-0.541504,0.46875,0
6850,-0.675781,-0.544434,0.467285,0
6870,-0.67627,-0.534668,0.467285,0
6890,-0.678711,-0.540039,0.469727,0
6920,-0.677246,-0.530762,0.47168,0
6940,-0.67627,-0.532227,0.470215,0
6960,-0.679199,-0.538086,0.472168,0
6970,-0.680176,-0.541504,0.467773,0
6990,-0.675293,-0.538574,0.463867,0
7010,-0.673828,-0.539551,0.461426,0
7030,-0.677734,-0.543945,0.460449,0
7050,-0.684082,-0.546875,0.461914,0
7070,-0.688477,-0.545898,0.464844,0
7090,-0.686035,-0.549805,0.467773,0
7100,-0.678223,-0.547363,0.462891,0
7120,-0.67334,-0.546875,0.45459,0
7140,-0.670898,-0.541992,0.45752,0
7160,-0.675781,-0.53418,0.45459,0
7180,-0.674805,-0.545898,0.453125,0
7200,-0.673828,-0.539551,0.456055,0
7220,-0.678711,-0.538086,0.447266,0
7240,-0.674805,-0.540039,0.448242,0
7260,-0.681152,-0.540527,0.448242,0
7280,-0.679688,-0.538086,0.452148,0
7290,-0.681641,-0.543945,0.459961,0
7330,-0.673828,-0.530762,0.436035,0
7350,-0.683105,-0.533203,0.442383,0
7370,-0.696777,-0.531738,0.45459,0
7390,-0.691406,-0.542969,0.453125,0
7410,-0.68457,-0.546875,0.460938,0
7430,-0.681641,-0.549316,0.452148,0
7440,-0.678223,-0.54834,0.456543,0
7460,-0.678711,-0.55127,0.45166,0
7480,-0.677246,-0.554199,0.454102,0
7500,-0.682129,-0.551758,0.466309,0
7510,-0.682129,-0.540527,0.471191,0
7530,-0.67627,-0.532715,0.470703,0
7550,-0.672363,-0.535645,0.470215,0
7570,-0.672852,-0.541992,0.473145,0
7590,-0.66748,-0.530273,0.458984,0
7610,-0.671387,-0.52832,0.475098,0
7650,-0.67334,-0.528809,0.477539,0
7670,-0.672852,-0.536133,0.468262,0
7690,-0.672852,-0.532227,0.473633,0
7710,-0.67334,-0.541504,0.471191,0
7730,-0.672852,-0.544434,0.466797,0
7740,-0.670898,-0.544922,0.470215,0
7760,-0.673828,-0.54834,0.468262,0
7780,-0.67334,-0.55127,0.470215,0
7800,-0.674805,-0.552246,0.471191,0
7820,-0.673828,-0.54834,0.467285,0
7840,-0.66748,-0.550293,0.467773,0
7860,-0.670898,-0.54834,0.465332,0
7880,-0.666016,-0.55127,0.464844,0
7900,-0.668457,-0.546875,0.470703,0
7920,-0.669434,-0.544922,0.472168,0
7940,-0.668945,-0.544922,0.465332,0
7960,-0.669434,-0.544434,0.466797,0
7980,-0.666504,-0.540527,0.463867,0
8000,-0.668945,-0.54248,0.463379,0
8040,-0.674805,-0.54248,0.466309,0
8060,-0.668945,-0.539551,0.461914,0
8080,-0.674316,-0.544922,0.470703,0
8090,-0.67334,-0.550781,0.466797,0
8100,-0.668457,-0.550781,0.459473,0
8120,-0.669434,-0.550293,0.458008,0
8150,-0.672852,-0.548828,0.461914,0
8190,-0.674316,-0.546875,0.471191,0
8210,-0.67627,-0.546387,0.46582,0
8230,-0.669922,-0.546387,0.463379,0
8250,-0.669922,-0.543457,0.462891,0
8270,-0.667969,-0.546875,0.463379,0
8300,-0.669434,-0.547852,0.46582,0
8320,-0.666992,-0.546875,0.461426,0
8340,-0.667969,-0.547852,0.463867,0
8360,-0.671875,-0.541016,0.461426,0
8380,-0.672852,-0.539551,0.465332,0
8400,-0.671875,-0.546387,0.466309,0
8420,-0.674316,-0.549316,0.467773,0
8450,-0.667969,-0.54834,0.459473,0
8470,-0.668945,-0.550293,0.459961,0
8510,-0.669922,-0.54834,0.466797,0
8530,-0.67334,-0.546875,0.463379,0
8550,-0.671875,-0.546875,0.46875,0
8560,-0.670898,-0.543457,0.458008,0
8580,-0.670898,-0.540039,0.45459,0
8610,-0.677734,-0.544922,0.470215,0
8630,-0.680664,-0.54248,0.467285,0
8650,-0.67334,-0.542969,0.462402,0
8660,-0.67334,-0.541504,0.465332,0
8680,-0.681152,-0.546387,0.478027,0
8700,-0.677246,-0.549316,0.465332,0
8730,-0.663086,-0.549805,0.45752,0
8760,-0.668945,-0.551758,0.463867,0
8780,-0.665039,-0.555176,0.460449,0
8800,-0.658203,-0.560059,0.462891,0
8820,-0.659668,-0.561523,0.463867,0
8840,-0.662598,-0.559082,0.460938,0
8860,-0.666016,-0.562988,0.461426,0
8880,-0.668457,-0.560547,0.467773,0
8900,-0.666016,-0.560059,0.463379,0
8930,-0.663574,-0.557129,0.45459,0
8960,-0.65918,-0.563477,0.464844,0
8980,-0.658203,-0.569336,0.467773,0
9000,-0.664062,-0.563477,0.459961,0
9010,-0.660156,-0.563965,0.457031,0
9030,-0.658203,-0.556641,0.457031,0
9050,-0.662598,-0.557129,0.458496,0
9060,-0.661621,-0.558105,0.459473,0
9060,-0.665039,-0.557617,0.459473,0
9080,-0.663574,-0.556152,0.458008,0
9100,-0.664551,-0.556641,0.455566,0
9120,-0.660645,-0.560059,0.453125,0
9140,-0.660645,-0.563965,0.456543,0
9160,-0.659668,-0.571777,0.455566,0
9210,-0.658203,-0.570312,0.453613,0
9230,-0.661133,-0.569336,0.450195,0
9240,-0.657227,-0.57373,0.455566,0
9260,-0.65332,-0.565918,0.451172,0
9260,-0.658691,-0.57666,0.458496,0
9280,-0.645508,-0.577148,0.452148,0
9300,-0.645508,-0.57373,0.452637,0
9310,-0.652832,-0.58252,0.460938,0
9310,-0.651367,-0.578613,0.453613,0
9330,-0.65332,-0.576172,0.453125,0
9350,-0.65918,-0.57666,0.462891,0
9370,-0.658691,-0.57373,0.458496,0
9410,-0.655762,-0.583496,0.44873,0
9430,-0.653809,-0.586914,0.446777,0
9430,-0.656738,-0.581055,0.445801,0
9450,-0.65625,-0.582031,0.452637,0
9460,-0.651367,-0.585938,0.445801,0
9490,-0.651367,-0.583984,0.444824,0
9510,-0.651367,-0.578125,0.449707,0
9550,-0.651367,-0.583496,0.451172,0
9580,-0.655273,-0.580566,0.453125,0
9600,-0.653809,-0.58252,0.44873,0
9620,-0.648926,-0.576172,0.443848,0
9650,-0.649902,-0.577148,0.452637,0
9670,-0.651855,-0.577148,0.456543,0
9710,-0.65332,-0.585449,0.449707,0
9730,-0.646973,-0.581055,0.444824,0
9750,-0.650391,-0.583496,0.447754,0
9750,-0.652832,-0.580566,0.446289,0
9770,-0.652832,-0.57959,0.449219,0
9790,-0.655762,-0.581543,0.449707,0
9830,-0.651367,-0.584961,0.454102,0
9850,-0.650391,-0.583496,0.447266,0
9890,-0.646484,-0.581543,0.446289,0
9910,-0.653809,-0.580566,0.45459,0
9930,-0.650391,-0.583496,0.45459,0
9950,-0.650391,-0.585938,0.455566,0
9970,-0.653809,-0.580566,0.447754,0
9970,-0.650391,-0.578613,0.451172,0
9990,-0.650391,-0.577148,0.447754,0
10010,-0.651855,-0.578613,0.447754,0
10030,-0.655273,-0.576172,0.453125,0
10060,-0.647461,-0.57959,0.457031,0
10080,-0.650879,-0.577148,0.451172,0
10100,-0.650879,-0.579102,0.452637,0
10120,-0.650391,-0.575195,0.45459,0
10160,-0.650391,-0.578125,0.450684,0
10200,-0.651367,-0.577637,0.458008,0
10210,-0.65332,-0.57666,0.462402,0
10230,-0.653809,-0.581055,0.460938,0
10250,-0.647949,-0.579102,0.45752,0
10270,-0.646973,-0.575195,0.454102,0
10310,-0.654785,-0.574219,0.45752,0
10330,-0.646484,-0.57959,0.45459,0
10350,-0.649902,-0.583496,0.458496,0
10360,-0.65332,-0.572754,0.458008,0
10400,-0.645508,-0.581543,0.452148,0
10440,-0.647949,-0.570312,0.45752,0
10460,-0.651367,-0.574219,0.459473,0
10480,-0.653809,-0.581543,0.461914,0
10500,-0.650879,-0.576172,0.458496,0
10510,-0.651367,-0.580566,0.456543,0
10530,-0.68457,-0.622559,0.428711,0
10560,-0.63916,-0.663086,0.419922,0
10580,-0.574219,-0.824707,0.494141,0
10620,-0.537598,-0.75,0.633301,0
10640,-0.477051,-0.743652,0.640625,0
10660,-0.404297,-0.756348,0.666992,0
10680,-0.333496,-0.770996,0.677734,0
10700,-0.295898,-0.75,0.652344,0
10720,-0.213379,-0.767578,0.601562,0
10740,-0.182129,-0.754883,0.602051,0
10760,-0.172852,-0.717285,0.630371,0
10780,-0.111816,-0.707031,0.615234,0
10800,-0.0585938,-0.720703,0.593262,0
10820,-0.0317383,-0.72168,0.57373,0
10840,-0.0249023,-0.740723,0.559082,0
10860,-0.0161133,-0.735352,0.570801,0
10880,-0.0078125,-0.73291,0.561523,0
10900,0.0327148,-0.724121,0.543945,0
10920,0.081543,-0.726562,0.50293,0
10940,0.112793,-0.734863,0.486816,0
10960,0.124023,-0.726562,0.460938,0
10980,0.134277,-0.721191,0.440918,0
11000,0.159668,-0.72998,0.44043,0
11020,0.172852,-0.733887,0.43457,0
11040,0.177246,-0.737305,0.421875,0
11060,0.181641,-0.733398,0.404785,0
11080,0.166992,-0.730957,0.39502,0
11100,0.167969,-0.74707,0.395508,0
11120,0.196289,-0.762207,0.401855,0
11140,0.222656,-0.759277,0.399414,0
11160,0.237793,-0.749023,0.381348,0
11180,0.245605,-0.745605,0.389648,0
11200,0.239258,-0.742188,0.399414,0
11220,0.23877,-0.754395,0.402832,0
11240,0.253418,-0.770996,0.388672,0
11260,0.272461,-0.775391,0.399414,0
11280,0.269531,-0.78418,0.393066,0
11300,0.265137,-0.785156,0.379883,0
11320,0.268555,-0.802246,0.371094,0
11340,0.267578,-0.805664,0.375977,0
11360,0.26709,-0.797363,0.371582,0
11380,0.275391,-0.804688,0.374512,0
11400,0.291504,-0.810547,0.384277,0
11420,0.283203,-0.816895,0.37793,0
11440,0.285156,-0.818359,0.387695,0
11460,0.29541,-0.824707,0.404785,0
11480,0.296875,-0.833496,0.403809,0
11500,0.280273,-0.837402,0.394531,0
11520,0.273438,-0.836426,0.395996,0
11540,0.285645,-0.844238,0.404297,0
11560,0.286133,-0.834961,0.409668,0
11580,0.285645,-0.831543,0.385742,0
11600,0.28418,-0.826172,0.379883,0
11620,0.274902,-0.821289,0.399414,0
11640,0.267578,-0.822266,0.408691,0
11660,0.266602,-0.82959,0.398438,0
11680,0.266113,-0.825684,0.40625,0
11700,0.265625,-0.818359,0.410156,0
11720,0.262207,-0.811523,0.409668,0
11740,0.269531,-0.812012,0.406738,0
11760,0.280762,-0.817383,0.404297,0
11780,0.275879,-0.814453,0.402832,0
11800,0.275879,-0.812988,0.390137,0
11820,0.276855,-0.820312,0.396484,0
11840,0.280273,-0.834473,0.405273,0
11860,0.278809,-0.844238,0.401855,0
11880,0.270996,-0.836426,0.402344,0
11900,0.261719,-0.822266,0.398926,0
11920,0.26123,-0.825684,0.416992,0
11940,0.260742,-0.836426,0.403809,0
11960,0.259277,-0.828613,0.391113,0
11980,0.251953,-0.828613,0.391113,0
12000,0.259277,-0.824219,0.408203,0
12020,0.25293,-0.826172,0.400391,0
12040,0.243652,-0.812988,0.39502,0
12060,0.249023,-0.818848,0.40332,0
12080,0.251465,-0.825195,0.391113,0
12100,0.251953,-0.828125,0.396484,0
12120,0.253906,-0.82666,0.409668,0
12140,0.256836,-0.827148,0.406738,0
12160,0.241699,-0.821777,0.399902,0
12180,0.235352,-0.821289,0.396973,0
12200,0.229004,-0.807129,0.401367,0
12220,0.231934,-0.806641,0.403809,0
12240,0.23584,-0.827148,0.408691,1000
12260,0.244629,-0.837402,0.402832,0
12280,0.243164,-0.846191,0.396973,0
12300,0.256836,-0.841797,0.382812,0
12320,0.248047,-0.825195,0.397949,0
12340,0.249023,-0.818848,0.414551,0
12360,0.256348,-0.814453,0.421875,0
12380,0.264648,-0.816895,0.411621,0
12400,0.266602,-0.818848,0.415527,0
12420,0.26709,-0.817871,0.422852,0
12440,0.264648,-0.818848,0.412598,0
12460,0.266113,-0.821777,0.396973,0
12480,0.273926,-0.822266,0.405762,0
12500,0.259766,-0.81543,0.413086,0
12520,0.241211,-0.81543,0.402344,0
12540,0.232422,-0.820801,0.405762,0
12560,0.23584,-0.814453,0.408203,0
12580,0.241211,-0.814941,0.401367,0
12600,0.226562,-0.817383,0.394043,0
12620,0.21875,-0.81543,0.374023,0
12640,0.19873,-0.810059,0.390137,0
12660,0.194824,-0.811035,0.393066,0
12680,0.216797,-0.817383,0.393555,0
12700,0.224609,-0.820312,0.405273,0
12720,0.224121,-0.820801,0.398926,0
12740,0.23584,-0.820312,0.407715,0
12760,0.255859,-0.827148,0.420898,0
12780,0.275879,-0.825684,0.413574,0
12800,0.281738,-0.833496,0.396973,0
12820,0.269043,-0.831055,0.396973,0
12840,0.271484,-0.838867,0.401367,0
12860,0.286133,-0.825195,0.405762,0
12880,0.288574,-0.820312,0.408203,0
12900,0.281738,-0.827637,0.384766,0
12920,0.274414,-0.820801,0.37793,0
12940,0.29834,-0.815918,0.391113,0
12960,0.307617,-0.819336,0.390137,0
12980,0.288086,-0.810059,0.380371,0
12990,0.29248,-0.833496,0.37793,0
13010,0.309082,-0.821777,0.380859,0
13030,0.324219,-0.810547,0.382812,0
13050,0.320801,-0.799805,0.376953,0
13070,0.31543,-0.80127,0.374512,0
13090,0.337402,-0.795898,0.369141,0
13110,0.338379,-0.793457,0.378418,0
13130,0.344727,-0.796875,0.367676,0
13150,0.341797,-0.801758,0.358887,0
13170,0.351074,-0.809082,0.355957,0
13190,0.371582,-0.804688,0.36084,0
13210,0.378418,-0.816406,0.369629,0
13230,0.351074,-0.785156,0.343262,0
13250,0.339355,-0.79248,0.354004,0
13270,0.361816,-0.786621,0.366211,0
13290,0.384277,-0.788086,0.365723,0
13310,0.401367,-0.796875,0.36084,0
13330,0.388672,-0.771484,0.349121,0
13350,0.362793,-0.769531,0.353516,0
13370,0.387207,-0.778809,0.355957,0
13390,0.430176,-0.784668,0.353027,0
13410,0.420898,-0.773438,0.353027,0
13430,0.424805,-0.770996,0.341309,0
13450,0.433105,-0.759277,0.367188,0
13470,0.462891,-0.757324,0.375,0
13490,0.486328,-0.76416,0.342773,0
13510,0.476562,-0.74707,0.340332,0
13530,0.455078,-0.73877,0.353027,0
13550,0.483398,-0.741211,0.361328,0
13570,0.518555,-0.739258,0.353516,0
13590,0.529297,-0.740723,0.34082,0
13610,0.499512,-0.730469,0.331543,0
13630,0.519043,-0.726074,0.329102,0
13650,0.552734,-0.721191,0.323242,0
13670,0.55957,-0.709961,0.320801,0
13690,0.546875,-0.706543,0.318848,0
13710,0.554688,-0.692871,0.322754,0
13730,0.577148,-0.689941,0.329102,0
13750,0.572754,-0.682617,0.317383,0
13770,0.553223,-0.672852,0.32373,0
13790,0.550781,-0.654785,0.320801,0
13810,0.588379,-0.66748,0.317383,0
13830,0.595703,-0.648438,0.319336,0
13850,0.575684,-0.651367,0.333008,0
13870,0.592773,-0.650879,0.323242,0
13890,0.581543,-0.647461,0.32373,0
13910,0.592773,-0.640137,0.325195,0
13930,0.623047,-0.642578,0.335938,0
13950,0.633789,-0.638184,0.333496,0
13970,0.619629,-0.618652,0.332031,0
13990,0.639648,-0.624512,0.323242,0
14010,0.664551,-0.626465,0.320801,0
14030,0.641602,-0.602539,0.321777,0
14050,0.619629,-0.597656,0.344238,0
14070,0.62793,-0.597656,0.35791,0
14090,0.64209,-0.594238,0.370605,0
14110,0.672852,-0.583984,0.388184,0
14130,0.646973,-0.573242,0.391113,0
14150,0.639648,-0.568359,0.379883,0
14170,0.638672,-0.573242,0.370117,0
14190,0.658203,-0.567383,0.366699,0
14210,0.660645,-0.562988,0.387207,0
14230,0.662598,-0.550293,0.397461,0
14250,0.672852,-0.550293,0.386719,0
14270,0.662598,-0.541504,0.375977,0
14290,0.656738,-0.539551,0.395996,0
14310,0.665039,-0.53418,0.40332,0
14330,0.675293,-0.533691,0.407715,0
14350,0.661621,-0.52002,0.404785,0
14370,0.646484,-0.52002,0.404785,0
14390,0.650879,-0.52832,0.408203,0
14410,0.651367,-0.515137,0.416992,0
14430,0.657715,-0.512695,0.421387,0
14450,0.655762,-0.523926,0.423828,0
14470,0.624023,-0.521484,0.429199,0
14490,0.605957,-0.508789,0.444336,0
14510,0.625488,-0.506836,0.459473,0
14530,0.629395,-0.510254,0.466797,0
14550,0.626953,-0.515625,0.473633,0
14570,0.640625,-0.520996,0.482422,0
14590,0.625977,-0.513184,0.493652,0
14610,0.639648,-0.507324,0.490723,0
14630,0.625,-0.513184,0.488281,0
14650,0.633789,-0.52002,0.478516,0
14670,0.641113,-0.51709,0.481934,0
14690,0.607422,-0.515137,0.501953,0
14710,0.612793,-0.508301,0.504883,0
14730,0.638672,-0.520996,0.490723,0
14750,0.633789,-0.524414,0.486816,0
14770,0.598633,-0.518555,0.504395,0
14790,0.556152,-0.515625,0.518066,0
14810,0.567383,-0.520996,0.529297,0
14830,0.602539,-0.512695,0.52002,0
14850,0.637695,-0.527832,0.505859,0
14870,0.582031,-0.518066,0.519531,0
14890,0.543945,-0.523926,0.53418,0
14910,0.542969,-0.534668,0.544434,0
14930,0.569336,-0.533203,0.533203,0
14950,0.578613,-0.544922,0.526855,0
14970,0.480469,-0.513672,0.565918,0
14990,0.452637,-0.529785,0.583496,0
15010,0.496094,-0.54541,0.556641,0
15030,0.533203,-0.538574,0.550293,0
15050,0.513672,-0.516113,0.565918,0
15070,0.467285,-0.502441,0.569824,0
15090,0.463379,-0.515137,0.575684,0
15110,0.500488,-0.550293,0.5625,0
15130,0.513184,-0.54541,0.552734,0
15150,0.480469,-0.522949,0.575684,0
15170,0.44043,-0.518555,0.589355,0
15190,0.453613,-0.539062,0.56543,0
15210,0.501465,-0.544434,0.559082,0
15230,0.487305,-0.524902,0.579102,0
15250,0.462402,-0.532227,0.577148,0
15270,0.467285,-0.55957,0.55957,0
15290,0.488281,-0.57373,0.569824,0
15310,0.474121,-0.569336,0.580078,0
15330,0.45459,-0.5625,0.561523,0
15350,0.458984,-0.57959,0.557617,0
15370,0.484863,-0.59082,0.55957,0
15390,0.483398,-0.583008,0.571289,0
15410,0.444336,-0.581543,0.557617,0
15430,0.410645,-0.581543,0.574219,0
15450,0.435547,-0.578613,0.57959,0
15470,0.452637,-0.576172,0.579102,0
15490,0.459961,-0.583984,0.560547,0
15510,0.442871,-0.578613,0.560547,0
15530,0.413086,-0.578125,0.564453,0
15550,0.416016,-0.583008,0.570801,0
15560,0.429199,-0.596191,0.558105,0
15580,0.428223,-0.592773,0.56543,0
15600,0.407715,-0.596191,0.567383,0
15620,0.378418,-0.59668,0.567871,0
15640,0.382324,-0.604492,0.573242,0
15660,0.408691,-0.608887,0.556152,0
15680,0.406738,-0.606445,0.561523,0
15700,0.394531,-0.605957,0.564941,0
15720,0.394531,-0.612793,0.56543,0
15740,0.407227,-0.617676,0.580078,0
15760,0.400391,-0.617188,0.569336,0
15780,0.385254,-0.617676,0.571777,0
15800,0.387207,-0.620605,0.577637,0
15820,0.395508,-0.617676,0.575684,0
15840,0.377441,-0.613281,0.566895,0
15860,0.365723,-0.615234,0.564453,0
15880,0.383789,-0.631836,0.574707,0
15900,0.395996,-0.622559,0.571289,0
15920,0.395508,-0.626953,0.560059,0
15940,0.387695,-0.618652,0.559082,0
15960,0.37207,-0.618164,0.57373,0
15980,0.368164,-0.61377,0.564941,0
16000,0.384277,-0.630371,0.558594,0
16020,0.40332,-0.620605,0.563477,0
16040,0.38916,-0.629395,0.567871,0
16060,0.383789,-0.630859,0.571289,0
16080,0.380859,-0.635742,0.571289,0
16100,0.389648,-0.629883,0.566895,0
16120,0.391113,-0.62793,0.570312,0
16140,0.378906,-0.640625,0.567383,0
16160,0.375977,-0.634766,0.567871,0
16180,0.369141,-0.626953,0.566895,0
16200,0.374512,-0.629883,0.562012,0
16220,0.388184,-0.635742,0.555664,0
16240,0.383301,-0.63916,0.550781,0
16260,0.369629,-0.640625,0.551758,0
16280,0.366211,-0.642578,0.556152,0
16300,0.371094,-0.644531,0.556152,0
16320,0.383301,-0.644531,0.569824,0
16340,0.387207,-0.645508,0.566406,0
16360,0.385254,-0.645508,0.57373,0
16380,0.39209,-0.651367,0.566406,0
16400,0.397461,-0.660156,0.564941,0
16420,0.404785,-0.669922,0.555176,0
16440,0.383789,-0.650391,0.561523,0
16460,0.365234,-0.646484,0.564453,0
16480,0.377441,-0.648926,0.560547,0
16500,0.38916,-0.65918,0.54541,0
16520,0.392578,-0.650391,0.553223,0
16540,0.368164,-0.65332,0.551758,0
16550,0.365723,-0.661621,0.537598,0
16570,0.37207,-0.659668,0.549316,0
16590,0.356445,-0.652832,0.548828,0
16610,0.351074,-0.651855,0.547852,0
16630,0.334473,-0.656738,0.536621,0
16650,0.327148,-0.651855,0.535156,0
16670,0.298828,-0.642578,0.536621,0
16690,0.311035,-0.656738,0.537598,0
16710,0.32959,-0.647949,0.538574,0
16730,0.329102,-0.657715,0.536621,0
16750,0.34668,-0.668457,0.523926,0
16770,0.361328,-0.666992,0.538574,0
16790,0.347168,-0.656738,0.532227,0
16810,0.328125,-0.655762,0.545898,0
16830,0.337402,-0.674316,0.53418,0
16850,0.379883,-0.687012,0.546875,0
16850,0.38916,-0.682617,0.546875,0
16870,0.358398,-0.660156,0.550781,0
16890,0.344238,-0.656738,0.589844,0
16910,0.438965,-0.6875,0.455078,0
16930,0.484863,-0.70459,0.557617,0
16970,0.166992,-0.662598,0.556152,0
16990,0.0795898,-0.823242,0.71875,0
16990,0.35498,-0.712402,0.562988,0
17010,0.323242,-0.680664,0.51709,0
17030,0.355469,-0.687988,0.458984,0
17050,0.226562,-0.602051,0.313477,0
17070,0.47998,-0.687012,0.440918,0
17090,0.166016,-0.630859,0.489258,0
17120,-0.0898438,-0.872559,0.815918,0
17150,0.41748,-0.801758,0.775391,0
17170,0.98584,-0.632324,0.597656,0
17190,1.29883,-0.541992,0.491211,0
17210,1.44385,-0.518066,0.509277,0
17230,1.45898,-0.572754,0.637207,0
17250,0.940918,-0.762207,0.849121,0
17270,0.375977,-0.640137,0.421875,0
17290,0.391113,-0.691895,0.550781,0
17310,0.366699,-0.690918,0.53418,0
17330,0.35791,-0.682617,0.54541,0
17350,0.336426,-0.669922,0.545898,0
17370,0.344238,-0.672363,0.540039,0
17390,0.353516,-0.682129,0.541016,0
17410,0.359375,-0.691406,0.546387,0
17430,0.355469,-0.686523,0.547363,0
17450,0.336426,-0.687988,0.542969,0
17470,0.333008,-0.692383,0.536621,0
17490,0.350586,-0.69043,0.53418,0
17510,0.349609,-0.684082,0.534668,0
17530,0.345703,-0.678711,0.537598,0
17550,0.333984,-0.687988,0.530273,0
17570,0.340332,-0.695312,0.525879,0
17590,0.373535,-0.699219,0.514648,0
17610,0.372559,-0.696777,0.511719,0
17630,0.351562,-0.69043,0.521484,0
17650,0.355469,-0.695312,0.527344,0
17670,0.375977,-0.702637,0.512207,0
17690,0.364258,-0.699707,0.493652,0
17710,0.36377,-0.685059,0.490234,0
17730,0.370605,-0.673828,0.501953,0
17750,0.354492,-0.677246,0.501953,0
17770,0.350098,-0.681152,0.488281,0
17790,0.361328,-0.699219,0.478516,0
17810,0.371582,-0.699219,0.481934,0
17830,0.356445,-0.689941,0.47998,0
17850,0.351074,-0.691895,0.475586,0
17870,0.366699,-0.693848,0.487305,0
17890,0.382324,-0.695312,0.478027,0
17910,0.381836,-0.700684,0.477051,0
17930,0.376953,-0.710449,0.479004,0
17950,0.390625,-0.709961,0.464355,0
17970,0.38623,-0.703613,0.45752,0
17990,0.378906,-0.700195,0.458008,0
18010,0.376465,-0.696777,0.444824,0
18030,0.393066,-0.703125,0.460938,0
18050,0.393555,-0.702148,0.461914,0
18070,0.398438,-0.69873,0.451172,0
18090,0.390625,-0.699707,0.445801,0
18110,0.403809,-0.708984,0.4375,0
18130,0.430664,-0.706055,0.449707,0
18140,0.442383,-0.702637,0.447754,0
18160,0.432129,-0.713379,0.447266,0
18180,0.442383,-0.724121,0.438965,0
18200,0.458984,-0.729004,0.432129,0
18220,0.456055,-0.72168,0.420898,0
18240,0.436035,-0.720215,0.4375,0
18260,0.447266,-0.730469,0.429688,0
18280,0.479004,-0.713867,0.437012,0
18300,0.467773,-0.707031,0.424316,0
18320,0.446777,-0.705078,0.413086,0
18340,0.433594,-0.712891,0.394531,0
18360,0.428711,-0.706543,0.39209,0
18380,0.424805,-0.712891,0.398438,0
18400,0.450195,-0.727539,0.39209,0
18420,0.468262,-0.730957,0.380859,0
18440,0.469238,-0.713379,0.383789,0
18460,0.46582,-0.692871,0.396973,0
18480,0.486816,-0.683594,0.400391,0
18500,0.55127,-0.694824,0.367676,0
18520,0.552734,-0.675781,0.345703,0
18540,0.552246,-0.671875,0.330566,0
18560,0.57666,-0.67334,0.327637,0
18580,0.616699,-0.658691,0.313477,0
18600,0.63623,-0.654785,0.306641,0
18620,0.651367,-0.660156,0.30127,0
18640,0.702637,-0.640137,0.302246,0
18660,0.691895,-0.60498,0.300293,0
18680,0.703125,-0.595703,0.295898,0
18700,0.710449,-0.576172,0.317383,0
18720,0.740723,-0.572754,0.28125,0
18740,0.722656,-0.560547,0.260254,0
18760,0.692871,-0.56543,0.259766,0
18780,0.720215,-0.540527,0.266602,0
18800,0.722168,-0.513184,0.262695,0
18820,0.727051,-0.508789,0.268555,0
18840,0.78418,-0.483398,0.29248,0
18860,0.780762,-0.470703,0.291504,0
18880,0.807129,-0.471191,0.254883,0
18900,0.795898,-0.450195,0.249023,0
18920,0.802246,-0.434082,0.265137,0
18940,0.856445,-0.422852,0.276367,0
18960,0.875,-0.401855,0.271484,0
18980,0.844727,-0.370605,0.263672,0
19020,0.873047,-0.354004,0.252441,0
19060,0.885254,-0.316895,0.244141,0
19080,0.885254,-0.300293,0.242676,0
19100,0.873047,-0.294922,0.245117,0
19120,0.883301,-0.28418,0.242188,0
19140,0.895996,-0.290527,0.261719,0
19160,0.822754,-0.277344,0.296875,0
19180,0.784668,-0.262695,0.306641,0
19200,0.788086,-0.262207,0.308105,0
19220,0.805664,-0.257324,0.337891,0
19240,0.891602,-0.265625,0.357422,0
19260,0.848633,-0.28418,0.359375,0
19280,0.761719,-0.289551,0.371582,0
19300,0.757324,-0.287598,0.379883,0
19320,0.792969,-0.285645,0.38623,0
19340,0.842285,-0.28418,0.410645,0
19360,0.906738,-0.302246,0.436035,0
19380,0.793945,-0.308594,0.477051,0
19400,0.73877,-0.302246,0.502441,0
19420,0.720703,-0.319336,0.495605,0
19440,0.727051,-0.324707,0.505371,0
19460,0.778809,-0.323242,0.544434,0
19480,0.71582,-0.328125,0.569824,0
19500,0.643066,-0.365723,0.575684,0
19520,0.584961,-0.379395,0.580566,0
19540,0.599121,-0.384766,0.603516,0
19560,0.643066,-0.386719,0.602051,0
19580,0.63623,-0.402832,0.578613,0
19600,0.577148,-0.42041,0.583008,0
19620,0.53125,-0.450684,0.554199,0
19640,0.53125,-0.461914,0.559082,0
19660,0.543457,-0.472656,0.524414,0
19680,0.511719,-0.471191,0.532227,0
19700,0.466309,-0.476562,0.533691,0
19720,0.438965,-0.513184,0.512207,0
19740,0.464844,-0.516113,0.520508,0
19760,0.466309,-0.550781,0.535156,0
19780,0.4375,-0.586426,0.544434,0
19800,0.436523,-0.59375,0.53418,0
19820,0.431152,-0.575195,0.524902,0
19840,0.414062,-0.584473,0.544922,0
19860,0.41748,-0.595215,0.569824,0
19880,0.431641,-0.603516,0.568359,0
19900,0.429199,-0.615234,0.550293,0
19920,0.423828,-0.620605,0.561035,0
19940,0.427734,-0.625977,0.544434,0
19960,0.447266,-0.628906,0.523926,0
19980,0.447754,-0.630859,0.529297,0
20000,0.423828,-0.638184,0.530273,0
20020,0.436523,-0.646484,0.516113,0
20040,0.476562,-0.657715,0.508789,0
20060,0.478516,-0.633789,0.504395,0
20080,0.436035,-0.634277,0.503906,0
20100,0.410156,-0.646973,0.49707,0
20120,0.422852,-0.672363,0.487305,0
20140,0.455566,-0.678223,0.474121,0
20160,0.448242,-0.662598,0.475098,0
20180,0.4375,-0.666992,0.479004,0
20200,0.444336,-0.679688,0.480469,0
20220,0.447754,-0.69873,0.466797,0
20240,0.455566,-0.706055,0.451172,0
20260,0.473633,-0.694824,0.45752,0
20280,0.473145,-0.687988,0.447754,0
20300,0.458008,-0.694824,0.435547,0
20320,0.457031,-0.709473,0.429688,0
20340,0.48584,-0.715332,0.415039,0
20360,0.505859,-0.704102,0.416016,0
20380,0.47168,-0.696289,0.422852,0
20400,0.456055,-0.705566,0.412109,0
20420,0.490234,-0.72168,0.402832,0
20440,0.495605,-0.715332,0.375,0
20460,0.519531,-0.706543,0.378906,0
20480,0.50293,-0.699219,0.406738,0
20500,0.476074,-0.690918,0.406738,0
20520,0.469238,-0.723633,0.378418,0
20540,0.486816,-0.737793,0.368164,0
20560,0.492188,-0.714844,0.380859,0
20580,0.439453,-0.6875,0.355957,0
20600,0.387207,-0.67627,0.37207,0
20620,0.362793,-0.67627,0.364746,0
20640,0.381348,-0.68457,0.354004,0
20660,0.415527,-0.682617,0.355469,0
20680,0.383301,-0.689941,0.333984,0
20700,0.32373,-0.677734,0.337891,0
20710,0.332031,-0.686035,0.361816,0
20730,0.382324,-0.6875,0.386719,0
20750,0.421387,-0.685547,0.380371,0
20770,0.437988,-0.706543,0.35498,0
20790,0.477051,-0.730957,0.356934,0
20810,0.538574,-0.724609,0.364746,0
20830,0.553223,-0.712402,0.367676,0
20850,0.570801,-0.730957,0.375977,0
20870,0.617188,-0.720215,0.374512,0
20890,0.613281,-0.710449,0.344727,0
20910,0.594727,-0.709961,0.345703,0
20930,0.621582,-0.724609,0.321289,0
20950,0.630371,-0.714844,0.333984,0
20970,0.644531,-0.688965,0.321289,0
20990,0.668945,-0.649902,0.271973,0
21010,0.644043,-0.657227,0.265137,0
21030,0.606445,-0.680664,0.248535,0
21050,0.59668,-0.680664,0.22998,0
21070,0.679199,-0.65918,0.225098,0
21090,0.687012,-0.621582,0.249512,0
21110,0.653809,-0.595703,0.245117,0
21130,0.696289,-0.606934,0.241211,0
21150,0.749023,-0.552246,0.242676,0
21170,0.777344,-0.553223,0.223633,0
21190,0.811523,-0.543457,0.194824,0
21210,0.772461,-0.496582,0.219238,0
21230,0.795898,-0.46875,0.222656,0
21250,0.855469,-0.437012,0.206055,0
21270,0.856934,-0.414062,0.177734,0
21290,0.84668,-0.396484,0.176758,0
21310,0.859863,-0.387695,0.151855,0
21330,0.84375,-0.373047,0.140137,0
21350,0.865723,-0.34668,0.126953,0
21370,0.885742,-0.330566,0.12793,0
21390,0.896484,-0.318848,0.140137,0
21410,0.866699,-0.299316,0.163086,0
21430,0.873047,-0.270508,0.131348,0
21450,0.881836,-0.264648,0.134766,0
21470,0.890625,-0.246582,0.131348,0
21490,0.893066,-0.237305,0.129883,0
21510,0.895996,-0.233398,0.136719,0
21530,0.90625,-0.221191,0.135742,0
21550,0.916504,-0.214844,0.148438,0
21570,0.915527,-0.196777,0.151855,0
21590,0.918457,-0.187988,0.163086,0
21610,0.954102,-0.164062,0.201172,0
21630,0.960449,-0.15625,0.220703,0
21650,0.958008,-0.158691,0.219238,0
21670,0.962891,-0.149414,0.226562,0
21690,0.931152,-0.143555,0.255859,0
21710,0.915039,-0.15625,0.29834,0
21730,0.885254,-0.164062,0.335938,0
21750,0.885254,-0.171387,0.350586,0
21770,0.870117,-0.168945,0.365234,0
21790,0.787598,-0.18457,0.382324,0
21810,0.772949,-0.20166,0.425781,0
21830,0.797852,-0.250977,0.439453,0
21850,0.855957,-0.285156,0.426758,0
21870,0.890625,-0.284668,0.464844,0
21890,0.855469,-0.257324,0.518555,0
21910,0.785156,-0.276855,0.540527,0
21930,0.774414,-0.324219,0.54541,0
21950,0.745117,-0.358398,0.562012,0
21970,0.692871,-0.33252,0.570801,0
21990,0.674805,-0.356445,0.555176,0
22010,0.671875,-0.380371,0.56543,0
22030,0.651367,-0.39209,0.534668,0
22050,0.60498,-0.424316,0.529785,0
22070,0.557129,-0.460449,0.538574,0
22090,0.549316,-0.48291,0.511719,0
22110,0.53125,-0.474609,0.497559,0
22130,0.483887,-0.467773,0.515625,0
22150,0.449219,-0.547852,0.512207,0
22170,0.485352,-0.595215,0.516113,0
22190,0.501953,-0.602051,0.505371,0
22210,0.458008,-0.592773,0.477051,0
22230,0.428223,-0.606445,0.472168,0
22250,0.427246,-0.626953,0.452637,0
22270,0.432617,-0.630859,0.421875,0
22290,0.458984,-0.686523,0.436523,0
22310,0.505859,-0.683105,0.415039,0
22330,0.505371,-0.680176,0.403809,0
22350,0.496582,-0.700195,0.415527,0
22370,0.488281,-0.720703,0.388184,0
22390,0.489258,-0.717285,0.366211,0
22410,0.474609,-0.709961,0.351074,0
22430,0.471191,-0.716797,0.35498,0
22450,0.454102,-0.742676,0.349609,0
22470,0.463379,-0.745117,0.319824,0
22490,0.480957,-0.74707,0.306152,0
22510,0.492188,-0.745605,0.304199,0
22530,0.464844,-0.765625,0.313477,0
22550,0.476562,-0.783691,0.295898,0
22570,0.476074,-0.786133,0.263672,0
22590,0.46582,-0.810547,0.248047,0
22610,0.461914,-0.833984,0.250977,0
22630,0.427734,-0.816895,0.252441,0
22650,0.399902,-0.836914,0.250977,0
22670,0.38916,-0.849121,0.257324,0
22690,0.395996,-0.853516,0.224609,0
22710,0.397461,-0.845215,0.225586,0
22730,0.378418,-0.86084,0.245117,0
22750,0.362305,-0.850586,0.222168,0
22770,0.357422,-0.854004,0.210449,0
22790,0.362305,-0.848633,0.19873,0
22810,0.380859,-0.834473,0.199707,0
22830,0.374023,-0.835449,0.191406,0
22850,0.348633,-0.839355,0.184082,0
22870,0.347168,-0.833496,0.166016,0
22890,0.364258,-0.822266,0.177734,0
22910,0.38916,-0.8125,0.202637,0
22930,0.422363,-0.8125,0.222656,0
22950,0.453613,-0.801758,0.23877,0
22970,0.459961,-0.809082,0.228516,0
22990,0.481934,-0.790039,0.216309,0
23010,0.507324,-0.793945,0.193848,0
23030,0.54541,-0.787109,0.173828,0
23050,0.528809,-0.770508,0.180176,0
23070,0.508789,-0.749512,0.166992,0
23090,0.484863,-0.767578,0.166504,0
23110,0.502441,-0.776855,0.144043,0
23130,0.532715,-0.794434,0.119629,0
23150,0.572754,-0.782227,0.113281,0
23170,0.578613,-0.785156,0.125977,0
23190,0.57959,-0.781738,0.129395,0
23210,0.598145,-0.769043,0.132324,0
23230,0.600586,-0.76416,0.126465,0
23250,0.577637,-0.76123,0.12207,0
23270,0.594727,-0.753906,0.114746,0
23290,0.650879,-0.746094,0.0932617,0
23300,0.666504,-0.751465,0.0800781,0
23320,0.620117,-0.75293,0.0927734,0
23340,0.618652,-0.743652,0.065918,0
23360,0.621094,-0.727539,0.0541992,0
23380,0.623535,-0.711426,0.0541992,0
23400,0.64502,-0.708008,0.0566406,0
23420,0.651367,-0.688965,0.0507812,0
23440,0.654785,-0.691406,0.034668,0
23460,0.656738,-0.702637,0.0302734,0
23480,0.689453,-0.702637,0.034668,0
23500,0.696289,-0.668457,0.0629883,0
23520,0.694824,-0.65332,0.0727539,0
23540,0.705078,-0.656738,0.0556641,0
23560,0.741699,-0.652344,0.0517578,0
23580,0.785156,-0.644531,0.0385742,0
23600,0.78125,-0.634277,0.0307617,0
23620,0.757324,-0.637207,0.0253906,0
23640,0.783203,-0.628418,0.0166016,0
23660,0.824219,-0.603516,0.000488281,0
23680,0.813965,-0.584473,0.000488281,0
23700,0.790039,-0.560547,-0.00146484,0
23720,0.795898,-0.54541,0.00488281,0
23740,0.808105,-0.536133,-0.0175781,0
23760,0.798828,-0.522949,-0.00976562,0
23780,0.799805,-0.517578,0.00146484,0
23800,0.786621,-0.491211,-0.00439453,0
23820,0.77002,-0.5,0.0102539,0
23840,0.792969,-0.487305,0.00683594,0
23860,0.80127,-0.484375,0.00878906,0
23880,0.817383,-0.473145,0.00732422,0
23900,0.823242,-0.474121,0.015625,0
23920,0.847168,-0.462891,0.0205078,1001
23940,0.870117,-0.46582,0.0219727,0
23960,0.873047,-0.463867,0.0258789,0
23980,0.851074,-0.477051,0.0205078,0
24000,0.858887,-0.466797,0.0268555,0
24020,0.885254,-0.459961,0.0263672,0
24040,0.887695,-0.444336,0.0131836,0
24060,0.869629,-0.450195,0.0263672,0
24080,0.866699,-0.442871,0.0458984,0
24100,0.863281,-0.450195,0.0263672,0
24140,0.825684,-0.458008,0.0327148,0
24160,0.819824,-0.454102,0.0292969,0
24180,0.810547,-0.461426,0.0253906,0
24200,0.74707,-0.470703,0.043457,0
24220,0.771973,-0.460449,0.0136719,0
24240,0.744141,-0.461914,0.0258789,0
24260,0.735352,-0.457031,0.0385742,0
24280,0.719238,-0.474121,0.0322266,0
24300,0.699707,-0.45752,0.0234375,0
24320,0.700195,-0.466797,0.00341797,0
24340,0.70752,-0.484375,0.0219727,0
24360,0.769043,-0.492676,0.0361328,0
24380,0.8125,-0.498535,0.046875,0
24400,0.785645,-0.48877,0.0766602,0
24420,0.753906,-0.476074,0.0922852,0
24440,0.751465,-0.48291,0.102051,0
24460,0.754883,-0.489258,0.0991211,0
24480,0.73291,-0.492188,0.151855,0
24500,0.694824,-0.479492,0.193359,0
24520,0.65918,-0.45752,0.210938,0
24540,0.700684,-0.44873,0.227539,0
24560,0.73584,-0.405273,0.274902,0
24580,0.671387,-0.378906,0.30127,0
24600,0.654297,-0.427246,0.251465,0
24620,0.775391,-0.465332,0.244141,0
24640,0.816895,-0.437012,0.340332,0
24660,0.734375,-0.417969,0.335938,0
24680,0.752441,-0.445312,0.337891,0
24700,0.792969,-0.497559,0.390137,0
24720,0.755371,-0.553223,0.449219,0
24740,0.72168,-0.565918,0.45166,0
24760,0.744629,-0.617676,0.461914,0
24780,0.716797,-0.657227,0.529297,0
24800,0.64502,-0.679688,0.518066,0
24820,0.60791,-0.729492,0.481445,0
24840,0.601562,-0.771484,0.481934,0
24860,0.548828,-0.792969,0.489746,0
24880,0.488281,-0.782227,0.474609,0
24900,0.40918,-0.850098,0.416504,0
24920,0.34082,-0.896973,0.435059,0
24940,0.296875,-0.96875,0.459961,0
24960,0.283691,-0.930176,0.42627,0
24980,0.254883,-0.897461,0.388184,0
25000,0.240234,-0.90625,0.35498,0
25020,0.257812,-0.905762,0.339355,0
25040,0.254395,-0.871094,0.351074,0
25050,0.243164,-0.864258,0.362305,0
25050,0.203125,-0.859375,0.349121,0
25070,0.197266,-0.86377,0.360352,0
25100,0.104492,-0.830566,0.328613,0
25130,0.178223,-0.838379,0.552734,0
25150,0.243652,-0.788574,0.151855,0
25170,0.00244141,-0.92334,0.604492,0
25190,0.48291,-0.902832,0.416992,0
25210,0.899902,-0.814453,0.253906,0
25230,0.999512,-0.757324,0.193848,0
25250,1.05469,-0.722656,0.228027,0
25270,1.22021,-0.734863,0.364746,0
25290,1.07422,-0.891113,0.635254,1000
25310,-0.105469,-1.02637,0.587891,0
25330,-0.0957031,-0.753906,0.0581055,0
25350,0.735352,-0.940918,0.742188,0
25370,0.0834961,-0.708008,0.0830078,0
25390,-0.132324,-1.00732,0.437012,0
25410,0.985352,-0.799316,0.757324,0
25430,0.42041,-0.681641,0.243652,0
25450,-0.326172,-0.833984,-0.0576172,0
25480,-0.449219,-0.960938,0.0229492,0
25500,-0.182617,-1.00488,0.34668,0
25520,0.03125,-0.895508,0.337402,0
25530,0.193848,-0.849121,0.356445,0
25530,0.235352,-0.845215,0.390137,0
25550,0.233887,-0.847168,0.37207,0
25590,0.283691,-0.844727,0.356934,0
25610,0.115723,-0.772461,0.13916,0
25630,0.354492,-0.827148,0.258789,0
25650,0.0512695,-0.825684,0.353516,0
25670,-0.212891,-0.970215,0.646973,0
25690,0.192383,-0.945801,0.623047,0
25710,0.670898,-0.864746,0.537109,0
25730,0.935547,-0.82373,0.520996,0
25750,0.935059,-0.853027,0.611328,0
25770,0.489258,-0.967285,0.72998,0
25790,-0.569336,-1.04346,0.494629,0
25810,-0.13916,-0.716309,0.0273438,0
25830,0.63916,-0.930176,0.763184,0
25850,0.0405273,-0.702148,0.0854492,0
25870,-0.261719,-1.03662,0.383301,0
25890,0.901367,-0.811523,0.818848,0
25910,0.552734,-0.700195,0.375,0
25930,-0.194336,-0.833008,-0.0136719,0
25950,-0.475098,-0.978516,-0.0878906,0
25970,-0.462402,-1.02588,-0.0332031,0
25990,-0.463379,-1.0332,-0.0263672,0
26010,-0.481934,-0.994141,-0.123047,0
26030,-0.35791,-0.900391,-0.189453,0
26050,0.131836,-0.732422,0.0834961,0
26070,0.747559,-0.655762,0.760254,0
26090,0.539062,-0.862305,0.906738,0
26110,-0.395996,-1.03809,-0.0634766,0
26130,0.133301,-0.734375,0.0541992,0
26150,0.663574,-0.805176,1.03174,0
26170,-0.464844,-0.993164,-0.31543,0
26190,0.737793,-0.667969,0.917969,0
26210,-0.241211,-0.870117,0.557617,0
26230,0.225098,-0.867676,0.483398,0
26250,0.220703,-0.828613,0.355469,0
26270,0.217773,-0.851074,0.367188,0
26290,0.221191,-0.853516,0.354004,0
26310,0.238281,-0.873047,0.359375,0
26330,0.234375,-0.860352,0.350098,0
26350,0.237305,-0.84668,0.340332,0
26370,0.272461,-0.867676,0.342285,0
26390,0.308594,-0.88623,0.34375,0
26410,0.318848,-0.870605,0.347168,0
26430,0.30957,-0.854492,0.359863,0
26450,0.294922,-0.830078,0.359375,0
26470,0.309082,-0.814453,0.358887,0
26490,0.338379,-0.795898,0.35498,0
26510,0.364258,-0.79834,0.352051,0
26530,0.368164,-0.803711,0.357422,0
26550,0.420898,-0.795898,0.346191,0
26570,0.472656,-0.799316,0.312988,0
26590,0.491211,-0.780273,0.300781,0
26610,0.447754,-0.748535,0.308105,0
26630,0.449707,-0.753906,0.282715,0
26650,0.469727,-0.766113,0.288086,0
26670,0.473145,-0.748047,0.291016,0
26690,0.488281,-0.729492,0.300781,0
26710,0.500977,-0.733398,0.280762,0
26730,0.516113,-0.727051,0.288574,0
26750,0.500488,-0.728027,0.318359,0
26770,0.496094,-0.70459,0.315918,0
26790,0.559082,-0.722168,0.31543,0
26810,0.597656,-0.704102,0.311035,0
26830,0.545898,-0.670898,0.32373,0
26850,0.56543,-0.664062,0.310547,0
26870,0.600098,-0.677246,0.311035,0
26890,0.623047,-0.664062,0.316406,0
26910,0.591797,-0.656738,0.333984,0
26930,0.604004,-0.63916,0.31543,0
26950,0.644531,-0.616211,0.309082,0
26970,0.670898,-0.609375,0.309082,0
26990,0.655273,-0.58252,0.319824,0
27010,0.663574,-0.572754,0.345215,0
27030,0.678711,-0.568359,0.355469,0
27050,0.674316,-0.538574,0.350586,0
27070,0.697754,-0.531738,0.345703,0
27090,0.724609,-0.514648,0.353516,0
27110,0.73877,-0.497559,0.372559,0
27130,0.734375,-0.492676,0.379883,0
27150,0.733887,-0.489258,0.380371,0
27170,0.710938,-0.475098,0.398438,0
27190,0.701172,-0.459961,0.424805,0
27210,0.692383,-0.465332,0.425781,0
27230,0.735352,-0.466309,0.431641,0
27250,0.723633,-0.473633,0.437012,0
27270,0.681641,-0.463379,0.481445,0
27290,0.690918,-0.476562,0.516113,0
27310,0.718262,-0.498047,0.489258,0
27330,0.708496,-0.500977,0.483398,0
27350,0.649414,-0.49707,0.514648,0
27370,0.610352,-0.496582,0.559082,0
27390,0.634766,-0.511719,0.575195,0
27410,0.65918,-0.506348,0.531738,0
27430,0.651367,-0.524414,0.527344,0
27450,0.522461,-0.535645,0.563477,0
27470,0.454102,-0.538574,0.622559,0
27490,0.464355,-0.579102,0.576172,0
27510,0.505859,-0.560059,0.562988,0
27530,0.49707,-0.544434,0.583008,0
27550,0.467285,-0.563965,0.588379,0
27570,0.463867,-0.601562,0.571777,0
27590,0.441406,-0.638184,0.5625,0
27610,0.354492,-0.593262,0.601562,0
27630,0.326172,-0.571777,0.581055,0
27650,0.364258,-0.61084,0.564941,0
27670,0.388184,-0.660645,0.539551,0
27690,0.37793,-0.702637,0.537109,0
27710,0.353516,-0.719727,0.531738,0
27730,0.324219,-0.714355,0.526855,0
27750,0.27832,-0.687012,0.557617,0
27770,0.242188,-0.689941,0.549805,0
27790,0.232422,-0.720703,0.531738,0
27810,0.279785,-0.736328,0.522949,0
27810,0.279297,-0.709961,0.518066,0
27830,0.223633,-0.697754,0.51123,0
27850,0.166504,-0.718262,0.525391,0
27870,0.306641,-0.739258,0.458496,0
27890,0.348145,-0.756348,0.599609,0
27910,0.150391,-0.742188,0.448242,0
27930,-0.248047,-0.871582,0.81543,0
27950,0.436035,-0.748047,0.667969,0
27970,1.15137,-0.612793,0.469238,0
27990,1.4165,-0.559082,0.351074,0
28010,1.47314,-0.541016,0.376465,0
28050,1.51807,-0.587402,0.553223,0
28070,0.913086,-0.77002,0.808594,0
28090,0.379395,-0.658691,0.336914,0
28110,0.379395,-0.745605,0.503418,0
28130,0.276367,-0.740723,0.489746,0
28150,0.252441,-0.756836,0.495605,0
28170,0.250977,-0.760254,0.477539,0
28190,0.250488,-0.756348,0.479004,0
28210,0.23291,-0.746094,0.481934,0
28230,0.197266,-0.769043,0.476562,0
28250,0.214844,-0.779785,0.477051,0
28270,0.23877,-0.780273,0.459473,0
28270,0.241699,-0.773926,0.458984,0
28290,0.228516,-0.769531,0.475586,0
28310,0.214355,-0.785156,0.48584,0
28330,0.24707,-0.803223,0.354004,0
28350,0.263184,-0.712402,0.230957,0
28370,0.161133,-0.905762,0.705078,0
28390,0.73291,-0.657715,0.219238,0
28410,0.359375,-0.741699,0.208008,0
28430,-0.45752,-0.897949,0.449707,0
28450,-0.898926,-0.982422,0.608398,0
28470,-0.975098,-0.994629,0.661133,0
28490,-1.03613,-0.971191,0.600586,0
28520,-1.05859,-0.904297,0.294434,0
28540,0.333008,-0.667969,0.22998,0
28560,0.410156,-0.895508,0.707031,0
28580,0.269043,-0.67627,0.23877,0
28600,-0.245605,-0.982422,0.377441,0
28620,1.02002,-0.741211,0.832031,0
28640,0.332031,-0.67627,0.256836,0
28660,-0.448242,-0.88623,-0.0512695,0
28680,-0.306152,-0.98291,0.177734,0
28700,0.0512695,-0.955566,0.481934,0
28720,0.253418,-0.92041,0.642578,0
28740,0.211914,-0.916992,0.640137,0
28760,-0.0297852,-0.958008,0.448242,0
28780,-0.326172,-0.98877,0.0625,0
28800,-0.363281,-0.898438,-0.237793,0
28820,0.243164,-0.680664,0.153809,0
28840,0.904785,-0.64502,1.02539,0
28860,0.325684,-0.959961,0.63623,0
28880,-0.133301,-0.958008,0.611328,0
28900,0.176758,-0.865723,0.371582,0
28920,0.237793,-0.833008,0.413574,0
28940,0.277832,-0.844727,0.40625,0
28960,0.324219,-0.840332,0.393066,0
28980,0.319336,-0.833008,0.365234,0
29000,0.270996,-0.839355,0.357422,0
29020,0.245605,-0.84668,0.338379,0
29040,0.28125,-0.854492,0.293945,0
29060,0.334961,-0.834961,0.265137,0
29080,0.330078,-0.824707,0.289062,0
29100,0.308105,-0.833984,0.316406,0
29120,0.347168,-0.831055,0.301758,0
29140,0.38916,-0.810547,0.27832,0
29160,0.368164,-0.810547,0.284668,0
29180,0.330566,-0.831055,0.29541,0
29200,0.349609,-0.835938,0.270508,0
29220,0.385254,-0.822266,0.265625,0
29240,0.387695,-0.825684,0.246582,0
29260,0.398438,-0.833008,0.256348,0
29280,0.431152,-0.853027,0.242188,0
29300,0.443848,-0.850586,0.244141,0
29320,0.436035,-0.853516,0.238281,0
29340,0.433105,-0.83252,0.238281,0
29360,0.445801,-0.827148,0.230469,0
29380,0.452148,-0.82959,0.222656,0
29400,0.426758,-0.819336,0.212891,0
29420,0.411621,-0.819336,0.240234,0
29440,0.445312,-0.796875,0.207031,0
29460,0.496094,-0.767578,0.186523,0
29480,0.543945,-0.755859,0.18457,0
29500,0.504883,-0.731445,0.1875,0
29520,0.460938,-0.716797,0.1875,0
29540,0.515625,-0.725098,0.179688,0
29560,0.608887,-0.719238,0.160645,0
29580,0.615234,-0.697266,0.15918,0
29600,0.598145,-0.681641,0.169434,0
29620,0.663086,-0.683105,0.191406,0
29640,0.752441,-0.712891,0.183105,0
29660,0.743164,-0.669922,0.196777,0
29680,0.673828,-0.605469,0.149414,0
29700,0.708984,-0.59082,0.118652,0
29720,0.729004,-0.606445,0.140625,0
29740,0.757812,-0.605957,0.140137,0
29760,0.79834,-0.575684,0.153809,0
29780,0.811035,-0.557129,0.148926,0
29800,0.790527,-0.515625,0.153809,0
29820,0.791504,-0.491211,0.152832,0
29840,0.823242,-0.497559,0.151855,0
29860,0.826172,-0.474609,0.151367,0
29880,0.840332,-0.448242,0.169922,0
29900,0.82373,-0.418457,0.187012,0
29950,0.90332,-0.349121,0.222168,0
29970,0.877441,-0.337402,0.243164,0
29990,0.885742,-0.332031,0.26123,0
30010,0.905273,-0.332031,0.257812,0
30030,0.862793,-0.323242,0.279785,0
30050,0.854492,-0.308105,0.298828,0
30070,0.87793,-0.321289,0.340332,0
30090,0.853027,-0.345215,0.362793,0
30110,0.841797,-0.345703,0.37793,0
30130,0.845215,-0.340332,0.397461,0
30150,0.772461,-0.321289,0.428711,0
30170,0.763672,-0.339844,0.450684,0
30190,0.783691,-0.373535,0.460938,0
30210,0.722656,-0.365723,0.530762,0
30230,0.664551,-0.37207,0.541504,0
30250,0.693359,-0.386719,0.54248,0
30270,0.707031,-0.407715,0.531738,0
30290,0.697266,-0.413086,0.543945,0
30310,0.661133,-0.415039,0.546875,0
30330,0.619141,-0.447754,0.549805,0
30350,0.598633,-0.48291,0.538574,0
30370,0.563965,-0.473633,0.545898,0
30390,0.530273,-0.463867,0.529785,0
30410,0.515137,-0.459961,0.565918,0
30430,0.481445,-0.488281,0.574707,0
30450,0.493164,-0.530762,0.544434,0
30470,0.526367,-0.55127,0.572754,0
30490,0.506348,-0.557617,0.577148,0
30510,0.455566,-0.57959,0.552246,0
30530,0.449219,-0.556152,0.553711,0
30550,0.432129,-0.564453,0.539062,0
30570,0.39502,-0.609375,0.543945,0
30590,0.35791,-0.636719,0.550781,0
30610,0.391113,-0.658691,0.521484,0
30630,0.446777,-0.654785,0.513184,0
30650,0.452637,-0.682129,0.497559,0
30670,0.417969,-0.722168,0.490723,0
30690,0.437988,-0.725098,0.486328,0
30710,0.459961,-0.714844,0.488281,0
30730,0.4375,-0.711914,0.489746,0
30750,0.394043,-0.73877,0.473145,0
30770,0.380859,-0.749023,0.450195,0
30790,0.333496,-0.721191,0.4375,0
30810,0.309082,-0.700195,0.389648,0
30830,0.291016,-0.713379,0.399902,0
30850,0.291016,-0.733398,0.384277,0
30870,0.297363,-0.760254,0.381836,0
30890,0.317871,-0.745117,0.393066,0
30910,0.318359,-0.766602,0.398438,0
30930,0.328613,-0.801758,0.393555,0
30950,0.348633,-0.788574,0.39209,0
30970,0.335449,-0.76709,0.395996,0
30990,0.321289,-0.79541,0.394043,0
31000,0.35498,-0.870605,0.389648,0
31020,0.376953,-0.85498,0.382812,0
31040,0.362305,-0.786133,0.360352,0
31040,0.32373,-0.813477,0.401367,0
31060,0.324707,-0.850098,0.413574,0
31080,0.422852,-0.836426,0.378906,0
31100,0.209961,-0.702637,0.209961,0
31120,0.44873,-0.685547,0.148926,0
31160,0,-0.970703,0.543945,0
31180,0.327637,-0.866211,0.547852,0
31180,0.536133,-0.852051,0.35791,0
31220,0.390137,-0.776855,0.413574,0
31240,0.323242,-0.824219,0.276855,0
31260,0.354004,-0.828613,0.347168,0
31280,0.356934,-0.818848,0.269531,0
31300,0.327148,-0.820312,0.282715,0
31320,0.322266,-0.817383,0.285645,0
31340,0.323242,-0.788086,0.23584,0
31360,0.303711,-0.820801,0.219238,0
31380,0.278809,-0.837402,0.206055,0
31400,0.306152,-0.835449,0.197266,0
31420,0.315918,-0.834961,0.192383,0
31440,0.290527,-0.882324,0.172852,0
31460,0.292969,-0.916504,0.179688,0
31480,0.325684,-0.912598,0.141602,0
31500,0.354004,-0.873047,0.141602,0
31520,0.353027,-0.870605,0.18457,0
31540,0.373535,-0.916992,0.172852,0
31560,0.423828,-0.922852,0.105957,0
31580,0.418945,-0.901855,0.0639648,0
31600,0.35791,-0.899902,0.0537109,0
31620,0.297852,-0.862793,0.0375977,0
31640,0.29834,-0.870605,0.0253906,0
31660,0.338379,-0.847168,0.0761719,0
31680,0.374023,-0.834473,0.111328,0
31700,0.418945,-0.804199,0.101074,0
31720,0.394043,-0.811523,0.100586,0
31740,0.401367,-0.82373,0.113281,0
31760,0.460938,-0.809082,0.123047,0
31780,0.527832,-0.754395,0.147949,0
31800,0.588379,-0.752441,0.171387,0
31820,0.678711,-0.802246,0.112793,0
31840,0.732422,-0.799316,0.034668,0
31860,0.668457,-0.75,0.0419922,0
31880,0.609863,-0.741699,0.0673828,0
31900,0.626465,-0.69873,0.14209,0
31920,0.710938,-0.666504,0.157227,0
31940,0.749512,-0.668945,0.0834961,0
31960,0.693359,-0.675781,0.0742188,0
31980,0.657715,-0.666504,0.118164,0
32000,0.716797,-0.636719,0.154785,0
32020,0.794922,-0.618164,0.115723,0
32040,0.823242,-0.621582,0.0898438,0
32060,0.819824,-0.61084,0.0898438,0
32080,0.831055,-0.604004,0.0942383,0
32100,0.821289,-0.587402,0.0742188,0
32120,0.810059,-0.577637,0.0795898,0
32140,0.775391,-0.550781,0.100098,0
32160,0.797852,-0.516602,0.081543,0
32180,0.842285,-0.493652,0.0634766,0
32200,0.792969,-0.457031,0.0522461,0
32220,0.786621,-0.450684,0.0703125,0
32240,0.836914,-0.434082,0.10791,0
32260,0.877441,-0.414551,0.11377,0
32280,0.859375,-0.394531,0.10498,0
32300,0.852051,-0.38623,0.102539,0
32320,0.896484,-0.369141,0.137207,0
32340,0.940918,-0.330078,0.159668,0
32360,0.947754,-0.302246,0.152832,0
32380,0.943848,-0.299805,0.162109,0
32400,0.95459,-0.296387,0.19873,0
32420,0.972656,-0.304688,0.228027,0
32440,0.98584,-0.287109,0.251953,0
32460,0.963379,-0.256836,0.268066,0
32480,0.94043,-0.262207,0.26123,0
32500,0.927246,-0.292969,0.282227,0
32520,0.916504,-0.306152,0.318359,0
32540,0.901855,-0.320312,0.373535,0
32560,0.883789,-0.320312,0.385742,0
32580,0.850098,-0.333496,0.385254,0
32600,0.776367,-0.32959,0.418945,0
32620,0.72998,-0.371094,0.435547,0
32640,0.716309,-0.428223,0.45752,0
32660,0.717773,-0.469238,0.42041,0
32680,0.678223,-0.427734,0.440918,0
32700,0.572266,-0.419434,0.479004,0
32720,0.539551,-0.476074,0.487305,0
32740,0.566406,-0.506348,0.515137,0
32760,0.543945,-0.50293,0.503906,0
32780,0.537109,-0.539062,0.475098,0
32800,0.548828,-0.561523,0.46582,0
32820,0.523438,-0.593262,0.492188,0
32840,0.510254,-0.610352,0.492676,0
32860,0.510254,-0.628418,0.461426,0
32880,0.521973,-0.629883,0.445801,0
32900,0.518066,-0.628906,0.431152,0
32920,0.481445,-0.666992,0.420898,0
32940,0.48877,-0.696777,0.398438,0
32960,0.521973,-0.683594,0.379883,0
32980,0.500488,-0.68457,0.375488,0
33000,0.461914,-0.697754,0.379395,0
33020,0.433105,-0.723633,0.387207,0
33040,0.451172,-0.770996,0.376465,0
33060,0.478516,-0.785156,0.351562,0
33080,0.460449,-0.782715,0.325684,0
33100,0.438477,-0.794434,0.323242,0
33120,0.430664,-0.797852,0.298828,0
33140,0.458496,-0.791016,0.265137,0
33160,0.447754,-0.761719,0.272949,0
33180,0.431152,-0.788574,0.268066,0
33200,0.415527,-0.813965,0.262207,0
33220,0.401855,-0.821289,0.257812,0
33240,0.375977,-0.837891,0.242676,0
33260,0.362305,-0.866699,0.191895,0
33280,0.346191,-0.871094,0.182129,0
33300,0.27832,-0.87207,0.168457,0
33320,0.259277,-0.871094,0.163086,0
33340,0.260254,-0.879395,0.143066,0
33360,0.269531,-0.911621,0.135742,0
33380,0.266113,-0.918457,0.119629,0
33400,0.267578,-0.896484,0.0786133,0
33420,0.279297,-0.894531,0.0751953,0
33440,0.307129,-0.938477,0.10498,0
33460,0.329102,-0.95166,0.0976562,0
33480,0.342285,-0.893555,0.0693359,0
33500,0.332031,-0.863281,0.0454102,0
33520,0.333496,-0.891113,0.0566406,0
33540,0.342285,-0.889648,0.0473633,0
33560,0.379883,-0.873535,0.00341797,0
33580,0.421875,-0.851562,-0.0258789,0
33590,0.433105,-0.906738,-0.0136719,0
33610,0.429688,-0.926758,0.00292969,0
33630,0.423828,-0.900879,-0.0224609,0
33650,0.442383,-0.864746,-0.0219727,0
33670,0.503906,-0.847168,-0.0200195,0
33690,0.513672,-0.834473,-0.0483398,0
33710,0.474609,-0.852539,-0.0595703,0
33730,0.479004,-0.868164,-0.0649414,0
33750,0.534668,-0.869141,-0.0541992,0
33770,0.573242,-0.841309,-0.0810547,0
33790,0.557129,-0.84375,-0.10498,0
33810,0.524414,-0.813477,-0.100098,0
33830,0.509766,-0.815918,-0.10498,0
33850,0.543457,-0.792969,-0.142578,0
33870,0.574219,-0.770508,-0.157715,0
33890,0.566895,-0.772461,-0.149414,0
33910,0.553223,-0.76416,-0.130371,0
33930,0.562012,-0.760254,-0.15625,0
33950,0.612793,-0.767578,-0.161621,0
33970,0.646973,-0.75,-0.145508,0
33990,0.64502,-0.719727,-0.144043,0
34010,0.62207,-0.705078,-0.129883,0
34030,0.643066,-0.742188,-0.15332,0
34050,0.714355,-0.730469,-0.143555,0
34070,0.711914,-0.710449,-0.162109,0
34090,0.685547,-0.696289,-0.153809,0
34110,0.703125,-0.685059,-0.140625,0
34130,0.760742,-0.661621,-0.151367,0
34150,0.78418,-0.675781,-0.164062,0
34170,0.76709,-0.654297,-0.150879,0
34190,0.770996,-0.646484,-0.134277,0
34210,0.796387,-0.623047,-0.139648,0
34230,0.808105,-0.61084,-0.150879,0
34250,0.787598,-0.591797,-0.141602,0
34270,0.791992,-0.592285,-0.135254,0
34290,0.817871,-0.588867,-0.126465,0
34310,0.809082,-0.571289,-0.136719,0
34330,0.791016,-0.54834,-0.135742,0
34350,0.779297,-0.549316,-0.145508,0
34370,0.780273,-0.540527,-0.117676,0
34390,0.773438,-0.529785,-0.102051,1001
34410,0.791016,-0.518066,-0.151855,0
34430,0.783691,-0.518555,-0.145508,0
34450,0.780762,-0.500488,-0.103516,0
34470,0.793945,-0.510742,-0.109375,0
34490,0.825195,-0.512695,-0.136719,0
34510,0.855957,-0.532227,-0.125977,0
34530,0.867676,-0.537109,-0.122559,0
34550,0.846191,-0.534668,-0.15332,0
34570,0.814941,-0.501953,-0.166016,0
34590,0.824707,-0.503418,-0.192871,0
34610,0.824219,-0.518066,-0.20166,0
34630,0.821289,-0.530762,-0.207031,0
34650,0.833984,-0.545898,-0.19873,0
34670,0.780273,-0.558105,-0.199707,0
34690,0.737793,-0.529785,-0.205078,0
34710,0.729004,-0.521484,-0.212891,0
34730,0.71582,-0.540039,-0.222656,0
34750,0.674805,-0.529297,-0.213867,0
34770,0.624512,-0.526367,-0.183594,0
34790,0.604492,-0.546875,-0.187012,0
34810,0.591309,-0.553223,-0.207031,0
34830,0.559082,-0.544434,-0.182129,0
34850,0.553711,-0.550781,-0.152832,0
34870,0.575684,-0.558594,-0.129395,0
34890,0.578613,-0.548828,-0.0839844,0
34910,0.560059,-0.52832,-0.0556641,0
34930,0.566406,-0.536133,-0.00976562,0
34950,0.625977,-0.530273,0.0336914,0
34970,0.658691,-0.527832,0.0820312,0
34990,0.71875,-0.558105,0.090332,0
35010,0.790527,-0.585938,0.13916,0
35030,0.791016,-0.621582,0.166504,0
35050,0.84082,-0.695312,0.134766,0
35070,0.885254,-0.714355,0.172852,0
35090,0.82959,-0.702637,0.252441,0
35110,0.731934,-0.756348,0.238281,0
35130,0.720703,-0.771484,0.175781,0
35150,0.72998,-0.757812,0.248535,0
35170,0.678711,-0.77832,0.259277,0
35190,0.661133,-0.823242,0.222168,0
35210,0.655762,-0.879883,0.184082,0
35230,0.597168,-0.92041,0.219238,0
35250,0.51709,-0.931641,0.256836,0
35270,0.464355,-0.939941,0.20752,0
35290,0.469727,-0.947754,0.211426,0
35310,0.44873,-0.959473,0.222656,0
35330,0.378418,-0.973145,0.244629,0
35350,0.303711,-1.00293,0.213867,0
35370,0.219238,-1.04248,0.22998,0
35390,0.194336,-1.00977,0.254395,0
35410,0.194336,-0.998047,0.26123,0
35420,0.208008,-0.963379,0.23584,0
35450,0.200195,-0.937988,0.24707,0
35450,0.203613,-0.916016,0.255371,0
35470,0.297363,-0.942871,0.250488,1000
35500,0.229492,-0.885254,0.0229492,0
35520,0.182617,-1.00732,0.48877,0
35540,0.533203,-0.853516,0.0551758,0
35560,0.275879,-0.822754,0.0317383,0
35580,-0.19873,-0.878418,0.166016,0
35600,-0.495605,-0.943848,0.207031,0
35620,-0.603027,-0.940918,0.163574,0
35640,-0.446777,-0.872559,0.00927734,0
35660,0.314453,-0.72998,-0.0708008,0
35680,1.25146,-0.757324,0.400879,0
35700,-0.0507812,-1.05469,0.517578,0
35720,0.290039,-0.725586,0.0341797,0
35740,-0.0742188,-1.07178,0.413574,0
35760,1.00293,-0.773438,0.555664,0
35780,-0.0957031,-0.814453,-0.0869141,0
35780,-0.341797,-1.0293,0.203613,0
35800,-0.21875,-1.00391,0.567383,0
35840,0.469727,-0.871094,0.205078,0
35860,0.344727,-0.79834,0.104004,0
35880,-0.20459,-0.989746,0.454102,0
35900,-0.127441,-1.03564,0.588379,0
35920,0.399414,-0.966797,0.498535,0
35940,0.887207,-0.833008,0.356934,0
35960,1.13721,-0.788574,0.279785,0
35980,1.2417,-0.776367,0.325684,0
36000,1.16602,-0.821289,0.5,0
36020,0.475586,-0.977539,0.66748,0
36040,-0.779785,-1.00537,0.21582,0
36060,0.474121,-0.688965,0.138184,0
36080,-0.0424805,-1.04248,0.495117,0
36100,0.698242,-0.706055,0.351562,0
36120,-0.570312,-0.958984,-0.043457,0
36150,0.30127,-1.01855,0.601562,0
36170,0.687012,-0.759766,0.248047,0
36190,0.461426,-0.899414,0.486816,0
36200,0.249023,-0.864746,0.321289,0
36220,0.254883,-0.881348,0.322266,0
36240,0.334961,-0.885254,0.310547,0
36260,0.367676,-0.836426,0.287598,0
36280,0.366211,-0.796387,0.291992,0
36300,0.381836,-0.819824,0.293945,0
36320,0.394043,-0.84375,0.27832,0
36340,0.410645,-0.854492,0.26709,0
36360,0.399902,-0.840332,0.259277,0
36380,0.407227,-0.80957,0.25,0
36400,0.461426,-0.779297,0.251953,0
36420,0.473145,-0.776855,0.268555,0
36440,0.416504,-0.763184,0.258301,0
36460,0.472656,-0.743164,0.266602,0
36480,0.51123,-0.719238,0.21875,0
36500,0.536621,-0.689453,0.224121,0
36520,0.54541,-0.684082,0.222656,0
36540,0.586426,-0.692871,0.206543,0
36560,0.632812,-0.698242,0.210449,0
36580,0.593262,-0.714844,0.20459,0
36600,0.629395,-0.703125,0.192871,0
36620,0.678223,-0.697266,0.188477,0
36640,0.669922,-0.672363,0.209961,0
36660,0.676758,-0.683105,0.210938,0
36680,0.712402,-0.682129,0.214355,0
36700,0.726074,-0.660156,0.217773,0
36720,0.680176,-0.655762,0.224609,0
36740,0.63623,-0.625,0.289551,0
36760,0.625,-0.620117,0.341309,0
36780,0.614746,-0.612793,0.363281,0
36800,0.646484,-0.601562,0.333984,0
36820,0.665527,-0.580078,0.342285,0
36840,0.662109,-0.572266,0.332031,0
36860,0.668945,-0.5625,0.336426,0
36880,0.697266,-0.547363,0.346191,0
36900,0.722168,-0.528809,0.342773,0
36920,0.744629,-0.502441,0.365723,0
36940,0.728027,-0.490234,0.34668,0
36960,0.720703,-0.462402,0.352051,0
36980,0.713379,-0.4375,0.382324,0
37000,0.718262,-0.418457,0.40332,0
37020,0.716309,-0.412109,0.403809,0
37040,0.726074,-0.387695,0.424316,0
37060,0.725098,-0.369141,0.445312,0
37080,0.71582,-0.364258,0.444336,0
37100,0.73584,-0.36084,0.439453,0
37120,0.755371,-0.341797,0.458008,0
37140,0.759277,-0.335938,0.467285,0
37160,0.754883,-0.316895,0.473633,0
37180,0.758789,-0.325195,0.477539,0
37200,0.758301,-0.33252,0.480469,0
37220,0.778809,-0.32959,0.498535,0
37240,0.675781,-0.32959,0.546875,0
37260,0.668945,-0.366211,0.582031,0
37280,0.695312,-0.371582,0.603027,0
37300,0.678223,-0.382324,0.608398,0
37320,0.66748,-0.408691,0.59082,0
37340,0.601562,-0.434082,0.595703,0
37360,0.5,-0.441406,0.640137,0
37380,0.504883,-0.464844,0.666504,0
37400,0.548828,-0.504395,0.621094,0
37420,0.549316,-0.513672,0.611816,0
37440,0.499512,-0.506836,0.63623,0
37460,0.46582,-0.521973,0.619629,0
37480,0.444336,-0.571777,0.604492,0
37500,0.439453,-0.608887,0.600098,0
37520,0.437012,-0.621094,0.601562,0
37540,0.444336,-0.604492,0.587891,0
37560,0.427246,-0.587402,0.573242,0
37580,0.351562,-0.598145,0.589844,0
37600,0.308105,-0.625488,0.599121,0
37620,0.345215,-0.642578,0.58252,0
37640,0.40332,-0.618652,0.591797,0
37660,0.382812,-0.59668,0.590332,0
37680,0.354004,-0.628906,0.57666,0
37700,0.347656,-0.65918,0.583008,0
37720,0.367676,-0.652832,0.584961,0
37740,0.363281,-0.61084,0.57666,0
37760,0.347168,-0.610352,0.57373,0
37780,0.338867,-0.624023,0.57666,0
37800,0.340332,-0.651855,0.579102,0
37820,0.326172,-0.666504,0.550293,0
37840,0.305176,-0.658203,0.553223,0
37860,0.279297,-0.661133,0.548828,0
37880,0.285156,-0.664551,0.539062,0
37900,0.279297,-0.666992,0.539062,0
37920,0.280273,-0.674316,0.559082,0
37940,0.300293,-0.689453,0.576172,0
37960,0.320801,-0.705566,0.549316,0
37980,0.31543,-0.695801,0.543457,0
38000,0.302734,-0.695312,0.537109,0
38000,0.290039,-0.703613,0.537109,0
38020,0.29248,-0.703125,0.531738,0
38040,0.279297,-0.696289,0.53125,0
38050,0.270508,-0.716797,0.515625,0
38060,0.297363,-0.72168,0.523926,0
38080,0.285156,-0.721191,0.503418,0
38100,0.26416,-0.723145,0.495605,0
38100,0.26123,-0.727539,0.499512,0
38120,0.278809,-0.717773,0.5,0
38140,0.24707,-0.708496,0.495605,0
38150,0.223145,-0.744629,0.486816,0
38160,0.24707,-0.763672,0.482422,0
38180,0.277344,-0.749512,0.480469,0
38200,0.287109,-0.747559,0.498535,0
38200,0.289062,-0.752441,0.502441,0
38220,0.251953,-0.762207,0.498535,0
38240,0.244629,-0.776367,0.475586,0
38240,0.250977,-0.779785,0.473145,0
38260,0.217773,-0.76709,0.47168,0
38280,0.203613,-0.76709,0.438477,0
38300,0.322754,-0.819336,0.603027,0
38320,0.30127,-0.880371,0.69043,0
38340,0.295898,-0.711426,0.233398,0
38370,-0.347656,-0.924805,0.709961,0
38400,0.133789,-0.839355,0.669434,0
38420,1.04199,-0.71875,0.443359,0
38440,1.5,-0.638672,0.291016,0
38480,1.57568,-0.62793,0.265625,0
38540,1.55811,-0.678711,0.44043,0
38600,0.840332,-0.70166,0.129883,0
38620,0.435547,-0.812988,0.34082,0
38640,0.292969,-0.856445,0.315918,0
38660,0.288574,-0.867676,0.335938,0
38680,0.322266,-0.86377,0.32959,0
38700,0.347168,-0.850586,0.33252,0
38720,0.364258,-0.851562,0.327637,0
38740,0.382324,-0.84375,0.328613,0
38760,0.419434,-0.837891,0.332031,0
38780,0.421387,-0.841309,0.340332,0
38790,0.396484,-0.755371,0.331543,0
38810,0.344238,-0.75293,0.311035,0
38830,0.396484,-0.72998,0.303223,0
38850,0.46582,-0.734863,0.289551,0
38870,0.468262,-0.747559,0.276367,0
38890,0.480469,-0.785645,0.272461,0
38910,0.50293,-0.791504,0.287598,0
38930,0.531738,-0.759766,0.268555,0
38950,0.539062,-0.757324,0.259766,0
38970,0.558594,-0.754395,0.251465,0
38990,0.575195,-0.741699,0.23584,0
39010,0.583496,-0.72998,0.246582,0
39030,0.60498,-0.703613,0.26416,0
39050,0.624512,-0.679688,0.238281,0
39070,0.634277,-0.68457,0.210449,0
39090,0.640625,-0.690918,0.200195,0
39110,0.632812,-0.669922,0.197754,0
39130,0.632812,-0.660156,0.177734,0
39150,0.683594,-0.657715,0.182617,0
39170,0.732422,-0.635254,0.224609,0
39190,0.758301,-0.585938,0.218262,0
39210,0.787598,-0.569336,0.164062,0
39230,0.77832,-0.567871,0.132812,0
39250,0.796875,-0.561035,0.137207,0
39270,0.791504,-0.540527,0.130859,0
39290,0.874023,-0.507324,0.138184,0
39310,0.82373,-0.466309,0.132812,0
39330,0.805176,-0.422363,0.133301,0
39350,0.833984,-0.400879,0.116699,0
39370,0.84375,-0.389648,0.111816,0
39390,0.851562,-0.383301,0.117188,0
39410,0.856934,-0.376465,0.123047,0
39430,0.875977,-0.360352,0.107422,0
39450,0.891113,-0.333984,0.130859,0
39470,0.901367,-0.312012,0.152832,0
39490,0.883789,-0.304199,0.157715,0
39510,0.879883,-0.294434,0.166992,0
39530,0.864258,-0.264648,0.187012,0
39550,0.870117,-0.237793,0.211426,0
39570,0.881836,-0.234863,0.248535,0
39590,0.929688,-0.239746,0.273926,0
39610,0.94043,-0.256836,0.26123,0
39630,0.858398,-0.250977,0.291992,0
39650,0.814941,-0.244141,0.345215,0
39670,0.819824,-0.244141,0.364746,0
39690,0.793945,-0.265137,0.398926,0
39710,0.808105,-0.276855,0.425293,0
39730,0.782227,-0.271973,0.460449,0
39750,0.720703,-0.286621,0.493164,0
39770,0.736328,-0.306152,0.541504,0
39790,0.762207,-0.307617,0.558594,0
39810,0.780762,-0.325195,0.562012,0
39830,0.796875,-0.335938,0.572754,0
39850,0.783691,-0.349121,0.591309,0
39870,0.788574,-0.342773,0.564941,0
39890,0.749023,-0.32373,0.574219,0
39910,0.739258,-0.312988,0.602539,0
39930,0.667969,-0.346191,0.605469,0
39950,0.625977,-0.399902,0.611328,0
39970,0.556152,-0.411621,0.611816,0
39990,0.502441,-0.383789,0.640137,0
40010,0.495117,-0.35791,0.671875,0
40030,0.500977,-0.362793,0.651367,0
40050,0.461426,-0.419434,0.656738,0
40070,0.416016,-0.44873,0.664062,0
40090,0.430176,-0.439941,0.670898,0
40110,0.460449,-0.438477,0.641113,0
40130,0.435059,-0.44043,0.600586,0
40150,0.378418,-0.464355,0.627441,0
40170,0.329102,-0.523438,0.644043,0
40190,0.34668,-0.58252,0.619629,0
40210,0.351074,-0.581543,0.602051,0
40230,0.347656,-0.581055,0.577637,0
40250,0.338867,-0.575195,0.557617,0
40270,0.307617,-0.57959,0.568359,0
40290,0.268066,-0.609375,0.56543,0
40310,0.302734,-0.625977,0.539551,0
40330,0.334473,-0.610352,0.515137,0
40350,0.33252,-0.641602,0.515625,0
40370,0.338867,-0.667969,0.510742,0
40390,0.344238,-0.692383,0.500977,0
40410,0.349609,-0.714844,0.494141,0
40430,0.391602,-0.726074,0.483887,0
40450,0.393066,-0.729492,0.471191,0
40470,0.374512,-0.749512,0.456055,0
40490,0.365234,-0.751465,0.436035,0
40510,0.376465,-0.744141,0.416016,0
40530,0.395996,-0.728516,0.431641,0
40550,0.384766,-0.760254,0.4375,0
40570,0.407715,-0.769531,0.407715,0
40590,0.449219,-0.780273,0.386719,0
40610,0.425781,-0.790527,0.370605,0
40630,0.397461,-0.802734,0.364746,0
40650,0.379883,-0.82666,0.346191,0
40670,0.408691,-0.832031,0.330566,0
40690,0.423828,-0.831543,0.323242,0
40710,0.406738,-0.833496,0.321289,0
40730,0.384766,-0.839355,0.316406,0
40750,0.384766,-0.841309,0.302246,0
40770,0.377441,-0.84668,0.307129,0
40790,0.346191,-0.852539,0.321777,0
40810,0.313965,-0.847168,0.284668,0
40830,0.307129,-0.843262,0.244629,0
40850,0.296875,-0.829102,0.221191,0
40870,0.250977,-0.828613,0.222656,0
40890,0.236816,-0.846191,0.208984,0
40910,0.303223,-0.86084,0.17627,0
40930,0.354492,-0.855957,0.173828,0
40950,0.336426,-0.850586,0.17334,0
40970,0.321777,-0.821777,0.187988,0
40990,0.348633,-0.80957,0.197266,0
41010,0.374512,-0.800781,0.213379,0
41030,0.40625,-0.853027,0.189453,0
41050,0.418945,-0.86377,0.198242,0
41070,0.424805,-0.850586,0.191895,0
41090,0.471191,-0.799805,0.155762,0
41110,0.512207,-0.755859,0.159668,0
41130,0.574219,-0.739746,0.179688,0
41150,0.616211,-0.754395,0.165039,0
41170,0.608887,-0.785156,0.148926,0
41190,0.626465,-0.792969,0.120605,0
41210,0.666016,-0.760254,0.117188,0
41230,0.685059,-0.738281,0.102539,0
41250,0.691406,-0.71582,0.0981445,0
41270,0.712891,-0.701172,0.090332,0
41290,0.730957,-0.67334,0.0673828,0
41310,0.725586,-0.64502,0.0688477,0
41330,0.708984,-0.614258,0.0629883,0
41350,0.699707,-0.599121,0.0405273,0
41370,0.734863,-0.600098,0.019043,0
41380,0.754883,-0.58252,0.0141602,0
41400,0.751465,-0.578613,0.0170898,0
41420,0.749512,-0.552734,0.0078125,0
41440,0.748047,-0.533691,0.0170898,0
41460,0.798828,-0.529297,0.0224609,0
41480,0.839844,-0.541016,0.0112305,0
41500,0.831055,-0.51416,0.0361328,0
41520,0.787598,-0.51416,0.0244141,0
41540,0.80127,-0.529785,0.0107422,0
41560,0.825684,-0.506348,0.059082,0
41580,0.832031,-0.477539,0.0776367,0
41600,0.845215,-0.453613,0.0991211,0
41620,0.860352,-0.427734,0.109375,0
41640,0.884766,-0.411621,0.106445,0
41660,0.89209,-0.401367,0.12207,0
41680,0.904785,-0.386719,0.157227,0
41700,0.907715,-0.369141,0.18457,0
41720,0.921387,-0.354004,0.184082,0
41740,0.916016,-0.341309,0.199219,0
41760,0.910645,-0.330078,0.212402,0
41780,0.904297,-0.317383,0.22168,0
41800,0.876953,-0.29834,0.232422,0
41820,0.87207,-0.297852,0.231934,0
41840,0.867676,-0.313965,0.248047,0
41860,0.82666,-0.304199,0.263184,0
41880,0.803711,-0.302734,0.288086,0
41900,0.796387,-0.315918,0.311523,0
41920,0.796387,-0.293457,0.333496,0
41940,0.799316,-0.287109,0.353027,0
41960,0.785156,-0.292969,0.35791,0
41980,0.796387,-0.314453,0.404297,0
42000,0.809082,-0.333496,0.442871,0
42020,0.803711,-0.350586,0.444824,0
42040,0.817383,-0.372559,0.435059,0
42060,0.862305,-0.376465,0.445801,0
42080,0.881348,-0.381348,0.490723,0
42100,0.805664,-0.388184,0.520508,0
42120,0.725098,-0.44873,0.537109,0
42140,0.683105,-0.490723,0.524414,0
42160,0.695801,-0.487305,0.541504,0
42180,0.653809,-0.428711,0.543457,0
42200,0.589844,-0.430176,0.522461,0
42220,0.581543,-0.47998,0.540527,0
42240,0.557129,-0.514648,0.529297,0
42260,0.523438,-0.530762,0.513184,0
42280,0.450684,-0.5625,0.51709,0
42300,0.452637,-0.587891,0.499023,0
42320,0.486816,-0.587891,0.48291,0
42340,0.495605,-0.592773,0.48291,0
42360,0.485352,-0.616699,0.476562,0
42380,0.478027,-0.637207,0.45752,0
42400,0.47998,-0.662109,0.437012,0
42420,0.484375,-0.675293,0.416992,0
42440,0.483887,-0.708496,0.428223,0
42460,0.467285,-0.722656,0.408203,0
42480,0.448242,-0.719727,0.371094,0
42500,0.424805,-0.694336,0.356934,0
42520,0.381348,-0.69043,0.34668,0
42540,0.363281,-0.722168,0.340332,0
42560,0.402344,-0.758301,0.325195,0
42580,0.435059,-0.760742,0.299316,0
42600,0.429688,-0.770996,0.285645,0
42620,0.411133,-0.772949,0.297363,0
42640,0.389648,-0.797363,0.309082,0
42660,0.393555,-0.802246,0.29541,0
42680,0.400391,-0.820312,0.287109,0
42700,0.404297,-0.847168,0.289551,0
42720,0.401367,-0.852051,0.26416,0
42740,0.400879,-0.819336,0.22998,0
42760,0.383789,-0.815918,0.226074,0
42780,0.395996,-0.841797,0.234375,0
42800,0.42334,-0.858887,0.227051,0
42820,0.437012,-0.846191,0.203613,0
42840,0.429688,-0.872559,0.202148,0
42860,0.4375,-0.887207,0.17627,0
42880,0.445312,-0.885254,0.135254,0
42900,0.445312,-0.885254,0.130859,0
42920,0.410645,-0.923828,0.163086,0
42940,0.408691,-0.900391,0.133301,0
42960,0.398438,-0.879395,0.11377,0
42980,0.390137,-0.850098,0.102539,0
43000,0.401855,-0.833008,0.120605,0
43020,0.416016,-0.834961,0.11377,0
43040,0.418457,-0.859375,0.0834961,0
43060,0.40332,-0.842285,0.0507812,0
43080,0.42627,-0.81543,0.0493164,0
43100,0.450195,-0.8125,0.081543,0
43120,0.48877,-0.84375,0.0639648,0
43140,0.527832,-0.851074,0.0244141,0
43160,0.524414,-0.810059,0.0180664,0
43180,0.499512,-0.796875,0.0405273,0
43200,0.518066,-0.831543,0.027832,0
43220,0.580566,-0.817383,0.00878906,0
43240,0.583984,-0.789551,0.00683594,0
43260,0.549316,-0.759277,0.0151367,0
43280,0.566895,-0.742188,0.00244141,0
43300,0.608398,-0.736328,-0.0151367,0
43320,0.621094,-0.693848,-0.000488281,0
43340,0.597656,-0.674805,0.00683594,0
43360,0.609863,-0.665527,-0.0244141,0
43380,0.710449,-0.655762,-0.0786133,0
43400,0.759766,-0.668945,-0.0629883,0
43420,0.73291,-0.675781,-0.0410156,0
43440,0.727539,-0.67334,-0.0546875,0
43460,0.753906,-0.650879,-0.0776367,0
43480,0.790039,-0.627441,-0.0634766,0
43500,0.82959,-0.603027,-0.0727539,0
43520,0.811523,-0.606445,-0.097168,0
43540,0.80127,-0.615234,-0.115723,0
43560,0.831055,-0.587891,-0.102051,0
43580,0.847656,-0.555664,-0.0947266,0
43600,0.865234,-0.562988,-0.111328,0
43620,0.851074,-0.551758,-0.112793,0
43640,0.802734,-0.511719,-0.115234,0
43660,0.768555,-0.503418,-0.117676,0
43680,0.786133,-0.506836,-0.121094,0
43700,0.785645,-0.512207,-0.150391,0
43720,0.799805,-0.496582,-0.144043,1001
43740,0.812012,-0.486816,-0.130371,0
43760,0.813477,-0.472168,-0.105957,0
43780,0.822266,-0.475586,-0.114746,0
43800,0.819824,-0.474121,-0.11084,0
43820,0.818848,-0.488281,-0.12207,0
43840,0.831055,-0.489746,-0.117676,0
43860,0.856445,-0.48877,-0.111328,0
43880,0.865723,-0.472168,-0.0854492,0
43900,0.857422,-0.462891,-0.0771484,0
43920,0.830566,-0.468262,-0.0732422,0
43940,0.772949,-0.487305,-0.0566406,0
43960,0.715332,-0.417969,-0.0483398,0
43970,0.660156,-0.459961,-0.130859,0
43990,0.581055,-0.454102,-0.121094,0
44010,0.487793,-0.421875,-0.0869141,0
44030,0.508789,-0.449707,-0.124512,0
44050,0.581055,-0.460938,-0.0791016,0
44070,0.552246,-0.399414,0.0180664,0
44090,0.494629,-0.377441,0.0292969,0
44110,0.526367,-0.394043,0.015625,0
44130,0.641602,-0.431152,0,0
44150,0.654297,-0.439941,0.123535,0
44170,0.663086,-0.489258,0.20459,0
44190,0.722168,-0.581543,0.208984,0
44210,0.820801,-0.65918,0.26416,0
44230,0.935547,-0.66748,0.335938,0
44250,0.952637,-0.675293,0.358887,0
44270,0.931641,-0.717773,0.354004,0
44290,0.825195,-0.724121,0.400879,0
44310,0.77832,-0.70752,0.412598,0
44330,0.759277,-0.753418,0.433105,0
44350,0.725586,-0.753418,0.473145,0
44370,0.57373,-0.71875,0.500488,0
44390,0.430176,-0.718262,0.451172,0
44410,0.39209,-0.785156,0.400879,0
44430,0.388184,-0.852539,0.441406,0
44450,0.395508,-0.843262,0.44873,0
44470,0.37793,-0.927246,0.461914,0
44490,0.363281,-0.972656,0.449219,0
44510,0.392578,-0.945801,0.437988,0
44530,0.365234,-0.939453,0.422852,0
44550,0.333984,-0.922852,0.401367,0
44570,0.313965,-0.92627,0.400391,0
44590,0.325195,-0.90918,0.407715,0
44610,0.322754,-0.904785,0.400391,0
44630,0.254395,-0.904297,0.381836,0
44650,0.216797,-0.887695,0.365723,0
44670,0.214355,-0.867676,0.366699,0
44690,0.234863,-0.878906,0.39209,0
44710,0.233887,-0.875,0.400391,0
44730,0.208984,-0.871582,0.376953,0
44750,0.226074,-0.867676,0.380859,0
44760,0.250977,-0.838379,0.376953,0
44780,0.26123,-0.823242,0.391113,0
44780,0.251953,-0.825684,0.410156,0
44800,0.23877,-0.841309,0.400879,0
44840,0.220703,-0.853516,0.402344,0
44860,0.375,-0.874512,0.374023,0
44880,0.394043,-0.878418,0.445801,0
44900,0.106934,-0.799805,0.413086,0
44930,-0.120605,-0.951172,0.660156,0
44950,0.191406,-0.968262,0.625977,0
44960,0.505371,-0.914062,0.598145,0
44980,0.387695,-0.865234,0.58252,0
45000,0.198242,-0.816895,0.40332,0
45020,0.379395,-0.858398,0.628418,0
45040,0.197266,-0.868164,0.687012,0
45060,0.536133,-0.75293,0.190918,0
45080,0.233887,-0.765625,0.219727,0
45100,-0.370117,-0.897949,0.459473,0
45130,-0.629395,-0.978516,0.589844,0
45150,-0.638184,-1,0.628906,0
45170,-0.676758,-1.03174,0.602539,1000
45180,-0.871094,-1.03809,0.476074,0
45200,-0.723145,-0.895508,0.125488,0
45220,0.786133,-0.689941,0.229004,0
45240,0.189453,-1.01465,0.641113,0
45260,0.341797,-0.664551,0.137207,0
45280,-0.303223,-1.021,0.360352,0
45300,0.955566,-0.754883,0.720703,0
45320,0.14502,-0.671875,0.108398,0
45340,-0.543457,-0.893555,-0.0341797,0
45360,-0.258301,-1.01562,0.278809,0
45380,0.155762,-0.981934,0.556641,0
45400,0.328125,-0.936523,0.691406,0
45420,0.324219,-0.961426,0.688477,0
45440,0.155273,-1.01465,0.521484,0
45470,-0.200195,-1.03906,0.179199,0
45490,-0.415527,-0.973633,-0.19873,0
45510,0.364258,-0.755859,0.231934,0
45530,0.326172,-0.84668,0.358887,0
45550,0.28418,-0.851074,0.313477,0
45570,0.280273,-0.85791,0.330566,0
45590,0.294922,-0.854492,0.32959,0
45610,0.33252,-0.837402,0.330566,0
45630,0.337891,-0.8125,0.34082,0
45650,0.367188,-0.805176,0.324707,0
45670,0.370117,-0.802734,0.3125,0
45690,0.38623,-0.786621,0.324707,0
45710,0.452637,-0.788086,0.365234,0
45730,0.494141,-0.764648,0.374512,0
45750,0.546387,-0.747559,0.29541,0
45770,0.523926,-0.734375,0.288086,0
45790,0.494629,-0.711914,0.271973,0
45810,0.494629,-0.686035,0.293457,0
45830,0.54248,-0.718262,0.276367,0
45850,0.540527,-0.692383,0.282715,0
45870,0.526367,-0.709473,0.287598,0
45890,0.564941,-0.668457,0.317871,0
45910,0.617188,-0.669434,0.32373,0
45930,0.669922,-0.658691,0.314941,0
45950,0.646973,-0.649414,0.307617,0
45970,0.60498,-0.641602,0.303223,0
45990,0.621094,-0.630371,0.29248,0
46010,0.637207,-0.626465,0.317383,0
46030,0.646484,-0.627441,0.328125,0
46050,0.656738,-0.602051,0.335938,0
46070,0.650879,-0.583984,0.344238,0
46090,0.652344,-0.572266,0.337891,0
46110,0.688965,-0.553711,0.344727,0
46130,0.685059,-0.562012,0.367188,0
46150,0.679688,-0.531738,0.381348,0
46170,0.668457,-0.526855,0.390137,0
46190,0.657227,-0.501465,0.407227,0
46210,0.666504,-0.505371,0.436035,0
46230,0.696777,-0.50293,0.461914,0
46250,0.710449,-0.500977,0.45752,0
46270,0.700684,-0.481934,0.470215,0
46290,0.668945,-0.483887,0.473145,0
46310,0.644531,-0.487305,0.483887,0
46330,0.655762,-0.48877,0.493164,0
46350,0.623535,-0.481445,0.516113,0
46370,0.558594,-0.480957,0.549805,0
46390,0.566406,-0.501465,0.555664,0
46410,0.594727,-0.506836,0.540527,0
46430,0.609863,-0.508301,0.552734,0
46450,0.59375,-0.495117,0.596191,0
46470,0.539062,-0.491699,0.609375,0
46490,0.565918,-0.532227,0.588867,0
46510,0.582031,-0.561523,0.58252,0
46530,0.578125,-0.564453,0.61377,0
46550,0.498535,-0.537598,0.646973,0
46560,0.491699,-0.536133,0.633301,0
46580,0.508789,-0.559082,0.606934,0
46600,0.512207,-0.569824,0.586914,0
46620,0.486816,-0.546875,0.609375,0
46640,0.449219,-0.543945,0.617676,0
46660,0.396973,-0.558105,0.61377,0
46680,0.359863,-0.605469,0.622559,0
46700,0.363281,-0.62793,0.602051,0
46720,0.333008,-0.621094,0.615723,0
46740,0.289062,-0.620605,0.601562,0
46760,0.233398,-0.647461,0.585938,0
46780,0.219238,-0.662598,0.588379,0
46800,0.213379,-0.614258,0.611328,0
46820,0.224121,-0.62207,0.609375,0
46820,0.228027,-0.64209,0.59082,0
46840,0.246582,-0.658203,0.571289,0
46860,0.298828,-0.659668,0.578125,0
46880,0.375,-0.698242,0.671875,0
46900,0.360352,-0.722656,0.688477,0
46920,0.0498047,-0.774902,0.739258,0
46940,0.350098,-0.697754,0.689941,0
46970,1.04932,-0.52002,0.308105,0
47000,0.842285,-0.544434,0.242188,0
47020,0.20459,-0.631348,0.290039,0
47040,-0.236328,-0.682129,0.296875,0
47060,-0.137695,-0.64209,0.243652,0
47080,0.804199,-0.543945,0.376953,0
47100,0.674316,-0.751953,0.864746,0
47120,-0.172852,-0.639648,0.231445,0
47140,0.275391,-0.825195,0.764648,0
47160,0.835938,-0.558594,0.720703,0
47180,-0.354492,-0.733887,0.146484,0
47200,-0.233887,-0.883789,0.404297,0
47220,0.509766,-0.790527,0.873047,0
47240,0.87207,-0.671387,1.04248,0
47260,0.94043,-0.628418,1.04688,0
47280,0.947754,-0.616211,1.05713,0
47300,0.922363,-0.643066,1.0874,0
47320,0.729492,-0.72998,1.03369,0
47340,0.224609,-0.876953,0.664551,0
47360,-0.333008,-0.921875,0.0219727,0
47380,-0.0893555,-0.716797,-0.0229492,0
47400,0.80957,-0.550293,0.980469,0
47400,0.269043,-0.875977,0.768555,0
47420,-0.421387,-0.901855,0.0556641,0
47440,1.11768,-0.658691,0.558105,0
47460,1.11963,-0.69043,0.589355,0
47480,1.20605,-0.59082,0.26123,0
47520,0.549316,-0.674316,0.223633,0
47540,-0.291992,-0.875,0.671387,0
47560,0.120605,-0.84668,0.563965,0
47580,0.208008,-0.799316,0.478027,0
47600,0.244629,-0.783203,0.479492,0
47620,0.26709,-0.774902,0.464355,0
47640,0.288086,-0.770996,0.461914,0
47660,0.288574,-0.77832,0.453613,0
47680,0.285645,-0.786133,0.458008,0
47700,0.306641,-0.803711,0.472168,0
47720,0.319824,-0.806641,0.475586,0
47740,0.282227,-0.78125,0.473145,0
47760,0.233398,-0.76416,0.45752,0
47780,0.23584,-0.768555,0.460938,0
47800,0.254883,-0.784668,0.429688,0
47820,0.268066,-0.796875,0.412598,0
47840,0.26709,-0.797852,0.40625,0
47860,0.26709,-0.810547,0.376953,0
47880,0.301758,-0.827637,0.375977,0
47900,0.338379,-0.834961,0.37207,0
47920,0.327148,-0.824707,0.383789,0
47940,0.287109,-0.820312,0.377441,0
47960,0.277832,-0.80127,0.38916,0
47980,0.26123,-0.802246,0.37793,0
48000,0.250977,-0.791504,0.36377,0
48020,0.227051,-0.793945,0.331055,0
48040,0.201172,-0.817383,0.289551,0
48060,0.243652,-0.890137,0.271973,0
48080,0.351074,-0.924805,0.310547,0
48100,0.421875,-0.879395,0.344727,0
48120,0.39502,-0.809082,0.358887,0
48140,0.306641,-0.766113,0.344727,0
48160,0.285156,-0.776367,0.335449,0
48180,0.314453,-0.808594,0.352539,0
48200,0.327148,-0.80127,0.347656,0
48220,0.295898,-0.786621,0.341797,0
48240,0.279297,-0.820801,0.277344,0
48260,0.361816,-0.943848,0.249512,0
48280,0.475586,-0.967285,0.289551,0
48300,0.507324,-0.891602,0.314941,0
48320,0.472656,-0.816895,0.311035,0
48340,0.426758,-0.774414,0.30957,0
48360,0.398438,-0.78418,0.282227,0
48380,0.399414,-0.786133,0.285156,0
48400,0.358398,-0.768066,0.303711,0
48420,0.352051,-0.741211,0.305664,0
48440,0.39502,-0.756836,0.296875,0
48460,0.453125,-0.827148,0.258301,0
48480,0.508789,-0.836914,0.211914,0
48500,0.540527,-0.807129,0.15918,0
48520,0.600586,-0.79834,0.186035,0
48540,0.605957,-0.71582,0.243652,0
48560,0.578613,-0.668457,0.272461,0
48580,0.562988,-0.683105,0.256836,0
48600,0.54248,-0.717773,0.235352,0
48620,0.534668,-0.742676,0.214844,0
48640,0.534668,-0.748535,0.210449,0
48660,0.499512,-0.736816,0.225098,0
48680,0.504883,-0.734375,0.222168,0
48700,0.520996,-0.748047,0.160645,0
48720,0.61084,-0.789062,0.134766,0
48740,0.662598,-0.739258,0.180176,0
48760,0.597168,-0.686523,0.205078,0
48780,0.583984,-0.671387,0.219238,0
48800,0.605957,-0.685547,0.208984,0
48820,0.626465,-0.682129,0.213379,0
48840,0.631348,-0.673828,0.194336,0
48860,0.64502,-0.663086,0.180664,0
48880,0.651367,-0.663086,0.196777,0
48900,0.678223,-0.657227,0.219727,0
48920,0.67627,-0.614746,0.202148,0
48940,0.699219,-0.649414,0.151855,0
48960,0.768066,-0.657715,0.112305,0
48980,0.802246,-0.619141,0.150879,0
49000,0.796387,-0.586426,0.178711,0
49020,0.791016,-0.583008,0.178711,0
49040,0.777832,-0.551758,0.178223,0
49060,0.770508,-0.531738,0.198242,0
49080,0.746094,-0.507812,0.20459,0
49100,0.744629,-0.496094,0.199219,0
49120,0.728516,-0.473633,0.196289,0
49140,0.751953,-0.459961,0.193848,0
49160,0.791504,-0.457031,0.217773,0
49160,0.794434,-0.45166,0.247559,0
49180,0.803223,-0.448242,0.209961,0
49200,0.885742,-0.411621,0.175781,0
49220,0.899414,-0.410645,0.216309,0
49240,0.919434,-0.394043,0.255371,0
49260,0.92627,-0.361816,0.286621,0
49280,0.900879,-0.35498,0.296387,0
49300,0.893555,-0.336426,0.323242,0
49320,0.857422,-0.341797,0.336426,0
49340,0.818359,-0.342285,0.313477,0
49360,0.830566,-0.342773,0.317383,0
49380,0.772461,-0.336914,0.341309,0
49400,0.736816,-0.331055,0.396973,0
49420,0.782227,-0.357422,0.414551,0
49440,0.875977,-0.354004,0.432617,0
49460,0.829102,-0.367188,0.450195,0
49480,0.751953,-0.352051,0.484375,0
49500,0.755859,-0.358887,0.531738,0
49520,0.771484,-0.338379,0.554199,0
49540,0.779785,-0.325684,0.576172,0
49560,0.73584,-0.300293,0.600098,0
49580,0.682617,-0.318848,0.599121,0
49600,0.665527,-0.364746,0.583984,0
49620,0.674316,-0.404297,0.573242,0
49640,0.612793,-0.388672,0.571777,0
49660,0.486816,-0.4375,0.549316,0
49680,0.435059,-0.481445,0.53418,0
49700,0.475098,-0.498047,0.584961,0
49720,0.501465,-0.5,0.570801,0
49740,0.471191,-0.550293,0.530762,0
49760,0.425781,-0.61084,0.544922,0
49780,0.411133,-0.623535,0.549805,0
49800,0.430664,-0.583008,0.54248,0
49820,0.41748,-0.598633,0.549805,0
49840,0.373535,-0.634277,0.541992,0
49860,0.354492,-0.689453,0.52002,0
49880,0.326172,-0.683594,0.481445,0
49900,0.296387,-0.70459,0.409668,0
49920,0.317871,-0.755371,0.422363,0
49940,0.347656,-0.78418,0.430176,0
49960,0.351562,-0.763672,0.42041,0
49980,0.37207,-0.781738,0.417969,0
50000,0.391113,-0.788574,0.436035,0
50020,0.403809,-0.788574,0.439453,0
50040,0.377441,-0.760254,0.45166,0
50060,0.307617,-0.765625,0.44043,0
50080,0.299805,-0.791504,0.428711,0
50100,0.268066,-0.797852,0.405273,0
50120,0.23584,-0.780762,0.338379,0
50140,0.260254,-0.823242,0.32666,0
50160,0.310059,-0.833008,0.355957,0
50180,0.283691,-0.830566,0.349609,0
50200,0.286621,-0.844238,0.348145,0
50220,0.355469,-0.858887,0.344727,0
50240,0.381348,-0.863281,0.344238,0
50260,0.382324,-0.869141,0.322754,0
50280,0.396973,-0.84082,0.319824,0
50300,0.388184,-0.831055,0.315918,0
50320,0.341309,-0.838867,0.300781,0
50340,0.299805,-0.835938,0.265625,0
50360,0.263184,-0.826172,0.223145,0
50380,0.33252,-0.866699,0.186035,0
50400,0.422852,-0.854492,0.191406,0
50420,0.361328,-0.826172,0.202148,0
50440,0.31543,-0.8125,0.127441,0
50460,0.369141,-0.811523,0.123535,0
50480,0.384766,-0.791504,0.127441,0
50500,0.359863,-0.764648,0.131836,0
50520,0.36084,-0.744629,0.105957,0
50540,0.365723,-0.754883,0.0385742,0
50560,0.461426,-0.82666,0.0112305,0
50580,0.536133,-0.80957,0.0966797,0
50600,0.538086,-0.754395,0.156738,0
50620,0.556641,-0.716797,0.193848,0
50640,0.576172,-0.683594,0.204102,0
50660,0.586914,-0.708008,0.160645,0
50680,0.585449,-0.755859,0.146484,0
50700,0.575684,-0.779785,0.167969,0
50720,0.575684,-0.745117,0.149902,0
50740,0.593262,-0.76123,0.120117,0
50760,0.65332,-0.777832,0.109375,0
50780,0.721191,-0.769043,0.108398,0
50800,0.724609,-0.695801,0.114746,0
50820,0.686523,-0.622559,0.0581055,0
50840,0.769043,-0.656738,-0.0161133,0
50860,0.864746,-0.660156,0.0908203,0
50880,0.887695,-0.609375,0.160156,0
50900,0.782715,-0.520508,0.17041,0
50920,0.750977,-0.502441,0.137207,0
50940,0.785156,-0.510254,0.125977,0
50960,0.78125,-0.507812,0.149414,0
50980,0.744141,-0.478027,0.162109,0
51000,0.768066,-0.444824,0.160156,0
51020,0.800293,-0.467285,0.140137,0
51040,0.853516,-0.496094,0.138672,0
51060,0.905762,-0.491699,0.129883,0
51080,0.931152,-0.459961,0.0927734,0
51100,0.905273,-0.423828,0.0996094,0
51120,0.896973,-0.421387,0.109375,0
51140,0.937012,-0.443359,0.090332,0
51160,0.996094,-0.419434,0.121582,0
51180,0.996582,-0.360352,0.189941,0
51200,0.909668,-0.30127,0.233887,0
51220,0.864746,-0.271484,0.211426,0
51240,0.865234,-0.279785,0.202148,0
51260,0.841309,-0.266602,0.236816,0
51280,0.795898,-0.230957,0.24707,0
51300,0.78418,-0.224121,0.225586,0
51320,0.85791,-0.273438,0.195801,0
51340,0.90625,-0.286133,0.201172,0
51360,0.914551,-0.271484,0.210938,0
51380,0.891602,-0.239746,0.199707,0
51400,0.856934,-0.232422,0.203613,0
51420,0.869629,-0.251465,0.239746,0
51440,0.887695,-0.257324,0.274414,0
51460,0.851074,-0.226562,0.272949,0
51480,0.866211,-0.197266,0.299805,0
51500,0.86377,-0.209961,0.321777,0
51520,0.856445,-0.20459,0.340332,0
51540,0.850586,-0.180176,0.359375,0
51560,0.845703,-0.166504,0.353027,0
51580,0.863281,-0.150391,0.383301,0
51600,0.872559,-0.169434,0.387695,0
51620,0.88623,-0.166016,0.419922,0
51640,0.885742,-0.172363,0.446289,0
51660,0.887695,-0.187012,0.496094,0
51680,0.900879,-0.220215,0.509277,0
51700,0.876953,-0.254883,0.503418,0
51720,0.852051,-0.271484,0.526367,0
51730,0.842285,-0.300293,0.569336,0
51750,0.82373,-0.313477,0.573242,0
51770,0.805664,-0.33252,0.575195,0
51790,0.739258,-0.338867,0.571777,0
51810,0.625,-0.313965,0.531738,0
51830,0.581543,-0.344727,0.518555,0
51850,0.581055,-0.428223,0.484375,0
51870,0.60791,-0.51416,0.473633,0
51890,0.580078,-0.535645,0.513672,0
51910,0.546387,-0.532227,0.532715,0
51930,0.537598,-0.479492,0.543945,0
51950,0.471191,-0.489746,0.550781,0
51970,0.382324,-0.531738,0.538086,0
51990,0.300781,-0.588867,0.521484,0
52010,0.254883,-0.59375,0.419434,0
52030,0.311523,-0.645508,0.356934,0
52050,0.388672,-0.72998,0.397461,0
52070,0.453125,-0.754395,0.421875,0
52090,0.437012,-0.682617,0.430176,0
52110,0.442383,-0.705078,0.42334,0
52130,0.446289,-0.784668,0.416504,0
52150,0.4375,-0.820801,0.377441,0
52170,0.413086,-0.798828,0.349121,0
52190,0.364746,-0.76123,0.359375,0
52210,0.313477,-0.788086,0.347168,0
52230,0.307617,-0.828613,0.352539,0
52250,0.336914,-0.762207,0.280762,0
52270,0.409668,-0.719238,0.230957,0
52290,0.375,-0.816895,0.26123,0
52310,0.320312,-0.908203,0.280273,0
52330,0.39502,-0.918457,0.230469,0
52350,0.430664,-0.874023,0.20752,0
52370,0.408203,-0.879883,0.222168,0
52390,0.405762,-0.84082,0.212891,0
52410,0.388672,-0.84668,0.20166,0
52430,0.377441,-0.864746,0.187988,0
52450,0.438477,-0.835449,0.13623,0
52470,0.40625,-0.805176,0.100586,0
52490,0.343262,-0.830078,0.0986328,0
52510,0.342285,-0.859375,0.0986328,0
52530,0.400879,-0.858398,0.0825195,0
52550,0.445801,-0.799316,0.0717773,0
52570,0.435059,-0.781738,0.0737305,0
52590,0.427734,-0.847656,0.0576172,0
52610,0.458008,-0.864746,0.012207,0
52630,0.516602,-0.867676,0.0136719,0
52650,0.552246,-0.822754,0.0463867,0
52670,0.548828,-0.800293,0.0625,0
52690,0.552734,-0.785156,0.0527344,0
52710,0.631836,-0.791504,0.0268555,0
52730,0.692383,-0.750488,0.0454102,0
52750,0.64502,-0.697754,0.0605469,0
52770,0.619629,-0.702637,0.0473633,0
52790,0.616699,-0.767578,0.027832,0
52810,0.668945,-0.768555,0.0224609,0
52830,0.705078,-0.681152,0.00292969,0
52850,0.695801,-0.661621,-0.0244141,0
52870,0.665527,-0.691406,-0.0175781,0
52890,0.656738,-0.704102,-0.0307617,0
52910,0.681152,-0.657715,-0.0273438,0
52930,0.697266,-0.623535,-0.0375977,0
52950,0.688965,-0.612305,-0.0263672,0
52970,0.675293,-0.611328,-0.0214844,0
52990,0.6875,-0.575195,-0.0200195,0
53010,0.726562,-0.55957,-0.0175781,0
53030,0.782715,-0.54248,-0.0576172,0
53050,0.763184,-0.549316,-0.0517578,0
53070,0.778809,-0.534668,-0.0478516,0
53090,0.81543,-0.516113,-0.0869141,0
53110,0.81543,-0.507812,-0.118164,0
53130,0.830078,-0.541016,-0.104492,0
53150,0.891602,-0.541992,-0.0996094,1001
53170,0.902344,-0.509277,-0.0825195,0
53190,0.879395,-0.44873,-0.0678711,0
53210,0.895996,-0.455566,-0.123535,0
53230,0.92041,-0.481445,-0.130371,0
53250,0.915527,-0.477051,-0.0834961,0
53270,0.860352,-0.438477,-0.0698242,0
53290,0.836426,-0.445312,-0.078125,0
53310,0.866699,-0.458008,-0.0717773,0
53330,0.892578,-0.457031,-0.0537109,0
53350,0.870117,-0.444824,-0.0625,0
53370,0.833008,-0.442871,-0.0332031,0
53390,0.814453,-0.455078,-0.0170898,0
53410,0.836914,-0.455566,-0.0317383,0
53430,0.841309,-0.459473,-0.0419922,0
53450,0.797363,-0.454102,-0.034668,0
53470,0.754395,-0.466797,-0.0512695,0
53490,0.769043,-0.519531,-0.0512695,0
53510,0.752441,-0.511719,-0.0336914,0
53530,0.730469,-0.481934,0.00244141,0
53550,0.674805,-0.432617,0.0322266,0
53570,0.634277,-0.398926,0.0415039,0
53590,0.655762,-0.407227,0.00927734,0
53610,0.685547,-0.42041,0.0253906,0
53630,0.700195,-0.394043,0.0771484,0
53650,0.639648,-0.38623,0.105469,0
53670,0.584961,-0.416992,0.0981445,0
53690,0.65332,-0.459473,0.0493164,0
53710,0.731445,-0.456055,0.090332,0
53730,0.763672,-0.414062,0.160156,0
53750,0.71875,-0.410156,0.180176,0
53770,0.769043,-0.44873,0.176758,0
53790,0.876953,-0.501953,0.178223,0
53810,0.888672,-0.549316,0.200684,0
53830,0.838379,-0.646973,0.208984,0
53850,0.84082,-0.753418,0.208496,0
53870,0.82666,-0.802246,0.262695,0
53890,0.691895,-0.809082,0.27832,0
53910,0.632324,-0.746094,0.29248,0
53930,0.663574,-0.797363,0.275391,0
53950,0.647949,-0.82666,0.303711,0
53970,0.584961,-0.938477,0.32666,0
53990,0.549805,-0.957031,0.280762,0
54010,0.521484,-0.956055,0.257812,0
54030,0.512695,-0.978516,0.30127,0
54050,0.44873,-0.935059,0.311035,0
54070,0.359375,-0.922363,0.294434,0
54090,0.326172,-0.945801,0.303711,0
54110,0.307129,-0.938965,0.356934,0
54130,0.292969,-0.931641,0.362793,0
54130,0.260254,-0.921875,0.343262,0
54150,0.206055,-0.905762,0.341309,0
54170,0.214355,-0.899902,0.320312,0
54170,0.246582,-0.873047,0.308105,0
54190,0.290039,-0.853516,0.331055,0
54210,0.262207,-0.870117,0.308594,0
54230,0.421387,-0.933594,0.494141,0
54250,0.268555,-0.958984,0.601562,0
54270,0.527832,-0.807617,0.0766602,0
54310,0.123535,-0.793945,0.194336,0
54330,-0.369141,-0.937988,0.426758,0
54350,-0.571289,-1.01709,0.521484,0
54370,-0.666504,-1.03467,0.504883,0
54390,-0.821289,-1.02246,0.397461,0
54410,-0.759766,-0.91748,0.115234,0
54430,0.297363,-0.717773,-0.0102539,0
54460,1.12305,-0.879883,0.662109,0
54480,-0.556152,-0.947754,0.00830078,0
54500,0.987305,-0.878906,0.716797,0
54520,0.0732422,-0.749512,-0.0195312,0
54540,-0.354004,-1.06885,0.164551,0
54560,0.648438,-0.956543,0.729004,0
54580,0.939453,-0.713867,0.69043,1000
54600,0.661133,-0.67041,0.418945,0
54620,0.434082,-0.700195,0.217285,0
54640,0.375488,-0.724609,0.213379,0
54660,0.518555,-0.675781,0.391602,0
54680,0.765137,-0.683594,0.711426,0
54700,0.806152,-0.800293,0.924316,0
54720,0.240234,-0.994141,0.538574,0
54740,-0.431641,-1.03271,-0.262207,0
54760,0.208496,-0.727539,0.12793,0
54780,0.774414,-0.766113,0.988281,0
54800,-0.322754,-1.03564,-0.220703,0
54820,-0.333008,-0.901367,0.375488,0
54840,0.0151367,-0.849121,0.102539,0
54860,0.311523,-0.883789,0.266113,0
54880,0.349609,-0.871094,0.27002,0
54900,0.359863,-0.86377,0.262695,0
54920,0.32959,-0.845703,0.286133,0
54940,0.32959,-0.820312,0.294922,0
54960,0.357422,-0.841797,0.303223,0
54980,0.387207,-0.838379,0.302734,0
55000,0.394531,-0.818359,0.270508,0
55020,0.395996,-0.771484,0.274414,0
55040,0.414062,-0.784668,0.274414,0
55060,0.463867,-0.799316,0.285645,0
55080,0.456055,-0.791992,0.282715,0
55100,0.501953,-0.786133,0.262207,0
55120,0.501465,-0.756836,0.210938,0
55140,0.500977,-0.740723,0.23291,0
55160,0.548828,-0.743164,0.217285,0
55180,0.549316,-0.74707,0.248047,0
55200,0.52002,-0.731934,0.269043,0
55220,0.539062,-0.722656,0.23877,0
55240,0.568848,-0.704102,0.244141,0
55260,0.585938,-0.714355,0.251465,0
55280,0.571289,-0.683594,0.276367,0
55300,0.583984,-0.65918,0.270996,0
55320,0.614258,-0.637695,0.22998,0
55340,0.634277,-0.643066,0.243164,0
55360,0.659668,-0.631348,0.259277,0
55380,0.708496,-0.625977,0.265137,0
55400,0.702637,-0.611816,0.291016,0
55420,0.697266,-0.57959,0.291504,0
55440,0.717773,-0.561035,0.293945,0
55460,0.732422,-0.556152,0.334961,0
55480,0.731934,-0.526367,0.381836,0
55500,0.740723,-0.507324,0.399414,0
55520,0.759277,-0.472168,0.405273,0
55540,0.750977,-0.47168,0.404785,0
55560,0.689941,-0.456543,0.433594,0
55580,0.708496,-0.45752,0.469727,0
55600,0.770996,-0.461914,0.489746,0
55620,0.714355,-0.450195,0.528809,0
55640,0.695312,-0.420898,0.569336,0
55660,0.640137,-0.438477,0.564453,0
55680,0.65625,-0.462891,0.586914,0
55700,0.685059,-0.469727,0.635742,0
55720,0.651367,-0.470215,0.628906,0
55740,0.609863,-0.487793,0.61377,0
55760,0.60791,-0.498047,0.605469,0
55780,0.609375,-0.493164,0.593262,0
55800,0.580078,-0.461914,0.618164,0
55820,0.503418,-0.450195,0.650391,0
55840,0.468262,-0.441406,0.638184,0
55860,0.49707,-0.500977,0.632812,0
55880,0.494141,-0.54248,0.661621,0
55900,0.458008,-0.544434,0.671875,0
55920,0.427734,-0.537598,0.634277,0
55940,0.412109,-0.547852,0.642578,0
55960,0.411133,-0.575195,0.651855,0
55980,0.367188,-0.607422,0.618652,0
56000,0.317871,-0.624512,0.617188,0
56020,0.274902,-0.650391,0.612305,0
56040,0.298828,-0.654297,0.613281,0
56060,0.326172,-0.666016,0.599121,0
56080,0.277344,-0.676758,0.582031,0
56100,0.226562,-0.681152,0.572754,0
56120,0.202637,-0.679199,0.566895,0
56140,0.190918,-0.678223,0.532227,0
56160,0.183594,-0.705566,0.5,0
56180,0.179199,-0.722168,0.529297,0
56200,0.178223,-0.716309,0.522461,0
56210,0.172363,-0.723145,0.518066,0
56250,0.188477,-0.72168,0.508301,0
56250,0.217773,-0.720215,0.516602,0
56260,0.222656,-0.723633,0.583008,0
56290,0.306152,-0.769531,0.665527,0
56310,0.0209961,-0.795898,0.693359,0
56330,0.448242,-0.648438,0.49707,0
56350,0.758301,-0.590332,0.14209,0
56370,0.0776367,-0.747559,0.244629,0
56390,-0.643066,-0.86084,0.405273,0
56410,-1.03271,-0.921387,0.47998,0
56430,-1.16162,-0.921875,0.421387,0
56460,-0.888184,-0.845215,0.218262,0
56480,0.601562,-0.655273,0.32666,0
56500,0.485352,-0.864746,0.692383,0
56520,0.338867,-0.774414,0.480469,0
56540,0.246582,-0.825195,0.443848,0
56560,0.231445,-0.797363,0.46875,0
56580,0.228027,-0.782227,0.438477,0
56600,0.219727,-0.756348,0.436035,0
56620,0.20752,-0.776855,0.447754,0
56640,0.222656,-0.801758,0.43457,0
56660,0.252441,-0.834961,0.411621,0
56680,0.262695,-0.826172,0.409668,0
56700,0.279297,-0.824707,0.408691,0
56720,0.302246,-0.822754,0.411621,0
56740,0.317383,-0.84668,0.389648,0
56760,0.300293,-0.842285,0.359375,0
56780,0.301758,-0.837891,0.368652,0
56800,0.326172,-0.823242,0.35791,0
56820,0.340332,-0.814941,0.322754,0
56840,0.324219,-0.833984,0.292969,0
56860,0.303711,-0.851562,0.290527,0
56880,0.306152,-0.861328,0.286621,0
56900,0.336426,-0.839844,0.269043,0
56920,0.348145,-0.833008,0.277344,0
56940,0.347656,-0.839844,0.283203,0
56950,0.368164,-0.836914,0.291504,0
56970,0.433105,-0.841309,0.279297,0
56990,0.461914,-0.812988,0.269043,0
57010,0.450195,-0.802246,0.258301,0
57030,0.441406,-0.796875,0.248047,0
57050,0.436035,-0.804199,0.239746,0
57070,0.461426,-0.809082,0.219727,0
57090,0.487305,-0.813965,0.209473,0
57110,0.478027,-0.782227,0.196777,0
57130,0.464355,-0.772949,0.194824,0
57150,0.486816,-0.749023,0.217773,0
57170,0.552246,-0.742676,0.208984,0
57190,0.581055,-0.731934,0.20459,0
57210,0.557129,-0.727051,0.176758,0
57230,0.559082,-0.740234,0.162109,0
57250,0.563477,-0.724121,0.17334,0
57270,0.614258,-0.733887,0.16748,0
57290,0.628906,-0.737793,0.157227,0
57310,0.600586,-0.723145,0.125,0
57330,0.591797,-0.70166,0.126953,0
57350,0.624023,-0.699219,0.13916,0
57370,0.687012,-0.69873,0.147949,0
57390,0.711426,-0.674805,0.143066,0
57410,0.745117,-0.669922,0.123047,0
57430,0.734375,-0.654297,0.105469,0
57450,0.734375,-0.61084,0.111328,0
57470,0.797363,-0.599121,0.128418,0
57490,0.797852,-0.584961,0.146484,0
57510,0.740234,-0.541016,0.157227,0
57530,0.759766,-0.528809,0.143555,0
57550,0.786621,-0.524902,0.151367,0
57570,0.791992,-0.526855,0.168457,0
57590,0.785645,-0.507812,0.178223,0
57610,0.780762,-0.503906,0.178223,0
57630,0.806641,-0.509766,0.192383,0
57650,0.817871,-0.48877,0.179199,0
57670,0.820312,-0.478027,0.180176,0
57690,0.829102,-0.463379,0.208984,0
57710,0.838379,-0.435547,0.205566,0
57730,0.833008,-0.418457,0.206055,0
57750,0.849121,-0.416504,0.207031,0
57770,0.87207,-0.40332,0.220703,0
57790,0.861816,-0.388184,0.233398,0
57810,0.834961,-0.387695,0.23877,0
57830,0.830078,-0.37793,0.243652,0
57850,0.814453,-0.380859,0.26416,0
57870,0.811523,-0.38623,0.260742,0
57890,0.819336,-0.362305,0.277832,0
57910,0.831055,-0.356445,0.289062,0
57930,0.849121,-0.342285,0.299805,0
57950,0.867188,-0.342285,0.294434,0
57970,0.848633,-0.335449,0.314453,0
57990,0.853516,-0.321777,0.358398,0
58010,0.861816,-0.312988,0.378906,0
58030,0.847656,-0.327637,0.391602,0
58050,0.82959,-0.323242,0.385742,0
58070,0.803711,-0.318848,0.403809,0
58090,0.799805,-0.32959,0.41748,0
58110,0.787598,-0.336426,0.438965,0
58130,0.741699,-0.345215,0.452148,0
58150,0.742676,-0.376953,0.456055,0
58170,0.758789,-0.405762,0.442871,0
58190,0.786133,-0.416504,0.453125,0
58210,0.712891,-0.395508,0.481445,0
58230,0.662109,-0.407715,0.491699,0
58250,0.634277,-0.484863,0.495605,0
58270,0.601074,-0.534668,0.52002,0
58290,0.591309,-0.553711,0.49707,0
58310,0.591797,-0.529785,0.503906,0
58330,0.530273,-0.516602,0.501465,0
58350,0.473145,-0.564453,0.515625,0
58370,0.470215,-0.616211,0.532227,0
58390,0.48584,-0.638672,0.510742,0
58410,0.472168,-0.611328,0.501953,0
58430,0.401367,-0.633789,0.501953,0
58450,0.384277,-0.678223,0.507324,0
58470,0.385742,-0.68457,0.487793,0
58490,0.36084,-0.678711,0.461426,0
58510,0.366211,-0.678223,0.482422,0
58530,0.36377,-0.695801,0.478516,0
58550,0.32959,-0.705566,0.463379,0
58570,0.319824,-0.724121,0.467773,0
58590,0.342773,-0.729004,0.455078,0
58610,0.349609,-0.736328,0.437012,0
58630,0.333984,-0.743652,0.428711,0
58650,0.325195,-0.756836,0.416992,0
58670,0.337891,-0.75,0.415039,0
58690,0.349609,-0.75,0.409668,0
58710,0.342285,-0.762695,0.402344,0
58730,0.378906,-0.776367,0.403809,0
58750,0.412109,-0.774414,0.410156,0
58770,0.383301,-0.752441,0.399414,0
58790,0.353027,-0.766602,0.388184,0
58810,0.371094,-0.786621,0.378418,0
58830,0.39209,-0.812988,0.373535,0
58850,0.38916,-0.8125,0.384766,0
58870,0.376953,-0.793945,0.371582,0
58890,0.378418,-0.786621,0.365234,0
58910,0.386719,-0.804199,0.365234,0
58930,0.365234,-0.806641,0.342773,0
58950,0.351562,-0.8125,0.332031,0
58970,0.346191,-0.807617,0.337891,0
58990,0.34668,-0.808105,0.331055,0
59010,0.339844,-0.810547,0.334961,0
59030,0.309082,-0.830566,0.327148,0
59050,0.300293,-0.85498,0.310059,0
59070,0.32373,-0.870605,0.293457,0
59090,0.318848,-0.865723,0.28418,0
59110,0.300781,-0.870117,0.273438,0
59130,0.302734,-0.856445,0.261719,0
59150,0.326172,-0.849609,0.252441,0
59170,0.327637,-0.874512,0.231934,0
59190,0.333008,-0.908691,0.220703,0
59210,0.364258,-0.903809,0.189453,0
59230,0.346191,-0.891113,0.187988,0
59250,0.306152,-0.908691,0.176758,0
59270,0.304199,-0.934082,0.165039,0
59290,0.375977,-0.908203,0.152344,0
59310,0.377441,-0.851562,0.150879,0
59330,0.333496,-0.840332,0.154785,0
59350,0.308105,-0.85791,0.133789,0
59370,0.342773,-0.862793,0.0952148,0
59390,0.380371,-0.869141,0.0756836,0
59410,0.376465,-0.85498,0.081543,0
59430,0.385742,-0.85791,0.0888672,0
59450,0.428223,-0.834961,0.0888672,0
59470,0.466309,-0.802246,0.0805664,0
59490,0.488281,-0.783691,0.0625,0
59510,0.503418,-0.787598,0.0576172,0
59530,0.54248,-0.780273,0.0458984,0
59540,0.575684,-0.779785,0.0273438,0
59560,0.583008,-0.758301,0.0146484,0
59580,0.587402,-0.746094,0.0234375,0
59600,0.62207,-0.742676,0.0292969,0
59620,0.639648,-0.714844,0.00488281,0
59640,0.674805,-0.719238,-0.00146484,0
59660,0.684082,-0.699707,0.000976562,0
59680,0.699219,-0.675781,-0.0180664,0
59700,0.717285,-0.67627,-0.0385742,0
59720,0.719727,-0.666992,-0.0112305,0
59740,0.766602,-0.652832,-0.000488281,0
59760,0.79834,-0.628418,-0.0273438,0
59780,0.828125,-0.61377,-0.0634766,0
59800,0.859863,-0.570801,-0.0605469,0
59820,0.830566,-0.545898,-0.0439453,0
59840,0.84082,-0.516602,-0.0449219,0
59860,0.837402,-0.492676,-0.0385742,0
59880,0.830566,-0.441406,-0.0483398,0
59900,0.844238,-0.398438,-0.0756836,0
59920,0.859375,-0.390625,-0.0732422,0
59940,0.928223,-0.374512,-0.0800781,0
59960,0.916992,-0.348145,-0.0913086,0
59980,0.904297,-0.325195,-0.0908203,0
60000,0.906738,-0.3125,-0.0864258,0
60020,0.924316,-0.301758,-0.0791016,0
60040,0.949219,-0.278809,-0.0639648,0
60060,0.956055,-0.269043,-0.0537109,0
60080,0.956543,-0.255371,-0.0454102,0
60100,0.952148,-0.251465,-0.00732422,0
60120,0.945801,-0.246094,0.0283203,0
60140,0.96582,-0.236816,0.0576172,0
60160,0.987305,-0.23877,0.0742188,0
60180,1.00439,-0.25293,0.105957,0
60200,0.985352,-0.249023,0.171875,0
60220,0.972656,-0.270508,0.208496,0
60240,0.974121,-0.282715,0.230469,0
60260,0.926758,-0.287598,0.269043,0
60280,0.889648,-0.315918,0.311035,0
60300,0.902344,-0.333008,0.330566,0
60320,0.881348,-0.324219,0.327637,0
60340,0.85498,-0.380859,0.384277,0
60360,0.803223,-0.418945,0.400391,0
60380,0.748047,-0.392578,0.419922,0
60400,0.769531,-0.386719,0.435059,0
60420,0.745117,-0.421875,0.44873,0
60440,0.677246,-0.45752,0.467285,0
60460,0.634277,-0.500488,0.491211,0
60480,0.63623,-0.520508,0.507324,0
60500,0.598145,-0.51416,0.48877,0
60520,0.523438,-0.550781,0.478516,0
60540,0.476074,-0.59668,0.486328,0
60560,0.498047,-0.604004,0.478027,0
60580,0.481934,-0.597168,0.453125,0
60600,0.422363,-0.625488,0.455566,0
60620,0.389648,-0.671387,0.486328,0
60640,0.382812,-0.71582,0.453613,0
60660,0.403809,-0.713867,0.397461,0
60680,0.395996,-0.715332,0.390625,0
60700,0.383301,-0.757812,0.368652,0
60720,0.407715,-0.752441,0.354004,0
60740,0.395508,-0.777344,0.332031,0
60760,0.38623,-0.753418,0.34375,0
60780,0.358398,-0.78125,0.378418,0
60800,0.353516,-0.821777,0.375977,0
60820,0.384277,-0.846191,0.354492,0
60840,0.394043,-0.837402,0.335938,0
60860,0.386719,-0.81543,0.325684,0
60880,0.374023,-0.830566,0.320312,0
60900,0.36377,-0.844238,0.296875,0
60920,0.370117,-0.834473,0.265137,0
60940,0.371094,-0.833496,0.256836,0
60960,0.35498,-0.857422,0.239258,0
60980,0.362793,-0.837402,0.20752,0
61000,0.351562,-0.79834,0.149414,0
61020,0.358887,-0.820801,0.129883,0
61040,0.362305,-0.910156,0.134766,0
61060,0.352051,-0.931152,0.108887,0
61080,0.353027,-0.908691,0.0605469,0
61100,0.364746,-0.910156,0.0209961,0
61120,0.375,-0.912598,0.00830078,0
61140,0.358887,-0.924805,0.00927734,0
61160,0.369629,-0.890625,-0.050293,0
61180,0.367188,-0.874023,-0.0825195,0
61200,0.369141,-0.921875,-0.0737305,0
61220,0.373047,-0.907715,-0.116211,0
61240,0.399902,-0.905762,-0.155273,0
61260,0.383301,-0.876953,-0.134277,0
61280,0.34375,-0.880859,-0.136719,0
61300,0.340332,-0.882324,-0.161133,0
61320,0.341797,-0.924316,-0.186035,0
61340,0.380371,-0.929688,-0.202148,0
61360,0.42334,-0.904297,-0.222168,0
61380,0.407227,-0.859863,-0.203613,0
61400,0.381348,-0.829102,-0.168945,0
61420,0.405762,-0.807617,-0.14209,0
61440,0.447754,-0.834961,-0.148926,0
61460,0.490723,-0.835938,-0.138672,0
61480,0.537109,-0.855469,-0.153809,0
61500,0.562012,-0.852051,-0.138672,0
61520,0.549805,-0.835449,-0.135254,0
61540,0.550781,-0.804688,-0.175293,0
61560,0.557617,-0.779785,-0.158203,0
61580,0.577148,-0.775879,-0.149414,0
61600,0.605957,-0.768555,-0.149902,0
61620,0.594727,-0.741211,-0.154297,0
61640,0.564941,-0.746582,-0.146973,0
61660,0.61377,-0.739258,-0.154297,0
61680,0.640625,-0.732422,-0.160156,0
61700,0.644531,-0.738281,-0.165039,0
61720,0.657715,-0.708008,-0.152832,0
61740,0.648438,-0.705078,-0.144531,0
61760,0.654297,-0.71582,-0.154785,0
61780,0.708496,-0.73584,-0.174316,0
61800,0.737793,-0.716797,-0.177734,0
61820,0.705078,-0.677246,-0.171387,0
61840,0.685059,-0.667969,-0.155273,0
61860,0.742188,-0.672363,-0.137695,0
61880,0.804199,-0.655762,-0.164062,0
61900,0.802246,-0.625488,-0.164062,0
61920,0.769531,-0.602539,-0.135742,0
61940,0.771484,-0.580566,-0.129395,0
61960,0.79834,-0.558105,-0.123047,0
61980,0.834473,-0.553223,-0.131348,0
62000,0.838379,-0.567383,-0.121094,0
62020,0.831055,-0.53125,-0.116699,1001
62040,0.810059,-0.527832,-0.128418,0
62060,0.814453,-0.493652,-0.144043,0
62080,0.821289,-0.483398,-0.175781,0
62100,0.806641,-0.48291,-0.179199,0
62120,0.791504,-0.498047,-0.168945,0
62130,0.773926,-0.51709,-0.166504,0
62150,0.749023,-0.530762,-0.150879,0
62170,0.745605,-0.538086,-0.148438,0
62190,0.76416,-0.553711,-0.151855,0
62210,0.773926,-0.551758,-0.137695,0
62230,0.777344,-0.547852,-0.137207,0
62250,0.804688,-0.562012,-0.134766,0
62270,0.782715,-0.57666,-0.114258,0
62290,0.762695,-0.547363,-0.0961914,0
62310,0.748535,-0.527344,-0.127441,0
62330,0.70752,-0.575195,-0.125977,0
62350,0.700684,-0.583008,-0.146973,0
62370,0.678711,-0.577637,-0.125,0
62390,0.683105,-0.59375,-0.107422,0
62410,0.658691,-0.527832,-0.0424805,0
62430,0.631836,-0.455566,-0.0712891,0
62450,0.695801,-0.422852,-0.115234,0
62470,0.72168,-0.389648,-0.0556641,0
62490,0.708496,-0.400879,-0.0512695,0
62510,0.770508,-0.452148,-0.112793,0
62530,0.798828,-0.453613,-0.0375977,0
62550,0.783691,-0.442871,-0.00341797,0
62570,0.79834,-0.45166,-0.0473633,0
62590,0.840332,-0.493652,-0.0922852,0
62610,0.835449,-0.499512,-0.0620117,0
62630,0.81543,-0.518066,-0.0527344,0
62650,0.827148,-0.560059,-0.0527344,0
62670,0.894531,-0.647461,-0.0615234,0
62690,0.865234,-0.69873,-0.00488281,0
62710,0.744629,-0.683105,0.0629883,0
62730,0.681641,-0.726562,0.0380859,0
62750,0.677246,-0.774902,0.0478516,0
62770,0.678223,-0.83252,0.081543,0
62790,0.641602,-0.871094,0.111816,0
62810,0.538574,-0.831055,0.132812,0
62830,0.475586,-0.938965,0.164062,0
62850,0.458496,-0.975586,0.161621,0
62870,0.457031,-1,0.149414,0
62890,0.42627,-0.998047,0.161621,0
62910,0.382324,-1.01221,0.154297,0
62930,0.374023,-0.995605,0.126953,0
62950,0.375488,-0.994141,0.107422,0
62950,0.352051,-0.958008,0.126465,0
62970,0.304199,-0.944336,0.139648,0
62990,0.255859,-0.956543,0.15625,0
62990,0.218262,-0.975586,0.13916,0
63010,0.23584,-0.965332,0.11084,0
63030,0.245117,-0.963867,0.141602,0
63050,0.258301,-0.941895,0.151855,1000
63050,0.234375,-0.957031,0.153809,0
63070,0.213867,-0.953613,0.124512,0
63090,0.24707,-0.961914,0.133789,0
63110,0.290527,-0.963379,0.271973,0
63130,0.333008,-1.03467,0.451172,0
63150,0.161621,-0.934082,0.0654297,0
63170,-0.0395508,-1.08545,0.435547,0
63190,0.424316,-1.00488,0.351562,0
63220,0.89209,-0.905273,0.249023,0
63250,1.12012,-0.871582,0.215332,0
63270,1.13379,-0.90625,0.273438,0
63290,0.859375,-1.0083,0.443848,0
63330,-0.0717773,-1.14648,0.445801,0
63370,-0.742188,-0.999512,-0.112793,0
63390,1.00293,-0.780273,0.265137,0
63410,0.015625,-1.07764,0.447754,0
63410,0.210449,-0.961426,0.312012,0
63430,0.205078,-0.925781,0.191406,0
63450,0.226562,-0.927734,0.17041,0
63470,0.065918,-0.875977,0.125488,0
63490,0.106934,-0.84375,0.0185547,0
63530,0.263672,-1.0166,0.325195,0
63550,0.648926,-0.802734,-0.0551758,0
63570,0.381836,-0.823242,-0.100098,0
63590,-0.114258,-0.956543,-0.0283203,0
63610,-0.433105,-1.01416,0.0439453,0
63630,-0.48584,-0.947266,-0.00244141,0
63650,-0.0185547,-0.849609,-0.09375,0
63670,1.0415,-0.769043,0.15918,0
63690,0.0107422,-1.03076,0.412598,0
63710,0.322754,-0.760254,-0.0288086,0
63730,0.652832,-0.928223,0.159668,0
63750,0.262207,-0.933105,0.138184,0
63770,0.260254,-0.920898,0.179199,0
63790,0.291016,-0.898926,0.174316,0
63810,0.287109,-0.875,0.16748,0
63830,0.302734,-0.888672,0.150879,0
63850,0.294434,-0.889648,0.144531,0
63870,0.3125,-0.883789,0.130859,0
63890,0.35498,-0.890625,0.138672,0
63910,0.348633,-0.878418,0.142578,0
63930,0.336914,-0.88623,0.151855,0
63950,0.373047,-0.934082,0.171387,0
63970,0.385742,-0.899414,0.147949,0
63990,0.35791,-0.863281,0.113281,0
64010,0.32666,-0.820312,0.078125,0
64030,0.353027,-0.797363,0.0913086,0
64050,0.42041,-0.8125,0.110352,0
64070,0.489746,-0.833496,0.117188,0
64090,0.512207,-0.837891,0.117188,0
64110,0.470215,-0.811035,0.0688477,0
64130,0.486328,-0.8125,0.0605469,0
64150,0.543945,-0.790039,0.0869141,0
64170,0.515137,-0.767578,0.0986328,0
64190,0.544434,-0.743652,0.119141,0
64210,0.553223,-0.731934,0.111328,0
64230,0.587891,-0.756348,0.090332,0
64250,0.595215,-0.732422,0.125977,0
64270,0.619629,-0.709961,0.158691,0
64290,0.611816,-0.692383,0.153809,0
64310,0.64502,-0.69043,0.129883,0
64330,0.680664,-0.697266,0.138672,0
64350,0.692383,-0.662109,0.149902,0
64370,0.703125,-0.648926,0.168457,0
64390,0.739746,-0.666504,0.182129,0
64410,0.762207,-0.65625,0.200684,0
64430,0.800293,-0.647949,0.213379,0
64450,0.81543,-0.64502,0.212891,0
64470,0.802734,-0.633301,0.21875,0
64490,0.808105,-0.612793,0.231934,0
64510,0.811035,-0.584961,0.259766,0
64530,0.800781,-0.580566,0.263672,0
64550,0.785156,-0.57373,0.265625,0
64570,0.787109,-0.596191,0.29834,0
64590,0.815918,-0.597168,0.325684,0
64610,0.734375,-0.588379,0.352539,0
64630,0.617676,-0.571289,0.371582,0
64650,0.615723,-0.591797,0.421387,0
64670,0.628906,-0.586914,0.438965,0
64690,0.654785,-0.584473,0.453613,0
64710,0.578125,-0.558105,0.466797,0
64730,0.538086,-0.570312,0.48291,0
64740,0.556152,-0.591309,0.496582,0
64760,0.551758,-0.611328,0.495117,0
64780,0.505371,-0.598145,0.506836,0
64800,0.500977,-0.607422,0.527344,0
64820,0.527832,-0.615234,0.550293,0
64840,0.519531,-0.606934,0.555176,0
64860,0.493164,-0.597656,0.530273,0
64880,0.427246,-0.618164,0.586426,0
64900,0.371582,-0.671875,0.61084,0
64920,0.393555,-0.678711,0.582031,0
64940,0.409668,-0.659668,0.533691,0
64960,0.375,-0.660156,0.556152,0
64980,0.339355,-0.686523,0.563965,0
65000,0.353516,-0.703125,0.532715,0
65020,0.362793,-0.708008,0.52002,0
65040,0.341309,-0.722168,0.517578,0
65060,0.310059,-0.731934,0.52832,0
65080,0.271973,-0.759277,0.504395,0
65100,0.272461,-0.758301,0.489746,0
65120,0.254883,-0.768066,0.478027,0
65140,0.249512,-0.75,0.447754,0
65160,0.247559,-0.744141,0.464844,0
65180,0.237305,-0.747559,0.468262,0
65200,0.22168,-0.739258,0.459473,0
65220,0.19043,-0.746582,0.456055,0
65240,0.174805,-0.749512,0.466797,0
65260,0.148926,-0.770508,0.464355,0
65280,0.139648,-0.79834,0.453125,0
65300,0.14209,-0.804199,0.4375,0
65320,0.137695,-0.808594,0.41748,0
65340,0.114258,-0.805176,0.436035,0
65360,0.0830078,-0.815918,0.446289,0
65380,0.0849609,-0.80957,0.427246,0
65390,0.119141,-0.824219,0.416016,0
65410,0.131836,-0.825684,0.426758,0
65430,0.151855,-0.837891,0.426758,0
65450,0.0732422,-0.846191,0.529785,0
65470,-0.00976562,-0.916992,0.521973,0
65490,0.42334,-0.748535,0.13623,0
65510,0.114746,-0.891602,0.218262,0
65530,-0.621094,-1.03125,0.565918,0
65550,-0.670898,-1.03662,0.682617,0
65570,-0.330078,-1.0166,0.702148,0
65590,0.127441,-0.831543,0.212891,0
65620,0.376465,-0.884766,0.367676,0
65630,0.274902,-0.881836,0.315918,0
65650,0.205566,-0.877441,0.316895,0
65670,0.202148,-0.878906,0.305664,0
65670,0.232422,-0.883789,0.308594,0
65690,0.242188,-0.902344,0.28418,0
65710,0.253906,-0.897461,0.252441,0
65730,0.26416,-0.876465,0.244629,0
65730,0.273926,-0.869629,0.25,0
65750,0.285645,-0.864746,0.259766,0
65800,0.319336,-0.865723,0.242676,0
65840,0.343262,-0.84082,0.221191,0
65860,0.344727,-0.837402,0.200195,0
65880,0.329102,-0.838867,0.205566,0
65900,0.333008,-0.850098,0.196777,0
65920,0.353027,-0.862305,0.191895,0
65940,0.352051,-0.864258,0.178223,0
65960,0.355957,-0.853027,0.185547,0
65980,0.371582,-0.829102,0.193359,0
66000,0.408203,-0.82666,0.190918,0
66020,0.430664,-0.841797,0.184082,0
66040,0.459473,-0.84082,0.186035,0
66060,0.466797,-0.823242,0.179199,0
66080,0.466309,-0.797852,0.169434,0
66100,0.491699,-0.811035,0.167969,0
66120,0.526855,-0.805664,0.147949,0
66140,0.567383,-0.796387,0.130859,0
66160,0.556152,-0.785645,0.145996,0
66180,0.562988,-0.782227,0.137207,0
66200,0.577148,-0.782715,0.115723,0
66220,0.564941,-0.785645,0.100098,0
66240,0.567383,-0.762695,0.105469,0
66260,0.57959,-0.741211,0.117188,0
66280,0.619141,-0.742676,0.112793,0
66300,0.602539,-0.717773,0.109863,0
66320,0.592285,-0.707031,0.118164,0
66340,0.595215,-0.702148,0.100586,0
66360,0.669434,-0.713867,0.117188,0
66380,0.710938,-0.700195,0.146484,0
66400,0.713867,-0.661621,0.17334,0
66420,0.676758,-0.627441,0.147461,0
66440,0.696777,-0.634277,0.0917969,0
66460,0.710938,-0.637695,0.0854492,0
66480,0.710938,-0.612793,0.10498,0
66500,0.715332,-0.61377,0.100586,0
66520,0.735352,-0.602539,0.0834961,0
66540,0.773926,-0.602051,0.097168,0
66560,0.810547,-0.595703,0.112793,0
66580,0.803223,-0.56543,0.119629,0
66600,0.822266,-0.532715,0.125488,0
66620,0.831055,-0.515625,0.131836,0
66640,0.829102,-0.499512,0.137207,0
66660,0.850098,-0.498047,0.121094,0
66680,0.859863,-0.476562,0.140625,0
66700,0.852539,-0.467773,0.166016,0
66720,0.842285,-0.448242,0.166504,0
66740,0.833984,-0.433105,0.189453,0
66760,0.866211,-0.399414,0.202637,0
66780,0.916504,-0.402344,0.216309,0
66800,0.916992,-0.394531,0.233887,0
66820,0.876953,-0.397461,0.243164,0
66840,0.873047,-0.391602,0.276367,0
66860,0.852539,-0.376465,0.318848,0
66880,0.87793,-0.369141,0.317383,0
66900,0.850586,-0.372559,0.356445,0
66920,0.800781,-0.377441,0.369629,0
66940,0.79541,-0.415527,0.371582,0
66960,0.814453,-0.399414,0.39502,0
66980,0.759766,-0.39209,0.455078,0
67000,0.729492,-0.404785,0.494629,0
67020,0.740723,-0.424805,0.522461,0
67040,0.763672,-0.429688,0.475586,0
67060,0.734863,-0.428223,0.50293,0
67080,0.658203,-0.442383,0.519043,0
67100,0.554688,-0.463379,0.557129,0
67120,0.54248,-0.494141,0.557617,0
67140,0.561035,-0.503418,0.528809,0
67160,0.535645,-0.519531,0.562012,0
67180,0.475586,-0.525391,0.559082,0
67200,0.472168,-0.547363,0.539551,0
67220,0.48291,-0.592285,0.510742,0
67240,0.459961,-0.622559,0.479004,0
67260,0.412598,-0.67627,0.464844,0
67280,0.410645,-0.694824,0.460938,0
