Timestamp, Acceleration x, Acceleration y, Acceleration z, Marker
30,-0.431152,-0.814453,0.366211,0
50,-0.431152,-0.816406,0.371094,0
70,-0.435059,-0.804688,0.368652,0
90,-0.4375,-0.814453,0.368164,0
110,-0.439941,-0.817383,0.364746,0
130,-0.433594,-0.819336,0.371094,0
150,-0.438965,-0.831055,0.374023,0
150,-0.436035,-0.812012,0.370117,0
190,-0.430176,-0.811523,0.364746,0
210,-0.435059,-0.811523,0.367188,0
230,-0.439941,-0.806641,0.371094,0
250,-0.43457,-0.802734,0.369629,0
270,-0.431152,-0.808594,0.369629,0
290,-0.427246,-0.8125,0.371094,0
310,-0.428711,-0.825195,0.367188,0
330,-0.432617,-0.820801,0.369629,0
350,-0.435059,-0.819824,0.359863,0
370,-0.431152,-0.813965,0.365234,0
390,-0.435547,-0.814941,0.361816,0
410,-0.43457,-0.812012,0.373535,0
430,-0.431641,-0.804199,0.379883,0
450,-0.428711,-0.810059,0.376953,0
470,-0.427734,-0.806641,0.374023,0
490,-0.432617,-0.811035,0.362793,0
510,-0.441895,-0.817871,0.361328,0
530,-0.438477,-0.812988,0.358887,0
550,-0.444336,-0.81543,0.359863,0
570,-0.444336,-0.816895,0.365234,0
590,-0.434082,-0.814453,0.381348,0
610,-0.430176,-0.808594,0.375488,0
630,-0.431152,-0.810059,0.372559,0
650,-0.427734,-0.813477,0.367676,0
670,-0.433105,-0.809082,0.36377,0
690,-0.428223,-0.80957,0.364258,0
710,-0.429199,-0.814941,0.369629,0
730,-0.431641,-0.808594,0.376465,0
750,-0.429688,-0.812988,0.374023,0
770,-0.433594,-0.820312,0.373535,0
790,-0.435059,-0.814941,0.380371,0
810,-0.4375,-0.81543,0.364746,0
830,-0.43457,-0.810059,0.366699,0
850,-0.442383,-0.813965,0.368164,0
870,-0.441895,-0.806641,0.37207,0
890,-0.436523,-0.806641,0.362305,0
910,-0.429688,-0.812988,0.36377,0
930,-0.42334,-0.813477,0.364258,0
950,-0.42041,-0.81543,0.368652,0
970,-0.421875,-0.813965,0.375977,0
990,-0.428223,-0.809082,0.363281,0
1010,-0.432129,-0.817383,0.376953,0
1030,-0.439453,-0.812012,0.379395,0
1050,-0.440918,-0.812988,0.380859,0
1070,-0.443359,-0.814453,0.375488,0
1090,-0.4375,-0.805176,0.376465,0
1110,-0.441406,-0.813477,0.373535,0
1130,-0.437012,-0.812988,0.370117,0
1150,-0.437988,-0.810547,0.370605,0
1170,-0.429199,-0.814453,0.373047,0
1190,-0.427246,-0.804688,0.370605,0
1210,-0.428711,-0.807617,0.377441,0
1230,-0.429199,-0.810059,0.374023,0
1250,-0.425781,-0.813477,0.375,0
1270,-0.426758,-0.8125,0.374023,0
1290,-0.418945,-0.8125,0.369141,0
1310,-0.428711,-0.812012,0.376953,0
1330,-0.429199,-0.807617,0.383789,0
1350,-0.433594,-0.811035,0.380859,0
1370,-0.435059,-0.811523,0.381348,0
1390,-0.435547,-0.81543,0.37793,0
1410,-0.439453,-0.818848,0.380859,0
1430,-0.445801,-0.81543,0.371094,0
1450,-0.442383,-0.825195,0.375,0
1470,-0.443848,-0.819824,0.370117,0
1490,-0.436035,-0.812988,0.370117,0
1510,-0.429199,-0.806152,0.383789,0
1530,-0.429199,-0.794434,0.387207,0
1550,-0.427246,-0.790527,0.381836,0
1570,-0.431641,-0.795898,0.370117,0
1580,-0.433105,-0.79834,0.365723,0
1600,-0.435547,-0.804688,0.358887,0
1620,-0.4375,-0.801758,0.361816,0
1640,-0.438965,-0.801758,0.368164,0
1660,-0.4375,-0.807617,0.377441,0
1680,-0.43457,-0.813965,0.374512,0
1700,-0.434082,-0.822266,0.370605,0
1720,-0.4375,-0.816895,0.379395,0
1740,-0.442871,-0.817871,0.370605,0
1760,-0.441406,-0.810059,0.368652,0
1780,-0.442383,-0.804199,0.374023,0
1800,-0.437988,-0.803711,0.382812,0
1820,-0.436035,-0.802246,0.383789,0
1840,-0.428223,-0.812012,0.377441,0
1860,-0.426758,-0.808594,0.371582,0
1880,-0.432129,-0.810059,0.362305,0
1900,-0.438965,-0.812988,0.362793,0
1920,-0.439941,-0.812012,0.364746,0
1940,-0.438477,-0.8125,0.365234,0
1960,-0.446777,-0.811035,0.369629,0
1980,-0.444824,-0.807617,0.371094,0
2000,-0.442383,-0.813965,0.376953,0
2020,-0.438477,-0.801758,0.376465,0
2040,-0.43457,-0.807129,0.374023,0
2060,-0.430176,-0.810059,0.365234,0
2080,-0.431641,-0.811523,0.363281,0
2100,-0.432617,-0.811523,0.365723,0
2120,-0.435547,-0.807617,0.371094,0
2140,-0.431641,-0.804199,0.367676,0
2160,-0.429199,-0.815918,0.370117,0
2180,-0.433594,-0.812988,0.373047,0
2200,-0.437012,-0.822754,0.374512,0
2220,-0.435059,-0.811523,0.37207,0
2240,-0.432617,-0.805664,0.375977,0
2260,-0.445801,-0.805176,0.371094,0
2280,-0.442383,-0.799805,0.370117,0
2300,-0.439453,-0.806152,0.373047,0
2320,-0.437988,-0.805664,0.373535,0
2340,-0.436523,-0.805176,0.375,0
2360,-0.438477,-0.814941,0.376953,0
2380,-0.4375,-0.816895,0.369629,0
2400,-0.433594,-0.81543,0.376953,0
2420,-0.433105,-0.814941,0.380371,0
2440,-0.433594,-0.815918,0.369629,0
2460,-0.429688,-0.813965,0.369629,0
2480,-0.430664,-0.800781,0.369141,0
2500,-0.435547,-0.805664,0.37207,0
2520,-0.4375,-0.806641,0.37207,0
2540,-0.438965,-0.809082,0.370605,0
2560,-0.433594,-0.816406,0.371582,0
2580,-0.43457,-0.80957,0.370605,0
2600,-0.436523,-0.812012,0.37207,0
2620,-0.436523,-0.813477,0.371094,0
2640,-0.441406,-0.80957,0.362793,0
2660,-0.447754,-0.814453,0.358887,0
2680,-0.443848,-0.806641,0.371582,0
2700,-0.43457,-0.80957,0.375488,0
2720,-0.433105,-0.808105,0.382812,0
2740,-0.429199,-0.805664,0.379883,0
2760,-0.429688,-0.817871,0.376953,0
2780,-0.431152,-0.812012,0.370117,0
2800,-0.433594,-0.812012,0.36377,0
2820,-0.434082,-0.818359,0.370117,0
2840,-0.433594,-0.80957,0.373535,0
2860,-0.43457,-0.80957,0.372559,0
2880,-0.433105,-0.805664,0.378906,0
2900,-0.436523,-0.806641,0.376953,0
2920,-0.435059,-0.813965,0.371582,0
2940,-0.437012,-0.811523,0.370117,0
2960,-0.435547,-0.813477,0.372559,0
2980,-0.439453,-0.804199,0.369141,0
3000,-0.443359,-0.813965,0.370117,0
3020,-0.439941,-0.814453,0.370605,0
3040,-0.430176,-0.807617,0.375977,0
3060,-0.435059,-0.811035,0.377441,0
3080,-0.42627,-0.809082,0.363281,0
3100,-0.431152,-0.810059,0.364746,0
3120,-0.437988,-0.810547,0.361328,0
3140,-0.436523,-0.808105,0.363281,0
3160,-0.435547,-0.810547,0.373535,0
3180,-0.433594,-0.802734,0.371582,0
3200,-0.432617,-0.811035,0.371582,0
3220,-0.431152,-0.817383,0.367676,0
3240,-0.435059,-0.810547,0.369629,0
3260,-0.43457,-0.813477,0.368652,0
3280,-0.43457,-0.806641,0.366699,0
3300,-0.437012,-0.810547,0.368164,0
3320,-0.439941,-0.811523,0.372559,0
3340,-0.44043,-0.810059,0.366211,0
3360,-0.4375,-0.811035,0.367188,0
3380,-0.431152,-0.81543,0.368652,0
3400,-0.428223,-0.8125,0.374023,0
3420,-0.432617,-0.8125,0.375977,0
3440,-0.432129,-0.809082,0.37207,0
3460,-0.43457,-0.8125,0.368164,0
3480,-0.433594,-0.810547,0.359375,0
3500,-0.432129,-0.807617,0.369141,0
3520,-0.432617,-0.812988,0.367188,0
3540,-0.433594,-0.810059,0.374512,0
3550,-0.435059,-0.813965,0.374512,0
3570,-0.431641,-0.816895,0.370117,0
3590,-0.434082,-0.812012,0.373047,0
3610,-0.443359,-0.810547,0.372559,0
3630,-0.437988,-0.806152,0.375488,0
3650,-0.443359,-0.810059,0.37207,0
3670,-0.439941,-0.807617,0.373535,0
3690,-0.43457,-0.808105,0.367188,0
3710,-0.432617,-0.811035,0.369629,0
3730,-0.428223,-0.807129,0.37793,0
3750,-0.430176,-0.805176,0.377441,0
3770,-0.425781,-0.812988,0.383301,0
3790,-0.432617,-0.80957,0.378906,0
3810,-0.427734,-0.814941,0.379883,0
3830,-0.4375,-0.808594,0.377441,0
3850,-0.4375,-0.816406,0.369629,0
3870,-0.442383,-0.810059,0.368652,0
3890,-0.44043,-0.807129,0.372559,0
3910,-0.437988,-0.810547,0.377441,0
3930,-0.433594,-0.805176,0.370605,0
3950,-0.427734,-0.806152,0.375488,0
3970,-0.428223,-0.811035,0.378906,0
3990,-0.430176,-0.808105,0.371094,0
4010,-0.435059,-0.8125,0.37207,0
4030,-0.433594,-0.810547,0.375977,0
4050,-0.433105,-0.80957,0.371582,0
4070,-0.436523,-0.810547,0.373535,0
4090,-0.43457,-0.808105,0.371094,0
4110,-0.436523,-0.815918,0.37793,0
4130,-0.432617,-0.810547,0.381836,0
4150,-0.432617,-0.808594,0.376465,0
4170,-0.435059,-0.810059,0.372559,0
4190,-0.434082,-0.803711,0.371582,0
4210,-0.438965,-0.806152,0.381348,0
4230,-0.434082,-0.804199,0.381836,0
4250,-0.434082,-0.810059,0.380859,0
4270,-0.433105,-0.810059,0.378906,0
4290,-0.431641,-0.806152,0.372559,0
4310,-0.436035,-0.816406,0.371582,0
4330,-0.434082,-0.810547,0.371582,0
4350,-0.43457,-0.80957,0.379883,0
4370,-0.435547,-0.80957,0.378418,0
4390,-0.432129,-0.808594,0.383301,0
4410,-0.431152,-0.81543,0.378906,0
4430,-0.429199,-0.805664,0.378418,0
4450,-0.424316,-0.806641,0.374512,0
4470,-0.427246,-0.807617,0.369141,0
4490,-0.432129,-0.808594,0.372559,0
4510,-0.435547,-0.811523,0.374512,0
4530,-0.434082,-0.803711,0.377441,0
4550,-0.438965,-0.810059,0.379395,0
4570,-0.441406,-0.808105,0.380371,0
4590,-0.438965,-0.809082,0.375,0
4610,-0.441406,-0.810547,0.37207,0
4630,-0.43457,-0.805176,0.37793,0
4650,-0.437012,-0.810059,0.384277,0
4670,-0.436035,-0.806641,0.374512,0
4690,-0.433105,-0.808105,0.378418,0
4710,-0.437012,-0.811035,0.371582,0
4730,-0.432129,-0.808105,0.370605,0
4750,-0.435547,-0.807129,0.37793,0
4770,-0.438477,-0.808594,0.380371,0
4790,-0.433594,-0.808594,0.377441,0
4810,-0.43457,-0.810547,0.379883,0
4830,-0.44043,-0.806641,0.384277,0
4850,-0.438477,-0.802246,0.382324,0
4870,-0.443359,-0.805664,0.378906,0
4890,-0.437988,-0.803223,0.373535,0
4910,-0.435547,-0.808105,0.379883,0
4930,-0.432129,-0.804199,0.378906,0
4950,-0.429199,-0.800293,0.382812,0
4970,-0.432617,-0.806641,0.383301,0
4990,-0.432129,-0.800781,0.381836,0
5010,-0.433105,-0.803711,0.379883,0
5030,-0.432129,-0.805176,0.379883,0
5050,-0.430176,-0.802734,0.381348,0
5070,-0.431152,-0.804688,0.384766,0
5090,-0.430664,-0.806641,0.382812,0
5110,-0.437012,-0.808594,0.388184,0
5130,-0.434082,-0.803223,0.385254,0
5150,-0.433105,-0.801758,0.383789,0
5170,-0.43457,-0.799316,0.388184,0
5190,-0.430664,-0.799316,0.384277,0
5210,-0.437988,-0.803711,0.384766,0
5230,-0.437012,-0.803711,0.386719,0
5250,-0.433105,-0.799316,0.38916,0
5270,-0.436523,-0.803711,0.387207,0
5290,-0.435547,-0.796387,0.392578,0
5310,-0.43457,-0.801758,0.387695,0
5330,-0.436523,-0.800293,0.392578,0
5350,-0.429688,-0.79834,0.385254,0
5370,-0.431641,-0.802246,0.388672,0
5390,-0.431152,-0.80127,0.394043,0
5410,-0.430176,-0.806641,0.396484,0
5430,-0.431152,-0.800781,0.397949,0
5450,-0.42627,-0.794922,0.396973,0
5470,-0.432617,-0.803223,0.396484,0
5490,-0.432617,-0.793457,0.395996,0
5510,-0.432129,-0.799805,0.394043,0
5530,-0.435059,-0.796875,0.394531,0
5550,-0.430176,-0.792969,0.390625,0
5570,-0.431641,-0.804688,0.398438,0
5590,-0.433105,-0.796875,0.394531,0
5610,-0.434082,-0.799805,0.388672,0
5630,-0.433594,-0.798828,0.395508,0
5650,-0.431641,-0.79834,0.39502,0
5670,-0.436523,-0.806152,0.395508,0
5690,-0.429199,-0.797363,0.391602,0
5710,-0.425781,-0.802246,0.393066,0
5730,-0.434082,-0.806152,0.388672,0
5750,-0.430664,-0.80127,0.390625,0
5770,-0.430176,-0.800781,0.395996,0
5790,-0.430176,-0.803711,0.38916,0
5810,-0.428711,-0.800293,0.386719,0
5830,-0.429199,-0.798828,0.385742,0
5850,-0.431641,-0.80127,0.39209,0
5870,-0.430176,-0.802246,0.391602,0
5890,-0.432129,-0.796875,0.39502,0
5910,-0.427734,-0.80127,0.38916,0
5930,-0.427734,-0.80127,0.390137,0
5950,-0.428711,-0.797363,0.389648,0
5970,-0.43457,-0.808594,0.396973,0
5990,-0.430664,-0.79541,0.39502,0
6010,-0.428223,-0.797852,0.390137,0
6030,-0.431152,-0.800781,0.398926,0
6050,-0.430176,-0.789551,0.396484,0
6070,-0.435547,-0.799316,0.397949,0
6090,-0.431641,-0.799805,0.394043,0
6110,-0.432617,-0.797852,0.398438,0
6130,-0.430664,-0.802734,0.396973,0
6150,-0.427246,-0.796875,0.395996,0
6170,-0.436523,-0.797363,0.393555,0
6190,-0.432129,-0.797852,0.392578,0
6210,-0.432129,-0.796387,0.391602,0
6230,-0.435547,-0.799805,0.391602,0
6250,-0.43457,-0.797363,0.395508,0
6270,-0.433594,-0.802734,0.399414,0
6290,-0.431641,-0.804688,0.395508,0
6310,-0.425781,-0.802734,0.392578,0
6330,-0.430176,-0.80127,0.397949,0
6350,-0.425781,-0.79834,0.395508,0
6370,-0.428223,-0.802246,0.393066,0
6390,-0.428711,-0.802246,0.393066,0
6410,-0.424805,-0.804199,0.397949,0
6430,-0.432617,-0.800781,0.396484,0
6450,-0.428223,-0.797363,0.391602,0
6470,-0.431152,-0.801758,0.39209,0
6490,-0.435547,-0.799805,0.395508,0
6510,-0.427734,-0.794922,0.38916,0
6530,-0.430176,-0.79834,0.39502,0
6550,-0.434082,-0.796387,0.400391,0
6570,-0.431152,-0.795898,0.397461,0
6590,-0.430664,-0.799805,0.395996,0
6610,-0.42627,-0.795898,0.394043,0
6630,-0.429199,-0.800293,0.399414,0
6650,-0.432129,-0.791992,0.39502,0
6670,-0.431641,-0.799316,0.393555,0
6690,-0.432129,-0.797363,0.389648,0
6710,-0.433105,-0.797363,0.39209,0
6730,-0.434082,-0.80127,0.397461,0
6750,-0.435059,-0.799805,0.405762,0
6770,-0.427734,-0.796387,0.402832,0
6790,-0.429688,-0.796387,0.400879,0
6810,-0.430664,-0.794434,0.396484,0
6830,-0.437988,-0.799316,0.398926,0
6850,-0.437988,-0.796875,0.398438,0
6870,-0.432617,-0.79834,0.39209,0
6890,-0.430664,-0.799805,0.38916,0
6910,-0.424805,-0.79248,0.402832,0
6930,-0.432617,-0.795898,0.396973,0
6950,-0.42627,-0.797363,0.404785,0
6970,-0.429688,-0.794922,0.399414,0
6990,-0.428711,-0.797363,0.392578,0
7000,-0.428223,-0.79541,0.397461,0
7020,-0.429199,-0.799805,0.402832,0
7040,-0.429199,-0.79248,0.399414,0
7060,-0.427734,-0.794922,0.401367,0
7080,-0.431152,-0.804199,0.396973,0
7100,-0.435547,-0.79248,0.396973,0
7120,-0.436523,-0.79541,0.397461,0
7140,-0.43457,-0.793457,0.395996,0
7160,-0.435059,-0.793945,0.397949,0
7180,-0.431152,-0.799805,0.401855,0
7200,-0.43457,-0.794922,0.402344,0
7220,-0.430664,-0.799805,0.400879,0
7240,-0.43457,-0.79248,0.407227,0
7260,-0.430176,-0.794434,0.404297,0
7280,-0.433594,-0.795898,0.400391,0
7300,-0.430664,-0.793457,0.396973,0
7320,-0.432617,-0.79541,0.402344,0
7340,-0.432129,-0.794922,0.400391,0
7360,-0.424805,-0.794922,0.396484,0
7380,-0.427246,-0.799316,0.394043,0
7400,-0.433594,-0.793457,0.402344,0
7420,-0.43457,-0.79834,0.402832,0
7440,-0.430664,-0.79541,0.399902,0
7460,-0.427246,-0.793457,0.400879,0
7480,-0.433105,-0.79834,0.407715,0
7500,-0.436035,-0.791992,0.401855,0
7520,-0.4375,-0.793457,0.398926,0
7540,-0.43457,-0.794434,0.394531,0
7560,-0.428711,-0.790039,0.397949,0
7580,-0.431152,-0.796387,0.402832,0
7600,-0.428223,-0.793457,0.405762,0
7620,-0.429199,-0.794922,0.399902,0
7640,-0.430664,-0.794434,0.405273,0
7660,-0.431152,-0.793945,0.405762,0
7680,-0.432129,-0.796875,0.401855,0
7700,-0.431641,-0.79248,0.40625,0
7720,-0.428223,-0.789062,0.405762,0
7740,-0.428711,-0.795898,0.400879,0
7760,-0.429688,-0.796387,0.398926,0
7780,-0.429199,-0.794434,0.398926,0
7800,-0.432617,-0.791504,0.403809,0
7820,-0.428711,-0.794922,0.396973,0
7840,-0.432617,-0.796387,0.404297,0
7860,-0.431152,-0.793945,0.407227,0
7880,-0.429688,-0.796875,0.406738,0
7900,-0.427734,-0.795898,0.401367,0
7920,-0.427734,-0.791016,0.405273,0
7940,-0.432129,-0.798828,0.402832,0
7960,-0.431152,-0.791504,0.402344,0
7980,-0.43457,-0.791992,0.401367,0
8000,-0.429688,-0.79541,0.411133,0
8020,-0.432129,-0.792969,0.40625,0
8040,-0.435059,-0.797363,0.402344,0
8060,-0.428223,-0.790527,0.398926,0
8080,-0.430664,-0.795898,0.401855,0
8100,-0.431641,-0.791992,0.40332,0
8120,-0.430176,-0.79541,0.40332,0
8140,-0.432129,-0.800293,0.406738,0
8160,-0.425293,-0.790039,0.402344,0
8180,-0.428711,-0.795898,0.404297,0
8200,-0.432129,-0.791992,0.401855,0
8220,-0.430664,-0.79248,0.405273,0
8240,-0.435059,-0.800293,0.401367,0
8260,-0.430664,-0.790527,0.396973,0
8280,-0.427734,-0.793945,0.397949,0
8300,-0.430664,-0.791504,0.403809,0
8320,-0.428711,-0.79541,0.401367,0
8340,-0.434082,-0.800293,0.405273,0
8360,-0.429199,-0.796387,0.405273,0
8380,-0.426758,-0.796387,0.395508,0
8400,-0.427246,-0.791504,0.399902,0
8420,-0.428223,-0.792969,0.398438,0
8440,-0.433105,-0.79541,0.404785,0
8460,-0.428711,-0.79541,0.398438,0
8480,-0.427734,-0.79834,0.401855,0
8500,-0.429199,-0.797363,0.400879,0
8520,-0.426758,-0.794434,0.399902,0
8540,-0.431152,-0.798828,0.399414,0
8560,-0.429199,-0.793457,0.399414,0
8580,-0.433105,-0.794434,0.399414,0
8600,-0.432129,-0.790527,0.402344,0
8620,-0.432129,-0.791016,0.400879,0
8640,-0.429688,-0.794922,0.398438,0
8660,-0.431641,-0.791992,0.398438,0
8680,-0.431152,-0.794434,0.400879,0
8700,-0.433105,-0.792969,0.401367,0
8720,-0.430664,-0.791016,0.405762,0
8740,-0.430176,-0.795898,0.404785,0
8760,-0.430664,-0.792969,0.401367,0
8780,-0.430176,-0.791016,0.405762,0
8800,-0.432129,-0.79541,0.400879,0
8820,-0.431641,-0.791992,0.404297,0
8840,-0.429688,-0.794434,0.407227,0
8860,-0.430176,-0.79248,0.407715,0
8880,-0.429199,-0.790039,0.405762,0
8900,-0.433105,-0.791504,0.410645,0
8920,-0.435059,-0.788574,0.405273,0
8940,-0.430664,-0.793945,0.400879,0
8960,-0.433594,-0.791504,0.396973,0
8980,-0.432617,-0.791016,0.402832,0
8990,-0.428223,-0.79248,0.408203,0
9010,-0.42627,-0.790527,0.40625,0
9030,-0.428223,-0.796387,0.402344,0
9050,-0.431152,-0.795898,0.402832,0
9070,-0.422363,-0.795898,0.403809,0
9090,-0.429199,-0.796387,0.40332,0
9110,-0.429199,-0.793457,0.397949,0
9130,-0.427246,-0.796387,0.401367,0
9150,-0.430176,-0.793945,0.400391,0
9170,-0.427734,-0.794922,0.40332,0
9190,-0.434082,-0.797363,0.407715,0
9210,-0.429688,-0.79248,0.408203,0
9230,-0.429199,-0.793457,0.396973,0
9250,-0.432617,-0.791992,0.405273,0
9270,-0.428711,-0.792969,0.397949,0
9290,-0.432129,-0.797363,0.404785,0
9310,-0.430664,-0.790039,0.402832,0
9330,-0.43457,-0.795898,0.403809,0
9350,-0.435059,-0.793945,0.40918,0
9370,-0.429199,-0.792969,0.400879,0
9390,-0.432617,-0.793457,0.404785,0
9410,-0.431152,-0.792969,0.401367,0
9430,-0.431641,-0.796387,0.404297,0
9450,-0.435547,-0.801758,0.399902,0
9470,-0.436523,-0.802734,0.40625,0
9490,-0.44043,-0.805176,0.423828,0
9510,-0.441406,-0.79834,0.40625,0
9530,-0.446289,-0.799316,0.388672,0
9550,-0.445312,-0.803711,0.383789,0
9570,-0.439941,-0.801758,0.403809,0
9590,-0.433105,-0.779297,0.429199,0
9610,-0.435059,-0.782227,0.425293,0
9630,-0.422852,-0.812012,0.396484,0
9650,-0.424316,-0.82959,0.405762,0
9670,-0.425293,-0.831543,0.411621,0
9690,-0.446289,-0.852539,0.381836,0
9710,-0.380371,-0.878418,0.400879,0
9730,-0.363281,-0.89502,0.44043,0
9750,-0.347168,-0.884766,0.445801,0
9770,-0.28418,-0.912109,0.444824,0
9790,-0.249023,-0.927734,0.445801,0
9810,-0.202148,-0.921387,0.428711,0
9830,-0.205566,-0.940918,0.434082,0
9850,-0.208984,-0.92627,0.453125,0
9870,-0.158691,-0.850586,0.453125,0
9890,-0.147461,-0.856934,0.425781,0
9910,-0.123047,-0.862305,0.418457,0
9930,-0.115234,-0.84375,0.441406,0
9950,-0.112305,-0.808594,0.423828,0
9970,-0.0786133,-0.809082,0.434082,0
9990,-0.0595703,-0.811523,0.404297,0
10010,-0.0288086,-0.836914,0.393555,0
10030,-0.0234375,-0.825195,0.410645,0
10050,0.00195312,-0.842285,0.395508,0
10070,0.0410156,-0.828613,0.396973,0
10090,0.0766602,-0.837891,0.385254,0
10110,0.0708008,-0.845215,0.409668,0
10130,0.0712891,-0.848633,0.387695,0
10150,0.0927734,-0.876953,0.378418,0
10170,0.115723,-0.881836,0.370117,0
10190,0.137207,-0.909668,0.371582,0
10210,0.133301,-0.894531,0.372559,0
10230,0.142578,-0.887207,0.352539,0
10250,0.161621,-0.899414,0.34375,0
10270,0.188477,-0.925293,0.341309,0
10290,0.192383,-0.925781,0.350098,0
10310,0.180176,-0.927734,0.339844,0
10330,0.197754,-0.937012,0.327637,0
10350,0.204102,-0.948242,0.324707,0
10370,0.204102,-0.929199,0.336914,0
10390,0.198242,-0.938965,0.32959,0
10410,0.201172,-0.925781,0.332031,0
10430,0.20459,-0.941406,0.355469,0
10450,0.188477,-0.908203,0.354004,0
10470,0.17627,-0.868652,0.353516,0
10490,0.180664,-0.867676,0.351562,0
10510,0.180176,-0.841309,0.378418,0
10530,0.183594,-0.834961,0.345215,0
10550,0.170898,-0.848633,0.350098,0
10560,0.168457,-0.838867,0.342773,0
10580,0.17334,-0.847168,0.333984,0
10600,0.186523,-0.835938,0.32959,0
10620,0.172363,-0.836426,0.333984,0
10640,0.172363,-0.848633,0.306641,0
10660,0.176758,-0.861816,0.319824,0
10680,0.187012,-0.842773,0.319824,0
10700,0.193848,-0.873047,0.31543,0
10720,0.200684,-0.868164,0.310547,0
10740,0.19043,-0.86377,0.310547,0
10760,0.19043,-0.868652,0.316406,0
10780,0.20166,-0.871582,0.327637,0
10800,0.209473,-0.864746,0.322754,0
10820,0.194824,-0.872559,0.32666,0
10840,0.19873,-0.875,0.33252,0
10860,0.196289,-0.863281,0.326172,0
10880,0.191406,-0.859375,0.336914,0
10900,0.189453,-0.858887,0.340332,0
10920,0.199219,-0.86377,0.322266,0
10940,0.197266,-0.864746,0.336914,0
10960,0.203613,-0.844238,0.36377,0
10980,0.180664,-0.838379,0.34668,0
11000,0.200684,-0.855469,0.329102,0
11020,0.212891,-0.856934,0.354492,0
11040,0.226074,-0.856445,0.381836,0
11060,0.224609,-0.845215,0.38916,0
11080,0.25293,-0.849609,0.393066,0
11100,0.262695,-0.844727,0.394043,0
11120,0.257812,-0.843262,0.415527,0
11140,0.256836,-0.838379,0.424316,0
11160,0.241211,-0.832031,0.416992,0
11180,0.252441,-0.843262,0.409668,0
11200,0.248535,-0.854492,0.420898,0
11220,0.241699,-0.86377,0.431641,0
11240,0.229492,-0.855469,0.432129,0
11260,0.227539,-0.850586,0.42627,0
11280,0.227539,-0.850586,0.432617,0
11300,0.225098,-0.866211,0.444824,0
11320,0.21875,-0.851562,0.442871,0
11340,0.23291,-0.845215,0.441406,0
11360,0.219238,-0.855469,0.45166,0
11380,0.21875,-0.862793,0.449707,0
11400,0.218262,-0.86084,0.442871,0
11420,0.213867,-0.838867,0.445312,0
11440,0.212891,-0.838867,0.439941,0
11460,0.21582,-0.837402,0.438965,0
11480,0.200684,-0.828613,0.442871,0
11500,0.187012,-0.816406,0.422363,0
11520,0.202637,-0.819336,0.422852,0
11540,0.201172,-0.831055,0.426758,0
11560,0.200684,-0.831055,0.430176,0
11580,0.208984,-0.825684,0.422363,0
11600,0.213379,-0.830078,0.412109,0
11620,0.219238,-0.818359,0.421875,0
11640,0.21582,-0.816895,0.424316,0
11660,0.213379,-0.810059,0.415039,0
11680,0.22168,-0.808594,0.416504,0
11700,0.226074,-0.816895,0.416992,0
11720,0.229004,-0.818848,0.430176,0
11740,0.216797,-0.827148,0.427734,0
11760,0.219727,-0.825684,0.427734,0
11780,0.229492,-0.825684,0.439453,0
11800,0.228516,-0.836426,0.433594,0
11820,0.21875,-0.836914,0.435547,0
11840,0.213867,-0.840332,0.437012,0
11860,0.216797,-0.840332,0.441895,0
11880,0.212891,-0.831543,0.435547,0
11900,0.210449,-0.838379,0.43457,0
11920,0.211914,-0.834961,0.422363,0
11940,0.219238,-0.837402,0.428223,0
11960,0.214355,-0.850586,0.425293,0
11980,0.216309,-0.834961,0.431641,0
12000,0.212891,-0.814453,0.418457,0
12020,0.213379,-0.808105,0.430664,0
12040,0.202148,-0.813477,0.437012,0
12060,0.185547,-0.825684,0.43457,0
12080,0.183594,-0.83252,0.455566,0
12100,0.17334,-0.837891,0.459473,0
12120,0.185547,-0.824219,0.467285,0
12140,0.19043,-0.824707,0.455078,0
12160,0.19043,-0.830566,0.458008,0
12180,0.187988,-0.835449,0.464844,0
12200,0.198242,-0.831543,0.455078,0
12220,0.197266,-0.816406,0.463867,0
12240,0.187012,-0.819824,0.45166,0
12260,0.180176,-0.830078,0.452148,0
12280,0.181152,-0.839355,0.458008,0
12300,0.180664,-0.842285,0.458496,0
12320,0.181152,-0.819336,0.45752,0
12340,0.185547,-0.814453,0.450684,0
12360,0.18457,-0.824219,0.442383,0
12380,0.187012,-0.833496,0.429199,0
12400,0.172363,-0.82666,0.451172,0
12410,0.157715,-0.814941,0.446289,0
12430,0.157715,-0.796387,0.449707,0
12450,0.161621,-0.807617,0.449219,0
12470,0.155762,-0.79834,0.457031,0
12490,0.154297,-0.812988,0.449219,0
12510,0.166992,-0.816895,0.428711,0
12530,0.154297,-0.806152,0.434082,0
12550,0.150391,-0.777832,0.440918,0
12570,0.151367,-0.782715,0.436035,0
12590,0.148438,-0.803711,0.463379,0
12610,0.113281,-0.804688,0.46875,0
12630,0.103027,-0.847168,0.48291,0
12650,0.131836,-0.865234,0.456543,0
12670,0.12793,-0.845703,0.462891,0
12690,0.116699,-0.847656,0.497559,0
12710,0.0966797,-0.795898,0.506836,0
12730,0.108398,-0.775879,0.476074,0
12750,0.0834961,-0.851074,0.445312,0
12770,0.0400391,-0.875488,0.476562,0
12790,0.0136719,-0.890625,0.520508,0
12810,0.0219727,-0.897461,0.498535,0
12830,0.0722656,-0.909668,0.470215,0
12850,0.0825195,-0.896973,0.462402,0
12870,0.0791016,-0.864258,0.469727,0
12890,0.0771484,-0.857422,0.469238,0
12920,0.0668945,-0.856934,0.465332,0
12940,0.0634766,-0.84668,0.475098,0
12960,0.0712891,-0.840332,0.465332,0
12980,0.0737305,-0.831543,0.455566,0
13000,0.0805664,-0.829102,0.447754,0
13020,0.0830078,-0.817871,0.461426,0
13040,0.0771484,-0.803711,0.459473,0
13060,0.0688477,-0.811035,0.458496,0
13080,0.0605469,-0.82666,0.466309,0
13100,0.0717773,-0.837891,0.464355,0
13120,0.0751953,-0.856934,0.46582,0
13140,0.0883789,-0.874512,0.453125,0
13160,0.0893555,-0.865234,0.446777,0
13180,0.0869141,-0.862793,0.421875,0
13200,0.090332,-0.847656,0.436523,0
13220,0.0839844,-0.833984,0.439453,0
13240,0.0771484,-0.837891,0.463379,0
13260,0.0791016,-0.848633,0.462402,0
13280,0.0795898,-0.86084,0.455566,0
13300,0.0820312,-0.870117,0.473633,0
13320,0.0864258,-0.890625,0.486816,0
13340,0.0908203,-0.908203,0.498047,0
13360,0.107422,-0.918945,0.491699,0
13380,0.108398,-0.913086,0.468262,0
13400,0.0883789,-0.858398,0.477051,0
13420,0.0561523,-0.800293,0.491211,0
13440,0.0415039,-0.760742,0.47998,0
13460,0.0566406,-0.767578,0.46875,0
13480,0.0551758,-0.79834,0.453613,0
13500,0.0512695,-0.778809,0.462402,0
13520,0.0532227,-0.787598,0.45166,0
13540,0.0556641,-0.780762,0.456543,0
13560,0.0473633,-0.796387,0.456055,0
13580,0.0410156,-0.802734,0.461426,0
13600,0.0322266,-0.810547,0.474609,0
13620,0.0410156,-0.836426,0.474609,0
13640,0.0839844,-0.849121,0.46582,0
13660,0.0976562,-0.865234,0.449707,0
13680,0.0820312,-0.860352,0.45166,0
13700,0.0615234,-0.849609,0.452148,0
13720,0.0634766,-0.853516,0.478027,0
13740,0.0913086,-0.876465,0.484375,0
13760,0.097168,-0.858398,0.481445,0
13780,0.0976562,-0.84668,0.469238,0
13800,0.120117,-0.840332,0.458008,0
13820,0.122559,-0.85498,0.464355,0
13840,0.128418,-0.877441,0.477051,0
13860,0.107422,-0.880859,0.495117,0
13880,0.0957031,-0.873047,0.477051,0
13900,0.100098,-0.86377,0.481445,0
13920,0.102539,-0.856934,0.473633,0
13940,0.0976562,-0.86084,0.452148,0
13960,0.0878906,-0.855957,0.448242,0
13980,0.0834961,-0.847168,0.436523,0
14000,0.074707,-0.845215,0.419922,0
14020,0.0805664,-0.847656,0.421875,0
14040,0.0869141,-0.825195,0.428223,0
14060,0.0996094,-0.844727,0.427734,0
14080,0.106934,-0.853516,0.431641,0
14100,0.102539,-0.864746,0.399902,0
14120,0.0942383,-0.861328,0.403809,0
14140,0.111328,-0.875488,0.41748,0
14160,0.118164,-0.872559,0.414062,0
14180,0.127441,-0.883301,0.413574,0
14200,0.143066,-0.885742,0.408203,0
14220,0.150879,-0.90332,0.39502,0
14240,0.150391,-0.881836,0.387207,0
14260,0.146973,-0.867676,0.387695,0
14280,0.131836,-0.836914,0.394531,0
14300,0.115723,-0.825684,0.414062,0
14320,0.125977,-0.835449,0.437988,0
14340,0.132324,-0.85498,0.449707,0
14350,0.119629,-0.834473,0.463867,0
14370,0.109375,-0.827637,0.446777,0
14390,0.102539,-0.80957,0.430176,0
14410,0.131836,-0.82959,0.432129,0
14430,0.141602,-0.842285,0.429688,0
14450,0.128906,-0.840332,0.413086,0
14470,0.121094,-0.848145,0.402344,0
14490,0.11377,-0.857422,0.406738,0
14510,0.12793,-0.847168,0.38916,0
14530,0.138672,-0.858887,0.382812,0
14550,0.139648,-0.869141,0.37207,0
14570,0.132812,-0.876953,0.38916,0
14590,0.132324,-0.868652,0.402344,0
14610,0.120117,-0.864746,0.400391,0
14630,0.128418,-0.875,0.401855,0
14650,0.124023,-0.866699,0.405273,0
14670,0.109375,-0.848633,0.401367,0
14690,0.110352,-0.862793,0.416504,0
14710,0.0952148,-0.839844,0.410156,0
14730,0.118652,-0.867188,0.413086,0
14750,0.128906,-0.868652,0.413086,0
14770,0.130859,-0.865723,0.445312,0
14790,0.144043,-0.875,0.443848,0
14810,0.153809,-0.880371,0.427734,0
14830,0.140137,-0.896973,0.381348,0
14850,0.132812,-0.885254,0.411621,0
14870,0.10498,-0.835938,0.421875,0
14890,0.128418,-0.827148,0.432129,0
14910,0.11084,-0.850586,0.437012,0
14930,0.125,-0.904785,0.447754,0
14950,0.107422,-0.886719,0.47998,0
14970,0.0883789,-0.832031,0.48584,0
14990,0.0810547,-0.812988,0.456055,0
15010,0.122559,-0.854004,0.432617,0
15030,0.116211,-0.890625,0.406738,0
15050,0.0854492,-0.865234,0.424316,0
15070,0.0683594,-0.852539,0.446289,0
15090,0.0678711,-0.832031,0.455078,0
15110,0.0893555,-0.829102,0.475098,0
15130,0.0849609,-0.822266,0.47168,0
15150,0.0810547,-0.828125,0.465332,0
15180,0.0849609,-0.909668,0.409668,0
15200,0.0917969,-0.895996,0.408691,0
15220,0.0966797,-0.884766,0.402344,0
15240,0.0834961,-0.845215,0.437988,0
15260,0.0673828,-0.844238,0.449219,0
15280,0.0893555,-0.845703,0.450684,0
15300,0.0698242,-0.824219,0.471191,0
15320,0.043457,-0.817871,0.456543,0
15340,0.0161133,-0.8125,0.459473,0
15360,0.0302734,-0.83252,0.501953,0
15380,0.0180664,-0.852051,0.461426,0
15400,0.019043,-0.847656,0.45166,0
15420,0.0415039,-0.839844,0.452637,0
15440,0.0483398,-0.835449,0.463379,0
15460,0.0830078,-0.842285,0.42627,0
15480,0.0605469,-0.804199,0.412109,0
15500,0.0810547,-0.837402,0.407227,0
15520,0.0561523,-0.821777,0.46582,0
15540,0.121582,-0.85498,0.487305,0
15560,0.0556641,-0.793945,0.489258,0
15580,0.0756836,-0.81543,0.439453,0
15600,0.140625,-0.830078,0.441406,0
15620,0.0908203,-0.82959,0.419434,0
15640,0.126465,-0.879395,0.469727,0
15660,0.0693359,-0.756348,0.563477,0
15680,0.0668945,-0.747559,0.445801,0
15700,0.199219,-0.870605,0.385254,0
15720,0.194336,-0.867188,0.418945,0
15740,0.0581055,-0.941406,0.422852,0
15760,-0.03125,-0.90918,0.459961,0
15780,-0.0595703,-0.939941,0.512695,0
15800,-0.065918,-0.907715,0.492676,0
15820,-0.0893555,-0.875977,0.414062,0
15840,0.0175781,-0.877441,0.43457,0
15860,0.0673828,-0.856934,0.48291,0
15880,0.0668945,-0.844727,0.51123,0
15900,0.0444336,-0.83252,0.53418,0
15920,0.0297852,-0.870605,0.523438,0
15940,0.0605469,-0.886719,0.495605,0
15960,0.0395508,-0.851562,0.456055,0
15980,0.0336914,-0.793945,0.40918,0
16000,-0.00244141,-0.798828,0.4375,0
16020,-0.0507812,-0.801758,0.489746,0
16040,-0.102539,-0.812988,0.477539,0
16060,-0.110352,-0.870605,0.495117,0
16080,-0.117676,-0.881348,0.49707,0
16100,-0.110352,-0.868164,0.489746,0
16120,-0.0844727,-0.889648,0.490234,0
16140,-0.133301,-0.840332,0.467285,0
16160,-0.183105,-0.750488,0.556641,0
16180,-0.188965,-0.776855,0.55127,0
16200,-0.126953,-0.742676,0.553711,0
16220,-0.119629,-0.801758,0.49707,0
16240,0.0395508,-1.00879,0.36084,0
16260,0.0454102,-0.994629,0.390137,0
16280,0.0263672,-0.887695,0.388184,0
16300,0.149902,-0.868164,0.405273,0
16320,0.213867,-0.90918,0.361328,0
16340,0.234375,-0.898926,0.347656,0
16360,0.229004,-0.97168,0.277344,0
16380,0.201172,-0.997559,0.307617,0
16400,0.20459,-0.905762,0.377441,0
16420,0.251953,-0.855957,0.310547,0
16440,0.299316,-0.750488,0.37793,0
16460,0.285156,-0.705566,0.468262,0
16480,0.290039,-0.776367,0.5625,0
16500,0.303223,-0.804688,0.526367,0
16520,0.391602,-0.828613,0.42334,0
16540,0.409668,-0.777344,0.400391,0
16560,0.330078,-0.688965,0.408203,0
16580,0.265625,-0.691895,0.442383,0
16600,0.241699,-0.689941,0.456055,0
16620,0.276855,-0.754883,0.450684,0
16640,0.284668,-0.840332,0.482422,0
16660,0.268066,-0.918457,0.47168,0
16680,0.225586,-0.875977,0.432129,0
16700,0.152832,-0.851562,0.352051,0
16720,0.09375,-0.848145,0.338867,0
16740,0.0356445,-0.897949,0.368164,0
16760,0.116699,-0.882812,0.347656,0
16780,0.151855,-0.898926,0.350586,0
16800,0.120605,-0.90625,0.342773,0
16820,0.129395,-0.914551,0.320801,0
16840,0.151855,-0.896484,0.349609,0
16860,0.104004,-0.901855,0.361328,0
16880,0.0454102,-0.916992,0.380859,0
16900,-0.00146484,-0.899414,0.442383,0
16920,-0.0488281,-0.84082,0.413574,0
16940,0.000976562,-0.926758,0.319824,0
16960,-0.000976562,-0.984375,0.327637,0
16980,-0.0219727,-0.95752,0.366211,0
17000,0.0078125,-0.946289,0.375977,0
17020,0.0820312,-0.952637,0.342773,0
17040,0.137695,-0.954102,0.322754,0
17060,0.154785,-0.916016,0.320312,0
17080,0.168945,-0.92334,0.322266,0
17100,0.17041,-0.89209,0.364746,0
17120,0.175781,-0.88623,0.416992,0
17140,0.178223,-0.895508,0.40625,0
17160,0.170898,-0.887207,0.393555,0
17180,0.205078,-0.852051,0.380859,0
17200,0.183594,-0.781738,0.398438,0
17220,0.178223,-0.760742,0.404785,0
17240,0.218262,-0.780273,0.376465,0
17260,0.22998,-0.806641,0.355957,0
17280,0.229004,-0.827148,0.37793,0
17300,0.210938,-0.819824,0.380859,0
17320,0.218262,-0.814941,0.359863,0
17340,0.233887,-0.832031,0.348145,0
17360,0.245605,-0.832031,0.343262,0
17380,0.265625,-0.841309,0.348633,0
17400,0.249023,-0.854492,0.332031,0
17420,0.227051,-0.862793,0.306641,0
17440,0.200684,-0.882812,0.322266,0
17460,0.163574,-0.896973,0.354004,0
17480,0.122559,-0.89502,0.338379,0
17500,0.109863,-0.909668,0.349609,0
17520,0.0825195,-0.902832,0.35791,0
17540,0.0537109,-0.895508,0.34668,0
17560,0.0180664,-0.854004,0.357422,0
17580,-0.0112305,-0.860352,0.380371,0
17600,-0.0263672,-0.867676,0.37793,0
17610,-0.019043,-0.900879,0.379883,0
17630,0.0141602,-0.939941,0.356934,0
17650,0.0239258,-0.922363,0.319824,0
17670,0,-0.899414,0.348633,0
17690,-0.0307617,-0.883301,0.38623,0
17710,-0.0610352,-0.879395,0.368164,0
17730,-0.050293,-0.916504,0.34668,0
17750,-0.043457,-0.951172,0.359375,0
17770,-0.0200195,-0.956543,0.373535,0
17790,0.00195312,-0.954102,0.365723,0
17810,0.00878906,-0.954102,0.364746,0
17830,0.0332031,-0.953125,0.36084,0
17850,0.0234375,-0.932617,0.372559,0
17870,0.0375977,-0.915039,0.382324,0
17890,0.0356445,-0.908203,0.380371,0
17910,0.0605469,-0.922852,0.387207,0
17930,0.078125,-0.919922,0.381348,0
17950,0.0517578,-0.931641,0.372559,0
17970,0.0883789,-0.91748,0.405273,0
17990,0.0556641,-0.891113,0.376953,0
18010,0.0625,-0.919434,0.377441,0
18030,0.0522461,-0.895508,0.370117,0
18050,0.0698242,-0.862793,0.391602,0
18070,0.065918,-0.853027,0.395996,0
18090,0.0556641,-0.847656,0.386719,0
18110,0.0356445,-0.84082,0.399414,0
18130,0.00585938,-0.843262,0.402344,0
18150,-0.00927734,-0.862305,0.35791,0
18170,0.00390625,-0.885254,0.385742,0
18190,-0.00683594,-0.897461,0.377441,0
18210,-0.0400391,-0.898438,0.378418,0
18230,-0.0615234,-0.881836,0.384277,0
18250,-0.0849609,-0.848633,0.37207,0
18270,-0.119629,-0.860352,0.384766,0
18290,-0.166504,-0.848633,0.376953,0
18310,-0.200195,-0.86377,0.367188,0
18330,-0.229492,-0.901855,0.388672,0
18350,-0.251953,-0.925293,0.399902,0
18370,-0.292969,-0.932617,0.408691,0
18390,-0.307617,-0.961426,0.39502,0
18410,-0.274414,-0.98584,0.382324,0
18430,-0.276855,-0.970703,0.378906,0
18450,-0.253418,-0.921387,0.384277,0
18470,-0.219727,-0.865723,0.40625,0
18490,-0.222168,-0.892578,0.414551,0
18510,-0.216309,-0.882324,0.447266,0
18530,-0.182617,-0.875977,0.47998,0
18550,-0.130859,-0.900879,0.487305,0
18570,-0.0419922,-0.847168,0.495117,0
18590,0.0712891,-0.883789,0.49707,0
18610,0.118164,-0.839355,0.511719,0
18630,0.150879,-0.783203,0.475586,0
18650,0.13916,-0.768555,0.541992,0
18670,0.172363,-0.833496,0.496094,0
18690,0.212402,-0.823242,0.401855,0
18710,0.243164,-0.786621,0.392578,0
18730,0.26123,-0.749512,0.405762,0
18750,0.261719,-0.741699,0.421387,0
18770,0.296875,-0.772461,0.408203,0
18790,0.294922,-0.84082,0.379395,0
18810,0.174805,-0.759766,0.508789,0
18830,0.0917969,-0.671875,0.529785,0
18850,0.0820312,-0.719727,0.469238,0
18870,0.0957031,-0.763672,0.425293,0
18890,0.0751953,-0.785645,0.485352,0
18910,0.0405273,-0.838867,0.535156,0
18930,0.0419922,-0.876465,0.512207,0
18950,0.0756836,-0.895996,0.453613,0
18970,0.0888672,-0.939453,0.412109,0
18990,0.0947266,-0.963867,0.433105,0
19010,0.0712891,-0.960938,0.441406,0
19030,0.0839844,-0.958496,0.423828,0
19050,0.0683594,-0.937012,0.405762,0
19070,0.0800781,-0.92041,0.415039,0
19090,0.0703125,-0.918945,0.432129,0
19110,0.0390625,-0.875,0.434082,0
19130,0.03125,-0.836914,0.427734,0
19150,0.0112305,-0.829102,0.426758,0
19170,0.00830078,-0.835938,0.414062,0
19190,0.0234375,-0.830566,0.401367,0
19210,0.03125,-0.835938,0.404297,0
19230,0.0546875,-0.841797,0.4375,0
19250,0.0864258,-0.853516,0.451172,0
19270,0.106445,-0.895508,0.425293,0
19290,0.15918,-0.886719,0.382324,0
19310,0.181641,-0.871582,0.405762,0
19330,0.185059,-0.862793,0.414551,0
19350,0.19873,-0.878906,0.39209,0
19370,0.200684,-0.875,0.383789,0
19390,0.174316,-0.856445,0.387695,0
19410,0.14209,-0.847656,0.419922,0
19430,0.121582,-0.833008,0.449707,0
19450,0.111816,-0.882324,0.422363,0
19470,0.0673828,-0.894043,0.399902,0
19490,0.0517578,-0.903809,0.422852,0
19510,0.0673828,-0.908203,0.423828,0
19520,0.0742188,-0.898438,0.40918,0
19550,0.0893555,-0.865723,0.398926,0
19570,0.0703125,-0.848633,0.410645,0
19590,0.065918,-0.859863,0.424316,0
19600,0.074707,-0.890625,0.401367,0
19620,0.0913086,-0.873535,0.405762,0
19640,0.104004,-0.872559,0.394043,0
19660,0.101074,-0.877441,0.398926,0
19680,0.107422,-0.829102,0.39502,0
19700,0.115234,-0.819336,0.405273,0
19720,0.124512,-0.834961,0.413086,0
19740,0.119141,-0.866211,0.416992,0
19760,0.106934,-0.862305,0.42041,0
19780,0.108398,-0.856445,0.419434,0
19800,0.129883,-0.853027,0.43457,0
19820,0.157715,-0.845703,0.419434,0
19840,0.169922,-0.852539,0.414551,0
19860,0.17334,-0.858398,0.408691,0
19880,0.181641,-0.870117,0.416016,0
19900,0.181641,-0.867188,0.419922,0
19920,0.179199,-0.867188,0.401367,0
19940,0.15918,-0.849121,0.393555,0
19960,0.155273,-0.858887,0.397461,0
19980,0.137695,-0.865234,0.416016,0
20000,0.138672,-0.872559,0.419434,0
20020,0.141113,-0.874512,0.422363,0
20040,0.153809,-0.87793,0.425781,0
20060,0.162598,-0.878906,0.440918,0
20080,0.149414,-0.859375,0.417969,0
20100,0.155762,-0.867188,0.430664,0
20120,0.144043,-0.859375,0.448242,0
20140,0.133789,-0.87207,0.437988,0
20160,0.130371,-0.875488,0.427246,0
20180,0.130859,-0.883789,0.398926,0
20190,0.136719,-0.883789,0.397949,0
20210,0.13623,-0.873047,0.416504,0
20230,0.132324,-0.873047,0.411133,0
20250,0.151855,-0.889648,0.400391,0
20270,0.158203,-0.882324,0.425293,0
20290,0.165039,-0.885254,0.418945,0
20310,0.159668,-0.861816,0.415527,0
20330,0.16748,-0.886719,0.393066,0
20350,0.179688,-0.876465,0.367188,0
20370,0.175781,-0.851562,0.414551,0
20390,0.169922,-0.831055,0.400879,0
20410,0.163574,-0.828613,0.39209,0
20430,0.172852,-0.835449,0.376953,0
20450,0.163086,-0.825195,0.383301,0
20470,0.183105,-0.853027,0.382812,0
20490,0.19043,-0.882324,0.362305,0
20510,0.19873,-0.86084,0.362793,0
20530,0.20752,-0.850586,0.373047,0
20550,0.220215,-0.876953,0.388672,0
20570,0.260254,-0.887207,0.386719,0
20590,0.273926,-0.904297,0.361328,0
20610,0.270508,-0.922363,0.347168,0
20630,0.271484,-0.896484,0.344727,0
20650,0.289551,-0.891113,0.319824,0
20670,0.304199,-0.905273,0.283203,0
20690,0.326172,-0.981934,0.253418,0
20710,0.353516,-1.02881,0.219727,0
20730,0.379883,-1.02344,0.290527,0
20750,0.330078,-1.04688,0.291016,0
20770,0.331055,-1.09619,0.245117,0
20790,0.360352,-1.17822,0.189453,0
20810,0.348145,-1.1333,0.195801,0
20830,0.165527,-1.01025,0.273926,0
20850,-0.0605469,-0.991211,0.212402,0
20870,-0.120605,-0.979492,0.155273,0
20890,-0.103027,-0.994629,0.0791016,0
20910,-0.0742188,-0.926758,0.114258,0
20930,-0.128906,-0.841797,0.106445,0
20950,-0.220703,-0.821777,0.0629883,0
20970,-0.266113,-0.8125,0.0146484,0
20990,-0.29541,-0.755859,-0.0239258,0
21010,-0.328125,-0.69873,-0.0224609,0
21030,-0.374512,-0.620605,0.0136719,0
21050,-0.39209,-0.639648,0.0620117,0
21070,-0.352051,-0.65625,0.133789,0
21090,-0.290039,-0.671875,0.195312,0
21110,-0.250977,-0.725586,0.22168,0
21130,-0.18457,-0.76416,0.256348,0
21150,-0.0322266,-0.885254,0.302734,0
21170,0.046875,-0.958008,0.350586,0
21190,0.105957,-1.05273,0.300293,0
21210,0.19873,-1.01709,0.288574,0
21230,0.264648,-0.960449,0.344727,0
21250,0.228516,-0.983398,0.33252,0
21270,0.248535,-1.01221,0.328125,0
21290,0.277832,-0.977539,0.400879,0
21310,0.226074,-0.981934,0.384277,0
21330,0.211426,-1.05664,0.304199,0
21350,0.266602,-1.09326,0.320312,0
21370,0.320801,-1.04883,0.381836,0
21390,0.319336,-1.04932,0.364258,0
21410,0.342773,-1.0332,0.322266,0
21430,0.328125,-0.947754,0.38916,0
21450,0.308105,-0.927246,0.419922,0
21470,0.249023,-0.881348,0.42627,0
21490,0.225586,-0.861328,0.424316,0
21510,0.220703,-0.838867,0.447754,0
21530,0.226074,-0.821289,0.462402,0
21550,0.233887,-0.829102,0.458008,0
21570,0.20752,-0.8125,0.454102,0
21590,0.1875,-0.812988,0.456055,0
21610,0.179199,-0.828613,0.456055,0
21630,0.156738,-0.82666,0.44873,0
21650,0.158203,-0.800781,0.475586,0
21670,0.162109,-0.819824,0.484863,0
21690,0.144531,-0.836426,0.460449,0
21710,0.150879,-0.853027,0.462402,0
21730,0.157227,-0.843262,0.470703,0
21750,0.145996,-0.828613,0.474609,0
21770,0.138672,-0.82373,0.450195,0
21790,0.156738,-0.836914,0.457031,0
21810,0.162109,-0.835449,0.464355,0
21830,0.17334,-0.815918,0.462402,0
21850,0.179688,-0.819824,0.455078,0
21870,0.171875,-0.825195,0.455078,0
21890,0.171387,-0.82373,0.458496,0
21910,0.17041,-0.810059,0.461914,0
21930,0.162598,-0.796875,0.468262,0
21950,0.164062,-0.818359,0.460449,0
21970,0.17041,-0.825195,0.459961,0
21990,0.166504,-0.819824,0.45752,0
22010,0.164551,-0.822266,0.462891,0
22030,0.168457,-0.825195,0.476562,0
22050,0.172363,-0.818359,0.47168,0
22070,0.178223,-0.819824,0.466797,0
22090,0.168457,-0.808594,0.463867,0
22110,0.163086,-0.81543,0.475586,0
22130,0.165039,-0.810547,0.466797,0
22150,0.191895,-0.82373,0.460449,0
22170,0.205566,-0.832031,0.461914,0
22190,0.194824,-0.82666,0.460938,0
22210,0.17627,-0.820801,0.467773,0
22230,0.179688,-0.812988,0.463867,0
22250,0.180664,-0.816895,0.459961,0
22270,0.175781,-0.817383,0.460938,0
22290,0.192383,-0.815918,0.477539,0
22310,0.177734,-0.817383,0.457031,0
22330,0.208008,-0.824707,0.455078,0
22350,0.209473,-0.82959,0.46582,0
22370,0.210449,-0.824707,0.451172,0
22390,0.217773,-0.818848,0.450684,0
22410,0.212891,-0.819824,0.464844,0
22430,0.207031,-0.805176,0.459473,0
22450,0.200684,-0.800293,0.460449,0
22470,0.191406,-0.807129,0.459961,0
22490,0.19043,-0.816895,0.463379,0
22510,0.191406,-0.808594,0.458008,0
22530,0.191895,-0.797852,0.453613,0
22550,0.181641,-0.80957,0.460449,0
22570,0.166016,-0.827637,0.467773,0
22590,0.160645,-0.813477,0.473145,0
22610,0.138672,-0.819824,0.466309,0
22630,0.155273,-0.837402,0.479004,0
22650,0.178223,-0.838379,0.475586,0
22670,0.166016,-0.833496,0.471191,0
22690,0.175293,-0.818848,0.478516,0
22710,0.199707,-0.825195,0.475586,0
22730,0.210449,-0.821289,0.461914,0
22750,0.205078,-0.802246,0.458496,0
22770,0.197754,-0.814941,0.463867,0
22790,0.205078,-0.814941,0.461914,0
22810,0.203125,-0.813477,0.453125,0
22830,0.195801,-0.806152,0.455566,0
22850,0.188477,-0.802734,0.475098,0
22870,0.201172,-0.811035,0.460449,0
22890,0.206055,-0.81543,0.450684,0
22910,0.19873,-0.819336,0.452148,0
22930,0.186035,-0.822754,0.469727,0
22950,0.191895,-0.821289,0.473633,0
22970,0.194336,-0.832031,0.462891,0
22990,0.183594,-0.841797,0.462891,0
23010,0.173828,-0.833984,0.457031,0
23030,0.177246,-0.816406,0.464355,0
23040,0.188477,-0.796875,0.478027,0
23060,0.149902,-0.802734,0.454102,0
23080,0.193848,-0.799316,0.471191,0
23100,0.173828,-0.811523,0.466309,0
23120,0.152832,-0.833008,0.462402,0
23140,0.106934,-0.821289,0.450195,0
23160,0.118164,-0.821777,0.428711,0
23180,0.0957031,-0.804199,0.425293,0
23200,0.150391,-0.816406,0.453613,0
23220,0.147949,-0.791016,0.427246,0
23240,0.105469,-0.760742,0.391602,0
23260,0.135254,-0.820312,0.424805,0
23280,0.149414,-0.856934,0.456055,0
23300,0.219727,-0.843262,0.548828,0
23320,0.287598,-0.804199,0.529297,0
23340,0.314941,-0.802246,0.470703,0
23360,0.324707,-0.790527,0.453125,0
23380,0.288086,-0.774902,0.471191,0
23400,0.274414,-0.766113,0.516602,0
23420,0.296387,-0.741699,0.539551,0
23440,0.300293,-0.713867,0.550293,0
23460,0.27832,-0.742676,0.552246,0
23480,0.247559,-0.774414,0.515625,0
23500,0.21875,-0.794434,0.491211,0
23520,0.209961,-0.802246,0.467285,0
23540,0.177734,-0.828613,0.459961,0
23560,0.183594,-0.89502,0.421387,0
23580,0.153809,-0.944336,0.432129,0
23600,0.141113,-0.97168,0.420898,0
23620,0.120117,-0.927734,0.437012,0
23640,0.10791,-0.895508,0.454102,0
23660,0.112305,-0.875,0.451172,0
23680,0.136719,-0.853516,0.443848,0
23700,0.131348,-0.821289,0.42627,0
23720,0.140625,-0.804199,0.454102,0
23740,0.157715,-0.777344,0.472168,0
23760,0.180664,-0.768066,0.476562,0
23780,0.212402,-0.758789,0.500977,0
23800,0.229492,-0.748047,0.489746,0
23820,0.250977,-0.742676,0.479492,0
23840,0.249023,-0.736328,0.51123,0
23860,0.250977,-0.744629,0.509277,0
23880,0.241699,-0.742676,0.523438,0
23900,0.23291,-0.739258,0.527344,0
23920,0.233398,-0.769531,0.515137,0
23940,0.22998,-0.777832,0.516113,0
23960,0.220703,-0.793457,0.515137,0
23980,0.206543,-0.81543,0.506836,0
24000,0.205566,-0.846191,0.481445,0
24020,0.20459,-0.861328,0.477539,0
24040,0.213867,-0.850586,0.469238,0
24060,0.220215,-0.847168,0.46875,0
24080,0.246582,-0.835449,0.473145,0
24100,0.269531,-0.828125,0.452637,0
24120,0.29248,-0.842773,0.437012,0
24140,0.307129,-0.831543,0.422363,0
24160,0.309082,-0.822266,0.409668,0
24180,0.310059,-0.813965,0.410645,0
24200,0.317383,-0.804199,0.43457,0
24220,0.332031,-0.797363,0.424316,0
24240,0.35498,-0.75,0.416992,0
24260,0.350098,-0.733887,0.433105,0
24280,0.351562,-0.756836,0.427734,0
24300,0.354492,-0.755371,0.434082,0
24320,0.322754,-0.765137,0.425293,0
24340,0.325195,-0.760254,0.444336,0
24360,0.335449,-0.774902,0.436035,0
24390,0.282715,-0.812988,0.408691,0
24410,0.244629,-0.78418,0.39502,0
24430,0.258789,-0.820801,0.402832,0
24450,0.265137,-0.828125,0.402832,0
24470,0.282227,-0.832031,0.397461,0
24490,0.298828,-0.817871,0.428223,0
24510,0.308105,-0.803223,0.441406,0
24530,0.312012,-0.789551,0.418457,0
24550,0.320312,-0.77002,0.446289,0
24570,0.313477,-0.782715,0.459473,0
24590,0.334473,-0.782227,0.457031,0
24610,0.355469,-0.771973,0.456055,0
24630,0.336426,-0.727051,0.51123,0
24640,0.331055,-0.734863,0.491699,0
24660,0.337891,-0.759766,0.492676,0
24680,0.316406,-0.759277,0.48291,0
24700,0.327637,-0.786621,0.466309,0
24720,0.30957,-0.788086,0.442383,0
24740,0.293945,-0.815918,0.437012,0
24760,0.283203,-0.833496,0.442871,0
24780,0.284668,-0.818848,0.456543,0
24800,0.286621,-0.819824,0.45752,0
24820,0.279785,-0.810547,0.451172,0
24840,0.273926,-0.818359,0.435547,0
24860,0.258789,-0.820312,0.436035,0
24880,0.265137,-0.804199,0.442383,0
24890,0.285156,-0.807617,0.4375,0
24910,0.28418,-0.817383,0.419434,0
24920,0.278809,-0.80957,0.437988,0
24940,0.278809,-0.806641,0.448242,0
24960,0.286133,-0.785645,0.450195,0
24980,0.300293,-0.779785,0.447266,0
25000,0.321777,-0.780762,0.445312,0
25020,0.309082,-0.787109,0.447754,0
25040,0.300293,-0.78418,0.443848,0
25060,0.29541,-0.780273,0.433105,0
25080,0.308594,-0.786133,0.423828,0
25100,0.311035,-0.796387,0.411133,0
25120,0.308594,-0.82959,0.405762,0
25140,0.300293,-0.842285,0.397461,0
25160,0.282227,-0.845215,0.400879,0
25180,0.283691,-0.842285,0.400879,0
25200,0.276367,-0.838379,0.390625,0
25220,0.267578,-0.830566,0.391602,0
25240,0.271973,-0.805176,0.415527,0
25260,0.282227,-0.793945,0.423828,0
25280,0.297363,-0.791016,0.42041,0
25300,0.307129,-0.770508,0.418457,0
25320,0.320312,-0.766602,0.423828,0
25340,0.315918,-0.76416,0.425293,0
25360,0.316895,-0.775391,0.428223,0
25380,0.314453,-0.789062,0.423828,0
25400,0.311523,-0.79541,0.426758,0
25420,0.3125,-0.802246,0.433105,0
25440,0.302246,-0.804688,0.437988,0
25460,0.29834,-0.810059,0.428223,0
25480,0.26709,-0.814453,0.416016,0
25500,0.300781,-0.820801,0.433105,0
25520,0.29834,-0.818359,0.424805,0
25540,0.302734,-0.819336,0.418945,0
25560,0.306152,-0.814453,0.417969,0
25580,0.30127,-0.816895,0.426758,0
25600,0.289551,-0.802246,0.434082,0
25620,0.28418,-0.804688,0.425781,0
25640,0.288574,-0.80957,0.421387,0
25660,0.293457,-0.806152,0.41748,0
25680,0.29834,-0.80957,0.41748,0
25700,0.293457,-0.805664,0.410156,0
25720,0.282715,-0.807617,0.402832,0
25740,0.27832,-0.805664,0.392578,0
25760,0.277344,-0.800781,0.398438,0
25780,0.253418,-0.797363,0.394531,0
25800,0.225586,-0.776367,0.37207,0
25820,0.202148,-0.790039,0.359863,0
25840,0.219238,-0.804199,0.396973,0
25860,0.243164,-0.790039,0.437988,0
25880,0.227539,-0.79248,0.42627,0
25900,0.229004,-0.785645,0.456055,0
25920,0.245117,-0.786133,0.497559,0
25940,0.216797,-0.77002,0.480957,0
25960,0.225098,-0.775391,0.500488,0
25980,0.263184,-0.744629,0.499512,0
26000,0.29834,-0.740723,0.502441,0
26020,0.307129,-0.713867,0.483887,0
26040,0.275391,-0.756836,0.505859,0
26060,0.199707,-0.801758,0.508301,0
26080,0.103516,-0.847656,0.554688,0
26100,0.0683594,-0.870605,0.552734,0
26120,0.0283203,-0.84082,0.510742,0
26140,-0.012207,-0.837891,0.513184,0
26160,-0.0839844,-0.869629,0.506348,0
26180,-0.0830078,-0.89209,0.522949,0
26200,-0.0952148,-0.881348,0.520508,0
26220,-0.103027,-0.864258,0.51416,0
26240,-0.131836,-0.84082,0.529297,0
26260,-0.145996,-0.797852,0.529785,0
26280,-0.168945,-0.783691,0.563477,0
26300,-0.234863,-0.74707,0.548828,0
26320,-0.25,-0.723145,0.526855,0
26340,-0.276367,-0.709473,0.544922,0
26360,-0.325684,-0.744629,0.576172,0
26380,-0.349609,-0.763672,0.576172,0
26400,-0.339844,-0.788574,0.564453,0
26420,-0.293945,-0.809082,0.555176,0
26440,-0.274902,-0.812988,0.549805,0
26460,-0.29834,-0.82373,0.536133,0
26480,-0.320312,-0.826172,0.54541,0
26500,-0.292969,-0.716797,0.627441,0
26520,-0.297852,-0.768066,0.632812,0
26540,-0.169434,-0.803223,0.668945,0
26560,-0.034668,-0.811035,0.580078,0
26580,0.0161133,-0.836426,0.577148,0
26600,0.0629883,-0.825195,0.541992,0
26620,0.116699,-0.834961,0.553223,0
26640,0.156738,-0.816895,0.53125,0
26660,0.174316,-0.805176,0.510742,0
26680,0.21582,-0.796387,0.498535,0
26700,0.212402,-0.802246,0.422852,0
26720,0.0791016,-0.54541,0.626953,0
26740,0.106445,-0.480469,0.520508,0
26760,0.191406,-0.618164,0.438965,0
26780,0.183105,-0.675781,0.503906,0
26800,0.148438,-0.781738,0.49707,0
26820,0.119141,-0.893555,0.443359,0
26840,0.117676,-0.954102,0.401855,0
26860,0.138184,-0.837891,0.438965,0
26880,0.138672,-0.811523,0.575684,0
26900,0.249512,-0.811035,0.538574,0
26920,0.267578,-0.803711,0.536621,0
26940,0.236816,-0.841309,0.490723,0
26960,0.275391,-0.831055,0.508789,0
26980,0.333496,-0.803223,0.531738,0
27000,0.402344,-0.89502,0.51123,0
27020,0.44873,-0.95459,0.383789,0
27040,0.486328,-0.942383,0.374023,0
27060,0.46875,-0.881836,0.51416,0
27080,0.469727,-0.877441,0.521973,0
27100,0.416504,-0.885254,0.487305,0
27120,0.371094,-0.833496,0.449219,0
27140,0.284668,-0.815918,0.421875,0
27160,0.145996,-0.699219,0.459961,0
27180,0.0893555,-0.635742,0.391602,0
27200,0.0605469,-0.540527,0.322754,0
27220,-0.0698242,-0.556641,0.359863,0
27240,-0.303711,-0.725098,0.248047,0
27260,-0.511719,-1.09766,0.202148,0
27280,-0.539551,-1.39404,0.225586,0
27300,-0.348633,-1.28857,0.219238,0
27320,-0.0185547,-0.845703,0.141113,0
27340,0.00732422,-0.400879,0.29248,0
27360,-0.223633,-0.480469,0.154297,0
27380,-0.461426,-0.846191,0.0439453,0
27400,-0.345703,-1.2334,-0.0341797,0
27420,-0.214844,-1.13574,0.104492,0
27440,-0.224609,-1.05566,0.0151367,0
27460,-0.30127,-0.942383,-0.0625,0
27480,-0.412109,-1.01172,-0.0727539,0
27500,-0.451172,-1.08496,-0.162598,0
27520,-0.397461,-1.06055,-0.0922852,0
27540,-0.403809,-1.04053,-0.0400391,0
27560,-0.376465,-0.999023,-0.0639648,0
27580,-0.354004,-0.930176,-0.130371,0
27600,-0.446289,-0.856934,-0.117188,0
27620,-0.483887,-0.794434,-0.0556641,0
27640,-0.475586,-0.773438,0.0180664,0
27660,-0.489746,-0.846191,-0.0942383,0
27680,-0.462402,-0.877441,-0.187988,0
27700,-0.459473,-0.92627,-0.0839844,0
27720,-0.450684,-0.900879,-0.0693359,0
27740,-0.444824,-0.877441,-0.136719,0
27760,-0.472168,-0.890625,-0.123047,0
27780,-0.47168,-0.898438,-0.178223,0
27800,-0.48877,-0.900391,-0.146484,0
27820,-0.505371,-0.908691,-0.150391,0
27840,-0.540527,-0.9375,-0.106445,0
27860,-0.548828,-0.928711,-0.152832,0
27880,-0.584961,-0.919922,-0.118652,0
27900,-0.592285,-0.884766,-0.0463867,0
27920,-0.587402,-0.867676,-0.0205078,0
27940,-0.561523,-0.893555,0.00683594,0
27960,-0.56543,-0.916016,0.0893555,0
27980,-0.517578,-0.88623,0.187988,0
28000,-0.458496,-0.894043,0.26416,0
28020,-0.352051,-0.912598,0.267578,0
28040,-0.259277,-0.907715,0.305664,0
28060,-0.158203,-0.944824,0.410645,0
28080,-0.133789,-0.874512,0.43457,0
28100,-0.0712891,-0.804688,0.397949,0
28120,0.0219727,-0.820801,0.414062,0
28140,0.127441,-0.887695,0.423828,0
28160,0.158691,-0.973633,0.414551,0
28180,0.140625,-0.966797,0.429199,0
28200,0.0932617,-0.961426,0.42041,0
28220,0.0976562,-0.922363,0.437988,0
28240,0.130371,-0.90918,0.398438,0
28260,0.152344,-0.905273,0.388672,0
28280,0.137695,-0.861328,0.411133,0
28300,0.138672,-0.869629,0.450195,0
28320,0.135254,-0.822266,0.38623,0
28330,0.12793,-0.785156,0.396973,0
28350,0.100098,-0.720215,0.462402,0
28370,0.0839844,-0.694824,0.459473,0
28390,0.131836,-0.756836,0.409668,0
28410,0.203125,-0.740723,0.425781,0
28430,0.234375,-0.751953,0.427734,0
28450,0.213379,-0.808594,0.428223,0
28470,0.240723,-0.84375,0.414551,0
28490,0.248535,-0.854004,0.416504,0
28510,0.26709,-0.88623,0.385742,0
28530,0.235352,-0.859863,0.413086,0
28550,0.213379,-0.823242,0.42041,0
28570,0.18457,-0.803711,0.458008,0
28580,0.14502,-0.82373,0.464355,0
28600,0.111816,-0.890137,0.444336,0
28610,0.0761719,-0.866699,0.437988,0
28630,0.0654297,-0.831055,0.498535,0
28630,0.140625,-0.870605,0.47168,0
28650,0.213379,-0.884277,0.416504,0
28650,0.123047,-0.879395,0.361328,0
28680,0.0800781,-0.875,0.38916,0
28700,0.0644531,-0.864258,0.432129,0
28720,0.0283203,-0.830566,0.545898,0
28740,0.0522461,-0.783203,0.560547,0
28780,0.106445,-0.829102,0.469238,0
28810,0.100586,-0.838867,0.430176,0
28830,0.0708008,-0.826172,0.490723,0
28850,0.0546875,-0.824219,0.519531,0
28870,0.0761719,-0.817871,0.48877,0
28890,0.0751953,-0.808594,0.493652,0
28910,0.0649414,-0.838867,0.508789,0
28930,0.0644531,-0.803223,0.510742,0
28950,0.0639648,-0.810059,0.499023,0
28970,0.0668945,-0.811523,0.491211,0
28990,0.0576172,-0.816406,0.47998,0
29010,0.0419922,-0.815918,0.495605,0
29030,0.0302734,-0.799316,0.506348,0
29050,0.0112305,-0.818359,0.546875,0
29070,0.0283203,-0.785156,0.540039,0
29090,0.0449219,-0.820801,0.492188,0
29110,0.0288086,-0.814941,0.509766,0
29130,0.00537109,-0.817871,0.581543,0
29150,-0.00488281,-0.803711,0.577148,0
29170,0.0366211,-0.810547,0.533203,0
29190,0.103516,-0.824219,0.490234,0
29210,0.104004,-0.796387,0.512207,0
29230,0.0859375,-0.792969,0.550781,0
29250,0.0532227,-0.776367,0.54248,0
29270,0.0805664,-0.757812,0.530273,0
29290,0.120605,-0.792969,0.501465,0
29310,0.140137,-0.817383,0.487793,0
29330,0.126465,-0.837402,0.465332,0
29350,0.0878906,-0.845703,0.499023,0
29370,0.0874023,-0.813965,0.496582,0
29390,0.120117,-0.841797,0.457031,0
29410,0.109863,-0.867188,0.445801,0
29420,0.122559,-0.909668,0.436523,0
29430,0.30127,-0.894531,0.416992,0
29450,0.290527,-0.921875,0.447754,0
29480,0.257812,-0.924805,0.547852,0
29500,0.130371,-0.873535,0.561523,0
29520,0.097168,-0.807129,0.553711,0
29540,0.081543,-0.746582,0.564453,0
29560,0.0205078,-0.796387,0.509766,0
29580,-0.0107422,-0.824707,0.480957,0
29600,-0.0517578,-0.828125,0.502441,0
29620,-0.0688477,-0.79541,0.462891,0
29640,-0.081543,-0.779297,0.476074,0
29660,-0.162598,-0.753906,0.440918,0
29680,-0.1875,-0.768066,0.416016,0
29700,-0.150391,-0.794922,0.442871,0
29720,-0.0341797,-0.739258,0.445312,0
29740,0.0517578,-0.759766,0.424316,0
29760,0.09375,-0.759277,0.405762,0
29780,0.141113,-0.780273,0.452637,0
29800,0.21582,-0.791504,0.473145,0
29820,0.28418,-0.799316,0.450684,0
29840,0.325684,-0.813477,0.504883,0
29860,0.342285,-0.788574,0.523438,0
29870,0.345703,-0.746094,0.473145,0
29900,0.323242,-0.751953,0.435059,0
29920,0.331055,-0.748047,0.416016,0
29940,0.335449,-0.776367,0.458496,0
29960,0.333008,-0.789062,0.460449,0
29970,0.432617,-0.807617,0.448242,0
29990,0.439941,-0.76709,0.366211,0
30010,0.414062,-0.699707,0.368652,0
30030,0.330078,-0.680664,0.49707,0
30050,0.290039,-0.725586,0.579102,0
30070,0.3125,-0.774902,0.57666,0
30090,0.40918,-0.775391,0.482422,0
30110,0.4375,-0.755371,0.412598,0
30130,0.412109,-0.732422,0.391113,0
30150,0.397949,-0.740723,0.408203,0
30170,0.403809,-0.760254,0.404785,0
30190,0.39502,-0.762695,0.395508,0
30210,0.39209,-0.758789,0.428711,0
30230,0.328125,-0.753418,0.460938,0
30250,0.321289,-0.745605,0.494629,0
30270,0.324219,-0.756836,0.480469,0
30290,0.315918,-0.736816,0.471191,0
30310,0.334473,-0.748047,0.465332,0
30330,0.353027,-0.737305,0.459961,0
30350,0.380859,-0.734863,0.463867,0
30370,0.378418,-0.741699,0.474121,0
30390,0.385742,-0.747559,0.493652,0
30410,0.390137,-0.754883,0.48291,0
30430,0.392578,-0.719727,0.464355,0
30450,0.401855,-0.694824,0.469727,0
30470,0.381836,-0.705566,0.487305,0
30490,0.397461,-0.722168,0.492676,0
30510,0.415527,-0.770996,0.477051,0
30530,0.443848,-0.769043,0.516602,0
30550,0.440918,-0.775391,0.510254,0
30570,0.406738,-0.735352,0.474121,0
30590,0.414551,-0.728516,0.439453,0
30610,0.446289,-0.742188,0.462402,0
30630,0.42334,-0.720215,0.460938,0
30650,0.308594,-0.725586,0.461914,0
30670,0.194824,-0.700195,0.510742,0
30690,0.177246,-0.662109,0.513672,0
30710,0.246582,-0.652344,0.487793,0
30730,0.331055,-0.702148,0.442383,0
30750,0.393066,-0.75293,0.45166,0
30770,0.452148,-0.770996,0.478516,0
30790,0.514648,-0.758789,0.476074,0
30810,0.546875,-0.76709,0.476074,0
30830,0.462402,-0.769531,0.528809,0
30850,0.429199,-0.751465,0.591797,0
30870,0.478027,-0.721191,0.54834,0
30890,0.489258,-0.629395,0.483887,0
30910,0.459961,-0.562988,0.50293,0
30930,0.434082,-0.586914,0.508789,0
30950,0.463379,-0.638672,0.473633,0
30970,0.467773,-0.652832,0.474121,0
30990,0.473145,-0.634277,0.487793,0
31010,0.482422,-0.696289,0.449707,0
31030,0.473633,-0.720703,0.416992,0
31050,0.439941,-0.674805,0.410645,0
31070,0.443848,-0.660645,0.481934,0
31090,0.38623,-0.691406,0.504395,0
31110,0.290527,-0.683594,0.510742,0
31130,0.146973,-0.683594,0.535645,0
31150,0.106934,-0.687012,0.523438,0
31170,0.227539,-0.668457,0.47168,0
31190,0.336914,-0.691895,0.481934,0
31210,0.363281,-0.685059,0.467773,0
31230,0.335938,-0.699219,0.525879,0
31250,0.278809,-0.650391,0.641602,0
31270,0.279785,-0.536133,0.740234,0
31290,0.317871,-0.513184,0.59375,0
31310,0.372559,-0.51709,0.54541,0
31330,0.391113,-0.602051,0.623047,0
31350,0.479004,-0.758789,0.608887,0
31370,0.594727,-0.791504,0.634766,0
31390,0.566406,-0.726074,0.599609,0
31410,0.419922,-0.665039,0.620605,0
31430,0.39502,-0.672363,0.626953,0
31450,0.435547,-0.691406,0.603027,0
31470,0.458984,-0.713867,0.566406,0
31490,0.471191,-0.713379,0.509766,0
31510,0.466797,-0.709473,0.445312,0
31530,0.441406,-0.684082,0.47168,0
31550,0.419434,-0.646973,0.49707,0
31570,0.382324,-0.651367,0.495605,0
31590,0.329102,-0.672363,0.472168,0
31610,0.34082,-0.650879,0.490723,0
31630,0.374023,-0.658203,0.536621,0
31650,0.412598,-0.686035,0.57373,0
31670,0.459961,-0.654297,0.523926,0
31690,0.471191,-0.60498,0.515625,0
31710,0.42627,-0.62793,0.480469,0
31730,0.381348,-0.662598,0.475098,0
31750,0.328125,-0.657227,0.502441,0
31770,0.293457,-0.691406,0.575684,0
31790,0.300293,-0.653809,0.546875,0
31810,0.30957,-0.611328,0.499023,0
31830,0.341309,-0.605469,0.549316,0
31850,0.328125,-0.669434,0.615723,0
31870,0.283691,-0.707031,0.558105,0
31890,0.224121,-0.696289,0.594727,0
31910,0.195801,-0.597168,0.564453,0
31930,0.160645,-0.623047,0.538574,0
31950,0.158203,-0.757324,0.415039,0
31970,0.202148,-0.799805,0.388672,0
31990,0.179688,-0.775391,0.490234,0
32010,0.0922852,-0.779785,0.557129,0
32030,0.0932617,-0.79834,0.510254,0
32050,0.186035,-0.806152,0.541992,0
32070,0.24707,-0.850098,0.579102,0
32090,0.331543,-0.811523,0.540039,0
32110,0.346191,-0.818359,0.390625,0
32130,0.396973,-0.852539,0.527344,0
32150,0.446777,-0.791016,0.706055,0
32170,0.463867,-0.718262,0.552246,0
32190,0.389648,-0.722168,0.529297,0
32210,0.4375,-0.751465,0.490234,0
32230,0.530762,-0.673828,0.560059,0
32250,0.498535,-0.658203,0.388184,0
32270,0.365234,-0.722656,0.348633,0
32290,0.252441,-0.771484,0.400879,0
32310,0.188965,-0.782227,0.566895,0
32330,0.253418,-0.783203,0.561035,0
32350,0.347168,-0.791992,0.337402,0
32370,0.369141,-0.772461,0.254883,0
32390,0.289062,-0.768066,0.308594,0
32410,0.188965,-0.853516,0.38623,0
32430,0.135742,-0.948242,0.42334,0
32450,0.161621,-1.0249,0.40918,0
32470,0.185547,-1.04102,0.388184,0
32490,0.20166,-0.969727,0.34082,0
32500,0.212891,-0.961914,0.299805,0
32520,0.18457,-0.97998,0.333496,0
32540,0.179688,-0.998535,0.403809,0
32560,0.20752,-1,0.450195,0
32580,0.246582,-0.947754,0.414551,0
32600,0.257812,-0.874023,0.405762,0
32620,0.219238,-0.817871,0.468262,0
32640,0.183594,-0.773926,0.471191,0
32660,0.187012,-0.791016,0.466797,0
32680,0.199219,-0.775879,0.47998,0
32700,0.16748,-0.816895,0.47998,0
32720,0.162598,-0.81543,0.471191,0
32740,0.145996,-0.802734,0.452148,0
32760,0.139648,-0.809082,0.455078,0
32780,0.133301,-0.816406,0.477051,0
32800,0.14502,-0.836914,0.478516,0
32820,0.151855,-0.855469,0.466797,0
32840,0.160156,-0.867676,0.45459,0
32860,0.148438,-0.869629,0.460449,0
32880,0.154297,-0.841309,0.448242,0
32900,0.173828,-0.806641,0.458008,0
32920,0.166016,-0.788574,0.46582,0
32940,0.150879,-0.806152,0.478027,0
32960,0.15625,-0.800781,0.480469,0
32980,0.15625,-0.818848,0.469727,0
33000,0.158691,-0.811523,0.473145,0
33020,0.178223,-0.816895,0.473145,0
33040,0.186523,-0.828613,0.471191,0
33060,0.202148,-0.828613,0.46582,0
33080,0.194336,-0.828613,0.471191,0
33100,0.200195,-0.825684,0.478027,0
33120,0.212402,-0.824707,0.458984,0
33140,0.216309,-0.810547,0.462402,2000
33160,0.203125,-0.806641,0.473633,0
33180,0.203613,-0.806641,0.476562,0
33200,0.213867,-0.811035,0.472168,0
33220,0.229492,-0.819336,0.465332,0
33240,0.224609,-0.826172,0.445801,0
33260,0.221191,-0.811523,0.458496,0
33280,0.210938,-0.814941,0.461914,0
33300,0.19043,-0.79541,0.463867,0
33300,0.19043,-0.79541,0.463867,0
33310,0.212402,-0.824707,0.458984,0
33340,0.189453,-0.802246,0.469727,0
33360,0.196777,-0.80957,0.471191,0
33380,0.20752,-0.805664,0.460938,0
33400,0.197266,-0.809082,0.44873,0
33410,0.176758,-0.798828,0.455078,0
33430,0.163086,-0.806641,0.466309,0
33450,0.155273,-0.816406,0.473145,0
33470,0.169434,-0.820801,0.469727,0
33490,0.17334,-0.831543,0.471191,0
33510,0.15332,-0.823242,0.462891,0
33530,0.135742,-0.820312,0.463379,0
33550,0.104492,-0.818359,0.471191,0
33570,0.0883789,-0.816895,0.471191,0
33590,0.0976562,-0.832031,0.481445,0
33610,0.124512,-0.850586,0.467773,0
33630,0.137695,-0.848633,0.45459,0
33660,0.151367,-0.838379,0.510254,0
33680,0.197754,-0.86084,0.483398,0
33700,0.219238,-0.847168,0.45166,0
33700,0.266602,-0.827148,0.431152,0
33720,0.267578,-0.816406,0.412598,0
33740,0.245117,-0.801758,0.404785,0
33780,0.287598,-0.817383,0.376953,0
33800,0.288574,-0.81543,0.35791,0
33820,0.310059,-0.799316,0.381348,0
33840,0.331543,-0.804688,0.395508,0
33860,0.333496,-0.811523,0.363281,0
33880,0.328125,-0.799805,0.347656,0
33900,0.332031,-0.802734,0.339355,0
33920,0.319336,-0.796875,0.317383,0
33940,0.319824,-0.789062,0.316895,0
33960,0.325684,-0.811035,0.314941,0
33980,0.350586,-0.827148,0.306152,0
34000,0.369141,-0.822754,0.312988,0
34020,0.374512,-0.811523,0.303223,0
34060,0.404785,-0.773926,0.297852,0
34080,0.453125,-0.78125,0.303223,0
34100,0.476562,-0.783691,0.304688,0
34120,0.514648,-0.783203,0.291016,0
34120,0.546387,-0.787598,0.292969,0
34150,0.599609,-0.761719,0.289551,0
34160,0.631348,-0.744629,0.291504,0
34180,0.631836,-0.723633,0.289551,0
34200,0.62793,-0.732422,0.294922,0
34220,0.665039,-0.746582,0.30957,0
34240,0.651367,-0.734375,0.314453,0
34260,0.629883,-0.719238,0.334961,0
34280,0.623535,-0.697266,0.361816,0
34300,0.627441,-0.70166,0.38623,0
34320,0.591309,-0.699219,0.395996,0
34340,0.5625,-0.688477,0.406738,0
34360,0.547363,-0.68457,0.455078,0
34380,0.535645,-0.682617,0.462402,0
34400,0.538086,-0.665039,0.448242,0
34420,0.538574,-0.670898,0.467773,0
34440,0.498047,-0.655273,0.508789,0
34460,0.48584,-0.654785,0.515625,0
34480,0.459473,-0.679688,0.521973,0
34500,0.446777,-0.661133,0.517578,0
34520,0.444824,-0.634277,0.541992,0
34540,0.437012,-0.65332,0.557129,0
34560,0.42041,-0.657227,0.510742,0
34580,0.390625,-0.663086,0.517578,0
34600,0.385254,-0.664551,0.5625,0
34620,0.356445,-0.672363,0.546875,0
34640,0.34375,-0.67334,0.52832,0
34660,0.340332,-0.671875,0.546875,0
34680,0.331543,-0.675781,0.563965,0
34700,0.349609,-0.702148,0.574219,0
34720,0.354492,-0.720215,0.523926,0
34740,0.358887,-0.711426,0.514648,0
34760,0.32373,-0.70459,0.533203,0
34780,0.28418,-0.707031,0.543945,0
34800,0.260742,-0.695801,0.531738,0
34820,0.254883,-0.713379,0.500977,0
34840,0.235352,-0.708008,0.504395,0
34860,0.209961,-0.716797,0.505371,0
34880,0.183594,-0.725586,0.493652,0
34900,0.163086,-0.748535,0.48584,0
34920,0.13623,-0.780762,0.479004,0
34940,0.121582,-0.769043,0.469238,0
34960,0.128418,-0.760254,0.45166,0
34980,0.119141,-0.768555,0.441895,0
35000,0.124023,-0.794434,0.430176,0
35020,0.143066,-0.797852,0.439941,0
35040,0.16748,-0.806641,0.4375,0
35060,0.186523,-0.824707,0.402344,0
35080,0.218262,-0.861816,0.396484,0
35100,0.244141,-0.854492,0.399414,0
35120,0.23877,-0.85791,0.395996,0
35140,0.237793,-0.865234,0.383789,0
35160,0.243164,-0.866211,0.377441,0
35180,0.241699,-0.848633,0.39502,0
35200,0.250977,-0.835449,0.380859,0
35220,0.268555,-0.848633,0.383789,0
35230,0.311035,-0.871582,0.383789,0
35250,0.331543,-0.867188,0.38916,0
35270,0.335938,-0.861328,0.370117,0
35290,0.356445,-0.855469,0.353516,0
35310,0.39502,-0.839355,0.350098,0
35330,0.418945,-0.822754,0.334473,0
35350,0.413086,-0.785645,0.314941,0
35370,0.403809,-0.797852,0.294434,0
35390,0.399902,-0.810059,0.300293,0
35410,0.40625,-0.82666,0.294922,0
35430,0.458984,-0.824219,0.262695,0
35450,0.497559,-0.818848,0.248535,0
35470,0.496094,-0.828125,0.225586,0
35490,0.489258,-0.827637,0.224609,0
35510,0.526855,-0.826172,0.215332,0
35530,0.509277,-0.818848,0.20459,0
35550,0.496582,-0.813965,0.197266,0
35570,0.506836,-0.790039,0.210938,0
35590,0.517578,-0.780273,0.189453,0
35610,0.533691,-0.766602,0.174805,0
35630,0.498535,-0.765137,0.160645,0
35650,0.524414,-0.762207,0.150879,0
35670,0.54834,-0.767578,0.139648,0
35690,0.570312,-0.758789,0.121094,0
35710,0.588379,-0.740723,0.116211,0
35730,0.581055,-0.747559,0.101074,0
35750,0.558105,-0.733887,0.116699,0
35770,0.572754,-0.714355,0.120117,0
35790,0.602051,-0.700684,0.0976562,0
35810,0.632324,-0.69873,0.0859375,0
35830,0.654297,-0.693359,0.0756836,0
35850,0.685547,-0.685547,0.0834961,0
35860,0.699219,-0.677246,0.0849609,0
35880,0.70459,-0.666504,0.0620117,0
35900,0.734375,-0.641113,0.0683594,0
35920,0.780762,-0.639648,0.0668945,0
35940,0.821289,-0.63623,0.0732422,0
35960,0.839844,-0.606445,0.0864258,0
35980,0.833496,-0.578613,0.0942383,0
36000,0.854004,-0.562988,0.113281,0
36020,0.876953,-0.556152,0.120605,0
36040,0.894043,-0.54248,0.132812,0
36060,0.948242,-0.524902,0.157715,0
36080,0.980957,-0.544922,0.147461,0
36100,0.946777,-0.534668,0.213867,0
36120,0.89209,-0.495605,0.26709,0
36140,0.921387,-0.506348,0.291504,0
36160,0.945312,-0.500488,0.299805,0
36180,0.942871,-0.494141,0.34375,0
36200,0.858887,-0.512207,0.384766,0
36220,0.805176,-0.476074,0.408203,0
36240,0.774902,-0.49707,0.470703,0
36260,0.776367,-0.467773,0.523926,0
36280,0.73584,-0.484863,0.577637,0
36300,0.666504,-0.444336,0.609863,0
36320,0.65625,-0.444336,0.60791,0
36340,0.667969,-0.398438,0.586426,0
36360,0.593262,-0.404297,0.629883,0
36380,0.476074,-0.461426,0.672852,0
36400,0.382812,-0.567871,0.625,0
36420,0.408203,-0.630371,0.634766,0
36440,0.34375,-0.580078,0.630371,0
36460,0.223145,-0.508789,0.582031,0
36480,0.159668,-0.551758,0.540527,0
36500,0.138672,-0.584961,0.534668,0
36520,0.113281,-0.590332,0.491699,0
36540,0.0864258,-0.637207,0.437012,0
36560,0.0634766,-0.668457,0.429688,0
36580,0.0380859,-0.702637,0.384277,0
36600,0.046875,-0.73584,0.349609,0
36620,0.0766602,-0.75293,0.331543,0
36640,0.103516,-0.788574,0.297852,0
36660,0.119629,-0.819824,0.280762,0
36680,0.138672,-0.850098,0.257812,0
36700,0.168945,-0.87207,0.251953,0
36720,0.216797,-0.899414,0.227539,0
36740,0.265137,-0.911133,0.209961,0
36760,0.333984,-0.915039,0.204102,0
36780,0.380371,-0.916992,0.175781,0
36800,0.395996,-0.912109,0.195312,0
36820,0.444336,-0.885742,0.181152,0
36840,0.468262,-0.867188,0.151855,0
36860,0.506348,-0.833984,0.125977,0
36880,0.55957,-0.812988,0.107422,0
36900,0.574707,-0.787598,0.0820312,0
36920,0.60498,-0.792969,0.0175781,0
36940,0.616699,-0.766113,-0.00439453,0
36960,0.664062,-0.756348,0.0166016,0
36980,0.615234,-0.700195,0.00195312,0
37000,0.704102,-0.678711,-0.0166016,0
37020,0.767578,-0.647461,-0.0727539,0
37040,0.809082,-0.647461,-0.0698242,0
37060,0.815918,-0.603516,-0.0991211,0
37080,0.828613,-0.597168,-0.152344,0
37100,0.864746,-0.552246,-0.155273,0
37120,0.915527,-0.532227,-0.138672,0
37140,0.937012,-0.504395,-0.157227,0
37160,0.958008,-0.482422,-0.208008,0
37180,0.99707,-0.447754,-0.193359,0
37200,1.00977,-0.419922,-0.174316,0
37220,1.01807,-0.387695,-0.17334,0
37240,1.01904,-0.363281,-0.139648,0
37260,1.01855,-0.321777,-0.106934,0
37280,1.02441,-0.308105,-0.105469,0
37300,1.0376,-0.310547,-0.074707,0
37320,1.02051,-0.320312,-0.0424805,0
37340,1.02393,-0.352539,-0.0107422,0
37360,1.06787,-0.320312,0.0668945,0
37380,1.11719,-0.291016,0.128906,0
37400,1.13428,-0.276367,0.175781,0
37420,1.09717,-0.306641,0.247559,0
37440,1.05225,-0.287598,0.275391,0
37460,1.03369,-0.266602,0.313965,0
37480,0.974121,-0.227051,0.365723,0
37500,0.880859,-0.219238,0.427246,0
37520,0.870117,-0.211426,0.47998,0
37540,0.848633,-0.202637,0.521484,0
37560,0.813477,-0.219238,0.525391,0
37580,0.705078,-0.273926,0.600586,0
37600,0.630371,-0.355469,0.597168,0
37620,0.586914,-0.405762,0.580078,0
37640,0.526855,-0.425781,0.551758,0
37660,0.456543,-0.393066,0.546875,0
37680,0.41748,-0.403809,0.535156,0
37700,0.349121,-0.408203,0.518066,0
37720,0.292969,-0.435547,0.465332,0
37740,0.268066,-0.499512,0.413574,0
37760,0.268555,-0.535645,0.368164,0
37780,0.263184,-0.576172,0.340332,0
37800,0.262695,-0.608887,0.304199,0
37820,0.315918,-0.674805,0.292969,0
37840,0.352539,-0.699707,0.290039,0
37860,0.34375,-0.681152,0.259277,0
37880,0.354004,-0.706055,0.201172,0
37900,0.371094,-0.737305,0.154297,0
37920,0.401855,-0.757812,0.136719,0
37940,0.427246,-0.786133,0.144531,0
37960,0.457031,-0.799805,0.0888672,0
37980,0.510742,-0.816895,0.0478516,0
38000,0.535156,-0.824219,0.0585938,0
38020,0.54248,-0.817871,0.0595703,0
38040,0.583496,-0.787109,0.0195312,0
38060,0.611328,-0.791504,-0.0161133,0
38080,0.625977,-0.774902,-0.0742188,0
38100,0.552246,-0.786621,-0.074707,0
38120,0.627441,-0.738281,-0.0332031,0
38140,0.692383,-0.703613,-0.0253906,0
38160,0.683105,-0.714355,-0.142578,0
38180,0.720703,-0.724121,-0.1875,0
38200,0.797852,-0.684082,-0.139648,0
38220,0.777832,-0.607422,-0.109375,0
38240,0.745117,-0.59668,-0.175293,0
38260,0.768555,-0.617188,-0.20166,0
38280,0.842285,-0.620117,-0.191895,0
38300,0.879395,-0.567383,-0.187988,0
38320,0.852539,-0.541992,-0.234375,0
38340,0.889648,-0.566895,-0.253418,0
38360,0.933594,-0.554199,-0.214355,0
38380,0.910156,-0.546875,-0.234863,0
38400,0.915527,-0.521973,-0.251953,0
38420,0.930176,-0.485352,-0.199707,0
38440,0.928711,-0.480957,-0.212402,0
38460,0.942383,-0.463379,-0.223145,0
38480,0.941895,-0.452637,-0.197754,0
38500,0.897949,-0.438477,-0.157227,0
38520,0.899414,-0.433105,-0.174805,2001
38540,0.910645,-0.444336,-0.148438,0
38560,0.890137,-0.437988,-0.150879,0
38580,0.858398,-0.42334,-0.13916,0
38600,0.861816,-0.429688,-0.105469,0
38620,0.871582,-0.415527,-0.11084,0
38630,0.84668,-0.454102,-0.131836,0
38650,0.829102,-0.47998,-0.136719,0
38670,0.822754,-0.469727,-0.0727539,0
38690,0.797852,-0.466797,-0.059082,0
38710,0.792969,-0.474609,-0.0820312,0
38730,0.743652,-0.505859,-0.100098,0
38750,0.679199,-0.477051,-0.0649414,0
38770,0.646484,-0.4375,-0.0776367,0
38790,0.662598,-0.464844,-0.0791016,0
38810,0.648438,-0.473145,-0.0654297,0
38830,0.61084,-0.481445,-0.0693359,0
38850,0.633789,-0.493164,-0.09375,0
38870,0.675781,-0.512207,-0.0600586,0
38890,0.683105,-0.496094,-0.0375977,0
38910,0.694336,-0.53125,-0.0458984,0
38930,0.673828,-0.530762,-0.0913086,0
38950,0.672363,-0.53418,-0.0917969,0
38970,0.729492,-0.513672,-0.0273438,0
38990,0.763672,-0.508789,0.00244141,0
39010,0.766602,-0.549316,0.00390625,0
39030,0.745117,-0.595215,-0.0336914,0
39050,0.67334,-0.638184,-0.0820312,0
39070,0.743164,-0.631348,-0.0449219,0
39090,0.805176,-0.636719,0.0351562,0
39110,0.80127,-0.660156,0.0673828,0
39130,0.804199,-0.663574,0.0180664,0
39150,0.907227,-0.666992,0.0214844,0
39170,0.961426,-0.696289,0.0361328,0
39190,0.901367,-0.6875,-0.0146484,0
39210,0.908691,-0.723145,0.0341797,0
39230,0.867676,-0.745117,0.0678711,0
39250,0.830078,-0.800781,0.0595703,0
39270,0.816895,-0.785156,0.0830078,0
39290,0.741211,-0.817383,0.134277,0
39310,0.675781,-0.853027,0.162109,0
39330,0.641113,-0.852051,0.182617,0
39350,0.619629,-0.845215,0.200684,0
39370,0.611816,-0.864746,0.225586,0
39390,0.580078,-0.888672,0.252441,0
39410,0.529785,-0.879883,0.263672,0
39430,0.520996,-0.875488,0.258789,0
39450,0.504883,-0.887695,0.277832,0
39470,0.477539,-0.861816,0.316895,0
39490,0.407227,-0.848633,0.331055,0
39510,0.350098,-0.85791,0.325684,0
39530,0.327637,-0.834473,0.354004,0
39550,0.310059,-0.825684,0.370117,0
39570,0.231934,-0.828613,0.334961,0
39590,0.199219,-0.837402,0.339355,0
39610,0.208984,-0.828125,0.364746,0
39630,0.183105,-0.829102,0.375,0
39650,0.181152,-0.850098,0.355957,0
39670,0.22998,-0.854004,0.359863,0
39690,0.247559,-0.859375,0.359863,0
39710,0.23291,-0.870605,0.334473,0
39730,0.231934,-0.862793,0.351562,0
39750,0.258301,-0.854492,0.334961,2000
39770,0.285645,-0.811035,0.348145,0
39790,0.308105,-0.822754,0.331055,0
39810,0.328613,-0.844238,0.33252,0
39830,0.348145,-0.849609,0.339355,0
39850,0.339844,-0.836426,0.331543,0
39870,0.32666,-0.816895,0.336914,0
39890,0.324219,-0.818359,0.33252,0
39910,0.324219,-0.836914,0.312012,0
39930,0.304688,-0.839355,0.332031,0
39950,0.268555,-0.805664,0.351562,0
39970,0.238281,-0.809082,0.367188,0
39990,0.224121,-0.822754,0.372559,0
40010,0.215332,-0.831055,0.352051,0
40030,0.222656,-0.841309,0.359863,0
40050,0.246582,-0.871094,0.360352,0
40070,0.277832,-0.895996,0.36084,0
40090,0.311035,-0.880859,0.378418,0
40110,0.345703,-0.856445,0.351562,0
40130,0.358887,-0.84375,0.335449,0
40150,0.359863,-0.844238,0.318359,0
40170,0.370117,-0.842285,0.32959,0
40190,0.407715,-0.856445,0.335938,0
40210,0.433594,-0.845215,0.336914,0
40230,0.418457,-0.805664,0.296875,0
40250,0.375488,-0.791504,0.280273,0
40270,0.401855,-0.811035,0.292969,0
40290,0.437012,-0.822754,0.272949,0
40310,0.404297,-0.783691,0.305176,0
40330,0.366699,-0.744141,0.306152,0
40350,0.42334,-0.76416,0.275391,0
40370,0.444824,-0.810059,0.223145,0
40390,0.455078,-0.8125,0.21582,0
40410,0.480957,-0.791504,0.226074,0
40430,0.505371,-0.784668,0.223145,0
40450,0.520996,-0.779297,0.239746,0
40470,0.52002,-0.783203,0.238281,0
40490,0.524902,-0.767578,0.223633,0
40510,0.536621,-0.756348,0.207031,0
40530,0.561035,-0.748535,0.21582,0
40550,0.59082,-0.731445,0.233398,0
40570,0.612793,-0.737305,0.218262,0
40590,0.635742,-0.718262,0.220703,0
40610,0.637207,-0.706055,0.216797,0
40630,0.66748,-0.706543,0.251465,0
40640,0.676758,-0.694336,0.262695,0
40660,0.640137,-0.666016,0.275879,0
40680,0.648926,-0.630371,0.299805,0
40690,0.700195,-0.651367,0.303711,0
40710,0.730469,-0.634766,0.323242,0
40730,0.745117,-0.629395,0.325684,0
40750,0.776367,-0.657715,0.343262,0
40750,0.803223,-0.620605,0.389648,0
40770,0.773926,-0.563965,0.435547,0
40780,0.769531,-0.544922,0.460938,0
40800,0.719238,-0.533203,0.481445,0
40820,0.681152,-0.521484,0.519043,0
40830,0.654785,-0.560059,0.544922,0
40850,0.650391,-0.547363,0.558105,0
40870,0.647949,-0.541016,0.571777,0
40890,0.635254,-0.461914,0.584473,0
40910,0.581055,-0.44873,0.625977,0
40930,0.588867,-0.443359,0.644531,0
40950,0.573242,-0.506348,0.655273,0
40970,0.484375,-0.490723,0.66748,0
40990,0.419922,-0.514648,0.685547,0
41010,0.371582,-0.51416,0.702148,0
41030,0.374023,-0.529297,0.693359,0
41050,0.368652,-0.527344,0.679688,0
41070,0.334961,-0.546875,0.658691,0
41090,0.271973,-0.556152,0.62207,0
41110,0.246582,-0.615234,0.641602,0
41130,0.262207,-0.632812,0.663086,0
41150,0.230957,-0.626465,0.645996,0
41170,0.144043,-0.640137,0.594727,0
41190,0.0986328,-0.680664,0.580566,0
41210,0.122559,-0.701172,0.572754,0
41230,0.116211,-0.648926,0.525391,0
41250,0.0166016,-0.707031,0.463379,0
41270,-0.0366211,-0.740234,0.454102,0
41290,-0.019043,-0.769531,0.43457,0
41310,0.0439453,-0.780273,0.412598,0
41330,0.0878906,-0.779297,0.386719,0
41350,0.074707,-0.814453,0.343262,0
41370,0.0522461,-0.821777,0.320801,0
41390,0.0541992,-0.805664,0.310547,0
41410,0.0834961,-0.788086,0.302246,0
41430,0.114258,-0.789062,0.277344,0
41450,0.138672,-0.848145,0.232422,0
41470,0.173828,-0.891602,0.228516,0
41490,0.248047,-0.869629,0.270996,0
41510,0.29834,-0.849609,0.283203,0
41530,0.336914,-0.879395,0.192383,0
41550,0.399414,-0.916016,0.177734,0
41570,0.433105,-0.835449,0.219727,0
41590,0.444824,-0.799805,0.194824,0
41610,0.460449,-0.804688,0.13916,0
41630,0.521973,-0.802246,0.101074,0
41650,0.612305,-0.792969,0.144531,0
41670,0.660156,-0.771973,0.127441,0
41690,0.648438,-0.741211,0.0947266,0
41710,0.643066,-0.709473,0.0498047,0
41730,0.740234,-0.71582,0.0273438,0
41750,0.762207,-0.728516,0.0273438,0
41770,0.812012,-0.643555,0.0678711,0
41790,0.820312,-0.609863,0.00585938,0
41810,0.821777,-0.604492,-0.0634766,0
41830,0.854004,-0.572754,-0.0771484,0
41850,0.919922,-0.526855,-0.0673828,0
41870,0.964844,-0.512695,-0.0727539,0
41890,0.998535,-0.478027,-0.0551758,0
41910,1.00586,-0.45752,-0.0537109,0
41930,1.02881,-0.422852,-0.0405273,0
41950,1.03564,-0.373047,-0.0341797,0
41970,1.021,-0.333008,-0.0366211,0
41990,1.03857,-0.326172,-0.0327148,0
42010,1.04639,-0.297363,0.0180664,0
42030,1.03955,-0.272461,0.0800781,0
42050,1.04102,-0.266602,0.118652,0
42070,1.09277,-0.302734,0.166504,0
42090,1.09326,-0.30127,0.19873,0
42110,1.02441,-0.266602,0.289062,0
42130,0.953613,-0.246582,0.378418,0
42150,0.939941,-0.260742,0.378906,0
42170,0.976074,-0.318359,0.387207,0
42190,0.969727,-0.268066,0.472168,0
42210,1,-0.192871,0.513184,0
42230,0.922363,-0.165527,0.600586,0
42250,0.807129,-0.229492,0.638672,0
42270,0.64502,-0.278809,0.652344,0
42290,0.584473,-0.320801,0.658203,0
42310,0.492676,-0.307617,0.676758,0
42330,0.442871,-0.345215,0.671387,0
42350,0.40625,-0.424316,0.65332,0
42370,0.361328,-0.468262,0.628418,0
42390,0.358398,-0.485352,0.640625,0
42410,0.312012,-0.491699,0.592285,0
42430,0.284668,-0.543945,0.552246,0
42450,0.269043,-0.615723,0.480957,0
42470,0.256348,-0.601074,0.459473,0
42490,0.19043,-0.570312,0.390625,0
42510,0.111328,-0.569336,0.319824,0
42530,0.0732422,-0.625,0.263672,0
42550,0.114258,-0.71582,0.274414,0
42570,0.185059,-0.755859,0.242188,0
42590,0.188965,-0.733887,0.193848,0
42610,0.144531,-0.756348,0.154297,0
42630,0.174805,-0.852051,0.135254,0
42650,0.28125,-0.893066,0.130859,0
42670,0.344238,-0.890137,0.152344,0
42690,0.351562,-0.851074,0.17627,0
42710,0.365234,-0.864258,0.133789,0
42730,0.438477,-0.858887,0.0932617,0
42750,0.510742,-0.842773,0.0737305,0
42770,0.552246,-0.820312,0.115723,0
42790,0.62793,-0.76416,0.0991211,0
42810,0.64502,-0.728027,0.0507812,0
42830,0.65625,-0.660156,0.00830078,0
42850,0.761719,-0.662109,-0.043457,0
42870,0.850586,-0.658203,-0.0351562,0
42890,0.876953,-0.59375,-0.0341797,0
42910,0.883789,-0.770996,-0.027832,0
42930,0.909668,-0.56543,-0.181641,0
42950,0.95752,-0.538086,-0.158203,0
42970,0.959473,-0.458496,-0.13916,0
42990,0.939941,-0.392578,-0.203125,0
43010,1.00146,-0.37793,-0.229492,0
43030,1.04395,-0.374512,-0.181152,0
43050,1.05469,-0.36377,-0.199219,0
43070,1.06836,-0.333496,-0.176758,0
43090,1.09961,-0.297852,-0.152344,0
43110,1.10986,-0.245117,-0.116699,0
43130,1.11475,-0.234863,-0.102051,0
43150,1.10059,-0.192871,-0.0390625,0
43170,1.12207,-0.186523,0.0200195,0
43190,1.09619,-0.162109,0.0581055,0
43210,1.10693,-0.157715,0.0825195,0
43230,1.05664,-0.140625,0.171387,0
43250,1.0708,-0.148438,0.20752,0
43270,1.11865,-0.173828,0.198242,0
43290,0.985352,-0.0244141,0.330566,0
43310,1.02295,-0.00683594,0.421387,0
43330,1.00293,-0.0947266,0.503906,0
43350,0.888672,-0.00830078,0.509277,0
43370,0.911621,-0.107422,0.549805,0
43390,0.764648,-0.175293,0.533203,0
43410,0.631348,-0.225586,0.584961,0
43430,0.567383,-0.274414,0.646973,0
43450,0.563965,-0.297852,0.605469,0
43470,0.555176,-0.246582,0.57959,0
43490,0.511719,-0.229492,0.54834,0
43510,0.445312,-0.244141,0.562988,0
43530,0.441895,-0.330078,0.571289,0
43550,0.398926,-0.383301,0.522949,0
43570,0.306641,-0.41748,0.392578,0
43590,0.325195,-0.436523,0.420898,0
43610,0.422363,-0.479492,0.457031,0
43630,0.445312,-0.519531,0.420898,0
43650,0.400879,-0.563965,0.360352,0
43670,0.298828,-0.573242,0.232422,0
43690,0.322266,-0.625977,0.25293,0
43710,0.45752,-0.651367,0.310059,0
43730,0.472168,-0.664062,0.240723,0
43750,0.42627,-0.712891,0.177734,0
43770,0.488281,-0.758301,0.191406,0
43790,0.592773,-0.783691,0.17627,0
43810,0.625488,-0.749512,0.122559,0
43830,0.551758,-0.754883,0.0581055,0
43850,0.557617,-0.76709,0.0756836,0
43870,0.680176,-0.797363,0.046875,0
43890,0.75293,-0.788574,0.0224609,0
43910,0.708984,-0.732422,-0.00341797,0
43930,0.677734,-0.72998,-0.0644531,0
43950,0.708496,-0.736328,-0.102539,0
43960,0.748047,-0.691406,-0.11084,0
43980,0.765137,-0.658691,-0.133301,0
44000,0.736816,-0.621582,-0.130859,0
44020,0.735352,-0.564453,-0.168945,0
44040,0.789062,-0.570312,-0.236816,0
44060,0.8125,-0.560059,-0.248047,0
44080,0.775879,-0.512695,-0.196289,0
44100,0.765137,-0.499023,-0.216797,0
44120,0.793457,-0.507812,-0.250488,0
44140,0.833496,-0.507324,-0.227051,0
44160,0.81543,-0.478027,-0.212402,0
44180,0.794434,-0.487793,-0.217773,0
44200,0.860352,-0.490723,-0.209961,0
44220,0.900879,-0.518555,-0.121582,2001
44240,0.859375,-0.5,-0.249023,0
44260,0.890625,-0.461426,-0.20459,0
44280,0.95459,-0.459473,-0.177734,0
44300,1.02295,-0.454102,-0.193848,0
44320,1.01709,-0.453613,-0.174316,0
44340,0.977051,-0.465332,-0.159668,0
44360,0.957031,-0.45752,-0.162598,0
44380,0.92334,-0.45459,-0.155273,0
44400,0.876953,-0.445801,-0.144043,0
44420,0.746582,-0.42627,-0.141602,0
44440,0.682617,-0.353516,-0.0844727,0
44460,0.605957,-0.305176,-0.0688477,0
44480,0.603027,-0.242188,-0.0898438,0
44500,0.694824,-0.345215,-0.074707,0
44520,0.689453,-0.358887,-0.065918,0
44540,0.67334,-0.421875,-0.0571289,0
44560,0.609375,-0.394043,-0.0566406,0
44580,0.654297,-0.380859,-0.129883,0
44600,0.749512,-0.417969,-0.11377,0
44620,0.749023,-0.416992,-0.0371094,0
44640,0.719727,-0.455078,-0.0429688,0
44660,0.696777,-0.479492,-0.0615234,0
44680,0.705078,-0.467773,0,0
44700,0.719238,-0.475098,0.0366211,0
44720,0.717773,-0.486816,-0.00976562,0
44740,0.743652,-0.539062,-0.00732422,0
44760,0.745117,-0.564453,0.0683594,0
44780,0.791016,-0.578125,0.151367,0
44800,0.836914,-0.563965,0.17041,0
44820,0.867676,-0.63623,0.0976562,0
44840,0.902344,-0.667969,0.124512,0
44860,0.943359,-0.702148,0.140625,0
44880,0.96875,-0.692383,0.11084,0
44900,1.03369,-0.71875,0.135254,0
44920,1.00391,-0.740234,0.156738,0
44940,0.911133,-0.747559,0.214355,0
44960,0.853027,-0.802246,0.193359,0
44980,0.797363,-0.814453,0.251465,0
45000,0.737793,-0.825195,0.313965,0
45020,0.647461,-0.877441,0.277344,0
45040,0.625977,-0.902832,0.274414,0
45060,0.608887,-0.885254,0.322754,0
45080,0.544434,-0.861328,0.374512,0
45100,0.458984,-0.874512,0.375488,0
45120,0.436035,-0.859375,0.379883,0
45140,0.44043,-0.852539,0.375977,0
45160,0.402344,-0.870605,0.378906,0
45180,0.305664,-0.870605,0.397949,0
45200,0.199219,-0.871094,0.433105,0
45220,0.216797,-0.834961,0.449707,0
45240,0.197754,-0.82959,0.433105,0
45260,0.186523,-0.828613,0.40918,0
45280,0.174316,-0.794922,0.428223,2000
45300,0.154785,-0.783203,0.415527,0
45320,0.184082,-0.797852,0.414062,0
45340,0.24707,-0.830078,0.437012,0
45360,0.304199,-0.851074,0.383301,0
45380,0.322754,-0.834961,0.401855,0
45400,0.336426,-0.831543,0.397949,0
45420,0.340332,-0.820312,0.391602,0
45440,0.308105,-0.794922,0.387695,0
45460,0.280273,-0.770996,0.374512,0
45480,0.260742,-0.768555,0.387695,0
45500,0.242676,-0.766113,0.389648,0
45520,0.233398,-0.787598,0.36377,0
45540,0.23877,-0.799316,0.378418,0
45560,0.258789,-0.803223,0.369141,0
45580,0.277832,-0.795898,0.378418,0
45600,0.313477,-0.82373,0.347656,0
45620,0.369141,-0.841309,0.371582,0
45640,0.421875,-0.816895,0.396973,0
45660,0.514648,-0.838867,0.337891,0
45680,0.606445,-0.810059,0.333496,0
45700,0.614258,-0.779297,0.351562,0
45720,0.556152,-0.726074,0.314453,0
45740,0.493652,-0.715332,0.274902,0
45760,0.506348,-0.752441,0.259766,0
45780,0.532715,-0.746582,0.280762,0
45800,0.496582,-0.744629,0.273438,0
45820,0.486328,-0.717285,0.265137,0
45840,0.51416,-0.727539,0.221191,0
45860,0.520996,-0.744629,0.198242,0
45880,0.496582,-0.703613,0.244629,0
45900,0.534668,-0.718262,0.238281,0
45920,0.580566,-0.746582,0.222656,0
45940,0.623535,-0.749023,0.210938,0
45960,0.625488,-0.69873,0.224609,0
45970,0.614746,-0.666504,0.20459,0
45990,0.649414,-0.668457,0.188477,0
46000,0.720703,-0.684082,0.201172,0
46010,0.744629,-0.647461,0.209473,0
46030,0.741699,-0.616699,0.196289,0
46050,0.720703,-0.515137,0.195801,0
46070,0.736816,-0.568848,0.239258,0
46090,0.759277,-0.560059,0.26709,0
46110,0.786133,-0.541504,0.255371,0
46130,0.822754,-0.541992,0.278809,0
46150,0.955078,-0.549805,0.303711,0
46170,0.91748,-0.568848,0.336426,0
46190,0.83252,-0.554199,0.42334,0
46210,0.805664,-0.525879,0.425781,0
46230,0.850098,-0.580078,0.429199,0
46250,0.828125,-0.517578,0.493164,0
46270,0.800293,-0.486816,0.52002,0
46290,0.756836,-0.47998,0.571777,0
46310,0.726562,-0.522461,0.618652,0
46330,0.539551,-0.426758,0.671387,0
46350,0.59668,-0.446777,0.674316,0
46370,0.805664,-0.514648,0.666016,0
46390,0.452148,-0.400391,0.768555,0
46410,0.412598,-0.35498,0.733398,0
46430,0.361328,-0.385254,0.728027,0
46450,0.324707,-0.497559,0.75,0
46470,0.336914,-0.497559,0.750488,0
46490,0.308594,-0.504883,0.711914,0
46510,0.229004,-0.513672,0.708496,0
46530,0.145508,-0.581543,0.682617,0
46550,0.158203,-0.595703,0.67627,0
46570,0.200195,-0.566895,0.651855,0
46590,0.137695,-0.562988,0.629395,0
46610,0.0493164,-0.617188,0.598145,0
46630,0.046875,-0.687012,0.548828,0
46650,0.112793,-0.703613,0.544922,0
46670,0.139648,-0.692383,0.518555,0
46690,0.126953,-0.720215,0.505859,0
46710,0.124023,-0.749512,0.491699,0
46730,0.114746,-0.776855,0.452148,0
46750,0.0966797,-0.818359,0.400391,0
46770,0.107422,-0.779785,0.38623,0
46790,0.11084,-0.760254,0.356934,0
46810,0.0976562,-0.756348,0.342285,0
46830,0.109375,-0.751953,0.311523,0
46850,0.164551,-0.83252,0.252441,0
46870,0.246582,-0.895508,0.230957,0
46890,0.282227,-0.914551,0.220215,0
46910,0.265137,-0.915527,0.213379,0
46930,0.245117,-0.880859,0.245605,0
46950,0.281738,-0.861816,0.244141,0
46970,0.390625,-0.816895,0.203125,0
46990,0.459473,-0.8125,0.1875,0
47010,0.477051,-0.812988,0.175781,0
47030,0.476562,-0.754395,0.158203,0
47050,0.522949,-0.744629,0.155762,0
47070,0.57373,-0.714844,0.151367,0
47090,0.629883,-0.69873,0.131836,0
47110,0.661621,-0.673828,0.149414,0
47130,0.675781,-0.625488,0.11084,0
47150,0.683594,-0.647949,0.0253906,0
47170,0.79248,-0.644531,0.0317383,0
47190,0.841797,-0.604492,0.0322266,0
47210,0.966309,-0.594238,-0.00292969,0
47230,0.932129,-0.61377,0.0170898,0
47250,0.907715,-0.574707,0.0454102,0
47270,0.948242,-0.525391,0.0112305,0
47290,1.00635,-0.476074,0.019043,0
47310,1.0708,-0.447266,0.0288086,0
47330,1.07715,-0.402832,0.0644531,0
47350,1.0542,-0.351074,0.0917969,0
47370,1.04053,-0.333984,0.0776367,0
47390,1.01904,-0.318359,0.109863,0
47410,0.980957,-0.289551,0.157227,0
47430,0.955078,-0.256836,0.169434,0
47450,0.989258,-0.253906,0.19043,0
47470,1.04785,-0.258301,0.236816,0
47490,1.02441,-0.25,0.293945,0
47510,0.913086,-0.263672,0.350586,0
47530,0.865234,-0.279785,0.383789,0
47550,0.861816,-0.304688,0.416504,0
47570,0.924316,-0.319824,0.442383,0
47590,0.891113,-0.226562,0.50293,0
47610,0.863281,-0.236816,0.556641,0
47630,0.944336,-0.366699,0.54541,0
47650,0.692383,-0.287109,0.625488,0
47670,0.657227,-0.28418,0.657227,0
47690,0.594238,-0.315918,0.704102,0
47710,0.505859,-0.36084,0.701172,0
47730,0.444336,-0.404297,0.703125,0
47750,0.396973,-0.439941,0.705566,0
47770,0.350098,-0.476562,0.686035,0
47790,0.337891,-0.453613,0.664551,0
47810,0.305176,-0.454102,0.631836,0
47830,0.266113,-0.491699,0.55957,0
47850,0.194336,-0.524902,0.512695,0
47870,0.130859,-0.579102,0.475586,0
47890,0.0996094,-0.595215,0.42627,0
47910,0.113281,-0.63916,0.357422,0
47930,0.175781,-0.672363,0.336914,0
47950,0.187012,-0.723145,0.319336,0
47970,0.15918,-0.766113,0.287109,0
47990,0.198242,-0.774414,0.260742,0
48010,0.260254,-0.811035,0.234863,0
48030,0.305176,-0.838867,0.211426,0
48050,0.322266,-0.859863,0.20166,0
48070,0.327148,-0.874023,0.172363,0
48090,0.347168,-0.882812,0.132812,0
48110,0.411621,-0.873047,0.119141,0
48130,0.479004,-0.838867,0.116699,0
48150,0.474121,-0.833984,0.0512695,0
48170,0.449707,-0.860352,0.00488281,0
48190,0.55127,-0.799316,0.0258789,0
48210,0.616699,-0.75293,0.0610352,0
48230,0.629395,-0.701172,0.0385742,0
48250,0.621582,-0.705566,-0.046875,0
48270,0.693848,-0.725586,-0.111816,0
48290,0.803223,-0.672363,-0.0605469,0
48310,0.788086,-0.610352,-0.0307617,0
48330,0.783203,-0.564941,-0.0996094,0
48350,0.86377,-0.540527,-0.109375,0
48370,0.941895,-0.497559,-0.128906,0
48390,0.916992,-0.481445,-0.139648,0
48410,0.914551,-0.443359,-0.187012,0
48430,0.964844,-0.42627,-0.180664,0
48450,0.980469,-0.38916,-0.189941,0
48470,1.01221,-0.37207,-0.222168,0
48490,1.06104,-0.336914,-0.199707,0
48510,1.05859,-0.318848,-0.17041,0
48530,1.04004,-0.305664,-0.183105,0
48550,1.05908,-0.263672,-0.13623,0
48570,1.06934,-0.227539,-0.0786133,0
48590,1.06543,-0.186523,-0.043457,0
48610,1.06152,-0.175293,-0.0283203,0
48630,1.09473,-0.154297,0.0141602,0
48650,1.12354,-0.141113,0.0722656,0
48670,1.08105,-0.114746,0.135742,0
48690,1.05127,-0.108398,0.181152,0
48710,1.07471,-0.143066,0.22168,0
48730,1.07178,-0.160645,0.214844,0
48750,1.021,-0.11084,0.284668,0
48770,1.04492,-0.0698242,0.305176,0
48790,1.06396,-0.197266,0.384766,0
48810,0.87793,-0.191406,0.431641,0
48830,0.857422,-0.163574,0.439453,0
48850,0.953613,-0.19873,0.467285,0
48870,0.937988,-0.169922,0.438477,0
48890,0.868164,-0.164062,0.512695,0
48910,0.704102,-0.243652,0.600098,0
48930,0.581055,-0.307617,0.543945,0
48950,0.503418,-0.373535,0.56543,0
48970,0.396484,-0.333496,0.60791,0
48990,0.355957,-0.284668,0.566406,0
49010,0.330078,-0.314941,0.47998,0
49030,0.312012,-0.394531,0.448242,0
49050,0.303711,-0.445312,0.435547,0
49070,0.308594,-0.512207,0.398438,0
49090,0.312988,-0.553711,0.374512,0
49110,0.342285,-0.609375,0.312012,0
49130,0.305176,-0.630859,0.243164,0
49150,0.316895,-0.665039,0.240723,0
49170,0.430176,-0.698242,0.293457,0
49190,0.456543,-0.71582,0.237305,0
49210,0.411133,-0.729492,0.139648,0
49230,0.462891,-0.765137,0.149902,0
49250,0.589355,-0.811035,0.161621,0
49270,0.59082,-0.772461,0.0522461,0
49290,0.478516,-0.762207,0.00390625,0
49310,0.505371,-0.811035,-0.00585938,0
49330,0.673828,-0.81543,-0.00878906,0
49350,0.719238,-0.788574,-0.0146484,0
49370,0.669922,-0.795898,-0.0424805,0
49380,0.707031,-0.813477,-0.0996094,0
49400,0.73584,-0.751465,-0.133301,0
49420,0.694824,-0.668457,-0.121094,0
49440,0.71875,-0.619629,-0.135254,0
49460,0.723145,-0.60791,-0.148438,0
49480,0.731445,-0.553223,-0.180176,0
49500,0.77832,-0.53125,-0.224609,0
49520,0.828125,-0.536621,-0.226562,0
49540,0.869629,-0.51709,-0.253418,0
49560,0.834961,-0.5,-0.271973,0
49580,0.794922,-0.444824,-0.23877,0
49600,0.812012,-0.452637,-0.267578,0
49620,0.825684,-0.483398,-0.329102,0
49640,0.796875,-0.446289,-0.246094,0
49660,0.786133,-0.432617,-0.204102,2001
49680,0.815918,-0.455566,-0.23291,0
49700,0.888184,-0.463379,-0.227539,0
49720,0.97168,-0.473633,-0.209961,0
49740,1.02783,-0.498535,-0.172363,0
49760,0.992676,-0.494141,-0.164062,0
49780,0.916992,-0.475098,-0.143555,0
49800,0.92627,-0.435547,-0.103027,0
49820,0.894043,-0.394043,-0.123047,0
49840,0.771973,-0.379883,-0.0712891,0
49860,0.655273,-0.392578,-0.0615234,0
49880,0.564453,-0.439453,-0.0859375,0
49900,0.582031,-0.435059,-0.114258,0
49920,0.676758,-0.458496,-0.0732422,0
49940,0.680176,-0.44043,-0.105957,0
49960,0.622559,-0.457031,-0.103027,0
49980,0.610352,-0.470215,-0.0742188,0
50000,0.703125,-0.456055,-0.0449219,0
50020,0.765625,-0.475098,-0.0527344,0
50040,0.727539,-0.487305,-0.0913086,0
50060,0.683594,-0.48584,-0.0463867,0
50080,0.703613,-0.503906,-0.00390625,0
50100,0.730469,-0.513672,-0.0141602,0
50120,0.702637,-0.519043,0.0307617,0
50140,0.712402,-0.557617,0.0488281,0
50160,0.78125,-0.579102,0.0141602,0
50180,0.896973,-0.630859,0.0571289,0
50200,0.894043,-0.617188,0.10498,0
50220,0.821289,-0.606445,0.108398,0
50240,0.787109,-0.604004,0.100098,0
50260,0.848633,-0.633301,0.102051,0
50280,0.916992,-0.650879,0.0932617,0
50300,0.939453,-0.709473,0.133301,0
50320,0.888672,-0.709473,0.104004,0
50340,0.917969,-0.706543,0.12207,0
50360,0.898438,-0.722656,0.132324,0
50380,0.890137,-0.770508,0.130859,0
50400,0.848145,-0.824707,0.17041,0
50420,0.756836,-0.836426,0.224609,0
50430,0.628906,-0.824219,0.251953,0
50430,0.609375,-0.85791,0.269043,0
50450,0.560059,-0.847168,0.303223,0
50470,0.470215,-0.850586,0.316406,0
50490,0.413574,-0.831055,0.340332,0
50510,0.381836,-0.866211,0.354492,0
50530,0.351074,-0.867188,0.362793,0
50550,0.321777,-0.85498,0.36377,0
50570,0.286133,-0.850098,0.372559,0
50590,0.251953,-0.882324,0.390625,0
50610,0.240234,-0.890625,0.416016,0
50630,0.233887,-0.873535,0.416016,0
50650,0.249512,-0.848633,0.413086,0
50670,0.298828,-0.831055,0.421875,0
50690,0.314941,-0.845215,0.411621,0
50710,0.297852,-0.842773,0.391602,2000
50730,0.273438,-0.841309,0.384277,0
50750,0.288086,-0.827637,0.38623,0
50770,0.302246,-0.816895,0.388672,0
50790,0.300781,-0.836914,0.369629,0
50810,0.256348,-0.804688,0.36084,0
50830,0.202148,-0.790039,0.363281,0
50850,0.181641,-0.790039,0.390137,0
50870,0.189453,-0.807617,0.407715,0
50890,0.25,-0.846191,0.408203,0
50910,0.297363,-0.838379,0.406738,0
50930,0.324707,-0.816895,0.392578,0
50950,0.313477,-0.794434,0.382812,0
50970,0.359863,-0.792969,0.376953,0
50990,0.404785,-0.799316,0.339844,0
51010,0.407227,-0.787109,0.325684,0
51030,0.404785,-0.801758,0.352051,0
51050,0.412109,-0.784668,0.342773,0
51070,0.471191,-0.780762,0.313477,0
51090,0.502441,-0.811035,0.28125,0
51110,0.479004,-0.781738,0.282227,0
51130,0.456055,-0.73291,0.275391,0
51150,0.497559,-0.760254,0.229004,0
51170,0.54541,-0.788086,0.203613,0
51190,0.568359,-0.799805,0.19873,0
51210,0.557129,-0.790039,0.203125,0
51230,0.526855,-0.757324,0.207031,0
51250,0.514648,-0.755859,0.245605,0
51270,0.56543,-0.758301,0.242188,0
51290,0.586914,-0.786621,0.191895,0
51310,0.595703,-0.736816,0.182617,0
51330,0.576172,-0.711914,0.178223,0
51340,0.586914,-0.732422,0.191895,0
51360,0.624023,-0.718262,0.216797,0
51380,0.63623,-0.717773,0.23584,0
51400,0.637695,-0.692871,0.228027,0
51420,0.666504,-0.679688,0.238281,0
51430,0.698242,-0.631836,0.255859,0
51450,0.691406,-0.59668,0.255371,0
51470,0.733887,-0.599121,0.283203,0
51490,0.716797,-0.60791,0.291504,0
51510,0.745605,-0.594238,0.303711,0
51530,0.755859,-0.594238,0.312012,0
51550,0.789551,-0.594727,0.336914,0
51570,0.78125,-0.588379,0.373047,0
51590,0.794922,-0.605957,0.370117,0
51610,0.840332,-0.589355,0.423828,0
51630,0.821777,-0.557617,0.438477,0
51650,0.779297,-0.564453,0.469727,0
51670,0.764648,-0.538574,0.503418,0
51690,0.744141,-0.587891,0.560547,0
51710,0.712891,-0.558105,0.593262,0
51730,0.628906,-0.484863,0.631348,0
51750,0.624023,-0.477051,0.638184,0
51770,0.910645,-0.835449,0.585449,0
51790,0.411621,-0.449707,0.744629,0
51810,0.429199,-0.384766,0.724609,0
51830,0.435059,-0.384766,0.725098,0
51850,0.34668,-0.438477,0.744629,0
51870,0.275391,-0.48584,0.723633,0
51890,0.253906,-0.496582,0.725098,0
51910,0.242676,-0.526855,0.731934,0
51930,0.223633,-0.541016,0.693359,0
51950,0.186035,-0.55957,0.677734,0
51970,0.114746,-0.592773,0.627441,0
51990,0.0444336,-0.63623,0.618164,0
52010,0.0732422,-0.619141,0.57959,0
52030,0.0952148,-0.62793,0.520508,0
52050,0.0292969,-0.650879,0.476562,0
52070,-0.0507812,-0.71875,0.445801,0
52090,-0.0429688,-0.745605,0.401855,0
52110,0.0258789,-0.774902,0.349121,0
52130,0.0385742,-0.782715,0.324707,0
52150,0.0317383,-0.786133,0.305664,0
52170,0.0625,-0.821777,0.320801,0
52190,0.118652,-0.861816,0.311035,0
52210,0.202637,-0.879395,0.286621,0
52230,0.276855,-0.865234,0.268555,0
52250,0.318359,-0.87793,0.231934,0
52270,0.394043,-0.850098,0.253418,0
52290,0.469727,-0.818848,0.251953,0
52310,0.494629,-0.800781,0.213867,0
52330,0.520996,-0.76123,0.157227,0
52350,0.592773,-0.746094,0.133789,0
52370,0.687988,-0.73291,0.128906,0
52390,0.695801,-0.706543,0.118652,0
52410,0.709961,-0.665039,0.100098,0
52430,0.766602,-0.614746,0.0356445,0
52450,0.844727,-0.602539,0.019043,0
52470,0.88623,-0.583008,0.0200195,0
52490,0.910156,-0.577148,-0.0268555,0
52510,0.953125,-0.53125,-0.00585938,0
52530,0.984863,-0.479492,0.0263672,0
52550,1.02637,-0.458984,0.015625,0
52570,1.03125,-0.412109,-0.00195312,0
52590,1.04736,-0.356934,0.00488281,0
52610,1.05664,-0.337891,0.0605469,0
52630,1.05273,-0.324219,0.10791,0
52650,1.08008,-0.31543,0.0908203,0
52670,1.10107,-0.307129,0.103516,0
52690,1.06006,-0.290527,0.213867,0
52710,0.996582,-0.262207,0.260254,0
52730,1,-0.234375,0.32373,0
52750,1.0166,-0.242676,0.333984,0
52770,1.03174,-0.297363,0.41748,0
52790,0.918457,-0.206055,0.473145,0
52810,0.912109,-0.181152,0.472168,0
52830,0.899414,-0.13623,0.519043,0
52850,1.09229,-0.444336,0.501953,0
52870,0.724121,-0.151855,0.666504,0
52890,0.672363,-0.128418,0.647949,0
52910,0.652344,-0.143066,0.632812,0
52930,0.653809,-0.19873,0.673828,0
52950,0.580078,-0.229004,0.680664,0
52970,0.503906,-0.340332,0.658203,0
52990,0.478516,-0.348145,0.672363,0
53010,0.452637,-0.319824,0.666504,0
53030,0.412598,-0.34082,0.638184,0
53050,0.38623,-0.40625,0.608887,0
53070,0.341797,-0.437012,0.607422,0
53090,0.318359,-0.442871,0.57959,0
53110,0.327637,-0.464844,0.547363,0
53130,0.361816,-0.541504,0.507324,0
53150,0.300781,-0.593262,0.397461,0
53170,0.193848,-0.614746,0.348633,0
53190,0.244629,-0.623047,0.361816,0
53210,0.32959,-0.634766,0.33252,0
53230,0.303223,-0.663574,0.237793,0
53250,0.258301,-0.73291,0.181641,0
53270,0.283203,-0.78125,0.163086,0
53290,0.324219,-0.730469,0.120605,0
53310,0.31543,-0.758301,0.0424805,0
53330,0.332031,-0.789551,0.0307617,0
53350,0.376465,-0.838867,0.059082,0
53370,0.422363,-0.870117,0.0419922,0
53390,0.536133,-0.859375,-0.00390625,0
53410,0.621094,-0.856445,-0.0112305,0
53430,0.602539,-0.822754,-0.0336914,0
53450,0.571777,-0.787598,-0.0507812,0
53470,0.645508,-0.717285,-0.0546875,0
53490,0.724121,-0.65918,-0.0942383,0
53510,0.766113,-0.643066,-0.126465,0
53530,0.784668,-0.630859,-0.147461,0
53550,0.803711,-0.555664,-0.137207,0
53570,0.796875,-0.484375,-0.148926,0
53590,0.805176,-0.438477,-0.191406,0
53610,0.88916,-0.458984,-0.23877,0
53630,0.969238,-0.40918,-0.236816,0
53650,0.971191,-0.342773,-0.17041,0
53670,0.951172,-0.307617,-0.169922,0
53690,1.01904,-0.303711,-0.205566,0
53710,1.07227,-0.289551,-0.199219,0
53730,1.06396,-0.243652,-0.178711,0
53750,1.04932,-0.199219,-0.157715,0
53770,1.10449,-0.175293,-0.137695,0
53790,1.13525,-0.160156,-0.105957,0
53810,1.10791,-0.144531,-0.043457,0
53830,1.07959,-0.160156,-0.00683594,0
53850,1.03955,-0.123535,0.0546875,0
53870,1.05029,-0.112305,0.0854492,0
53890,1.0752,-0.0390625,0.137207,0
53910,1.06787,-0.0219727,0.20752,0
53930,1.0542,-0.0507812,0.208984,0
53950,1.021,-0.0708008,0.244629,0
53970,0.977539,-0.0859375,0.349121,0
53990,0.994629,-0.0693359,0.375,0
54010,0.95166,-0.105957,0.416992,0
54030,0.86377,-0.138184,0.456543,0
54050,0.85791,-0.180664,0.51123,0
54070,0.852539,-0.23291,0.509766,0
54090,0.768066,-0.151855,0.53418,0
54110,0.635742,-0.17627,0.625488,0
54130,0.541016,-0.266602,0.657715,0
54150,0.521973,-0.317383,0.623047,0
54170,0.493652,-0.29541,0.555176,0
54190,0.414551,-0.243652,0.570312,0
54210,0.441895,-0.243652,0.581055,0
54230,0.437988,-0.345703,0.522949,0
54250,0.365723,-0.472656,0.428223,0
54270,0.299316,-0.54541,0.398926,0
54290,0.333008,-0.587402,0.383789,0
54310,0.462402,-0.648438,0.367676,0
54330,0.55127,-0.666992,0.297363,0
54350,0.523926,-0.695801,0.261719,0
54370,0.486328,-0.757324,0.224609,0
54390,0.552246,-0.770508,0.151367,0
54410,0.625977,-0.76123,0.100098,0
54430,0.609375,-0.748047,0.0498047,0
54450,0.603516,-0.766602,0.0107422,0
54470,0.639648,-0.760742,-0.0141602,0
54490,0.675293,-0.739746,-0.0488281,0
54510,0.695312,-0.712402,-0.0585938,0
54530,0.736816,-0.67627,-0.0922852,0
54550,0.73877,-0.652832,-0.125488,0
54570,0.711426,-0.633789,-0.160645,0
54590,0.768555,-0.59375,-0.162598,0
54610,0.811035,-0.550781,-0.166504,0
54630,0.782715,-0.505371,-0.163574,0
54650,0.780273,-0.516113,-0.166504,0
54670,0.80957,-0.484375,-0.194336,0
54690,0.838867,-0.47998,-0.199707,0
54710,0.866699,-0.471191,-0.196777,0
54730,0.850586,-0.468262,-0.17041,0
54750,0.796875,-0.43457,-0.15332,2001
54760,0.818359,-0.433594,-0.147949,0
54780,0.907715,-0.453613,-0.139648,0
54800,0.915039,-0.468262,-0.104492,0
54820,0.856934,-0.411621,-0.0634766,0
54840,0.891113,-0.421875,-0.0732422,0
54860,0.960449,-0.429688,-0.0830078,0
54880,0.927734,-0.463379,-0.0644531,0
54900,0.842285,-0.483398,-0.0634766,0
54920,0.812012,-0.45752,-0.0483398,0
54940,0.837891,-0.439453,-0.0507812,0
54960,0.806152,-0.4375,-0.0424805,0
54980,0.713379,-0.420898,-0.0507812,0
55000,0.665039,-0.431152,-0.0683594,0
55020,0.692871,-0.444824,-0.0620117,0
55040,0.709961,-0.443848,-0.050293,0
55060,0.697266,-0.43457,-0.0424805,0
55080,0.661621,-0.435059,-0.0620117,0
55100,0.655273,-0.464844,-0.101562,0
55120,0.662598,-0.515137,-0.0615234,0
55140,0.675293,-0.491699,0.0268555,0
55160,0.741699,-0.475098,-0.00244141,0
55180,0.792969,-0.468262,-0.00488281,0
55200,0.745605,-0.474121,-0.0268555,0
55220,0.650879,-0.509766,-0.0195312,0
55240,0.675293,-0.529785,0.0454102,0
55260,0.73584,-0.529785,0.106934,0
55280,0.765137,-0.565918,0.0698242,0
55300,0.702148,-0.581543,0.0771484,0
55320,0.734375,-0.543945,0.141113,0
55340,0.797852,-0.538086,0.220703,0
55360,0.805664,-0.567871,0.174805,0
55380,0.789062,-0.62793,0.156738,0
55400,0.827637,-0.628418,0.194336,0
55420,0.922363,-0.625977,0.270508,0
55440,0.927246,-0.597168,0.269043,0
55460,0.884766,-0.628418,0.26709,0
55480,0.855469,-0.671387,0.257324,0
55500,0.848633,-0.734375,0.306152,0
55520,0.774902,-0.719238,0.318848,0
55540,0.73584,-0.718262,0.346191,0
55560,0.720215,-0.810547,0.37793,0
55580,0.706055,-0.841309,0.419922,0
55600,0.671875,-0.797363,0.45459,0
55620,0.614746,-0.783691,0.474609,0
55640,0.55957,-0.786621,0.486328,0
55660,0.477051,-0.824219,0.499512,0
55680,0.368164,-0.830078,0.507324,0
55700,0.346191,-0.79248,0.51709,0
55720,0.299316,-0.814941,0.491211,0
55740,0.272949,-0.84375,0.460938,0
55760,0.250977,-0.835449,0.472656,0
55780,0.20166,-0.823242,0.489746,0
55800,0.176758,-0.828125,0.461426,0
55820,0.203613,-0.803223,0.438965,0
55840,0.207031,-0.799316,0.434082,0
55860,0.178223,-0.803223,0.428223,0
55880,0.163086,-0.825195,0.427246,0
55900,0.17041,-0.846191,0.432617,0
55920,0.204102,-0.844238,0.418457,0
55940,0.232422,-0.845215,0.424316,0
55960,0.248535,-0.836914,0.415039,0
55980,0.266113,-0.838867,0.39209,0
56000,0.247559,-0.834961,0.394531,0
56020,0.226562,-0.834961,0.387207,0
56040,0.210449,-0.836914,0.385742,0
56060,0.207031,-0.82666,0.380371,0
56080,0.195312,-0.860352,0.380859,0
56100,0.158691,-0.83252,0.408691,0
56120,0.151367,-0.812012,0.400879,0
56140,0.182129,-0.801758,0.379395,0
56160,0.22998,-0.787109,0.37207,0
56180,0.248047,-0.827148,0.394043,0
56200,0.293945,-0.813965,0.397949,0
56220,0.358398,-0.793457,0.345215,0
56240,0.413574,-0.792969,0.355957,0
56260,0.458008,-0.774414,0.400391,0
56280,0.479492,-0.75293,0.356445,0
56300,0.543457,-0.779297,0.305664,0
56320,0.578613,-0.777832,0.278809,0
56340,0.57373,-0.755859,0.272949,0
56360,0.57959,-0.72998,0.269531,0
56380,0.583008,-0.702637,0.276367,0
56400,0.605957,-0.693359,0.266602,0
56420,0.638672,-0.682129,0.243652,0
56440,0.681152,-0.66748,0.243164,0
56460,0.712402,-0.651367,0.230957,0
56480,0.72168,-0.640137,0.207031,0
56500,0.763184,-0.600586,0.202637,0
56520,0.779785,-0.576172,0.204102,0
56540,0.776855,-0.571289,0.209961,0
56560,0.785156,-0.545898,0.221191,0
56580,0.789062,-0.529785,0.25293,0
56600,0.795898,-0.516113,0.257812,0
56620,0.816895,-0.533203,0.275879,0
56640,0.850586,-0.550293,0.299805,0
56660,0.867188,-0.547363,0.335938,0
56680,0.853027,-0.509277,0.397461,0
56700,0.794922,-0.52002,0.420898,0
56720,0.827637,-0.515137,0.433594,0
56740,0.797363,-0.494141,0.447754,0
56750,0.793457,-0.538086,0.523926,0
56770,0.73291,-0.549805,0.568848,0
56790,0.656738,-0.474121,0.627441,0
56810,0.489258,-0.370117,0.716309,0
56830,0.453613,-0.339844,0.739746,0
56850,0.525391,-0.461914,0.73584,0
56870,0.421875,-0.42041,0.690918,0
56890,0.363281,-0.458984,0.706543,0
56910,0.359375,-0.430664,0.775391,0
56930,0.376465,-0.473633,0.766602,0
56950,0.460449,-0.538086,0.736816,0
56970,0.475586,-0.556641,0.692871,0
56990,0.38623,-0.544922,0.727539,0
57010,0.294922,-0.537598,0.730957,0
57030,0.26123,-0.546387,0.724121,0
57050,0.232422,-0.590332,0.676758,0
57070,0.172363,-0.612793,0.608398,0
57090,0.0869141,-0.642578,0.576172,0
57110,0.0166016,-0.648438,0.543457,0
57130,-0.0239258,-0.646973,0.507812,0
57150,-0.0517578,-0.635254,0.463867,0
57170,-0.0361328,-0.687988,0.410645,0
57190,0.00878906,-0.780762,0.36084,0
57210,0.0219727,-0.784668,0.352539,0
57230,0.0200195,-0.790039,0.325684,0
57250,0.0341797,-0.803711,0.29834,0
57270,0.0600586,-0.790039,0.297363,0
57290,0.0869141,-0.816406,0.278809,0
57310,0.127441,-0.876953,0.27002,0
57330,0.190918,-0.876953,0.287598,0
57350,0.261719,-0.852539,0.27832,0
57370,0.319824,-0.914551,0.251465,0
57390,0.392578,-0.878906,0.270996,0
57410,0.432129,-0.84375,0.255371,0
57430,0.464844,-0.825684,0.225098,0
57450,0.496582,-0.825195,0.211426,0
57470,0.567871,-0.768066,0.227051,0
57490,0.615234,-0.752441,0.166992,0
57510,0.673828,-0.738281,0.134277,0
57530,0.71582,-0.736328,0.0874023,0
57550,0.773438,-0.723145,0.0761719,0
57570,0.819336,-0.671387,0.0610352,0
57590,0.86377,-0.652344,0.0449219,0
57610,0.891113,-0.627441,0.00683594,0
57630,0.871094,-0.580078,-0.0107422,0
57650,0.857422,-0.509277,0.0161133,0
57670,0.900879,-0.452148,0.0102539,0
57690,0.943359,-0.461426,0.0561523,0
57710,0.916016,-0.474121,0.0712891,0
57730,0.894531,-0.440918,0.0966797,0
57750,0.825195,-0.375,0.147949,0
57780,0.846191,-0.30957,0.164062,0
57800,0.853516,-0.274902,0.221191,0
57820,0.812012,-0.279785,0.255859,0
57840,0.776367,-0.298828,0.276367,0
57860,0.764648,-0.321777,0.316406,0
57880,0.727051,-0.374512,0.324707,0
57900,0.708984,-0.408691,0.348633,0
57920,0.688965,-0.428711,0.342773,0
57940,0.686035,-0.427246,0.380859,0
57960,0.714355,-0.450195,0.325684,0
57980,0.73291,-0.494629,0.276855,0
58000,0.709961,-0.541016,0.287109,0
58020,0.741211,-0.581055,0.280273,0
58040,0.76709,-0.633301,0.240723,0
58060,0.810547,-0.663086,0.268555,0
58080,0.762207,-0.697754,0.256348,0
58100,0.716797,-0.749023,0.237793,0
58120,0.708008,-0.726074,0.225586,0
58140,0.656738,-0.744629,0.237793,0
58160,0.615723,-0.743652,0.275391,0
58180,0.56543,-0.76416,0.280762,0
58200,0.534668,-0.777344,0.33252,0
58220,0.489746,-0.813965,0.339355,0
58240,0.45752,-0.847656,0.333496,0
58260,0.401855,-0.834961,0.345703,0
58280,0.364746,-0.805176,0.355957,0
58300,0.317383,-0.79541,0.36084,0
58320,0.30127,-0.807617,0.345703,0
58340,0.321289,-0.851562,0.336426,0
58360,0.352051,-0.861816,0.347656,0
58380,0.39502,-0.847168,0.340332,0
58400,0.44043,-0.84668,0.322266,2000
58420,0.454102,-0.819336,0.316895,0
58440,0.449219,-0.821289,0.308105,0
58460,0.447754,-0.82959,0.328125,0
58480,0.416992,-0.826172,0.330566,0
58500,0.379883,-0.805664,0.303711,0
58520,0.359863,-0.783203,0.308594,0
58540,0.345215,-0.797852,0.335449,0
58560,0.344238,-0.795898,0.341309,0
58580,0.321777,-0.790527,0.335938,0
58600,0.289062,-0.811035,0.338379,0
58620,0.257812,-0.765137,0.352051,0
58640,0.270996,-0.783691,0.345703,0
58660,0.331543,-0.817871,0.342773,0
58680,0.372559,-0.8125,0.354492,0
58700,0.374512,-0.816895,0.335938,0
58720,0.384766,-0.793457,0.355957,0
58740,0.422363,-0.788574,0.327637,0
58760,0.460449,-0.80127,0.302734,0
58780,0.452148,-0.791016,0.300293,0
58800,0.429688,-0.770508,0.312012,0
58820,0.461426,-0.774414,0.276367,0
58840,0.508789,-0.762695,0.258301,0
58860,0.530762,-0.779785,0.259277,0
58880,0.510742,-0.775391,0.252441,0
58900,0.538086,-0.76123,0.235352,0
58920,0.571777,-0.762207,0.201172,0
58940,0.649902,-0.748047,0.188965,0
58960,0.666992,-0.75293,0.183105,0
58980,0.689941,-0.728516,0.169434,0
59000,0.674316,-0.708984,0.166016,0
59020,0.675293,-0.688477,0.14209,0
59040,0.720703,-0.694336,0.124512,0
59060,0.723633,-0.669922,0.123535,0
59080,0.716309,-0.635254,0.126465,0
59100,0.744141,-0.635742,0.123535,0
59120,0.76123,-0.655273,0.12793,0
59140,0.684082,-0.642578,0.14502,0
59160,0.663574,-0.61084,0.182129,0
59180,0.701172,-0.602539,0.199219,0
59200,0.719238,-0.63623,0.177734,0
59220,0.658691,-0.647461,0.175781,0
59240,0.602051,-0.630371,0.201172,0
59250,0.614258,-0.630371,0.241699,0
59270,0.635742,-0.674316,0.233887,0
59290,0.609375,-0.675781,0.231445,0
59320,0.668457,-0.675293,0.245117,0
59330,0.705566,-0.644043,0.180176,0
59350,0.692383,-0.617676,0.165527,0
59370,0.66748,-0.609375,0.195312,0
59390,0.70752,-0.585938,0.245117,0
59400,0.743164,-0.581543,0.22998,0
59420,0.719727,-0.594727,0.18457,0
59440,0.738281,-0.518555,0.176758,0
59460,0.754883,-0.483887,0.206543,0
59480,0.785156,-0.456055,0.222656,0
59500,0.796387,-0.482422,0.210449,0
59520,0.808105,-0.458984,0.193848,0
59540,0.820801,-0.436523,0.221191,0
59560,0.849121,-0.411133,0.250488,0
59580,0.874023,-0.42041,0.241211,0
59600,0.89502,-0.429199,0.240234,0
59620,0.898438,-0.408691,0.252441,0
59640,0.876465,-0.388184,0.29248,0
59660,0.881348,-0.396973,0.331543,0
59680,0.878906,-0.404785,0.347656,0
59700,0.893555,-0.409668,0.373047,0
59720,0.867188,-0.414062,0.424316,0
59740,0.804199,-0.39502,0.455566,0
59760,0.807129,-0.390137,0.512695,0
59780,0.812988,-0.401855,0.547363,0
59800,0.743164,-0.402832,0.583008,0
59820,0.715332,-0.405273,0.601074,0
59840,0.722656,-0.399902,0.60791,0
59860,0.69043,-0.432129,0.629883,0
59880,0.592285,-0.395996,0.64502,0
59900,0.54541,-0.445801,0.688477,0
59920,0.571289,-0.476562,0.706055,0
59940,0.566895,-0.473633,0.70459,0
59960,0.482422,-0.472168,0.688965,0
59980,0.40625,-0.503418,0.691406,0
60000,0.392578,-0.540039,0.687012,0
60020,0.432617,-0.549316,0.667969,0
60040,0.42627,-0.565918,0.658691,0
60050,0.385254,-0.601562,0.640137,0
60070,0.310059,-0.661133,0.624512,0
60090,0.30127,-0.61084,0.627441,0
60110,0.342773,-0.600098,0.60791,0
60130,0.309082,-0.647461,0.564941,0
60150,0.230469,-0.697266,0.540527,0
60170,0.193848,-0.69873,0.521973,0
60190,0.23584,-0.693359,0.530273,0
60210,0.262207,-0.744629,0.505859,0
60230,0.23584,-0.776855,0.464844,0
60250,0.14502,-0.766602,0.436523,0
60270,0.0517578,-0.724609,0.396973,0
60290,-0.00830078,-0.720215,0.312012,0
60310,-0.0390625,-0.742188,0.258301,0
60330,-0.0317383,-0.748047,0.241211,0
60350,-0.0166016,-0.768066,0.25,0
60370,-0.00341797,-0.803223,0.249512,0
60390,0.0371094,-0.834961,0.249023,0
60410,0.104004,-0.853516,0.266113,0
60430,0.18457,-0.89502,0.311523,0
60450,0.251953,-0.896973,0.325684,0
60470,0.283203,-0.833496,0.296875,0
60490,0.26416,-0.839844,0.274902,0
60510,0.347168,-0.864258,0.254395,0
60530,0.405762,-0.853516,0.288086,0
60550,0.401367,-0.843262,0.28418,0
60570,0.367188,-0.828613,0.242676,0
60590,0.414551,-0.866211,0.196289,0
60610,0.484375,-0.848145,0.177246,0
60630,0.567383,-0.799316,0.216309,0
60650,0.616699,-0.763672,0.183105,0
60670,0.611816,-0.727539,0.130859,0
60690,0.634766,-0.70752,0.121094,0
60710,0.672852,-0.686035,0.114258,0
60730,0.72998,-0.67334,0.0849609,0
60750,0.785645,-0.664062,0.0761719,0
60770,0.78125,-0.624023,0.0634766,0
60790,0.793457,-0.581055,0.0410156,0
60810,0.811523,-0.570312,0.0195312,0
60830,0.827637,-0.538086,0.0654297,0
60850,0.827148,-0.493652,0.0581055,0
60870,0.857422,-0.51416,-0.00341797,0
60890,0.9375,-0.510254,-0.0151367,0
60910,0.964355,-0.508301,0.0209961,0
60930,0.915527,-0.464355,0.0493164,0
60950,0.891602,-0.445801,0.0625,0
60970,0.939453,-0.424316,0.11084,0
60990,0.948242,-0.402344,0.149902,0
61010,0.929199,-0.407715,0.155762,0
61030,0.935059,-0.407227,0.165039,0
61050,0.959961,-0.392578,0.190918,0
61070,0.956055,-0.38916,0.243652,0
61090,0.994629,-0.404785,0.255859,0
61110,1.01855,-0.413086,0.253906,0
61130,0.969727,-0.366211,0.32959,0
61150,0.923828,-0.388184,0.341309,0
61170,0.888184,-0.418457,0.392578,0
61190,0.922852,-0.360352,0.42041,0
61210,0.900879,-0.36084,0.404785,0
61230,0.833984,-0.344238,0.477051,0
61250,0.760742,-0.362305,0.529297,0
61270,0.73584,-0.339844,0.586914,0
61290,0.742188,-0.347168,0.519043,0
61310,0.733887,-0.337402,0.556152,0
61330,0.685547,-0.390625,0.616699,0
61350,0.598145,-0.443848,0.661133,0
61370,0.615234,-0.472656,0.670898,0
61390,0.682129,-0.484863,0.705078,0
61410,0.669922,-0.458008,0.713379,0
61430,0.543457,-0.546387,0.72168,0
61450,0.418945,-0.55127,0.716309,0
61470,0.365723,-0.465332,0.725586,0
61490,0.307129,-0.466309,0.705078,0
61510,0.253418,-0.557617,0.64209,0
61530,0.182617,-0.647949,0.592773,0
61550,0.150391,-0.654785,0.592285,0
61570,0.212402,-0.594727,0.574219,0
61590,0.208496,-0.613281,0.536133,0
61610,0.133789,-0.708008,0.511719,0
61630,0.131348,-0.763672,0.492188,0
61650,0.13623,-0.749512,0.416992,0
61670,0.117188,-0.736816,0.367188,0
61690,0.124512,-0.729004,0.341797,0
61710,0.129883,-0.771484,0.288574,0
61730,0.181641,-0.809082,0.286133,0
61750,0.207031,-0.765137,0.272461,0
61770,0.158203,-0.727051,0.199707,0
61790,0.143555,-0.751465,0.131348,0
61810,0.198242,-0.772949,0.106934,0
61830,0.243652,-0.794434,0.0825195,0
61850,0.236328,-0.742676,0.0737305,0
61870,0.196289,-0.711426,0.0786133,0
61890,0.247559,-0.768555,0.0742188,0
61910,0.375488,-0.780762,0.0493164,0
61930,0.434082,-0.827148,0.0444336,0
61950,0.455078,-0.84375,0.0224609,0
61970,0.466797,-0.82373,-0.00292969,0
61990,0.481445,-0.775879,-0.00732422,0
62010,0.521973,-0.763672,-0.0229492,0
62030,0.611328,-0.712891,-0.0336914,0
62050,0.70459,-0.63623,-0.0200195,0
62060,0.683594,-0.665039,-0.059082,0
62080,0.640137,-0.683594,-0.130371,0
62100,0.729004,-0.639648,-0.0771484,0
62120,0.858398,-0.618164,-0.0454102,0
62140,0.88916,-0.544922,-0.0478516,0
62160,0.816895,-0.508301,-0.100098,0
62180,0.859375,-0.56543,-0.184082,0
62200,0.921875,-0.597168,-0.123047,0
62220,0.932617,-0.514648,-0.0483398,0
62240,0.944336,-0.499023,-0.0844727,0
62260,1.02246,-0.464844,-0.110352,0
62280,1.07861,-0.444824,-0.0991211,0
62300,1.06348,-0.400879,-0.0253906,0
62320,1.07129,-0.378418,-0.059082,0
62340,1.11377,-0.363281,-0.0141602,0
62360,1.12256,-0.354004,0.00195312,0
62380,1.07129,-0.324707,0.0454102,0
62400,1.05518,-0.266113,0.0683594,0
62420,1.09131,-0.217285,0.116211,0
62440,1.09131,-0.173828,0.166992,0
62460,1.05371,-0.165527,0.229492,0
62480,1.03223,-0.206055,0.240723,0
62500,1.05957,-0.241211,0.270508,0
62520,1.02686,-0.165039,0.338867,0
62540,1.06836,-0.166504,0.371094,0
62560,1.00195,-0.225586,0.414551,0
62580,0.880371,-0.227539,0.410645,0
62600,0.893066,-0.209961,0.470215,0
62620,0.869141,-0.134277,0.43457,0
62640,0.75293,-0.205566,0.555176,0
62660,0.656738,-0.30957,0.638672,0
62680,0.608887,-0.329102,0.697266,0
62700,0.629395,-0.355469,0.635254,0
62720,0.601074,-0.279297,0.609863,0
62740,0.468262,-0.304199,0.647949,0
62760,0.417969,-0.373047,0.662109,0
62780,0.413086,-0.391602,0.689453,0
62800,0.393066,-0.387207,0.677734,0
62820,0.390137,-0.467773,0.637695,0
62840,0.396973,-0.543457,0.588867,0
62860,0.341309,-0.529297,0.599121,0
62880,0.347168,-0.509277,0.572754,0
62900,0.369629,-0.515625,0.509277,0
62920,0.312988,-0.598145,0.422363,0
62940,0.291016,-0.648438,0.380371,0
62960,0.350098,-0.672363,0.442383,0
62980,0.355957,-0.661133,0.348633,0
63000,0.35791,-0.655762,0.300293,0
63020,0.394531,-0.716309,0.293945,0
63040,0.364258,-0.71875,0.167969,0
63060,0.371582,-0.741211,0.123047,0
63080,0.377441,-0.708496,0.108398,0
63100,0.348145,-0.696777,0.0849609,0
63120,0.362793,-0.734375,0.0859375,0
63140,0.491699,-0.806641,0.0498047,0
63160,0.534668,-0.793945,0.00927734,0
63180,0.502441,-0.800293,0.0136719,0
63200,0.565918,-0.822266,0.00488281,0
63220,0.644531,-0.804199,-0.0322266,0
63240,0.594727,-0.770996,-0.0341797,0
63260,0.574219,-0.715332,-0.0512695,0
63280,0.674805,-0.700195,-0.0356445,0
63300,0.741211,-0.693359,-0.0400391,0
63320,0.732422,-0.652832,-0.0966797,0
63340,0.699219,-0.614258,-0.104004,0
63360,0.739258,-0.616211,-0.162598,0
63380,0.756836,-0.605469,-0.154785,0
63400,0.734863,-0.592773,-0.13916,0
63420,0.746582,-0.596191,-0.12207,0
63440,0.786133,-0.5625,-0.12793,0
63460,0.800781,-0.577637,-0.19043,0
63480,0.803711,-0.536133,-0.171875,0
63500,0.796875,-0.497559,-0.111816,0
63520,0.790039,-0.503418,-0.108398,0
63540,0.790039,-0.502441,-0.117676,0
63560,0.848633,-0.476562,-0.117188,0
63580,0.968262,-0.509277,-0.0917969,0
63600,1.0127,-0.52832,-0.0898438,2001
63620,0.98291,-0.50293,-0.107422,0
63640,0.938477,-0.480469,-0.105469,0
63660,0.95166,-0.435059,-0.0791016,0
63680,1.02295,-0.463867,-0.0805664,0
63700,1.02197,-0.493164,-0.0620117,0
63720,0.938477,-0.498535,-0.0649414,0
63740,0.866211,-0.508789,-0.0605469,0
63760,0.850098,-0.461914,-0.034668,0
63780,0.848633,-0.40918,-0.0234375,0
63800,0.77002,-0.399414,-0.00585938,0
63820,0.70166,-0.406738,0.0205078,0
63840,0.681152,-0.437012,0.0268555,0
63860,0.665039,-0.453125,-0.0317383,0
63880,0.614258,-0.436523,-0.0136719,0
63900,0.615234,-0.464844,-0.00537109,0
63920,0.624512,-0.426758,0.00585938,0
63940,0.67627,-0.48291,0.00683594,0
63960,0.669922,-0.490234,-0.0302734,0
63980,0.650391,-0.488281,-0.0527344,0
64000,0.650391,-0.491699,0.0131836,0
64020,0.687988,-0.479004,0.0898438,0
64040,0.699707,-0.460449,0.0625,0
64060,0.675781,-0.465332,0.0585938,0
64080,0.685547,-0.481934,0.0888672,0
64100,0.744629,-0.543945,0.126465,0
64120,0.744629,-0.543945,0.115234,0
64140,0.755371,-0.53418,0.127441,0
64160,0.812988,-0.580566,0.1875,0
64180,0.824219,-0.617188,0.130859,0
64200,0.819824,-0.626953,0.152344,0
64220,0.860352,-0.645508,0.200195,0
64240,0.871582,-0.679199,0.220215,0
64260,0.854492,-0.68457,0.237793,0
64280,0.830566,-0.669434,0.251465,0
64290,0.779785,-0.73584,0.245117,0
64310,0.71582,-0.813477,0.257812,0
64330,0.649902,-0.769531,0.278809,0
64350,0.617188,-0.784668,0.376953,0
64370,0.550781,-0.858398,0.367188,0
64390,0.55127,-0.902832,0.350586,0
64410,0.524414,-0.874512,0.405273,0
64430,0.488281,-0.865234,0.418945,0
64450,0.469727,-0.845703,0.401855,0
64470,0.460449,-0.862305,0.418457,0
64490,0.43457,-0.908691,0.430176,0
64510,0.398926,-0.91748,0.431152,0
64530,0.36377,-0.893555,0.410156,0
64550,0.351074,-0.879395,0.394531,0
64570,0.354492,-0.868652,0.40918,0
64590,0.349609,-0.851562,0.41748,0
64610,0.352539,-0.839844,0.387207,0
64630,0.364746,-0.825684,0.375488,0
64650,0.349609,-0.835938,0.382324,0
64660,0.313477,-0.834473,0.367188,0
64680,0.296387,-0.818359,0.36084,0
64700,0.335938,-0.793945,0.35791,0
64720,0.336914,-0.774902,0.36377,0
64740,0.32666,-0.789551,0.354004,0
64760,0.334473,-0.79541,0.360352,0
64780,0.334961,-0.797363,0.352539,0
64800,0.327637,-0.790527,0.362305,0
64820,0.328613,-0.791992,0.38916,0
64840,0.341797,-0.79834,0.389648,0
64860,0.368164,-0.802734,0.359375,0
64880,0.381836,-0.807617,0.372559,0
64900,0.385742,-0.804688,0.380371,0
64920,0.38916,-0.791992,0.382812,0
64940,0.401367,-0.800293,0.375,0
64960,0.402344,-0.801758,0.375,0
64980,0.398926,-0.794434,0.375977,0
65000,0.393066,-0.791016,0.378906,0
65020,0.394043,-0.789551,0.374023,0
65040,0.387207,-0.797363,0.371582,0
65060,0.375977,-0.784668,0.380371,0
65080,0.368164,-0.78125,0.385742,0
65100,0.365723,-0.791504,0.37793,0
65120,0.374023,-0.789551,0.387695,0
65140,0.368164,-0.791992,0.395996,0
65160,0.350586,-0.789062,0.399902,2000
65180,0.348633,-0.790527,0.399414,0
65200,0.366699,-0.789062,0.408691,0
65220,0.374512,-0.794434,0.398926,0
65240,0.362793,-0.791016,0.394531,0
65260,0.353516,-0.802246,0.394531,0
65280,0.338379,-0.800781,0.407227,0
65300,0.338867,-0.791016,0.412109,0
65320,0.34375,-0.793457,0.410645,0
65340,0.347168,-0.805176,0.402832,0
65360,0.331055,-0.794434,0.420898,0
65380,0.327148,-0.785156,0.419922,0
65400,0.33252,-0.799316,0.401855,0
65430,0.324707,-0.807617,0.412109,0
65450,0.331543,-0.813477,0.395508,0
65470,0.330566,-0.799316,0.389648,0
65480,0.333496,-0.81543,0.369629,0
65500,0.335449,-0.805176,0.375,0
65520,0.358887,-0.803711,0.362305,0
65540,0.364746,-0.776855,0.341309,0
65560,0.387695,-0.771973,0.36377,0
65580,0.405273,-0.769043,0.330566,0
65600,0.446289,-0.773926,0.299805,0
65620,0.459961,-0.777344,0.289062,0
65630,0.509766,-0.807617,0.270996,0
65650,0.546875,-0.800293,0.259766,0
65670,0.505859,-0.746582,0.258301,0
65690,0.548828,-0.746582,0.222168,0
65710,0.538086,-0.752441,0.217285,0
65730,0.543945,-0.732422,0.225098,0
65750,0.568848,-0.719727,0.233398,0
65770,0.597656,-0.731445,0.192871,0
65790,0.583008,-0.72168,0.180176,0
65810,0.561035,-0.709961,0.175293,0
65830,0.610352,-0.712402,0.192383,0
65850,0.597656,-0.709473,0.198242,0
65870,0.603516,-0.706055,0.192383,0
65890,0.591309,-0.706055,0.180664,0
65910,0.62207,-0.698242,0.190918,0
65930,0.634277,-0.690918,0.23877,0
65950,0.65918,-0.691895,0.206055,0
65970,0.674316,-0.689453,0.208008,0
65990,0.636719,-0.699219,0.188477,0
66010,0.656738,-0.672852,0.223633,0
66030,0.675293,-0.651855,0.251465,0
66050,0.67627,-0.628906,0.268066,0
66070,0.695312,-0.625488,0.275879,0
66090,0.735352,-0.63916,0.265137,0
66110,0.762695,-0.607422,0.260742,0
66130,0.748047,-0.573242,0.246582,0
66150,0.768066,-0.567383,0.223633,0
66170,0.791992,-0.574707,0.225586,0
66190,0.80127,-0.585938,0.24707,0
66210,0.787109,-0.577148,0.263672,0
66230,0.739746,-0.570312,0.274414,0
66250,0.740234,-0.54834,0.308105,0
66270,0.739258,-0.538086,0.336914,0
