Timestamp, Acceleration x, Acceleration y, Acceleration z, Marker
40,-0.618652,-0.390625,0.586426,0
60,-0.688477,-0.437012,0.619141,0
80,-0.623535,-0.432617,0.629395,0
100,-0.596191,-0.431152,0.658691,0
120,-0.581543,-0.434082,0.70166,0
140,-0.57959,-0.411133,0.710449,0
160,-0.572266,-0.388184,0.705078,0
160,-0.574707,-0.401367,0.691406,0
160,-0.564453,-0.422363,0.666992,0
210,-0.544922,-0.424805,0.658203,0
230,-0.525879,-0.412109,0.638672,0
250,-0.569824,-0.42627,0.637207,0
270,-0.597168,-0.416016,0.633301,0
290,-0.581543,-0.404297,0.653809,0
310,-0.577148,-0.404785,0.649414,0
330,-0.581543,-0.41748,0.655762,0
350,-0.574219,-0.424805,0.670898,0
370,-0.589844,-0.415039,0.662109,0
390,-0.590332,-0.413574,0.660156,0
410,-0.581543,-0.430664,0.661621,0
430,-0.57373,-0.399414,0.67627,0
450,-0.574707,-0.393555,0.687012,0
470,-0.583008,-0.388184,0.696777,0
490,-0.571777,-0.411621,0.692871,0
510,-0.557129,-0.418945,0.692871,0
530,-0.560059,-0.374023,0.680176,0
550,-0.562012,-0.373047,0.666992,0
570,-0.591797,-0.399414,0.661133,0
590,-0.612305,-0.401855,0.652832,0
610,-0.615234,-0.406738,0.629883,0
630,-0.633301,-0.412598,0.614746,0
650,-0.629395,-0.42334,0.621582,0
670,-0.610352,-0.429688,0.621094,0
690,-0.596191,-0.430664,0.632324,0
710,-0.584961,-0.423828,0.636719,0
730,-0.576172,-0.425781,0.635254,0
750,-0.578125,-0.430176,0.649902,0
770,-0.565918,-0.442383,0.644531,0
790,-0.578613,-0.449219,0.645996,0
810,-0.575684,-0.42334,0.637207,0
830,-0.574707,-0.429199,0.624023,0
850,-0.615234,-0.416016,0.634277,0
870,-0.62207,-0.400879,0.649414,0
890,-0.623047,-0.393555,0.638672,0
910,-0.612793,-0.38623,0.642578,0
930,-0.613281,-0.394531,0.640625,0
950,-0.614746,-0.394043,0.645996,0
970,-0.598145,-0.410156,0.647949,0
990,-0.601074,-0.430176,0.633301,0
1010,-0.60791,-0.43457,0.632812,0
1030,-0.605957,-0.419434,0.645508,0
1050,-0.603027,-0.415527,0.645996,0
1070,-0.600098,-0.413086,0.64502,0
1090,-0.590332,-0.416992,0.644531,0
1110,-0.598145,-0.415039,0.64502,0
1130,-0.594727,-0.415527,0.644531,0
1150,-0.583008,-0.418945,0.652832,0
1170,-0.57959,-0.418945,0.658691,0
1190,-0.587891,-0.40918,0.648926,0
1210,-0.584961,-0.42041,0.637207,0
1230,-0.584473,-0.413086,0.64502,0
1250,-0.594238,-0.408203,0.662109,0
1260,-0.59082,-0.405273,0.660156,0
1280,-0.590332,-0.411133,0.645996,0
1300,-0.585449,-0.408203,0.646973,0
1320,-0.583984,-0.421387,0.631836,0
1340,-0.578125,-0.426758,0.638184,0
1360,-0.574707,-0.433594,0.633789,0
1380,-0.571289,-0.432617,0.646973,0
1400,-0.58252,-0.421387,0.664551,0
1420,-0.595215,-0.39502,0.674805,0
1440,-0.601074,-0.382812,0.679199,0
1460,-0.606445,-0.381348,0.658691,0
1480,-0.602051,-0.390625,0.643066,0
1500,-0.59375,-0.399414,0.651367,0
1520,-0.592773,-0.40625,0.653809,0
1540,-0.59082,-0.40332,0.665039,0
1560,-0.574219,-0.40332,0.673828,0
1580,-0.565918,-0.405762,0.67627,0
1600,-0.560547,-0.406738,0.671387,0
1620,-0.566406,-0.415039,0.666992,0
1640,-0.570801,-0.422363,0.661621,0
1660,-0.582031,-0.419434,0.644043,0
1680,-0.587891,-0.425293,0.649902,0
1700,-0.594238,-0.415527,0.658203,0
1720,-0.59375,-0.421387,0.64209,0
1740,-0.583984,-0.427246,0.646973,0
1760,-0.593262,-0.419434,0.641113,0
1780,-0.595703,-0.417969,0.641602,0
1800,-0.607422,-0.405273,0.648438,0
1820,-0.597656,-0.418457,0.660645,0
1840,-0.592285,-0.411621,0.645508,0
1860,-0.597168,-0.419434,0.650391,0
1880,-0.594238,-0.415039,0.65332,0
1900,-0.595703,-0.412109,0.651855,0
1920,-0.59082,-0.424316,0.642578,0
1940,-0.590332,-0.415527,0.652344,0
1960,-0.585938,-0.410156,0.651367,0
1980,-0.592773,-0.431152,0.628418,0
2000,-0.608398,-0.460938,0.62793,0
2020,-0.603027,-0.441406,0.618164,0
2040,-0.609375,-0.424805,0.634766,0
2060,-0.602051,-0.442383,0.632324,0
2080,-0.600098,-0.438965,0.628906,0
2100,-0.625,-0.430664,0.637207,0
2120,-0.612305,-0.436035,0.630859,0
2140,-0.608398,-0.463867,0.605469,0
2160,-0.610352,-0.458496,0.605957,0
2180,-0.628418,-0.46582,0.629395,0
2200,-0.622559,-0.446289,0.633301,0
2220,-0.61084,-0.427246,0.629883,0
2240,-0.620605,-0.444336,0.610352,0
2260,-0.611328,-0.457031,0.607422,0
2280,-0.588379,-0.449707,0.599609,0
2300,-0.575195,-0.47168,0.583496,0
2320,-0.587891,-0.491211,0.5625,0
2340,-0.599121,-0.509277,0.568359,0
2360,-0.602051,-0.508789,0.554688,0
2380,-0.608887,-0.518555,0.557617,0
2400,-0.626953,-0.509277,0.553223,0
2420,-0.635742,-0.500488,0.55127,0
2440,-0.640625,-0.498047,0.554199,0
2460,-0.636719,-0.499512,0.561523,0
2480,-0.63916,-0.501953,0.560547,0
2500,-0.631836,-0.504883,0.557617,0
2520,-0.625977,-0.503906,0.557617,0
2540,-0.619141,-0.50293,0.562988,0
2560,-0.617188,-0.490723,0.567383,0
2580,-0.619629,-0.485352,0.567383,0
2600,-0.629395,-0.483398,0.569336,0
2620,-0.634766,-0.480957,0.565918,0
2640,-0.63623,-0.483398,0.5625,0
2660,-0.637695,-0.484375,0.570801,0
2680,-0.634277,-0.481445,0.583496,0
2700,-0.628418,-0.471191,0.581543,0
2720,-0.631348,-0.471191,0.583496,0
2740,-0.637207,-0.476562,0.581543,0
2760,-0.632812,-0.470215,0.577148,0
2780,-0.633301,-0.465332,0.580078,0
2800,-0.639648,-0.470215,0.578125,0
2820,-0.629395,-0.482422,0.579102,0
2840,-0.623535,-0.474121,0.58252,0
2860,-0.62793,-0.468262,0.587891,0
2880,-0.630859,-0.472656,0.58252,0
2900,-0.631836,-0.46582,0.584473,0
2920,-0.625,-0.47168,0.589355,0
2940,-0.626465,-0.478027,0.582031,0
2960,-0.616699,-0.481934,0.574219,0
2980,-0.625977,-0.476562,0.582031,0
3000,-0.631348,-0.486328,0.571289,0
3020,-0.62793,-0.47998,0.582031,0
3040,-0.625488,-0.492188,0.569824,0
3060,-0.620117,-0.499023,0.567871,0
3080,-0.625488,-0.481934,0.569336,0
3100,-0.633301,-0.496582,0.566406,0
3120,-0.619141,-0.507324,0.556641,0
3140,-0.621582,-0.515137,0.555176,0
3160,-0.628418,-0.496582,0.569824,0
3180,-0.625,-0.492676,0.562988,0
3200,-0.627441,-0.496094,0.571289,0
3220,-0.630371,-0.496094,0.564453,0
3240,-0.623535,-0.485352,0.572754,0
3260,-0.624512,-0.493652,0.570312,0
3280,-0.629883,-0.490234,0.564941,0
3300,-0.632324,-0.495117,0.562012,0
3320,-0.62207,-0.489746,0.574707,0
3340,-0.620605,-0.481934,0.579102,0
3360,-0.616699,-0.489258,0.574707,0
3380,-0.625488,-0.487305,0.568848,0
3400,-0.631348,-0.483887,0.572266,0
3420,-0.626465,-0.488281,0.585449,0
3440,-0.621094,-0.483398,0.573242,0
3460,-0.624023,-0.495605,0.568359,0
3480,-0.625,-0.496582,0.563965,0
3500,-0.623535,-0.490723,0.574707,0
3520,-0.622559,-0.483887,0.573242,0
3540,-0.622559,-0.487793,0.577148,0
3560,-0.623535,-0.495605,0.575195,0
3580,-0.623047,-0.489258,0.569336,0
3600,-0.627441,-0.482422,0.577637,0
3620,-0.621582,-0.486328,0.579102,0
3640,-0.625,-0.48291,0.574219,0
3660,-0.620605,-0.487793,0.57373,0
3680,-0.625488,-0.492188,0.572754,0
3700,-0.630859,-0.488281,0.577637,0
3720,-0.625977,-0.485352,0.574707,0
3740,-0.621582,-0.486328,0.572754,0
3760,-0.620605,-0.486328,0.577637,0
3780,-0.619141,-0.481934,0.582031,0
3800,-0.620605,-0.483887,0.575195,0
3820,-0.621582,-0.496094,0.572266,0
3840,-0.624023,-0.486328,0.581055,0
3860,-0.625977,-0.483887,0.577148,0
3880,-0.622559,-0.489258,0.575195,0
3900,-0.626953,-0.487305,0.571289,0
3920,-0.624023,-0.480469,0.578613,0
3940,-0.620605,-0.485352,0.577637,0
3960,-0.621582,-0.493164,0.574219,0
3980,-0.626465,-0.483887,0.574219,0
4000,-0.622559,-0.486328,0.575195,0
4020,-0.619141,-0.486816,0.577148,0
4040,-0.619629,-0.485352,0.580078,0
4060,-0.625488,-0.480469,0.583008,0
4080,-0.629395,-0.474609,0.577148,0
4100,-0.625977,-0.491699,0.572754,0
4120,-0.624512,-0.485352,0.579102,0
4140,-0.621582,-0.483398,0.583984,0
4160,-0.62207,-0.484863,0.581543,0
4180,-0.620117,-0.48291,0.578125,0
4200,-0.621582,-0.486816,0.578613,0
4220,-0.618652,-0.48584,0.580566,0
4240,-0.62207,-0.478027,0.583496,0
4260,-0.623535,-0.476562,0.582031,0
4280,-0.618652,-0.481934,0.579102,0
4300,-0.621094,-0.48877,0.576172,0
4320,-0.625977,-0.479004,0.580566,0
4340,-0.627441,-0.481934,0.583496,0
4360,-0.621094,-0.485352,0.582031,0
4380,-0.624512,-0.476562,0.586426,0
4400,-0.620117,-0.479492,0.582031,0
4420,-0.624512,-0.485352,0.575684,0
4440,-0.625488,-0.483887,0.578125,0
4460,-0.623535,-0.48291,0.577637,0
4480,-0.623047,-0.480469,0.581055,0
4500,-0.618164,-0.479004,0.585938,0
4520,-0.623535,-0.479004,0.583496,0
4540,-0.624023,-0.479492,0.587402,0
4560,-0.623535,-0.479492,0.581055,0
4580,-0.619141,-0.473633,0.58252,0
4600,-0.617676,-0.471191,0.58252,0
4620,-0.621094,-0.478516,0.583984,0
4640,-0.622559,-0.480957,0.584961,0
4650,-0.62207,-0.477539,0.583496,0
4670,-0.620605,-0.476074,0.585449,0
4690,-0.623047,-0.476562,0.584473,0
4710,-0.623535,-0.476562,0.581055,0
4730,-0.620605,-0.471191,0.587402,0
4750,-0.620117,-0.475586,0.590332,0
4770,-0.616211,-0.474121,0.582031,0
4790,-0.615723,-0.470215,0.586914,0
4810,-0.623047,-0.469238,0.59375,0
4830,-0.624023,-0.46875,0.588379,0
4850,-0.619141,-0.470215,0.591309,0
4870,-0.619629,-0.470703,0.587891,0
4890,-0.616699,-0.476562,0.59082,0
4910,-0.62207,-0.463379,0.592773,0
4930,-0.615723,-0.463379,0.591797,0
4950,-0.614746,-0.469238,0.591797,0
4970,-0.620117,-0.464355,0.590332,0
4990,-0.619629,-0.466797,0.592773,0
5010,-0.619141,-0.46875,0.59375,0
5030,-0.61377,-0.463379,0.594727,0
5050,-0.615723,-0.468262,0.604004,0
5070,-0.617188,-0.456543,0.599609,0
5090,-0.616211,-0.460449,0.598633,0
5110,-0.612793,-0.460449,0.601074,0
5130,-0.619141,-0.461914,0.604004,0
5150,-0.61377,-0.464355,0.601074,0
5170,-0.617188,-0.459473,0.603516,0
5190,-0.619629,-0.445312,0.601562,0
5210,-0.615723,-0.440918,0.60791,0
5230,-0.618164,-0.446289,0.60791,0
5250,-0.618164,-0.444824,0.609863,0
5270,-0.619629,-0.445801,0.607422,0
5290,-0.613281,-0.442383,0.606445,0
5310,-0.614258,-0.442871,0.61084,0
5330,-0.613281,-0.437988,0.623047,0
5350,-0.605469,-0.430176,0.634766,0
5370,-0.595703,-0.421875,0.629395,0
5390,-0.609375,-0.436035,0.625,0
5410,-0.610352,-0.435547,0.624512,0
5430,-0.599121,-0.44043,0.630859,0
5450,-0.606445,-0.428711,0.62793,0
5470,-0.60791,-0.422852,0.654785,0
5490,-0.614746,-0.409668,0.653809,0
5510,-0.608887,-0.41748,0.633789,0
5530,-0.573242,-0.448242,0.648926,0
5550,-0.569824,-0.427246,0.636719,0
5570,-0.588379,-0.407715,0.648438,0
5590,-0.59375,-0.462891,0.62793,0
5610,-0.585449,-0.473633,0.617188,0
5630,-0.588867,-0.46875,0.597656,0
5650,-0.604492,-0.490234,0.584961,0
5670,-0.614258,-0.498535,0.578613,0
5690,-0.602051,-0.503906,0.57373,0
5710,-0.600098,-0.474609,0.583496,0
5730,-0.60791,-0.48291,0.601562,0
5750,-0.603027,-0.466797,0.611328,0
5770,-0.594238,-0.469238,0.629395,0
5790,-0.586426,-0.44873,0.632324,0
5810,-0.589355,-0.465332,0.616699,0
5830,-0.587891,-0.474609,0.617676,0
5850,-0.600586,-0.463379,0.617676,0
5870,-0.598633,-0.449219,0.607422,0
5890,-0.609863,-0.465332,0.602539,0
5910,-0.626953,-0.459473,0.60791,0
5930,-0.626465,-0.445312,0.609863,0
5950,-0.616211,-0.454102,0.605957,0
5970,-0.599121,-0.453125,0.617676,0
5990,-0.606934,-0.450195,0.615723,0
6010,-0.601074,-0.460449,0.619141,0
6030,-0.592285,-0.461914,0.600098,0
6050,-0.613281,-0.458984,0.603027,0
6070,-0.610352,-0.469238,0.600586,0
6090,-0.612305,-0.47168,0.61084,0
6110,-0.609863,-0.459473,0.602539,0
6130,-0.609375,-0.462402,0.602051,0
6150,-0.609863,-0.462891,0.594238,0
6170,-0.608887,-0.463867,0.588867,0
6190,-0.606445,-0.46875,0.587402,0
6210,-0.610352,-0.470703,0.617188,0
6230,-0.610352,-0.452148,0.61084,0
6250,-0.609375,-0.4375,0.621094,0
6270,-0.605469,-0.460938,0.612305,0
6290,-0.606445,-0.469727,0.601562,0
6310,-0.595703,-0.474609,0.594238,0
6330,-0.605469,-0.490723,0.583008,0
6350,-0.608398,-0.485352,0.59082,0
6370,-0.619141,-0.466309,0.601074,0
6390,-0.615723,-0.455078,0.611328,0
6410,-0.609863,-0.452637,0.619141,0
6430,-0.611328,-0.444824,0.607422,0
6450,-0.598633,-0.467773,0.60498,0
6470,-0.589844,-0.471191,0.592773,0
6490,-0.597656,-0.490234,0.59668,0
6510,-0.598633,-0.48291,0.599121,0
6530,-0.605469,-0.457031,0.607422,0
6550,-0.598633,-0.440918,0.62207,0
6570,-0.588379,-0.453125,0.62207,0
6590,-0.59082,-0.463867,0.62793,0
6610,-0.594238,-0.450195,0.616699,0
6620,-0.600098,-0.461426,0.608887,0
6640,-0.616699,-0.455078,0.608887,0
6660,-0.617188,-0.45459,0.605469,0
6680,-0.606934,-0.453613,0.606934,0
6700,-0.616211,-0.449219,0.610352,0
6720,-0.608887,-0.458496,0.620605,0
6740,-0.611328,-0.437012,0.620605,0
6760,-0.60498,-0.443359,0.625488,0
6780,-0.590332,-0.452637,0.60791,0
6800,-0.590332,-0.467285,0.604492,0
6820,-0.600098,-0.460449,0.614258,0
6840,-0.598145,-0.456055,0.618652,0
6860,-0.59082,-0.464355,0.61084,0
6880,-0.59082,-0.456055,0.616699,0
6900,-0.604004,-0.449707,0.616211,0
6920,-0.614746,-0.453125,0.61084,0
6940,-0.613281,-0.453613,0.607422,0
6960,-0.61377,-0.466309,0.601074,0
6980,-0.614258,-0.467285,0.597168,0
7000,-0.614746,-0.466797,0.602539,0
7020,-0.616211,-0.455566,0.606934,0
7040,-0.609375,-0.458008,0.606445,0
7060,-0.603027,-0.463379,0.606445,0
7080,-0.60791,-0.448242,0.61084,0
7100,-0.611816,-0.438477,0.620117,0
7120,-0.604004,-0.447266,0.617676,0
7140,-0.599609,-0.450195,0.612793,0
7160,-0.594727,-0.454102,0.620605,0
7180,-0.597168,-0.449219,0.630371,0
7200,-0.602051,-0.444336,0.628418,0
7220,-0.604004,-0.442383,0.625,0
7240,-0.601074,-0.44043,0.62793,0
7260,-0.599121,-0.447754,0.623047,0
7280,-0.612793,-0.442871,0.62207,0
7300,-0.618652,-0.441895,0.621094,0
7320,-0.619141,-0.447266,0.61377,0
7340,-0.61377,-0.454102,0.608887,0
7360,-0.614746,-0.443848,0.599121,0
7380,-0.622559,-0.455566,0.589844,0
7400,-0.630371,-0.454102,0.599609,0
7420,-0.632812,-0.446777,0.615723,0
7440,-0.621582,-0.442871,0.620605,0
7460,-0.606934,-0.450684,0.629395,0
7480,-0.605957,-0.444824,0.614746,0
7500,-0.604004,-0.447754,0.612305,0
7520,-0.610352,-0.449219,0.604492,0
7540,-0.624023,-0.446289,0.609375,0
7560,-0.616211,-0.431152,0.605469,0
7580,-0.619141,-0.429688,0.600098,0
7600,-0.634277,-0.446777,0.594727,0
7620,-0.63623,-0.442383,0.601074,0
7640,-0.629395,-0.44043,0.588867,0
7660,-0.634277,-0.453125,0.585449,0
7680,-0.641113,-0.45166,0.592285,0
7700,-0.629883,-0.435547,0.614746,0
7720,-0.630859,-0.441406,0.59375,0
7740,-0.624512,-0.437012,0.623535,0
7760,-0.617676,-0.435547,0.629883,0
7780,-0.597656,-0.439941,0.617188,0
7800,-0.597168,-0.453125,0.623535,0
7820,-0.588379,-0.456543,0.616211,0
7840,-0.595703,-0.452637,0.61084,0
7860,-0.612305,-0.453613,0.606934,0
7880,-0.615723,-0.447266,0.612305,0
7900,-0.616211,-0.439453,0.618652,0
7920,-0.60498,-0.441406,0.617188,0
7940,-0.607422,-0.436523,0.618652,0
7960,-0.614746,-0.4375,0.616211,0
7980,-0.609375,-0.431152,0.623535,0
8000,-0.613281,-0.435059,0.620117,0
8020,-0.612305,-0.4375,0.622559,0
8040,-0.600586,-0.441406,0.616211,0
8060,-0.593262,-0.440918,0.624512,0
8080,-0.596191,-0.435059,0.633301,0
8100,-0.604492,-0.428223,0.645996,0
8120,-0.605957,-0.420898,0.641113,0
8140,-0.608398,-0.422852,0.633789,0
8160,-0.613281,-0.427734,0.623535,0
8180,-0.619141,-0.432617,0.614258,0
8200,-0.617188,-0.437988,0.619629,0
8220,-0.614258,-0.432129,0.620605,0
8240,-0.61084,-0.438965,0.635742,0
8260,-0.595215,-0.425781,0.638672,0
8280,-0.588379,-0.42627,0.636719,0
8300,-0.593262,-0.441895,0.629883,0
8320,-0.596191,-0.4375,0.618652,0
8340,-0.604004,-0.455566,0.614746,0
8360,-0.602051,-0.450195,0.625,0
8380,-0.595215,-0.430664,0.629883,0
8400,-0.599121,-0.396973,0.633789,0
8420,-0.606445,-0.410156,0.624512,0
8440,-0.597168,-0.445801,0.615234,0
8460,-0.60791,-0.462402,0.624023,0
8480,-0.628906,-0.442383,0.625,0
8500,-0.612305,-0.434082,0.620605,0
8520,-0.598145,-0.44043,0.629395,0
8540,-0.608887,-0.4375,0.623047,0
8560,-0.603516,-0.43457,0.627441,0
8580,-0.596191,-0.440918,0.633301,0
8600,-0.598145,-0.434082,0.628418,0
8620,-0.603027,-0.433594,0.634277,0
8640,-0.606934,-0.433105,0.626953,0
8660,-0.603516,-0.438477,0.625488,0
8680,-0.600586,-0.4375,0.62793,0
8700,-0.611328,-0.43457,0.625488,0
8720,-0.604004,-0.434082,0.61377,0
8740,-0.599609,-0.441895,0.626465,0
8760,-0.617188,-0.437988,0.625977,0
8780,-0.609375,-0.435547,0.618164,0
8800,-0.594727,-0.447266,0.614258,0
8820,-0.588867,-0.446777,0.624023,0
8840,-0.595703,-0.438477,0.629883,0
8860,-0.599121,-0.430176,0.632324,0
8880,-0.600586,-0.429688,0.629395,0
8900,-0.617188,-0.444336,0.625488,0
8920,-0.617188,-0.434082,0.617188,0
8940,-0.61377,-0.435059,0.62793,0
8960,-0.615234,-0.4375,0.625,0
8980,-0.611328,-0.435059,0.616699,0
9000,-0.608398,-0.43457,0.618652,0
9020,-0.595215,-0.442383,0.632812,0
9040,-0.594238,-0.443848,0.626953,0
9060,-0.57959,-0.438965,0.633301,0
9080,-0.585449,-0.432129,0.635742,0
9100,-0.597168,-0.435059,0.633789,0
9120,-0.592285,-0.428711,0.640137,0
9140,-0.60498,-0.430664,0.610352,0
9160,-0.602539,-0.469238,0.601074,0
9180,-0.598633,-0.453125,0.610352,0
9200,-0.597656,-0.44043,0.634277,0
9220,-0.605469,-0.464355,0.639648,0
9240,-0.634766,-0.467285,0.629395,0
9260,-0.614746,-0.460938,0.583496,0
9280,-0.591309,-0.479004,0.564453,0
9300,-0.609863,-0.507324,0.552246,0
9320,-0.625977,-0.494629,0.559082,0
9340,-0.643555,-0.458496,0.560547,0
9360,-0.660156,-0.439941,0.564453,0
9380,-0.644043,-0.449707,0.579102,0
9400,-0.641113,-0.450195,0.592773,0
9420,-0.629883,-0.44873,0.586426,0
9440,-0.618652,-0.467285,0.606934,0
9460,-0.626465,-0.476562,0.630859,0
9480,-0.627441,-0.460449,0.633789,0
9500,-0.591309,-0.456543,0.63623,0
9520,-0.569336,-0.451172,0.62793,0
9540,-0.583008,-0.44873,0.61377,0
9560,-0.599609,-0.443359,0.61084,0
9580,-0.616211,-0.456055,0.603027,0
9600,-0.625,-0.440918,0.597656,0
9620,-0.620117,-0.462402,0.588867,0
9640,-0.600586,-0.470703,0.589355,0
9660,-0.591797,-0.476562,0.587402,0
9680,-0.594238,-0.478027,0.602539,0
9700,-0.611328,-0.481934,0.615234,0
9720,-0.612793,-0.456055,0.625,0
9740,-0.597168,-0.451172,0.62207,0
9760,-0.597656,-0.455566,0.621094,0
9780,-0.599121,-0.459473,0.621582,0
9800,-0.605469,-0.441895,0.615234,0
9820,-0.595215,-0.441406,0.614258,0
9840,-0.616211,-0.457031,0.614746,0
9860,-0.634766,-0.449219,0.615723,0
9880,-0.628906,-0.448242,0.605469,0
9900,-0.618164,-0.469238,0.614258,0
9920,-0.610352,-0.45752,0.624023,0
9940,-0.597656,-0.4375,0.635742,0
9960,-0.597656,-0.441895,0.630371,0
9980,-0.602539,-0.461426,0.617188,0
10000,-0.61084,-0.469238,0.603516,0
10020,-0.622559,-0.475586,0.611328,0
10030,-0.609863,-0.469727,0.616699,0
10050,-0.602051,-0.458496,0.611816,0
10070,-0.607422,-0.47998,0.609863,0
10090,-0.625488,-0.467285,0.614746,0
10110,-0.626953,-0.46875,0.609375,0
10130,-0.623535,-0.462402,0.602051,0
10150,-0.59668,-0.462891,0.602051,0
10170,-0.599609,-0.467773,0.614258,0
10190,-0.618652,-0.463379,0.577148,0
10210,-0.57373,-0.501953,0.569824,0
10230,-0.568848,-0.497559,0.575195,0
10250,-0.583496,-0.487793,0.586914,0
10270,-0.597656,-0.486816,0.580078,0
10290,-0.602051,-0.468262,0.581543,0
10310,-0.60791,-0.46582,0.559082,0
10330,-0.615234,-0.479004,0.532715,0
10350,-0.607422,-0.480469,0.520996,0
10370,-0.611328,-0.474121,0.506348,0
10390,-0.60498,-0.500488,0.511719,0
10410,-0.604492,-0.502441,0.489746,0
10430,-0.583008,-0.565918,0.509766,0
10450,-0.564453,-0.580566,0.527344,0
10470,-0.572266,-0.592773,0.552734,0
10490,-0.585938,-0.580078,0.59668,0
10510,-0.603027,-0.541504,0.656738,0
10530,-0.611816,-0.500977,0.701172,0
10550,-0.598633,-0.486816,0.697754,0
10570,-0.60498,-0.432129,0.668945,0
10590,-0.604492,-0.415039,0.641602,0
10610,-0.602051,-0.437988,0.591309,0
10630,-0.623535,-0.471191,0.555176,0
10650,-0.635254,-0.48291,0.547852,0
10670,-0.651367,-0.469727,0.570801,0
10690,-0.650391,-0.454102,0.599121,0
10710,-0.644043,-0.465332,0.636719,0
10730,-0.625977,-0.493164,0.637207,0
10750,-0.620117,-0.51123,0.630859,0
10770,-0.588867,-0.497559,0.618164,0
10790,-0.557129,-0.527832,0.596191,0
10810,-0.561523,-0.502441,0.583984,0
10830,-0.553223,-0.48877,0.589844,0
10850,-0.562012,-0.481445,0.59375,0
10870,-0.568848,-0.477539,0.59668,0
10890,-0.588379,-0.482422,0.597656,0
10910,-0.600098,-0.48584,0.597656,0
10930,-0.615234,-0.498047,0.598145,0
10950,-0.607422,-0.503906,0.59668,0
10970,-0.599609,-0.503906,0.577637,0
10990,-0.602051,-0.494141,0.59082,0
11010,-0.603516,-0.496094,0.599121,0
11030,-0.59082,-0.499023,0.602539,0
11050,-0.583984,-0.491699,0.594238,0
11070,-0.563477,-0.477051,0.586914,0
11090,-0.57959,-0.461426,0.594238,0
11110,-0.584961,-0.473145,0.590332,0
11130,-0.588379,-0.498535,0.574707,0
11150,-0.609375,-0.512207,0.573242,0
11170,-0.617676,-0.516602,0.578613,0
11190,-0.630371,-0.525391,0.600098,0
11210,-0.617676,-0.518555,0.59375,0
11230,-0.594727,-0.490723,0.605957,0
11250,-0.591309,-0.465332,0.614746,0
11270,-0.602051,-0.450195,0.624023,0
11290,-0.609863,-0.430176,0.634766,0
11310,-0.622559,-0.425293,0.626953,0
11330,-0.624512,-0.430176,0.623535,0
11350,-0.603027,-0.431152,0.614258,0
11370,-0.615723,-0.421875,0.594727,0
11390,-0.648438,-0.425781,0.583496,0
11410,-0.628906,-0.438965,0.578125,0
11430,-0.592285,-0.491211,0.585449,0
11450,-0.575195,-0.522949,0.60498,0
11470,-0.564941,-0.530273,0.631836,0
11490,-0.561035,-0.515625,0.648438,0
11510,-0.564941,-0.501953,0.634277,0
11530,-0.579102,-0.47168,0.615234,0
11550,-0.584961,-0.443359,0.618652,0
11570,-0.59375,-0.441406,0.61377,0
11590,-0.594238,-0.455566,0.605469,0
11610,-0.595215,-0.464355,0.608887,0
11630,-0.587891,-0.455566,0.616211,0
11650,-0.591797,-0.45459,0.627441,0
11670,-0.59375,-0.462402,0.637207,0
11690,-0.593262,-0.443848,0.64209,0
11710,-0.586426,-0.44043,0.646484,0
11730,-0.586426,-0.445312,0.635254,0
11750,-0.571289,-0.470703,0.628906,0
11770,-0.558105,-0.462402,0.631836,0
11790,-0.548828,-0.461426,0.641602,0
11810,-0.552246,-0.46875,0.650391,0
11830,-0.554199,-0.461914,0.646973,0
11850,-0.566406,-0.462402,0.638184,0
11870,-0.585938,-0.466797,0.634277,0
11890,-0.585449,-0.462891,0.626953,0
11910,-0.581543,-0.445801,0.616211,0
11930,-0.594238,-0.458008,0.621094,0
11950,-0.597656,-0.461914,0.626465,0
11970,-0.597168,-0.450195,0.617188,0
11990,-0.598633,-0.453613,0.607422,0
12000,-0.598633,-0.463867,0.600586,0
12020,-0.59668,-0.453613,0.609375,0
12040,-0.592285,-0.45459,0.609375,0
12060,-0.600586,-0.460449,0.617676,0
12080,-0.605957,-0.447266,0.620117,0
12100,-0.602051,-0.450684,0.625488,0
12120,-0.592773,-0.472168,0.627441,0
12140,-0.591309,-0.467773,0.603516,0
12160,-0.578125,-0.498047,0.606445,0
12180,-0.577148,-0.452637,0.616699,0
12200,-0.586426,-0.457031,0.631348,0
12220,-0.580566,-0.467773,0.605957,0
12240,-0.612793,-0.438477,0.622559,0
12260,-0.611328,-0.439941,0.640625,0
12280,-0.599609,-0.48291,0.626465,0
12300,-0.586426,-0.497559,0.617188,0
12320,-0.599609,-0.48877,0.591309,0
12340,-0.64502,-0.521484,0.569336,0
12360,-0.660156,-0.425293,0.535645,0
12380,-0.65625,-0.496094,0.528809,0
12400,-0.734863,-0.536621,0.535156,0
12420,-0.870605,-0.486816,0.724609,0
12440,-0.844238,-0.327148,0.851562,0
12460,-0.713867,-0.364258,0.850586,0
12480,-0.544434,-0.441406,0.905762,0
12500,-0.499023,-0.588379,0.95166,0
12520,-0.314941,-0.645508,0.952637,0
12540,-0.166504,-0.719727,0.909668,0
12560,-0.119141,-0.601074,0.947266,0
12580,0.0405273,-0.460938,0.815918,0
12600,0.158691,-0.393555,0.69043,0
12620,0.170898,-0.378418,0.677246,0
12640,0.294434,-0.458496,0.621094,0
12660,0.544434,-0.494141,0.543945,0
12680,0.470703,-0.557129,0.504395,0
12700,0.48877,-0.574219,0.495117,0
12720,0.529785,-0.574219,0.484863,0
12740,0.409668,-0.557617,0.514648,0
12760,0.432617,-0.531738,0.466309,0
12780,0.385742,-0.488281,0.463379,0
12800,0.332031,-0.515137,0.43457,0
12820,0.338379,-0.521484,0.465332,0
12840,0.330566,-0.555664,0.466797,0
12860,0.30957,-0.557129,0.491699,0
12880,0.34375,-0.583496,0.508301,0
12900,0.353027,-0.591797,0.519043,0
12920,0.344727,-0.618164,0.524414,0
12940,0.367676,-0.644043,0.53125,0
12960,0.427246,-0.672852,0.5625,0
12980,0.427246,-0.65625,0.550781,0
13000,0.417969,-0.655762,0.537598,0
13020,0.437988,-0.667969,0.545898,0
13040,0.471191,-0.666504,0.547852,0
13060,0.475098,-0.660645,0.528809,0
13080,0.469238,-0.652832,0.527832,0
13100,0.433105,-0.641113,0.527832,0
13120,0.451172,-0.636719,0.534668,0
13140,0.454102,-0.635742,0.508789,0
13160,0.462402,-0.619629,0.528809,0
13180,0.435547,-0.624023,0.532715,0
13200,0.432617,-0.625488,0.527344,0
13220,0.440918,-0.629395,0.521973,0
13240,0.42041,-0.621094,0.54248,0
13260,0.400391,-0.624023,0.553711,0
13280,0.416016,-0.651855,0.549805,0
13300,0.407227,-0.632324,0.54834,0
13320,0.395508,-0.634766,0.556152,0
13340,0.413574,-0.640137,0.553223,0
13360,0.415039,-0.65625,0.542969,0
13380,0.410645,-0.643066,0.545898,0
13400,0.427734,-0.65625,0.545898,0
13420,0.447266,-0.652344,0.536621,0
13440,0.437012,-0.650391,0.549805,0
13460,0.454102,-0.665039,0.513184,0
13480,0.46875,-0.668945,0.511719,0
13500,0.492188,-0.659668,0.503906,0
13520,0.505371,-0.687988,0.523926,0
13540,0.437012,-0.675781,0.530762,0
13560,0.406738,-0.641602,0.541504,0
13580,0.381836,-0.643555,0.521484,0
13600,0.350098,-0.661133,0.533691,0
13620,0.304688,-0.666016,0.5625,0
13640,0.240234,-0.655273,0.574707,0
13660,0.260742,-0.668457,0.577637,0
13680,0.277832,-0.678223,0.568359,0
13700,0.242188,-0.679688,0.596191,0
13720,0.196777,-0.693848,0.597656,0
13740,0.204102,-0.689941,0.602051,0
13760,0.189941,-0.702148,0.58252,0
13780,0.208008,-0.707031,0.591309,0
13800,0.189453,-0.731445,0.584961,0
13820,0.157227,-0.713867,0.578613,0
13840,0.177246,-0.714844,0.568359,0
13860,0.165527,-0.712891,0.603027,0
13880,0.175781,-0.728516,0.59375,0
13900,0.202637,-0.724609,0.588867,0
13920,0.196777,-0.709961,0.605469,0
13940,0.202637,-0.710938,0.61084,0
13960,0.208008,-0.736816,0.586426,0
13980,0.209473,-0.722168,0.575195,0
14000,0.219727,-0.710938,0.585938,0
14020,0.206055,-0.712402,0.597168,0
14040,0.186523,-0.70752,0.601074,0
14060,0.197266,-0.728027,0.592773,0
14080,0.203613,-0.722656,0.585449,0
14100,0.199707,-0.708984,0.588867,0
14120,0.178223,-0.703613,0.582031,0
14140,0.182129,-0.70752,0.584961,1000
14160,0.172852,-0.71875,0.587891,0
14180,0.194336,-0.700195,0.589355,0
14200,0.204102,-0.70166,0.585938,0
14220,0.190918,-0.719238,0.581543,0
14240,0.197266,-0.717285,0.58252,0
14260,0.193359,-0.692871,0.594238,0
14280,0.199219,-0.702637,0.600586,0
14300,0.219238,-0.728027,0.591309,0
14320,0.205566,-0.714355,0.585449,0
14340,0.213867,-0.692383,0.583984,0
14360,0.229004,-0.689453,0.580078,0
14380,0.219238,-0.714844,0.577148,0
14400,0.266113,-0.710938,0.588867,0
14420,0.276367,-0.708008,0.568359,0
14440,0.24707,-0.700195,0.571777,0
14460,0.237793,-0.702148,0.577637,0
14480,0.233398,-0.709961,0.586426,0
14500,0.232422,-0.711426,0.577148,0
14520,0.239258,-0.702637,0.579102,0
14540,0.21875,-0.694824,0.579102,0
14560,0.204102,-0.698242,0.589355,0
14580,0.223633,-0.703613,0.584961,0
14600,0.246094,-0.703125,0.585938,0
14620,0.206543,-0.700195,0.594727,0
14640,0.189941,-0.702637,0.586914,0
14660,0.224609,-0.725586,0.58252,0
14680,0.234863,-0.721191,0.585938,0
14700,0.212891,-0.709473,0.584473,0
14720,0.20459,-0.703125,0.589844,0
14740,0.224121,-0.711914,0.590332,0
14760,0.219238,-0.724609,0.579102,0
14780,0.212891,-0.711914,0.575684,0
14800,0.21875,-0.692383,0.586426,0
14820,0.21875,-0.696289,0.575684,0
14840,0.211914,-0.700195,0.57666,0
14860,0.211426,-0.69873,0.574707,0
14880,0.211914,-0.690918,0.583496,0
14900,0.20752,-0.683105,0.589844,0
14920,0.204102,-0.689941,0.594238,0
14940,0.214844,-0.689941,0.600586,0
14960,0.213867,-0.68457,0.597168,0
14980,0.210449,-0.678711,0.60498,0
15000,0.214355,-0.682617,0.606934,0
15020,0.215332,-0.697754,0.606445,0
15040,0.222168,-0.702148,0.597168,0
15060,0.247559,-0.691895,0.597168,0
15080,0.232422,-0.684082,0.59082,0
15100,0.212891,-0.695801,0.589355,0
15120,0.223145,-0.709473,0.601074,0
15140,0.236328,-0.687988,0.605957,0
15160,0.211914,-0.675293,0.604004,0
15180,0.203613,-0.687988,0.61377,0
15200,0.209473,-0.686523,0.619141,0
15220,0.206055,-0.687012,0.611816,0
15240,0.212402,-0.685547,0.615234,0
15260,0.209961,-0.687012,0.606445,0
15280,0.22168,-0.688965,0.616699,0
15300,0.228516,-0.69043,0.607422,0
15320,0.240723,-0.683105,0.606445,0
15340,0.238281,-0.678711,0.605957,0
15360,0.255371,-0.679199,0.61084,0
15380,0.242188,-0.681152,0.60791,0
15390,0.231445,-0.684082,0.600586,0
15410,0.251465,-0.68457,0.603027,0
15430,0.252441,-0.679688,0.609863,0
15450,0.249023,-0.68457,0.587891,0
15470,0.233887,-0.676758,0.616699,0
15490,0.242676,-0.683594,0.60791,0
15510,0.268555,-0.695312,0.606934,0
15530,0.262207,-0.705078,0.603516,0
15550,0.236328,-0.675293,0.603027,0
15570,0.223145,-0.671387,0.603027,0
15590,0.225586,-0.675293,0.607422,0
15610,0.230957,-0.688965,0.611816,0
15630,0.219238,-0.681152,0.604004,0
15650,0.210449,-0.675293,0.613281,0
15670,0.225098,-0.665527,0.609375,0
15690,0.228516,-0.663086,0.612305,0
15710,0.22998,-0.682617,0.609863,0
15730,0.219727,-0.675293,0.608398,0
15750,0.202148,-0.661133,0.615234,0
15770,0.207031,-0.67334,0.61084,0
15790,0.220703,-0.672363,0.604004,0
15810,0.209961,-0.663574,0.611816,0
15830,0.201172,-0.659668,0.618652,0
15850,0.21582,-0.677734,0.603027,0
15870,0.243652,-0.698242,0.616211,0
15890,0.237305,-0.686035,0.609375,0
15910,0.236328,-0.662109,0.608887,0
15930,0.254883,-0.660156,0.589355,0
15950,0.268555,-0.662109,0.606445,0
15970,0.266113,-0.68457,0.609863,0
15990,0.282227,-0.686035,0.602051,0
16010,0.304199,-0.659668,0.602051,0
16030,0.296387,-0.651367,0.580078,0
16050,0.317871,-0.65625,0.581543,0
16070,0.320312,-0.65625,0.591797,0
16090,0.29834,-0.651855,0.61084,0
16110,0.288086,-0.649414,0.605957,0
16130,0.308105,-0.658203,0.594727,0
16150,0.321289,-0.660156,0.594238,0
16170,0.303711,-0.664551,0.595703,0
16190,0.302734,-0.65332,0.603516,0
16190,0.336426,-0.643066,0.576172,0
16210,0.323242,-0.650879,0.586426,0
16230,0.321777,-0.651367,0.602539,0
16250,0.324707,-0.648926,0.598145,0
16270,0.333984,-0.641113,0.584961,0
16290,0.339844,-0.648926,0.569824,0
16310,0.346191,-0.648438,0.590332,0
16330,0.345703,-0.635742,0.597168,0
16350,0.354004,-0.643555,0.586426,0
16370,0.369141,-0.650391,0.560547,0
16390,0.392578,-0.642578,0.578613,0
16410,0.394043,-0.630371,0.578613,0
16430,0.383789,-0.630859,0.567383,0
16450,0.394531,-0.637695,0.568359,0
16470,0.402344,-0.634277,0.564453,0
16490,0.412598,-0.624023,0.555664,0
16510,0.402832,-0.631348,0.568359,0
16530,0.414062,-0.629395,0.552246,0
16550,0.413086,-0.62793,0.54541,0
16570,0.432617,-0.634766,0.55127,0
16590,0.42334,-0.625,0.562012,0
16610,0.436523,-0.617676,0.550781,0
16630,0.438965,-0.617188,0.550781,0
16650,0.431641,-0.619629,0.529297,0
16670,0.433105,-0.618652,0.533691,0
16690,0.448242,-0.617676,0.529785,0
16710,0.44873,-0.611816,0.522461,0
16730,0.482422,-0.619629,0.538086,0
16750,0.481934,-0.602051,0.510742,0
16770,0.493652,-0.61377,0.499023,0
16790,0.507324,-0.605469,0.496582,0
16810,0.511719,-0.595703,0.502441,0
16830,0.509766,-0.599121,0.505859,0
16850,0.526855,-0.60791,0.5,0
16870,0.549805,-0.59668,0.491211,0
16890,0.539551,-0.590332,0.485352,0
16910,0.530762,-0.590332,0.479492,0
16930,0.529785,-0.599609,0.485352,0
16950,0.544922,-0.584961,0.479492,0
16970,0.558105,-0.584961,0.47168,0
16990,0.559082,-0.591309,0.475586,0
17010,0.566406,-0.590332,0.467285,0
17030,0.564941,-0.577637,0.471191,0
17050,0.572754,-0.578613,0.464355,0
17070,0.584473,-0.569824,0.469727,0
17090,0.581055,-0.573242,0.476562,0
17110,0.573242,-0.565918,0.470215,0
17130,0.585938,-0.561523,0.475586,0
17150,0.577637,-0.549316,0.47168,0
17170,0.595215,-0.545898,0.460449,0
17190,0.600586,-0.552734,0.469727,0
17210,0.603516,-0.535156,0.467285,0
17220,0.604004,-0.532715,0.469727,0
17250,0.61084,-0.533691,0.463867,0
17270,0.608887,-0.52832,0.475098,0
17290,0.616211,-0.520508,0.46875,0
17310,0.623535,-0.517578,0.464844,0
17330,0.629395,-0.518555,0.46582,0
17340,0.615723,-0.516113,0.466309,0
17360,0.617676,-0.510742,0.477051,0
17380,0.630371,-0.51416,0.466797,0
17400,0.628906,-0.510742,0.465332,0
17420,0.617188,-0.518555,0.472168,0
17440,0.612305,-0.510742,0.472656,0
17460,0.620117,-0.515625,0.478516,0
17480,0.625,-0.501465,0.477539,0
17500,0.624512,-0.499512,0.480469,0
17520,0.625977,-0.503906,0.493652,0
17540,0.625977,-0.498535,0.491211,0
17560,0.608398,-0.496582,0.505859,0
17580,0.613281,-0.495605,0.509277,0
17600,0.612305,-0.485352,0.519043,0
17620,0.609375,-0.47998,0.527344,0
17640,0.611816,-0.47998,0.524902,0
17660,0.603027,-0.480469,0.527832,0
17680,0.595215,-0.475098,0.546387,0
17700,0.578613,-0.478027,0.554199,0
17720,0.57959,-0.48291,0.55957,0
17740,0.585449,-0.484863,0.558594,0
17760,0.571777,-0.481445,0.572754,0
17780,0.552246,-0.505371,0.580078,0
17800,0.529785,-0.478516,0.597656,0
17820,0.571777,-0.487305,0.585449,0
17840,0.580566,-0.559082,0.603027,0
17860,0.478027,-0.508301,0.601562,0
17880,0.415527,-0.473145,0.611816,0
17900,0.520508,-0.487305,0.629883,0
17920,0.525391,-0.523438,0.641113,0
17940,0.48877,-0.467773,0.644531,0
17960,0.454102,-0.453125,0.646973,0
17980,0.489746,-0.439941,0.64502,0
18000,0.506836,-0.481934,0.632812,0
18020,0.473633,-0.54248,0.680664,0
18040,0.377441,-0.495117,0.665039,0
18060,0.384277,-0.480469,0.647461,0
18080,0.469727,-0.464355,0.66748,0
18100,0.400391,-0.506348,0.67041,0
18120,0.296875,-0.52002,0.687012,0
18140,0.361816,-0.48877,0.689941,0
18160,0.446777,-0.490234,0.669434,0
18180,0.37207,-0.502441,0.695801,0
18200,0.27832,-0.526855,0.736816,0
18220,0.29834,-0.490234,0.704102,0
18240,0.411133,-0.498047,0.713867,0
18260,0.41748,-0.521484,0.702637,0
18280,0.233398,-0.487793,0.734863,0
18300,0.172852,-0.491699,0.737793,0
18320,0.314941,-0.489258,0.721191,0
18340,0.405273,-0.503906,0.745117,0
18360,0.336426,-0.514648,0.744629,0
18380,0.144043,-0.515137,0.706543,0
18400,0.148926,-0.505371,0.699219,0
18420,0.275391,-0.522949,0.732422,0
18440,0.245605,-0.564453,0.737305,0
18460,0.134766,-0.541504,0.712891,0
18480,0.144043,-0.526367,0.73584,0
18500,0.179199,-0.555176,0.781738,0
18520,0.185547,-0.552246,0.738281,0
18540,0.185059,-0.54248,0.732422,0
18560,0.183105,-0.524902,0.726074,0
18580,0.164551,-0.547363,0.733398,0
18600,0.165039,-0.562012,0.707031,0
18620,0.188477,-0.536621,0.735352,0
18640,0.175781,-0.51709,0.726562,0
18660,0.136719,-0.54248,0.720703,0
18680,0.171387,-0.543945,0.717285,0
18700,0.204102,-0.542969,0.730469,0
18720,0.174805,-0.534668,0.726562,0
18740,0.134277,-0.54248,0.717773,0
18760,0.125488,-0.558594,0.732422,0
18780,0.151855,-0.555176,0.725586,0
18800,0.146484,-0.584961,0.720703,0
18820,0.120605,-0.567871,0.718262,0
18840,0.106445,-0.550781,0.713379,0
18860,0.125488,-0.609863,0.717285,0
18880,0.121094,-0.603516,0.714844,0
18900,0.0859375,-0.584961,0.728516,0
18920,0.108887,-0.588867,0.722168,0
18940,0.10791,-0.587402,0.728027,0
18960,0.0786133,-0.581055,0.730469,0
18980,0.0991211,-0.578613,0.733887,0
19000,0.114746,-0.58252,0.73291,0
19020,0.124023,-0.572266,0.714355,0
19040,0.133301,-0.561035,0.734375,0
19060,0.0991211,-0.558105,0.714355,0
19080,0.124512,-0.584473,0.716797,0
19100,0.128906,-0.587402,0.726074,0
19120,0.120605,-0.571777,0.740723,0
19140,0.101074,-0.5625,0.710449,0
19160,0.097168,-0.574219,0.704102,0
19180,0.12793,-0.575684,0.70752,0
19200,0.138184,-0.57666,0.733398,0
19220,0.123047,-0.588379,0.700684,0
19240,0.146973,-0.587891,0.706543,0
19260,0.125,-0.587891,0.698242,0
19280,0.106934,-0.580566,0.697754,0
19300,0.142578,-0.600586,0.69043,0
19320,0.152344,-0.591797,0.6875,0
19340,0.109375,-0.601562,0.711426,0
19360,0.145508,-0.597656,0.702637,0
19380,0.156738,-0.588867,0.716309,0
19400,0.104004,-0.60498,0.695801,0
19420,0.0976562,-0.612793,0.700195,0
19440,0.152344,-0.595215,0.694824,0
19460,0.153809,-0.599121,0.675781,0
19480,0.120605,-0.614258,0.672852,0
19500,0.124023,-0.626465,0.675293,0
19520,0.132324,-0.612793,0.688965,0
19540,0.137207,-0.63623,0.660645,0
19560,0.137207,-0.638184,0.666992,0
19580,0.131836,-0.638184,0.671875,0
19600,0.124023,-0.641113,0.665039,0
19620,0.154297,-0.641602,0.647949,0
19640,0.170898,-0.64502,0.647461,0
19660,0.121582,-0.663086,0.650391,0
19680,0.124023,-0.663574,0.645996,0
19700,0.166992,-0.666992,0.644043,0
19720,0.183594,-0.664062,0.646973,0
19740,0.118652,-0.681641,0.645996,0
19760,0.113281,-0.673828,0.630371,0
19780,0.170898,-0.658203,0.629883,0
19800,0.220215,-0.658691,0.639648,0
19820,0.194824,-0.678223,0.626953,0
19840,0.197754,-0.702148,0.617676,0
19860,0.250488,-0.680664,0.635254,0
19880,0.280273,-0.661621,0.630371,0
19900,0.283691,-0.671875,0.606445,0
19920,0.26123,-0.691895,0.61084,0
19940,0.246582,-0.681641,0.608398,0
19960,0.289551,-0.660156,0.602051,0
19980,0.333008,-0.641113,0.574219,0
20000,0.308594,-0.669922,0.593262,0
20020,0.296875,-0.656738,0.598633,0
20040,0.330078,-0.67041,0.571777,0
20060,0.376953,-0.661621,0.546875,0
20080,0.359375,-0.649902,0.568848,0
20100,0.328613,-0.663574,0.567383,0
20120,0.346191,-0.666016,0.539551,0
20140,0.400879,-0.656738,0.543457,0
20160,0.355469,-0.639648,0.547852,0
20180,0.328125,-0.638184,0.531738,0
20200,0.352539,-0.646484,0.557617,0
20220,0.337402,-0.656738,0.535156,0
20240,0.335449,-0.657715,0.543945,0
20260,0.398926,-0.657715,0.549805,0
20280,0.413574,-0.661621,0.528809,0
20300,0.373047,-0.669922,0.550781,0
20320,0.402344,-0.670898,0.513184,0
20340,0.486328,-0.667969,0.514648,0
20360,0.486816,-0.658691,0.546387,0
20380,0.44873,-0.618652,0.522461,0
20400,0.493652,-0.63623,0.508789,0
20420,0.589844,-0.631348,0.48877,0
20440,0.565918,-0.622559,0.492188,0
20460,0.585938,-0.582031,0.505859,0
20480,0.584961,-0.583496,0.480469,0
20500,0.615723,-0.566895,0.446777,0
20520,0.605469,-0.555664,0.444336,0
20540,0.596191,-0.549316,0.479492,0
20560,0.625977,-0.531738,0.471191,0
20580,0.624023,-0.519531,0.453613,0
20600,0.624023,-0.500488,0.450684,0
20620,0.643555,-0.51123,0.458008,0
20640,0.600098,-0.52002,0.478516,0
20660,0.620605,-0.516113,0.475098,0
20680,0.671387,-0.510742,0.469727,0
20700,0.653809,-0.495117,0.449707,0
20720,0.648438,-0.493652,0.45166,0
20730,0.664062,-0.503906,0.462402,0
20750,0.669434,-0.474121,0.468262,0
20770,0.6875,-0.456543,0.443359,0
20790,0.717773,-0.444336,0.421875,0
20810,0.711914,-0.432617,0.416992,0
20830,0.722168,-0.4375,0.423828,0
20850,0.709473,-0.412598,0.437988,0
20870,0.731934,-0.392578,0.42627,0
20890,0.73877,-0.378418,0.434082,0
20910,0.768066,-0.369141,0.433594,0
20930,0.757324,-0.351074,0.447754,0
20950,0.746094,-0.346191,0.449219,0
20970,0.745605,-0.333984,0.461914,0
20990,0.775391,-0.312012,0.457031,0
21010,0.79541,-0.318359,0.44873,0
21030,0.754395,-0.32373,0.480469,0
21050,0.688477,-0.325684,0.504883,0
21070,0.710449,-0.320312,0.499023,0
21090,0.728027,-0.29834,0.503906,0
21110,0.729004,-0.295898,0.520996,0
21130,0.679688,-0.31543,0.51416,0
21150,0.702637,-0.275879,0.556152,0
21170,0.754883,-0.267578,0.553223,0
21190,0.756348,-0.257812,0.533203,0
21210,0.69043,-0.260254,0.557129,0
21230,0.646484,-0.327637,0.584473,0
21250,0.629395,-0.30127,0.588867,0
21260,0.655273,-0.26709,0.588867,0
21280,0.685547,-0.23877,0.583496,0
21300,0.641602,-0.258301,0.62207,0
21320,0.627441,-0.278809,0.648438,0
21340,0.633789,-0.278809,0.614746,0
21360,0.602051,-0.25293,0.637207,0
21400,0.63916,-0.290527,0.669434,0
21420,0.588379,-0.263184,0.681152,0
21440,0.537598,-0.270996,0.675781,0
21460,0.59082,-0.290039,0.688965,0
21480,0.592773,-0.359863,0.720703,0
21500,0.509277,-0.34082,0.713867,0
21520,0.45752,-0.348633,0.746094,0
21540,0.540527,-0.313965,0.733398,0
21560,0.549316,-0.327637,0.730469,0
21580,0.428223,-0.361328,0.734375,0
21600,0.319336,-0.401367,0.75293,0
21620,0.397461,-0.407227,0.722656,0
21640,0.460449,-0.425293,0.718262,0
21660,0.336914,-0.407227,0.708008,0
21680,0.265625,-0.454102,0.741699,0
21700,0.321289,-0.455078,0.731445,0
21720,0.361816,-0.460938,0.729492,0
21740,0.297852,-0.476562,0.725098,0
21760,0.197754,-0.490234,0.722168,0
21780,0.20166,-0.509277,0.733398,0
21800,0.284668,-0.5,0.717285,0
21820,0.233398,-0.487305,0.724609,0
21840,0.169434,-0.507324,0.72998,0
21860,0.214844,-0.555176,0.744141,0
21880,0.23291,-0.545898,0.708008,0
21900,0.180664,-0.527344,0.716797,0
21920,0.15332,-0.545898,0.732422,0
21940,0.183105,-0.553223,0.704102,0
21960,0.203613,-0.577148,0.674316,0
21980,0.161133,-0.575684,0.690918,0
22000,0.111816,-0.560059,0.664062,0
22020,0.14209,-0.615234,0.647461,0
22040,0.209961,-0.627441,0.637207,0
22060,0.168457,-0.639648,0.648926,0
22080,0.106445,-0.672363,0.614746,0
22100,0.108887,-0.702148,0.587402,0
22120,0.116211,-0.711914,0.558105,0
22140,0.135254,-0.708008,0.557617,0
22160,0.0917969,-0.745605,0.525879,0
22180,0.0751953,-0.782715,0.486816,0
22200,0.0957031,-0.775879,0.478516,0
22220,0.140625,-0.737793,0.508789,0
22240,0.147949,-0.751953,0.470703,0
22260,0.159668,-0.800781,0.459473,0
22280,0.233398,-0.80127,0.441406,0
22300,0.260742,-0.772461,0.433594,0
22320,0.227051,-0.738281,0.442383,0
22340,0.232422,-0.810059,0.400879,0
22360,0.403809,-0.892578,0.381836,0
22380,0.461426,-0.816406,0.380859,0
22400,0.410645,-0.774902,0.412109,0
22420,0.469727,-0.774902,0.408203,0
22440,0.540527,-0.791016,0.413086,0
22460,0.512695,-0.775391,0.360352,0
22480,0.524902,-0.76709,0.360352,0
22500,0.623047,-0.753418,0.35498,0
22520,0.664551,-0.742676,0.352539,0
22540,0.606934,-0.69873,0.320801,0
22560,0.600586,-0.689453,0.275391,0
22580,0.681152,-0.689453,0.320312,0
22600,0.727051,-0.668457,0.34668,0
22620,0.715332,-0.604004,0.291992,0
22640,0.677734,-0.550293,0.29541,0
22660,0.728516,-0.540039,0.311523,0
22680,0.774414,-0.539062,0.287109,0
22690,0.737305,-0.481445,0.270508,0
22710,0.72998,-0.462402,0.24707,0
22730,0.760254,-0.473145,0.286133,0
22750,0.731445,-0.460449,0.3125,0
22770,0.783203,-0.447754,0.278809,0
22790,0.815918,-0.39502,0.312988,0
22810,0.793457,-0.341309,0.315918,0
22830,0.780273,-0.33252,0.325684,0
22850,0.799316,-0.318359,0.303223,0
22870,0.844238,-0.309082,0.338867,0
22890,0.850098,-0.306641,0.355957,0
22910,0.769043,-0.279297,0.350098,0
22930,0.782715,-0.275391,0.361328,0
22950,0.813477,-0.217773,0.364746,0
22970,0.820312,-0.212891,0.368164,0
22990,0.799805,-0.206055,0.370605,0
23010,0.727539,-0.227539,0.408203,0
23030,0.730469,-0.206055,0.430664,0
23050,0.787598,-0.232422,0.453613,0
23070,0.758789,-0.236328,0.462402,0
23090,0.731934,-0.227051,0.488281,0
23110,0.798828,-0.268066,0.509766,0
23130,0.835938,-0.266113,0.537598,0
23150,0.784668,-0.291504,0.536621,0
23170,0.776367,-0.276367,0.561523,0
23190,0.833008,-0.354004,0.604004,0
23210,0.828613,-0.367676,0.661133,0
23230,0.727539,-0.401367,0.673828,0
23250,0.613281,-0.385254,0.645508,0
23270,0.619141,-0.338867,0.703613,0
23290,0.639648,-0.354004,0.76416,0
23310,0.549805,-0.306152,0.691895,0
23330,0.473145,-0.398926,0.711426,0
23350,0.472168,-0.388672,0.737793,0
23370,0.425781,-0.407715,0.691406,0
23390,0.430664,-0.416504,0.709473,0
23410,0.38623,-0.378906,0.686035,0
23430,0.296387,-0.407715,0.703125,0
23450,0.348145,-0.478027,0.733887,0
23470,0.35791,-0.481445,0.759766,0
23490,0.263184,-0.482422,0.698242,0
23510,0.228027,-0.54541,0.700195,0
23530,0.242676,-0.553711,0.700195,0
23550,0.227051,-0.553223,0.697266,0
23570,0.200195,-0.545898,0.655762,0
23590,0.180176,-0.605957,0.633789,0
23610,0.207031,-0.617676,0.617676,0
23630,0.15625,-0.60791,0.595703,0
23650,0.164062,-0.617676,0.578613,0
23670,0.205566,-0.646973,0.564941,0
23690,0.185059,-0.700684,0.515625,0
23710,0.16748,-0.747559,0.476562,0
23730,0.155273,-0.71582,0.482422,0
23750,0.168945,-0.770508,0.469727,0
23770,0.189453,-0.815918,0.40332,0
23790,0.184082,-0.822754,0.395508,0
23810,0.198242,-0.833008,0.383789,0
23830,0.237305,-0.852051,0.366699,0
23850,0.248047,-0.876465,0.313477,0
23870,0.226074,-0.888672,0.274414,0
23890,0.254883,-0.900879,0.27832,0
23910,0.32666,-0.869141,0.271973,0
23930,0.374512,-0.823242,0.252441,0
23950,0.365234,-0.820312,0.220703,0
23970,0.387207,-0.827637,0.254395,0
23990,0.456543,-0.827148,0.322266,0
24010,0.532227,-0.782715,0.329102,0
24030,0.579102,-0.772949,0.276855,0
24050,0.628418,-0.798828,0.242676,0
24070,0.630859,-0.755371,0.282715,0
24090,0.615723,-0.728027,0.284668,0
24110,0.670898,-0.71875,0.211426,0
24130,0.72998,-0.695312,0.194336,0
24150,0.681152,-0.639648,0.179688,0
24170,0.647461,-0.610352,0.171387,0
24190,0.674805,-0.652832,0.165039,0
24210,0.723145,-0.597656,0.191406,0
24230,0.686035,-0.532227,0.226562,0
24250,0.656738,-0.525879,0.186523,0
24270,0.686523,-0.560547,0.164551,0
24290,0.741699,-0.526855,0.189941,0
24310,0.745117,-0.53418,0.219727,0
24330,0.740234,-0.525391,0.195801,0
24350,0.770996,-0.52002,0.178223,0
24370,0.8125,-0.515625,0.185059,1001
24390,0.856934,-0.519531,0.189453,0
24410,0.90625,-0.578613,0.150879,0
24430,0.836426,-0.549316,0.159668,0
24450,0.771484,-0.543457,0.184082,0
24470,0.822266,-0.513184,0.146973,0
24490,0.845215,-0.491211,0.134766,0
24510,0.773438,-0.507812,0.152832,0
24530,0.701172,-0.501465,0.141113,0
24550,0.750977,-0.513184,0.149902,0
24570,0.812988,-0.490234,0.151367,0
24590,0.812988,-0.490723,0.179199,0
24610,0.837891,-0.516602,0.160645,0
24630,0.827148,-0.566895,0.157715,0
24650,0.740234,-0.535645,0.150391,0
24670,0.698242,-0.541504,0.133789,0
24690,0.639648,-0.519531,0.125488,0
24710,0.615723,-0.491211,0.11084,0
24730,0.583496,-0.483398,0.124023,0
24750,0.50293,-0.505859,0.13916,0
24770,0.418945,-0.522949,0.0834961,0
24790,0.374023,-0.54248,0.119629,0
24810,0.379883,-0.544434,0.177734,0
24830,0.393555,-0.539551,0.213867,0
24850,0.477539,-0.493652,0.189941,0
24870,0.523926,-0.47168,0.276367,0
24890,0.424805,-0.502441,0.318848,0
24910,0.561523,-0.611816,0.312988,0
24930,0.670898,-0.600586,0.495605,0
24950,0.578613,-0.617676,0.447266,0
24970,0.757812,-0.662598,0.291016,0
24990,0.695312,-0.689941,0.418945,0
25010,0.668945,-0.620117,0.54248,0
25030,0.687012,-0.637207,0.358887,0
25050,0.807129,-0.786133,0.236816,0
25070,0.820801,-0.888184,0.402832,0
25090,0.765137,-0.82666,0.583008,0
25110,0.813477,-0.853027,0.449707,0
25130,0.896484,-0.912598,0.457031,0
25150,0.742676,-0.875977,0.510742,0
25170,0.626953,-0.927246,0.453613,0
25190,0.565918,-0.941406,0.521484,0
25210,0.463867,-0.862305,0.621582,0
25230,0.472168,-0.820801,0.546387,0
25250,0.358398,-0.765137,0.537109,0
25270,0.139648,-0.768066,0.614258,0
25290,0.104492,-0.797363,0.589355,0
25310,0.112305,-0.785645,0.555176,0
25330,0.0244141,-0.763184,0.543457,0
25350,-0.0581055,-0.751953,0.556641,0
25370,-0.0185547,-0.765137,0.5625,0
25390,0.0375977,-0.77002,0.557129,0
25410,0.0239258,-0.770996,0.54248,0
25430,-0.0107422,-0.757812,0.563965,0
25450,0.00585938,-0.772949,0.596191,0
25470,0.0888672,-0.774902,0.590332,0
25490,0.102051,-0.788574,0.558594,0
25510,0.0629883,-0.801758,0.58252,0
25530,-0.0195312,-0.678711,0.569336,0
25550,0.0742188,-0.674805,0.592285,0
25570,0.186523,-0.734863,0.589355,0
25590,0.257812,-0.763184,0.549805,0
25610,0.351074,-0.734375,0.586426,1000
25630,0.347656,-0.755371,0.583496,0
25650,0.32666,-0.756348,0.516602,0
25670,0.378906,-0.732422,0.531738,0
25690,0.370605,-0.73584,0.553223,0
25710,0.234375,-0.717773,0.565918,0
25730,0.289551,-0.747559,0.557617,0
25750,0.353027,-0.744141,0.552734,0
25770,0.313477,-0.723145,0.532227,0
25790,0.275879,-0.692383,0.514648,0
25810,0.286133,-0.691406,0.511719,0
25830,0.269531,-0.710938,0.525391,0
25850,0.25293,-0.699219,0.515137,0
25870,0.248535,-0.686035,0.523926,0
25890,0.211426,-0.697266,0.554199,0
25910,0.178711,-0.700684,0.589355,0
25930,0.213867,-0.733398,0.578613,0
25950,0.269043,-0.728516,0.564941,0
25970,0.224121,-0.721191,0.599121,0
25990,0.240234,-0.719238,0.575195,0
26010,0.276367,-0.726074,0.561523,0
26030,0.259766,-0.726562,0.550781,0
26050,0.23291,-0.725586,0.547852,0
26070,0.231934,-0.732422,0.550781,0
26090,0.216797,-0.718262,0.555176,0
26110,0.209961,-0.727051,0.557129,0
26120,0.151367,-0.70166,0.568359,0
26140,0.14209,-0.713867,0.60791,0
26160,0.166504,-0.700195,0.593262,0
26180,0.200684,-0.662598,0.61377,0
26200,0.248535,-0.669922,0.590332,0
26220,0.291016,-0.67627,0.556152,0
26240,0.265625,-0.687012,0.578125,0
26260,0.260254,-0.719727,0.567871,0
26280,0.313477,-0.724609,0.541504,0
26300,0.287598,-0.726562,0.531738,0
26320,0.305664,-0.726074,0.552246,0
26340,0.291016,-0.728027,0.560059,0
26360,0.294434,-0.738281,0.552734,0
26380,0.30957,-0.709961,0.558105,0
26400,0.32959,-0.700195,0.580078,0
26420,0.341309,-0.702148,0.556641,0
26440,0.348145,-0.706543,0.531738,0
26460,0.348633,-0.695312,0.539062,0
26480,0.348633,-0.681152,0.564941,0
26500,0.333496,-0.680664,0.549316,0
26520,0.330566,-0.678223,0.544922,0
26540,0.333984,-0.679199,0.560547,0
26560,0.335938,-0.683594,0.565918,0
26580,0.321289,-0.670898,0.564941,0
26600,0.325684,-0.661621,0.56543,0
26620,0.341309,-0.674805,0.558594,0
26640,0.334961,-0.682129,0.560059,0
26660,0.331543,-0.678711,0.533203,0
26680,0.365723,-0.67627,0.539062,0
26700,0.379395,-0.668945,0.522461,0
26720,0.370605,-0.668945,0.520996,0
26740,0.364746,-0.685547,0.501953,0
26760,0.388672,-0.686035,0.5,0
26780,0.377441,-0.681641,0.521484,0
26800,0.410156,-0.67041,0.536133,0
26820,0.428711,-0.678711,0.533691,0
26840,0.410156,-0.672852,0.508789,0
26860,0.435547,-0.674805,0.501465,0
26880,0.450195,-0.679199,0.498535,0
26900,0.475586,-0.67334,0.472656,0
26920,0.458008,-0.671387,0.458496,0
26940,0.452148,-0.646484,0.475098,0
26960,0.457031,-0.641113,0.487793,0
26980,0.477539,-0.635254,0.478516,0
26990,0.509277,-0.617188,0.459961,0
27010,0.51123,-0.616211,0.448242,0
27020,0.521484,-0.600586,0.457031,0
27040,0.555176,-0.602539,0.45166,0
27060,0.586426,-0.603027,0.42041,0
27080,0.578125,-0.617188,0.421387,0
27100,0.589355,-0.614258,0.441406,0
27120,0.616211,-0.611328,0.436035,0
27160,0.621582,-0.560059,0.425781,0
27180,0.637207,-0.555176,0.429199,0
27240,0.605957,-0.550293,0.425293,0
27270,0.632324,-0.548828,0.413574,0
27290,0.64209,-0.561035,0.413086,0
27310,0.625,-0.556152,0.421875,0
27330,0.63623,-0.55127,0.416016,0
27350,0.637695,-0.54834,0.41748,0
27370,0.649414,-0.537598,0.416016,0
27390,0.657227,-0.526367,0.439941,0
27410,0.651855,-0.504883,0.428223,0
27430,0.663574,-0.5,0.424316,0
27450,0.663086,-0.488281,0.425293,0
27470,0.678223,-0.472656,0.439453,0
27490,0.705078,-0.467773,0.424805,0
27510,0.716797,-0.46875,0.425781,0
27530,0.702637,-0.459961,0.455078,0
27550,0.683594,-0.445801,0.472656,0
27570,0.701172,-0.458008,0.480957,0
27590,0.706543,-0.45459,0.474121,0
27610,0.695312,-0.418945,0.493652,0
27630,0.650391,-0.40332,0.539551,0
27650,0.619629,-0.412109,0.530762,0
27670,0.717773,-0.412109,0.520996,0
27690,0.67041,-0.421387,0.541504,0
27710,0.549316,-0.368164,0.590332,0
27730,0.539062,-0.418945,0.577148,0
27750,0.634277,-0.460449,0.580078,0
27770,0.57373,-0.450684,0.641113,0
27790,0.459473,-0.422852,0.658203,0
27810,0.495605,-0.464844,0.648438,0
27830,0.557617,-0.393555,0.646484,0
27850,0.592285,-0.406738,0.683105,0
27870,0.475586,-0.411621,0.646484,0
27890,0.444336,-0.367188,0.658691,0
27910,0.534668,-0.382324,0.665527,0
27930,0.586426,-0.45459,0.713867,0
27950,0.501465,-0.435059,0.675293,0
27970,0.378906,-0.440918,0.664551,0
27990,0.389648,-0.384277,0.694336,0
28000,0.463379,-0.391113,0.725098,0
28020,0.531738,-0.453613,0.753418,0
28040,0.399414,-0.406738,0.682129,0
28060,0.280273,-0.383301,0.749512,0
28080,0.346191,-0.36084,0.740723,0
28100,0.467773,-0.456543,0.769043,0
28120,0.40332,-0.37207,0.746094,0
28140,0.222656,-0.380859,0.740234,0
28160,0.213379,-0.383301,0.76709,0
28180,0.354492,-0.416504,0.820801,0
28200,0.393066,-0.378906,0.79541,0
28220,0.236328,-0.387207,0.74707,0
28240,0.168457,-0.41748,0.791016,0
28260,0.252441,-0.432617,0.845703,0
28280,0.29541,-0.44873,0.837402,0
28300,0.24707,-0.390137,0.774414,0
28320,0.174805,-0.429688,0.797363,0
28340,0.200684,-0.458984,0.838867,0
28360,0.224121,-0.468262,0.812988,0
28380,0.180664,-0.456543,0.793945,0
28400,0.141113,-0.394043,0.818359,0
28420,0.140137,-0.406738,0.82373,0
28450,0.111328,-0.470215,0.809082,0
28460,0.117188,-0.458496,0.797852,0
28480,0.11084,-0.448242,0.814941,0
28500,0.0791016,-0.461426,0.783203,0
28520,0.0893555,-0.482422,0.777832,0
28540,0.0859375,-0.462891,0.775879,0
28560,0.0634766,-0.470215,0.771484,0
28580,0.0668945,-0.498535,0.721191,0
28600,0.103027,-0.491211,0.757812,0
28620,0.065918,-0.48877,0.730957,0
28640,0.0615234,-0.510742,0.733398,0
28660,0.0996094,-0.512695,0.753906,0
28680,0.100586,-0.527832,0.755371,0
28700,0.0708008,-0.537598,0.693848,0
28720,0.0952148,-0.564453,0.712402,0
28740,0.0966797,-0.537598,0.702637,0
28760,0.078125,-0.48584,0.706543,0
28780,0.09375,-0.524902,0.711426,0
28800,0.0991211,-0.625,0.71875,0
28820,0.100098,-0.715332,0.692383,0
28840,0.0922852,-0.72168,0.628906,0
28860,0.103027,-0.668457,0.633789,0
28880,0.104004,-0.617676,0.68457,0
28900,0.0556641,-0.687988,0.652344,0
28920,0.0527344,-0.775391,0.579102,0
28940,0.129395,-0.710449,0.565918,0
28960,0.167969,-0.627441,0.650391,0
28980,0.133301,-0.663086,0.635742,0
29000,0.148926,-0.725586,0.564941,0
29020,0.208008,-0.727051,0.606445,0
29040,0.224609,-0.708984,0.610352,0
29060,0.194824,-0.737793,0.588867,0
29080,0.200195,-0.748047,0.570312,0
29100,0.190918,-0.705078,0.575684,0
29120,0.159668,-0.680176,0.61084,0
29140,0.181641,-0.722168,0.578613,0
29160,0.258301,-0.73584,0.523438,0
29180,0.241211,-0.739258,0.540527,0
29200,0.209961,-0.702148,0.57666,0
29220,0.259277,-0.700195,0.550293,0
29240,0.304199,-0.702637,0.519043,0
29260,0.304199,-0.722168,0.530762,0
29280,0.288574,-0.70166,0.547363,0
29300,0.344727,-0.693848,0.564453,0
29320,0.400391,-0.708984,0.451172,0
29340,0.378906,-0.730469,0.439453,0
29360,0.400391,-0.713379,0.494141,0
29380,0.391602,-0.695801,0.478516,0
29400,0.412109,-0.683594,0.464355,0
29420,0.495605,-0.708496,0.463867,0
29440,0.484375,-0.703613,0.479492,0
29460,0.478027,-0.688477,0.470703,0
29480,0.559082,-0.688477,0.411621,0
29500,0.814453,-0.654785,0.329102,0
29520,0.594238,-0.606934,0.404785,0
29540,0.607422,-0.587402,0.445312,0
29560,0.605957,-0.598145,0.359863,0
29580,0.63916,-0.625488,0.322754,0
29600,0.654785,-0.62793,0.293945,0
29620,0.665039,-0.590332,0.328125,0
29640,0.69043,-0.587891,0.317871,0
29660,0.683594,-0.588379,0.255859,0
29680,0.728027,-0.572754,0.270508,0
29700,0.791992,-0.534668,0.310547,0
29720,0.810059,-0.464844,0.313965,0
29740,0.805664,-0.457031,0.291504,0
29760,0.77002,-0.455078,0.294434,0
29780,0.779785,-0.4375,0.307129,0
29800,0.773926,-0.383301,0.324707,0
29820,0.772461,-0.349121,0.318848,0
29840,0.780273,-0.368164,0.310547,0
29860,0.778809,-0.363281,0.322266,0
29880,0.845215,-0.343262,0.314453,0
29900,0.826172,-0.296387,0.318359,0
29920,0.868164,-0.275391,0.311523,0
29940,0.896973,-0.264648,0.316406,0
29960,0.841309,-0.246094,0.342285,0
29980,0.845703,-0.236816,0.377441,0
30000,0.82959,-0.230469,0.382812,0
30020,0.853027,-0.209473,0.394531,0
30040,0.868652,-0.23584,0.429688,0
30060,0.759277,-0.211426,0.434082,0
30080,0.738281,-0.261719,0.428223,0
30100,0.741699,-0.25293,0.402344,0
30120,0.822754,-0.199707,0.383789,0
30140,0.820801,-0.180664,0.414062,0
30160,0.792969,-0.132812,0.45459,0
30180,0.842285,-0.147949,0.456055,0
30200,0.865234,-0.117188,0.50293,0
30220,0.973633,-0.141602,0.517578,0
30240,0.859375,-0.129883,0.528809,0
30260,0.705566,-0.151367,0.568359,0
30280,0.691895,-0.179688,0.564453,0
30300,0.795898,-0.192871,0.581543,0
30320,0.690918,-0.213379,0.604004,0
30340,0.479492,-0.170898,0.652832,0
30360,0.564453,-0.212402,0.62207,0
30380,0.77002,-0.185547,0.590332,0
30400,0.796387,-0.114258,0.635254,0
30420,0.654297,-0.145996,0.646484,0
30440,0.524414,-0.25,0.700195,0
30460,0.600586,-0.33252,0.735352,0
30480,0.642578,-0.333008,0.691895,0
30500,0.45459,-0.30957,0.661133,0
30520,0.321289,-0.368652,0.756348,0
30540,0.369629,-0.398438,0.810059,0
30560,0.38623,-0.376465,0.748047,0
30580,0.318359,-0.368652,0.6875,0
30600,0.205078,-0.421875,0.700195,0
30620,0.235352,-0.415039,0.682617,0
30640,0.353027,-0.42334,0.644043,0
30660,0.346191,-0.400391,0.659668,0
30680,0.317383,-0.415527,0.691406,0
30700,0.373047,-0.462402,0.696777,0
30720,0.355957,-0.479492,0.6875,0
30740,0.26416,-0.483887,0.701172,0
30760,0.241699,-0.5,0.687988,0
30780,0.329102,-0.493652,0.728516,0
30800,0.289551,-0.518555,0.742188,0
30820,0.191895,-0.535156,0.678223,0
30840,0.217285,-0.564941,0.671875,0
30860,0.322266,-0.549316,0.680664,0
30880,0.294922,-0.571289,0.667969,0
30900,0.307129,-0.623047,0.61084,0
30920,0.364746,-0.606445,0.674316,0
30940,0.339844,-0.602539,0.682617,0
30960,0.317871,-0.611328,0.630371,0
30980,0.280273,-0.597656,0.584961,0
31000,0.260254,-0.591309,0.625977,0
31020,0.259277,-0.60498,0.594727,0
31040,0.255371,-0.608887,0.597656,0
31060,0.271973,-0.641113,0.617676,0
31080,0.273926,-0.642578,0.613281,0
31100,0.272949,-0.700195,0.566406,0
31120,0.362305,-0.727051,0.556152,0
31140,0.397949,-0.706055,0.570312,0
31160,0.361328,-0.65332,0.568848,0
31180,0.375488,-0.695312,0.523926,0
31200,0.371094,-0.690918,0.522949,0
31220,0.327148,-0.685059,0.537109,0
31240,0.336914,-0.684082,0.509766,0
31260,0.350098,-0.680176,0.491211,0
31280,0.339844,-0.671387,0.508301,0
31300,0.379395,-0.680176,0.503906,0
31320,0.444824,-0.676758,0.478516,0
31340,0.488281,-0.688477,0.479004,0
31360,0.496094,-0.681152,0.463867,0
31380,0.524414,-0.708984,0.449707,0
31390,0.54834,-0.675293,0.429199,0
31410,0.575195,-0.697754,0.411133,0
31430,0.615723,-0.645996,0.390137,0
31450,0.609863,-0.63623,0.377441,0
31470,0.607422,-0.643555,0.368164,0
31490,0.64502,-0.647949,0.326172,0
31510,0.691895,-0.623535,0.305664,0
31530,0.68457,-0.587891,0.294922,0
31550,0.641113,-0.569336,0.303711,0
31570,0.661133,-0.570312,0.262695,0
31590,0.717285,-0.592773,0.231934,0
31610,0.72998,-0.561523,0.230957,0
31630,0.725586,-0.518555,0.254395,0
31650,0.790527,-0.511719,0.274414,0
31670,0.766602,-0.494629,0.250488,0
31690,0.768555,-0.515137,0.19873,0
31710,0.786133,-0.489258,0.181152,0
31730,0.77002,-0.481445,0.210449,0
31750,0.834961,-0.46582,0.242676,0
31770,0.844238,-0.409668,0.181152,0
31790,0.847656,-0.434082,0.138184,0
31810,0.821777,-0.432129,0.152344,0
31830,0.813965,-0.383789,0.188477,0
31850,0.870117,-0.337402,0.135254,0
31870,0.877441,-0.344238,0.115234,0
31890,0.856934,-0.331543,0.154297,0
31910,0.884766,-0.291992,0.217285,0
31930,0.910156,-0.242188,0.193359,0
31950,0.885742,-0.249512,0.158203,0
31970,0.866211,-0.233398,0.15332,0
31990,0.867188,-0.209473,0.216309,0
32010,0.866211,-0.149414,0.267578,0
32030,0.930176,-0.136719,0.227539,0
32050,0.995605,-0.146484,0.23584,0
32070,0.966309,-0.163574,0.264648,0
32090,0.90918,-0.169922,0.28125,0
32110,0.918457,-0.156738,0.309082,0
32130,0.926758,-0.101074,0.350586,0
32150,0.948242,-0.0830078,0.36084,0
32170,0.897949,-0.108398,0.379395,0
32190,0.781738,-0.115234,0.425293,0
32210,0.812988,-0.105957,0.447754,0
32230,0.869629,-0.10498,0.436523,0
32250,0.777344,-0.123047,0.45752,0
32270,0.708008,-0.130371,0.523926,0
32290,0.791016,-0.0908203,0.556641,0
32310,0.848145,-0.0742188,0.532715,0
32330,0.798828,-0.116211,0.542969,0
32350,0.712402,-0.176758,0.645996,0
32370,0.705566,-0.192383,0.62207,0
32390,0.756348,-0.21582,0.543457,0
32410,0.689453,-0.22168,0.601074,0
32430,0.540039,-0.216797,0.652344,0
32450,0.587891,-0.28125,0.621094,0
32470,0.639648,-0.318848,0.630371,0
32490,0.545898,-0.319336,0.636719,0
32510,0.481934,-0.355469,0.643066,0
32530,0.543945,-0.412109,0.640625,0
32550,0.591797,-0.412598,0.629395,0
32570,0.51416,-0.438965,0.635254,0
32590,0.409668,-0.466797,0.651855,0
32610,0.414062,-0.504395,0.633789,0
32630,0.475098,-0.494629,0.624512,0
32650,0.427734,-0.451172,0.624023,0
32670,0.360352,-0.541504,0.603027,0
32690,0.39209,-0.568359,0.600098,0
32710,0.410156,-0.553711,0.587402,0
32730,0.347168,-0.572266,0.577637,0
32750,0.359375,-0.585449,0.586426,0
32770,0.368652,-0.600586,0.59082,0
32790,0.348633,-0.633301,0.588379,0
32810,0.412598,-0.633301,0.584473,0
32830,0.416504,-0.630371,0.567871,0
32850,0.402344,-0.614746,0.579102,0
32870,0.386719,-0.63916,0.554688,0
32890,0.387207,-0.675781,0.526367,0
32910,0.383301,-0.661621,0.522461,0
32930,0.378906,-0.651367,0.513184,0
32950,0.379395,-0.641602,0.497559,0
32970,0.407227,-0.683105,0.480957,0
32990,0.418457,-0.712402,0.493164,0
33010,0.386719,-0.69873,0.467285,0
33030,0.412109,-0.708008,0.435547,0
33050,0.423828,-0.720215,0.431641,0
33070,0.461426,-0.756348,0.413574,0
33090,0.492676,-0.776367,0.401855,0
33110,0.480469,-0.736816,0.391113,0
33130,0.46875,-0.693359,0.393066,0
33150,0.508789,-0.699707,0.385254,0
33170,0.549316,-0.710938,0.345215,0
33190,0.558105,-0.719727,0.345215,0
33210,0.590332,-0.71875,0.354004,0
33230,0.629395,-0.688477,0.327148,0
33250,0.608887,-0.655273,0.296387,0
33270,0.605469,-0.654785,0.302246,0
33290,0.647949,-0.669922,0.293945,0
33310,0.661133,-0.703613,0.262695,0
33330,0.629395,-0.694336,0.222656,0
33350,0.624512,-0.637695,0.196777,0
33360,0.63916,-0.65625,0.227051,0
33380,0.651855,-0.672363,0.261719,0
33400,0.676758,-0.671875,0.22168,0
33420,0.672363,-0.665527,0.18457,0
33440,0.670898,-0.67041,0.17041,0
33460,0.712891,-0.62207,0.187012,0
33480,0.77832,-0.607422,0.19043,0
33500,0.758789,-0.607422,0.17041,0
33520,0.768066,-0.595703,0.149414,0
33540,0.810547,-0.574219,0.109375,0
33560,0.805176,-0.560547,0.103516,0
33580,0.783691,-0.516602,0.0947266,0
33600,0.773926,-0.50293,0.0888672,0
33620,0.789551,-0.521484,0.0449219,0
33640,0.770508,-0.504395,0.0234375,0
33660,0.77002,-0.427246,0.0078125,0
33680,0.796387,-0.444336,0.00585938,0
33700,0.73877,-0.414062,0.00927734,0
33720,0.766113,-0.443848,-0.012207,1001
33740,0.841797,-0.475098,-0.00683594,0
33760,0.842285,-0.456055,0.00585938,0
33780,0.839355,-0.470703,-0.00976562,0
33800,0.851074,-0.45166,-0.0229492,0
33820,0.883789,-0.469727,-0.0297852,0
33840,0.855469,-0.445801,-0.00830078,0
33860,0.834473,-0.468262,-0.00830078,0
33880,0.854004,-0.498535,0.00195312,0
33900,0.833008,-0.513672,0.000976562,0
33920,0.795898,-0.46582,0.0175781,0
33940,0.819336,-0.48584,0.00878906,0
33960,0.757812,-0.53125,0.0078125,0
33980,0.655273,-0.492676,0.0415039,0
34000,0.59375,-0.457031,0.00830078,0
34020,0.515625,-0.498047,0.0283203,0
34040,0.45459,-0.494141,-0.0141602,0
34060,0.456543,-0.415527,0.0361328,0
34080,0.415039,-0.446289,0.046875,0
34100,0.341797,-0.459961,0.0771484,0
34120,0.375,-0.447266,0.135254,0
34140,0.447266,-0.442871,0.214355,0
34160,0.434082,-0.462891,0.296875,0
34180,0.395996,-0.470703,0.319336,0
34200,0.828613,-0.540527,0.282227,0
34220,0.606445,-0.484863,0.386719,0
34240,0.609863,-0.393555,0.56543,0
34260,0.660645,-0.472168,0.540039,0
34280,0.664551,-0.632812,0.442871,0
34300,0.847656,-0.701172,0.477539,0
34320,0.923828,-0.648438,0.72168,0
34340,0.895996,-0.638672,0.671875,0
34360,0.95752,-0.94873,0.500488,0
34380,1.10254,-1.1084,0.621094,0
34400,0.908203,-0.980469,0.695801,0
34420,0.772949,-0.894043,0.6875,0
34440,0.673828,-0.88916,0.70752,0
34460,0.579102,-0.853027,0.675293,0
34480,0.467773,-0.79834,0.710938,0
34500,0.378418,-0.736328,0.703613,0
34520,0.356934,-0.735352,0.625,0
34540,0.309082,-0.746094,0.589355,0
34560,0.21582,-0.710449,0.644043,0
34580,0.151855,-0.676758,0.609375,0
34600,0.203125,-0.61084,0.58252,0
34620,0.312012,-0.659668,0.575195,0
34640,0.170898,-0.649902,0.543945,0
34660,0.0678711,-0.623535,0.626465,0
34680,0.154297,-0.629395,0.587402,0
34700,0.269043,-0.652832,0.585938,0
34720,0.165527,-0.679688,0.617676,0
34740,0.152344,-0.650391,0.61377,0
34760,0.29834,-0.618652,0.572754,1000
34780,0.314453,-0.713867,0.605957,0
34800,0.0668945,-0.676758,0.630859,0
34820,0.192383,-0.629395,0.628418,0
34840,0.350098,-0.679688,0.57959,0
34860,0.262695,-0.720703,0.603516,0
34880,0.268555,-0.684082,0.582031,0
34900,0.341797,-0.674316,0.614746,0
34920,0.335938,-0.664551,0.600586,0
34940,0.312012,-0.674805,0.603027,0
34960,0.320312,-0.707031,0.611328,0
34980,0.321777,-0.6875,0.614258,0
35000,0.302734,-0.645508,0.60791,0
35020,0.327148,-0.65332,0.589355,0
35040,0.331543,-0.678223,0.603027,0
35060,0.316406,-0.683594,0.579102,0
35080,0.265625,-0.649414,0.569336,0
35100,0.230469,-0.639648,0.579102,0
35120,0.210449,-0.67041,0.621094,0
35140,0.179199,-0.695312,0.621582,0
35160,0.172363,-0.672852,0.611816,0
35180,0.233398,-0.663086,0.621094,0
35200,0.27002,-0.650879,0.62793,0
35220,0.274414,-0.653809,0.612793,0
35240,0.269531,-0.658203,0.60498,0
35260,0.28418,-0.669922,0.586914,0
35280,0.286133,-0.669434,0.569336,0
35300,0.316895,-0.689453,0.591797,0
35320,0.331543,-0.691895,0.582031,0
35340,0.321777,-0.690918,0.570312,0
35360,0.329102,-0.675293,0.567383,0
35380,0.336426,-0.659668,0.595703,0
35400,0.387207,-0.651855,0.591797,0
35420,0.381348,-0.65918,0.556641,0
35440,0.375977,-0.651367,0.539551,0
35460,0.39502,-0.653809,0.550293,0
35480,0.427734,-0.63916,0.554688,0
35500,0.438477,-0.646484,0.526367,0
35520,0.40625,-0.645508,0.498535,0
35540,0.430664,-0.654785,0.51123,0
35560,0.434082,-0.640137,0.533203,0
35580,0.441895,-0.640137,0.534668,0
35600,0.427246,-0.646973,0.519043,0
35620,0.432129,-0.654297,0.504395,0
35640,0.431152,-0.648926,0.509277,0
35660,0.446289,-0.641113,0.518066,0
35680,0.454102,-0.631836,0.501953,0
35700,0.456543,-0.649902,0.471191,0
35720,0.449707,-0.658203,0.481934,0
35740,0.453125,-0.631836,0.508789,0
35760,0.469238,-0.634277,0.499512,0
35780,0.478516,-0.645996,0.46582,0
35800,0.489746,-0.661133,0.458008,0
35820,0.489258,-0.620605,0.484863,0
35840,0.51123,-0.602539,0.47998,0
35860,0.550781,-0.600098,0.457031,0
35880,0.544434,-0.604492,0.425293,0
35900,0.537109,-0.58252,0.441895,0
35930,0.555176,-0.557129,0.467773,0
35950,0.595215,-0.549805,0.452637,0
35960,0.584961,-0.534668,0.444824,0
35980,0.580078,-0.553223,0.462891,0
36000,0.63916,-0.54541,0.472168,0
36020,0.652832,-0.541504,0.448242,0
36030,0.632324,-0.540039,0.439453,0
36050,0.64209,-0.554688,0.438477,0
36070,0.670898,-0.52832,0.455566,0
36090,0.682129,-0.511719,0.446289,0
36110,0.666504,-0.512207,0.438965,0
36130,0.653809,-0.498047,0.446289,0
36150,0.665527,-0.476074,0.460938,0
36170,0.674316,-0.430176,0.487793,0
36190,0.679199,-0.429199,0.466797,0
36210,0.666504,-0.431152,0.463379,0
36230,0.665039,-0.422363,0.459961,0
36250,0.698242,-0.426758,0.445312,0
36270,0.713379,-0.430664,0.437012,0
36290,0.720215,-0.42627,0.453125,0
36310,0.726562,-0.406738,0.477051,0
36330,0.722656,-0.376465,0.493652,0
36350,0.714355,-0.353027,0.494629,0
36370,0.740723,-0.350586,0.480957,0
36390,0.768555,-0.335938,0.503418,0
36410,0.709961,-0.318359,0.533203,0
36430,0.694336,-0.32666,0.563965,0
36450,0.700684,-0.3125,0.557129,0
36470,0.690918,-0.28125,0.57959,0
36490,0.618164,-0.277344,0.57959,0
36510,0.672852,-0.318359,0.620605,0
36530,0.649902,-0.325195,0.682129,0
36550,0.575195,-0.333496,0.708008,0
36570,0.530762,-0.310547,0.655762,0
36590,0.505859,-0.34375,0.663086,0
36610,0.543945,-0.305664,0.685547,0
36630,0.506348,-0.266113,0.71875,0
36650,0.584961,-0.24707,0.686035,0
36670,0.566406,-0.26709,0.686035,0
36690,0.525879,-0.285156,0.75,0
36710,0.468262,-0.296387,0.753906,0
36730,0.51123,-0.312012,0.760742,0
36740,0.587891,-0.253906,0.784668,0
36760,0.564453,-0.311035,0.850586,0
36780,0.4375,-0.246582,0.783203,0
36800,0.350586,-0.308105,0.838867,0
36820,0.372559,-0.209473,0.940918,0
36840,0.34082,-0.30127,0.881348,0
36860,0.270508,-0.262207,0.804199,0
36880,0.192871,-0.247559,0.862793,0
36900,0.134277,-0.270508,0.95459,0
36920,0.175781,-0.307129,0.806641,0
36940,0.236816,-0.354004,0.815918,0
36960,0.22168,-0.270996,0.818359,0
36980,0.127441,-0.305664,0.833496,0
37000,0.0439453,-0.387695,0.792969,0
37020,0.0952148,-0.424316,0.758301,0
37040,0.121094,-0.418457,0.81543,0
37060,0.103516,-0.374512,0.79541,0
37080,0.0566406,-0.382812,0.782715,0
37100,0.0214844,-0.458496,0.771484,0
37120,0.0395508,-0.51416,0.765137,0
37140,0.0654297,-0.47998,0.783203,0
37160,0.0356445,-0.480957,0.75,0
37180,0.0126953,-0.557129,0.692383,0
37200,0.111816,-0.614746,0.726562,0
37220,0.149902,-0.574219,0.809082,0
37240,0.0405273,-0.597656,0.666504,0
37260,0.078125,-0.655762,0.599609,0
37280,0.172363,-0.658691,0.665039,0
37300,0.129883,-0.67334,0.685059,0
37320,0.12207,-0.749512,0.629395,0
37340,0.172363,-0.740723,0.641113,0
37360,0.161621,-0.685547,0.631836,0
37380,0.106445,-0.700195,0.601562,0
37400,0.119629,-0.732422,0.567871,0
37420,0.174805,-0.681641,0.592285,0
37440,0.226562,-0.702148,0.587891,0
37460,0.290039,-0.686523,0.53418,0
37480,0.297852,-0.708496,0.55127,0
37500,0.252441,-0.655273,0.59668,0
37520,0.276855,-0.685059,0.505859,0
37540,0.381836,-0.718262,0.451172,0
37560,0.377441,-0.722656,0.501953,0
37580,0.297852,-0.741211,0.484375,0
37600,0.351074,-0.764648,0.426758,0
37620,0.415039,-0.703613,0.402832,0
37640,0.370605,-0.708496,0.44043,0
37660,0.42334,-0.70752,0.46582,0
37680,0.520508,-0.75293,0.376953,0
37700,0.49707,-0.694336,0.363281,0
37720,0.466309,-0.688965,0.35791,0
37740,0.559082,-0.680664,0.346191,0
37760,0.774414,-0.624512,0.348633,0
37780,0.748535,-0.658691,0.324219,0
37800,0.609863,-0.616699,0.274414,0
37820,0.697754,-0.627441,0.254883,0
37840,0.799316,-0.59668,0.294434,0
37860,0.73291,-0.536133,0.256348,0
37880,0.743652,-0.536133,0.191406,0
37900,0.776367,-0.526367,0.215332,0
37920,0.824707,-0.48584,0.254883,0
37940,0.774902,-0.433594,0.209961,0
37960,0.779297,-0.415527,0.174316,0
37980,0.772461,-0.413086,0.204102,0
38000,0.794434,-0.376953,0.233398,0
38020,0.839355,-0.321289,0.235352,0
38040,0.827148,-0.273926,0.243164,0
38060,0.832031,-0.241211,0.247559,0
38080,0.896973,-0.225586,0.307129,0
38100,0.92041,-0.16748,0.332031,0
38120,0.914551,-0.141602,0.368164,0
38140,0.899414,-0.109863,0.373535,0
38160,0.924316,-0.0512695,0.357422,0
38180,0.908203,-0.0566406,0.388672,0
38200,0.947754,-0.0581055,0.455566,0
38220,0.911621,-0.0302734,0.454102,0
38240,0.92627,0.0327148,0.478516,0
38260,0.92334,0.0913086,0.500488,0
38280,0.787109,0.0117188,0.5625,0
38300,0.685059,-0.0566406,0.571777,0
38320,0.722168,-0.0883789,0.611328,0
38340,0.683594,-0.00146484,0.669922,0
38360,0.608887,0.015625,0.687988,0
38380,0.590332,-0.14502,0.728027,0
38400,0.601074,-0.14502,0.810547,0
38420,0.505371,-0.112305,0.756348,0
38440,0.480469,-0.187988,0.693848,0
38460,0.530762,-0.281738,0.754395,0
38480,0.510254,-0.361328,0.787598,0
38500,0.411133,-0.325684,0.667969,0
38520,0.407715,-0.379395,0.714355,0
38540,0.462402,-0.42334,0.671875,0
38560,0.424805,-0.491699,0.710938,0
38580,0.26709,-0.444824,0.631348,0
38590,0.256348,-0.514648,0.640625,0
38620,0.324219,-0.575684,0.677734,0
38640,0.30957,-0.617676,0.643066,0
38660,0.302734,-0.597168,0.624023,0
38680,0.339844,-0.657227,0.646484,0
38700,0.307617,-0.686523,0.620605,0
38720,0.256348,-0.768555,0.580566,0
38730,0.273438,-0.71875,0.552734,0
38750,0.240723,-0.703125,0.587891,0
38770,0.234375,-0.77832,0.550293,0
38790,0.265625,-0.801758,0.475586,0
38810,0.271484,-0.763184,0.479492,0
38830,0.258301,-0.75,0.485352,0
38850,0.235352,-0.810547,0.436035,0
38870,0.294434,-0.879883,0.362793,0
38890,0.355957,-0.842285,0.364746,0
38910,0.345215,-0.813477,0.366699,0
38930,0.348145,-0.850098,0.313965,0
38950,0.445312,-0.893066,0.307617,0
38970,0.519043,-0.861328,0.336426,0
38990,0.589844,-0.824707,0.310547,0
39010,0.603027,-0.786133,0.283203,0
39030,0.596191,-0.740723,0.298828,0
39050,0.660645,-0.721191,0.267578,0
39070,0.695312,-0.663574,0.192871,0
39090,0.718262,-0.57666,0.20166,0
39110,0.783203,-0.491699,0.203125,0
39130,0.86084,-0.467285,0.140625,0
39150,0.854004,-0.444824,0.0776367,0
39170,0.851562,-0.398926,0.0756836,0
39190,0.873535,-0.373535,0.0654297,0
39210,0.825684,-0.332031,-0.0214844,0
39230,0.833496,-0.333984,-0.0292969,0
39250,0.848633,-0.296875,0.0805664,0
39270,0.846191,-0.260254,0.109375,0
39290,0.779297,-0.165527,0.0493164,0
39310,0.79248,-0.157715,0.0380859,0
39330,0.796387,-0.148438,0.0732422,0
39350,0.803223,-0.0961914,0.142578,0
39370,0.875,-0.0541992,0.151367,0
39390,0.899414,-0.034668,0.0996094,0
39410,0.919922,0.00390625,0.126953,0
39430,1.00684,0.0375977,0.258789,0
39450,1.03027,0.0727539,0.319824,0
39470,1.04443,0.102051,0.211426,0
39490,1.06348,0.109375,0.288574,0
39510,1.04639,0.155762,0.414062,0
39530,1.02979,0.0703125,0.521973,0
39550,1.00098,0.0410156,0.50293,0
39570,0.870117,0.0390625,0.476074,0
39590,0.796387,0.0175781,0.599121,0
39610,0.731934,0.0527344,0.623047,0
39630,0.751953,-0.0493164,0.578125,0
39650,0.756348,-0.0981445,0.677734,0
39670,0.645508,-0.163574,0.70459,0
39690,0.614258,-0.206543,0.67334,0
39710,0.592773,-0.13916,0.620605,0
39730,0.491211,-0.185547,0.646484,0
39750,0.46582,-0.288574,0.666504,0
39770,0.529785,-0.363281,0.682129,0
39790,0.548828,-0.370117,0.659668,0
39810,0.451172,-0.384277,0.644531,0
39830,0.414551,-0.516113,0.666504,0
39850,0.508301,-0.56543,0.666992,0
39870,0.520508,-0.539551,0.65918,0
39890,0.425781,-0.534668,0.650391,0
39910,0.412598,-0.639648,0.62207,0
39930,0.350586,-0.701172,0.620605,0
39950,0.300293,-0.743164,0.590332,0
39970,0.311523,-0.695312,0.532227,0
39990,0.325684,-0.67627,0.506836,0
40010,0.306641,-0.747559,0.516602,0
40030,0.327637,-0.774414,0.506348,0
40050,0.352539,-0.748047,0.467285,0
40070,0.337891,-0.74707,0.445312,0
40090,0.328125,-0.779297,0.422363,0
40110,0.382324,-0.799805,0.446777,0
40130,0.549805,-0.794922,0.396484,0
40150,0.577148,-0.719238,0.366699,0
40170,0.483398,-0.714355,0.342773,0
40190,0.455078,-0.741211,0.339844,0
40210,0.541504,-0.730957,0.267578,0
40230,0.603516,-0.620605,0.231934,0
40250,0.636719,-0.568359,0.227539,0
40270,0.67041,-0.633789,0.226562,0
40290,0.681152,-0.668457,0.244629,0
40310,0.708008,-0.584961,0.199707,0
40330,0.775879,-0.509766,0.178711,0
40350,0.765625,-0.480957,0.172852,0
40370,0.754883,-0.47998,0.17334,0
40390,0.815918,-0.463867,0.0703125,0
40410,0.955566,-0.437988,0.0839844,0
40430,0.94873,-0.369141,0.125977,0
40450,0.87793,-0.341309,0.0991211,0
40470,0.895508,-0.378906,0.0283203,0
40490,0.884766,-0.369629,-0.0224609,0
40510,0.914551,-0.361816,-0.0297852,1001
40530,0.862793,-0.294922,-0.0195312,0
40550,0.788086,-0.283203,-0.0302734,0
40570,0.875488,-0.312988,-0.0830078,0
40590,0.903809,-0.296875,-0.0244141,0
40610,0.821777,-0.278809,0.0117188,0
40630,0.874512,-0.307129,-0.034668,0
40650,0.943359,-0.350586,-0.034668,0
40670,0.859375,-0.331543,0.0332031,0
40690,0.84375,-0.334473,0.0673828,0
40710,0.888672,-0.353027,0.03125,0
40730,0.897461,-0.375977,0.0336914,0
40750,0.890625,-0.396484,0.0620117,0
40770,0.885742,-0.41748,0.0742188,0
40790,0.895996,-0.407715,0.0649414,0
40810,0.852051,-0.452637,0.0693359,0
40830,0.759277,-0.42334,0.0727539,0
40850,0.728027,-0.433105,0.0415039,0
40870,0.629395,-0.5,0.0341797,0
40890,0.495605,-0.492188,0.03125,0
40910,0.449219,-0.381348,0.00683594,0
40930,0.344727,-0.423828,-0.00585938,0
40950,0.287109,-0.430176,-0.0112305,0
40970,0.357422,-0.388184,0.043457,0
40990,0.344727,-0.383789,0.145996,0
41010,0.244629,-0.420898,0.228516,0
41030,0.24707,-0.402832,0.378906,0
41050,0.623535,-0.513672,0.36084,0
41070,0.369141,-0.486328,0.500488,0
41090,0.367188,-0.449219,0.629883,0
41110,0.497559,-0.614258,0.687012,0
41130,0.646973,-0.680664,0.597168,0
41150,0.734863,-0.703125,0.824219,0
41170,0.647949,-0.75,0.952148,0
41190,0.516602,-0.837402,0.954102,0
41210,0.621094,-1.00586,0.974609,0
41230,0.567871,-1.02588,1.08105,0
41250,0.49707,-1.08398,0.960449,0
41270,0.615723,-1.27832,0.746094,0
41290,0.646973,-1.31885,0.862793,0
41310,0.578125,-1.19971,0.812012,0
41330,0.405273,-0.931641,0.76123,0
41350,0.414551,-0.953613,0.811035,0
41370,0.319336,-0.826172,0.845215,0
41390,0.17627,-0.723145,0.800781,0
41410,0.216309,-0.692871,0.751953,0
41430,0.114258,-0.705566,0.722656,0
41450,-0.0380859,-0.583984,0.686035,0
41470,0.00732422,-0.554199,0.69043,0
41490,0.00830078,-0.525879,0.693359,0
41510,0.000488281,-0.516602,0.665527,0
41530,0.0654297,-0.546387,0.663086,0
41550,0.0527344,-0.568848,0.618652,0
41570,0.0786133,-0.583496,0.629883,0
41590,0.136719,-0.60498,0.62793,0
41610,0.170898,-0.618164,0.64502,0
41630,0.211426,-0.643066,0.609863,0
41650,0.245605,-0.66748,0.605957,0
41670,0.251953,-0.655273,0.607422,0
41690,0.294434,-0.682617,0.594238,0
41710,0.305176,-0.675293,0.549805,0
41730,0.255859,-0.677734,0.568848,0
41750,0.236816,-0.657227,0.567383,0
41770,0.312988,-0.701172,0.537598,0
41790,0.204102,-0.700195,0.586426,0
41810,0.207031,-0.647949,0.584473,0
41830,0.27832,-0.607422,0.629395,0
41850,0.300293,-0.658203,0.638184,0
41870,0.299316,-0.678223,0.626465,1000
41890,0.300293,-0.646973,0.589844,0
41910,0.308594,-0.65918,0.57666,0
41930,0.290527,-0.658691,0.561523,0
41950,0.250488,-0.670898,0.572266,0
41970,0.25,-0.677734,0.57373,0
41990,0.233887,-0.67627,0.604492,0
42010,0.208496,-0.675781,0.583984,0
42030,0.157715,-0.690918,0.624023,0
42050,0.206055,-0.714355,0.623047,0
42070,0.249512,-0.658203,0.647949,0
42090,0.217773,-0.624023,0.640625,0
42110,0.223145,-0.668457,0.640137,0
42130,0.27002,-0.682129,0.597656,0
42140,0.30127,-0.67334,0.600586,0
42160,0.291504,-0.661621,0.60791,0
42180,0.285156,-0.682129,0.593262,0
42200,0.313965,-0.688477,0.59082,0
42220,0.331055,-0.660156,0.595703,0
42240,0.378906,-0.657227,0.575684,0
42260,0.390137,-0.646973,0.549805,0
42280,0.396484,-0.660156,0.53125,0
42300,0.412598,-0.67041,0.538086,0
42320,0.442871,-0.663574,0.516113,0
42340,0.42334,-0.651855,0.512207,0
42360,0.405762,-0.669922,0.497559,0
42380,0.460938,-0.658691,0.505371,0
42400,0.483887,-0.631348,0.503906,0
42420,0.505859,-0.639648,0.450684,0
42440,0.509766,-0.65332,0.429688,0
42460,0.552246,-0.648926,0.430176,0
42480,0.59668,-0.604492,0.422852,0
42500,0.648438,-0.584961,0.368652,0
42520,0.652344,-0.581055,0.325684,0
42540,0.641602,-0.574707,0.303711,0
42540,0.702148,-0.506348,0.297363,0
42570,0.762695,-0.47168,0.291016,0
42580,0.770996,-0.427246,0.267578,0
42600,0.782715,-0.42627,0.253418,0
42620,0.788574,-0.408691,0.287109,0
42640,0.805664,-0.385742,0.315918,0
42660,0.832031,-0.357422,0.342285,0
42680,0.873535,-0.364258,0.341797,0
42700,0.879883,-0.35791,0.324219,0
42720,0.859863,-0.350586,0.355469,0
42740,0.874023,-0.349121,0.374023,0
42760,0.848145,-0.305664,0.446289,0
42780,0.828613,-0.293945,0.435547,0
42800,0.808105,-0.254395,0.435059,0
42820,0.713867,-0.238281,0.491699,0
42840,0.775879,-0.213867,0.539551,0
42860,0.755371,-0.221191,0.545898,0
42880,0.625488,-0.287598,0.610352,0
42900,0.577637,-0.314941,0.617676,0
42920,0.669922,-0.323242,0.64502,0
42940,0.63916,-0.33252,0.647461,0
42960,0.600586,-0.327148,0.708984,0
42980,0.656738,-0.185547,0.791016,0
43000,0.515625,-0.287598,0.740723,0
43020,0.490723,-0.435059,0.752441,0
43040,0.416016,-0.299316,0.775879,0
43060,0.385254,-0.318359,0.833496,0
43080,0.438477,-0.360352,0.79541,0
43100,0.416504,-0.395996,0.790527,0
43120,0.301758,-0.29541,0.789551,0
43140,0.272461,-0.354004,0.793457,0
43160,0.331055,-0.401367,0.748535,0
43180,0.302246,-0.408691,0.769043,0
43200,0.157227,-0.431641,0.776367,0
43220,0.168945,-0.48291,0.778809,0
43240,0.249023,-0.417969,0.730469,0
43260,0.222656,-0.41748,0.712891,0
43280,0.125977,-0.492188,0.717773,0
43300,0.107422,-0.487793,0.748535,0
43320,0.143555,-0.500488,0.704102,0
43340,0.135742,-0.522949,0.658691,0
43360,0.0952148,-0.553711,0.691406,0
43380,0.0913086,-0.602051,0.727539,0
43400,0.157227,-0.652344,0.681641,0
43420,0.183594,-0.658203,0.647461,0
43440,0.15625,-0.658691,0.657715,0
43460,0.14502,-0.67041,0.637695,0
43480,0.177734,-0.693848,0.604004,0
43500,0.194824,-0.753906,0.583008,0
43520,0.171387,-0.73291,0.574707,0
43540,0.189453,-0.738281,0.543945,0
43560,0.26416,-0.756836,0.528809,0
43580,0.26416,-0.764648,0.560059,0
43600,0.246094,-0.744629,0.595703,0
43620,0.262207,-0.780273,0.586914,0
43640,0.339355,-0.785156,0.537598,0
43660,0.318848,-0.738281,0.537598,0
43680,0.237793,-0.664551,0.536621,0
43700,0.255371,-0.708008,0.489258,0
43720,0.383301,-0.703613,0.460449,0
43740,0.476074,-0.661621,0.447266,0
43760,0.822754,-0.653809,0.371094,0
43780,0.581543,-0.703125,0.393066,0
43800,0.581543,-0.698242,0.387207,0
43820,0.654785,-0.624512,0.375977,0
43840,0.72168,-0.596191,0.34375,0
43860,0.695312,-0.600098,0.277344,0
43880,0.740234,-0.548828,0.212402,0
43890,0.811523,-0.523438,0.196289,0
43920,0.771973,-0.495117,0.150879,0
43940,0.73877,-0.466309,0.13916,0
43960,0.812012,-0.40625,0.161133,0
43980,0.805176,-0.361816,0.120117,0
44000,0.836426,-0.365234,0.078125,0
44010,0.84668,-0.341797,0.0522461,0
44030,0.897461,-0.305176,0.108887,0
44050,0.927734,-0.249023,0.132812,0
44070,0.971191,-0.231445,0.0727539,0
44090,0.960938,-0.218262,0.106934,0
44110,0.960938,-0.166016,0.215332,0
44130,0.947754,-0.0898438,0.206055,0
44150,0.98291,-0.0791016,0.200684,0
44170,0.999023,-0.0649414,0.251953,0
44190,0.947754,-0.0498047,0.32666,0
44210,0.817871,-0.0307617,0.366211,0
44230,0.835938,-0.0166016,0.333496,0
44250,1.02783,-0.0532227,0.452148,0
44260,0.906738,0.0449219,0.470215,0
44280,0.631348,0.0581055,0.464844,0
44300,0.821289,-0.050293,0.530273,0
44320,0.870117,-0.0390625,0.562988,0
44340,0.876953,-0.015625,0.633301,0
44360,0.645996,0.0336914,0.574219,0
44380,0.676758,-0.0625,0.595703,0
44400,0.871094,-0.158691,0.672363,0
44420,0.726074,-0.126465,0.688477,0
44440,0.442871,-0.157715,0.703125,0
44460,0.52002,-0.15918,0.721191,0
44480,0.72998,-0.275391,0.672852,0
44500,0.740234,-0.220215,0.728516,0
44520,0.481445,-0.229004,0.697266,0
44540,0.379883,-0.314453,0.709961,0
44560,0.553223,-0.430176,0.655273,0
44580,0.616699,-0.369141,0.683594,0
44600,0.365723,-0.30127,0.650391,0
44620,0.336426,-0.411621,0.681152,0
44640,0.495117,-0.501465,0.64502,0
44660,0.429199,-0.539551,0.658203,0
44680,0.219727,-0.538086,0.632324,0
44700,0.15918,-0.584473,0.593262,0
44720,0.266602,-0.612305,0.544922,0
44740,0.262207,-0.651855,0.556152,0
44760,0.208496,-0.69873,0.545898,0
44780,0.262207,-0.715332,0.467773,0
44800,0.318359,-0.796387,0.476562,0
44820,0.371094,-0.844727,0.466309,0
44840,0.459961,-0.868652,0.37793,0
44860,0.481445,-0.772949,0.439453,0
44880,0.474609,-0.749512,0.427246,0
44900,0.560059,-0.846191,0.357422,0
44920,0.635742,-0.826172,0.325684,0
44940,0.57373,-0.780273,0.290039,0
44960,0.578125,-0.733887,0.300781,0
44980,0.720215,-0.730469,0.258301,0
45000,0.703613,-0.725098,0.210938,0
45020,0.611816,-0.616211,0.192871,0
45040,0.68457,-0.603027,0.117188,0
45060,0.736816,-0.574707,0.112793,0
45080,0.732422,-0.513672,0.0947266,0
45100,0.753906,-0.469238,0.0786133,0
45120,0.79834,-0.415039,0.0893555,0
45140,0.883789,-0.380859,0.0883789,0
45160,0.882324,-0.313477,0.0913086,0
45180,0.846191,-0.248047,0.0371094,0
45200,0.917969,-0.256348,0.0268555,0
45220,0.917969,-0.178711,0.0908203,0
45240,0.861816,-0.123535,0.0595703,0
45260,0.919434,-0.101074,0.0302734,0
45280,0.916504,-0.0620117,0.0976562,0
45300,0.852539,-0.0146484,0.105469,0
45320,0.853516,0.0297852,0.170898,0
45340,0.922852,0.0444336,0.161621,0
45360,0.967773,0.0776367,0.160645,0
45380,1.00391,0.0302734,0.22998,0
45400,1.03223,0.0561523,0.337402,0
45420,0.974609,0.0668945,0.337891,0
45440,0.958984,0.0678711,0.345703,0
45460,0.925293,0.0483398,0.45752,0
45480,0.792969,0.0844727,0.486328,0
45500,0.750488,0.0766602,0.442383,0
45520,0.745605,0.0527344,0.531738,0
45540,0.796875,0.0117188,0.541504,0
45560,0.830566,-0.0283203,0.598145,0
45580,0.757324,-0.0551758,0.629395,0
45600,0.64209,-0.10498,0.684082,0
45620,0.675781,-0.121582,0.674316,0
45640,0.705566,-0.168457,0.668945,0
45660,0.650879,-0.230957,0.745117,0
45680,0.629395,-0.254395,0.729492,0
45700,0.624512,-0.310547,0.674316,0
45720,0.524414,-0.364258,0.672363,0
45740,0.445801,-0.391602,0.667969,0
45760,0.491211,-0.422363,0.647461,0
45780,0.578613,-0.452637,0.661621,0
45800,0.556152,-0.455566,0.642578,0
45820,0.503906,-0.475098,0.617676,0
45840,0.475098,-0.502441,0.604004,0
45860,0.482422,-0.513672,0.598633,0
45880,0.5,-0.459961,0.562988,0
45900,0.513184,-0.496582,0.546875,0
45920,0.52832,-0.57959,0.536621,0
45940,0.533203,-0.595703,0.535645,0
45960,0.512695,-0.560547,0.516113,0
45980,0.550293,-0.596191,0.443359,0
46000,0.537598,-0.629395,0.450684,0
46020,0.495605,-0.685547,0.40332,0
46040,0.580078,-0.698242,0.352539,0
46060,0.626465,-0.749023,0.316406,0
46080,0.511719,-0.741211,0.308594,0
46100,0.427734,-0.731934,0.285645,0
46120,0.489746,-0.702148,0.239258,0
46140,0.584473,-0.686035,0.224121,0
46160,0.605469,-0.674316,0.211914,0
46180,0.570801,-0.697754,0.222656,0
46200,0.598145,-0.685059,0.217285,0
46220,0.694824,-0.63623,0.163086,0
46240,0.761719,-0.59375,0.182129,0
46260,0.760742,-0.569336,0.173828,0
46280,0.79248,-0.580566,0.177246,0
46300,0.884766,-0.579102,0.16748,0
46320,0.883789,-0.560547,0.146973,0
46340,0.796387,-0.511719,0.140625,0
46360,0.762207,-0.447754,0.15918,0
46380,0.825195,-0.436035,0.0712891,0
46400,0.839355,-0.475586,0.0991211,0
46420,0.739746,-0.387207,0.105957,0
46440,0.748047,-0.388672,0.0473633,0
46460,0.870605,-0.363281,0.00683594,0
46480,0.855957,-0.345215,0.0375977,0
46500,0.773926,-0.36377,0.0429688,0
46520,0.835449,-0.368652,0.0141602,1001
46540,0.920898,-0.352051,0.0366211,0
46560,0.924805,-0.36084,0.0634766,0
46580,0.880371,-0.406738,0.078125,0
46600,0.811523,-0.388184,0.0844727,0
46620,0.931641,-0.370605,0.0546875,0
46640,0.972656,-0.354004,0.0507812,0
46660,0.887695,-0.39209,0.0654297,0
46680,0.919434,-0.4375,0.0551758,0
46700,0.940918,-0.4375,0.0615234,0
46720,0.844238,-0.407227,0.027832,0
46740,0.803711,-0.416016,0.0229492,0
46760,0.82959,-0.40625,0.000976562,0
46780,0.780762,-0.413574,0.0351562,0
46800,0.707031,-0.407715,0.0463867,0
46820,0.627441,-0.425781,0.0239258,0
46840,0.566895,-0.449707,0.00732422,0
46860,0.426758,-0.464355,0.00927734,0
46880,0.356445,-0.439941,0.00634766,0
46900,0.233398,-0.435059,0.0253906,0
46920,0.235352,-0.40332,0.0356445,0
46940,0.297852,-0.366699,0.163086,0
46960,0.343262,-0.31543,0.206543,0
46980,0.405762,-0.370605,0.233398,0
47000,0.438477,-0.42041,0.420898,0
47020,0.561523,-0.484375,0.561523,0
47040,0.620605,-0.445801,0.652344,0
47060,0.666016,-0.542969,0.607422,0
47080,0.842773,-0.652344,0.541992,0
47100,1.0498,-0.839844,0.573242,0
47120,1.0376,-0.85791,0.786621,0
47140,1.04688,-0.984375,0.709473,0
47160,1.08252,-1.10547,0.643066,0
47180,0.885254,-1.10938,0.764648,0
47200,0.687988,-1.0127,0.796875,0
47220,0.62207,-0.949707,0.733887,0
47240,0.555176,-0.850586,0.709473,0
47260,0.45752,-0.782715,0.68457,0
47280,0.413574,-0.776367,0.656738,0
47300,0.362305,-0.691406,0.604492,0
47320,0.28125,-0.634766,0.589355,0
47340,0.165039,-0.609863,0.596191,0
47360,0.120605,-0.600586,0.594238,0
47380,0.104004,-0.580078,0.556152,0
47400,0.117676,-0.540039,0.568359,0
47410,0.0322266,-0.583008,0.662109,0
47430,0.0234375,-0.625488,0.650879,0
47450,0.286621,-0.591797,0.658691,1000
47470,0.265137,-0.672363,0.757812,0
47490,0.195801,-0.657227,0.661133,0
47510,0.230469,-0.679688,0.705078,0
47530,0.308594,-0.772461,0.669434,0
47550,0.32373,-0.780762,0.638184,0
47570,0.296387,-0.726074,0.610352,0
47590,0.256348,-0.684082,0.572754,0
47610,0.214844,-0.673828,0.585449,0
47630,0.205566,-0.667969,0.604492,0
47650,0.212891,-0.625488,0.624023,0
47670,0.209961,-0.600586,0.620117,0
47690,0.212402,-0.623535,0.643066,0
47710,0.213379,-0.62207,0.657715,0
47730,0.180176,-0.629395,0.672363,0
47750,0.191895,-0.652832,0.667969,0
47770,0.188477,-0.670898,0.688477,0
47790,0.233398,-0.67041,0.662109,0
47810,0.289062,-0.636719,0.632324,0
47830,0.288574,-0.664551,0.628418,0
47850,0.29541,-0.674316,0.623047,0
47870,0.322754,-0.689941,0.616211,0
47890,0.348633,-0.671875,0.565918,0
47910,0.3125,-0.643555,0.568359,0
47930,0.371582,-0.641602,0.563965,0
47950,0.408691,-0.625977,0.538574,0
47960,0.427734,-0.621094,0.532227,0
47980,0.446289,-0.646973,0.532227,0
48000,0.415039,-0.615723,0.522949,0
48020,0.499512,-0.658203,0.504395,0
48040,0.481445,-0.651367,0.490234,0
48060,0.490234,-0.640625,0.484375,0
48080,0.535645,-0.625977,0.477051,0
48100,0.525879,-0.634277,0.442383,0
48120,0.521973,-0.637207,0.437988,0
48140,0.537109,-0.627441,0.427734,0
48160,0.553223,-0.600098,0.419434,0
48180,0.581543,-0.597656,0.396973,0
48200,0.567383,-0.606445,0.380371,0
48220,0.549316,-0.591309,0.393555,0
48240,0.603516,-0.573242,0.372559,0
48260,0.658203,-0.5625,0.34375,0
48280,0.672363,-0.571777,0.320312,0
48300,0.654297,-0.553711,0.299805,0
48320,0.692871,-0.549805,0.290039,0
48340,0.712891,-0.534668,0.269043,0
48360,0.714844,-0.530273,0.24707,0
48380,0.717773,-0.494141,0.259766,0
48400,0.748047,-0.462891,0.259766,0
48420,0.770508,-0.442383,0.255371,0
48440,0.755859,-0.439941,0.251465,0
48480,0.855469,-0.388184,0.27832,0
48500,0.850098,-0.368652,0.263672,0
48540,0.855957,-0.32373,0.287109,0
48550,0.884277,-0.305176,0.286133,0
48570,0.842285,-0.283203,0.301758,0
48590,0.837402,-0.286133,0.336426,0
48610,0.833984,-0.242188,0.371094,0
48630,0.821777,-0.223633,0.365723,0
48650,0.871582,-0.194336,0.37207,0
48670,0.933594,-0.194336,0.42627,0
48690,0.779785,-0.161621,0.477051,0
48710,0.780762,-0.166992,0.487305,0
48730,0.779297,-0.163086,0.485352,0
48750,0.777832,-0.17041,0.546387,0
48770,0.80957,-0.214844,0.619141,0
48790,0.633301,-0.181641,0.645508,0
48810,0.738281,-0.198242,0.623047,0
48830,0.687988,-0.212402,0.646484,0
48850,0.622559,-0.281738,0.73291,0
48870,0.574219,-0.239258,0.790527,0
48890,0.577148,-0.130859,0.696777,0
48910,0.656738,-0.0859375,0.719238,0
48930,0.597168,-0.0942383,0.769531,0
48950,0.39502,-0.16748,0.790039,0
48970,0.378418,-0.231445,0.80127,0
48990,0.479004,-0.255371,0.746094,0
49010,0.543945,-0.339844,0.836426,0
49030,0.416992,-0.20166,0.830078,0
49050,0.292969,-0.222168,0.803223,0
49070,0.305176,-0.250977,0.802734,0
49090,0.371582,-0.314453,0.791016,0
49110,0.411621,-0.336914,0.87793,0
49130,0.252441,-0.240723,0.827148,0
49150,0.161133,-0.318359,0.766113,0
49170,0.228516,-0.302734,0.802246,0
49190,0.31543,-0.437012,0.889648,0
49210,0.276855,-0.377441,0.854004,0
49230,0.127441,-0.39502,0.776855,0
49250,0.0810547,-0.408203,0.805664,0
49260,0.152344,-0.429688,0.800293,0
49280,0.178711,-0.442871,0.810059,0
49300,0.0883789,-0.405762,0.768066,0
49320,0.046875,-0.46875,0.727539,0
49340,0.0922852,-0.488281,0.753418,0
49360,0.132324,-0.516602,0.779297,0
49380,0.126465,-0.534668,0.714355,0
49400,0.0898438,-0.564453,0.666016,0
49420,0.0742188,-0.565918,0.687988,0
49440,0.126953,-0.590332,0.715332,0
49460,0.158203,-0.638184,0.66748,0
49480,0.187012,-0.672852,0.654297,0
49500,0.188965,-0.720215,0.691895,0
49520,0.184082,-0.683594,0.654785,0
49540,0.223145,-0.648926,0.606934,0
49560,0.211914,-0.686035,0.626465,0
49580,0.195801,-0.723633,0.633789,0
49600,0.19873,-0.741699,0.590332,0
49620,0.227051,-0.737793,0.540527,0
49640,0.280762,-0.693848,0.532715,0
49660,0.292969,-0.692871,0.555176,0
49680,0.289551,-0.765137,0.496094,0
49700,0.321289,-0.786621,0.436523,0
49720,0.330078,-0.723633,0.445801,0
49740,0.385254,-0.685547,0.463867,0
49760,0.503906,-0.694824,0.460449,0
49780,0.513184,-0.694824,0.391113,0
49800,0.689453,-0.648438,0.331543,0
49820,0.691895,-0.662598,0.390625,0
49840,0.692383,-0.652344,0.381836,0
49860,0.635254,-0.640625,0.317383,0
49880,0.689941,-0.645996,0.264648,0
49900,0.741211,-0.583008,0.245605,0
49920,0.744629,-0.54834,0.266602,0
49940,0.75293,-0.481934,0.241699,0
49960,0.790039,-0.454102,0.186523,0
49970,0.804199,-0.444336,0.138672,0
49990,0.790527,-0.39209,0.155762,0
50010,0.808105,-0.282715,0.220703,0
50030,0.795898,-0.245605,0.175293,0
50050,0.855469,-0.274414,0.109863,0
50070,0.867188,-0.243652,0.146973,0
50090,0.914551,-0.163086,0.242188,0
50110,0.925293,-0.130859,0.237305,0
50130,0.902344,-0.115723,0.163574,0
50150,0.939453,-0.157715,0.211426,0
50170,0.92041,-0.108887,0.312012,0
50190,0.966309,-0.0673828,0.370605,0
50210,0.865723,-0.074707,0.336914,0
50230,0.870605,-0.140137,0.343262,0
50250,0.913086,-0.10498,0.470215,0
50270,0.868164,-0.155273,0.544434,0
50290,0.819336,-0.0854492,0.521973,0
50310,0.80957,-0.0268555,0.527344,0
50330,0.931641,0.0317383,0.581055,0
50350,0.816406,0.0380859,0.604004,0
50370,0.664551,-0.00634766,0.647461,0
50390,0.709473,-0.0605469,0.638672,0
50410,0.698242,-0.0288086,0.635742,0
50430,0.585449,-0.0849609,0.728027,0
50450,0.543457,-0.0917969,0.731934,0
50470,0.554199,-0.141602,0.680176,0
50490,0.578613,-0.163574,0.813965,0
50510,0.491699,-0.15332,0.757812,0
50530,0.512695,-0.26123,0.736816,0
50550,0.509766,-0.19043,0.756836,0
50570,0.422852,-0.29834,0.752441,0
50590,0.442383,-0.357422,0.740723,0
50610,0.438477,-0.378418,0.753418,0
50630,0.411621,-0.348633,0.759766,0
50650,0.337402,-0.338379,0.762695,0
50670,0.354492,-0.434082,0.712402,0
50690,0.433105,-0.475098,0.711426,0
50710,0.373047,-0.484375,0.74707,0
50730,0.253906,-0.425293,0.662598,0
50750,0.248047,-0.522461,0.612793,0
50770,0.313477,-0.541992,0.649414,0
50790,0.336426,-0.547363,0.69043,0
50810,0.288574,-0.506836,0.654297,0
50830,0.195312,-0.553223,0.554688,0
50850,0.22998,-0.611328,0.581055,0
50870,0.269043,-0.577148,0.615234,0
50890,0.22998,-0.575195,0.603027,0
50910,0.283203,-0.648926,0.523438,0
50930,0.355469,-0.711426,0.547852,0
50950,0.365723,-0.67627,0.613281,0
50970,0.386719,-0.61377,0.578613,0
50990,0.446289,-0.581543,0.549805,0
51010,0.464355,-0.660645,0.56543,0
51030,0.433105,-0.73291,0.546875,0
51050,0.5,-0.747559,0.500488,0
51070,0.557617,-0.706543,0.516602,0
51090,0.447754,-0.706055,0.473633,0
51110,0.478516,-0.792969,0.435059,0
51130,0.589355,-0.752441,0.429199,0
51150,0.564941,-0.737305,0.36377,0
51170,0.553711,-0.695312,0.344727,0
51190,0.631348,-0.668945,0.376465,0
51210,0.710938,-0.723145,0.380859,0
51230,0.709961,-0.65332,0.299316,0
51250,0.705566,-0.583008,0.264648,0
51270,0.751953,-0.492676,0.271973,0
51290,0.754883,-0.497559,0.242188,0
51310,0.720215,-0.496582,0.1875,0
51330,0.712891,-0.442871,0.166992,0
51350,0.760254,-0.42334,0.171387,0
51370,0.780762,-0.402832,0.120117,0
51390,0.768555,-0.37207,0.0795898,0
51410,0.79834,-0.375488,0.0683594,0
51430,0.824707,-0.356445,0.0717773,0
51450,0.845215,-0.314941,0.0961914,0
51470,0.893066,-0.293945,0.0629883,0
51490,0.882812,-0.288086,0.0351562,0
51510,0.861328,-0.226074,0.102539,0
51530,0.901367,-0.213379,0.141602,0
51550,0.929688,-0.191406,0.0830078,0
51570,0.907715,-0.1875,0.102539,0
51590,0.924805,-0.169922,0.191895,0
51610,0.936523,-0.101074,0.300781,0
51630,0.92334,-0.0620117,0.221191,0
51650,0.911621,-0.0595703,0.203125,0
51670,0.878906,-0.0405273,0.250488,0
51690,0.881348,-0.00927734,0.298828,0
51710,0.901367,-0.00195312,0.280273,0
51730,0.873535,-0.00146484,0.337402,0
51750,0.851562,-0.00390625,0.412109,0
51770,0.900879,0.0302734,0.423828,0
51790,0.947754,-0.00439453,0.474121,0
51810,0.85498,0.0463867,0.471191,0
51830,0.821777,-0.000976562,0.53418,0
51850,0.849609,0.0107422,0.554199,0
51870,0.798828,-0.0429688,0.558105,0
51890,0.738281,-0.0561523,0.614258,0
51910,0.741211,-0.046875,0.679688,0
51930,0.765137,-0.134277,0.682129,0
51950,0.703613,-0.123047,0.675293,0
51970,0.614746,-0.125,0.682617,0
51990,0.599121,-0.112793,0.733398,0
52010,0.572266,-0.225098,0.723145,0
52030,0.525391,-0.309082,0.748047,0
52050,0.45459,-0.28418,0.746582,0
52070,0.501465,-0.300293,0.720215,0
52090,0.536133,-0.298828,0.73584,0
52110,0.436523,-0.371094,0.76709,0
52130,0.401855,-0.433594,0.734375,0
52150,0.494141,-0.441895,0.683105,0
52170,0.506836,-0.405762,0.679688,0
52190,0.449707,-0.380859,0.713379,0
52210,0.365723,-0.45166,0.727051,0
52230,0.418945,-0.507812,0.649902,0
52250,0.466797,-0.460938,0.62207,0
52270,0.422363,-0.454102,0.629883,0
52290,0.367188,-0.495117,0.608398,0
52310,0.38623,-0.559082,0.574219,0
52330,0.383301,-0.524414,0.597656,0
52350,0.334961,-0.506836,0.565918,0
52370,0.369141,-0.571777,0.540039,0
52390,0.426758,-0.64209,0.518066,0
52410,0.433594,-0.672363,0.513672,0
52430,0.45459,-0.663086,0.521973,0
52450,0.478027,-0.669922,0.516602,0
52470,0.525391,-0.719238,0.453613,0
52490,0.569824,-0.729492,0.470215,0
52510,0.548828,-0.709473,0.458496,0
52530,0.533691,-0.73291,0.436523,0
52550,0.562012,-0.708008,0.384277,0
52570,0.538086,-0.695801,0.336914,0
52590,0.504395,-0.707031,0.303711,0
52610,0.501465,-0.723633,0.272461,0
52630,0.498047,-0.740234,0.259766,0
52650,0.481934,-0.741699,0.237305,0
52660,0.533203,-0.720703,0.244141,0
52680,0.571289,-0.679688,0.253418,0
52700,0.57666,-0.692871,0.196777,0
52720,0.604492,-0.707031,0.167969,0
52740,0.62793,-0.67041,0.188477,0
52760,0.685547,-0.664062,0.203125,0
52780,0.763672,-0.609863,0.169922,0
52800,0.760742,-0.615234,0.132812,0
52820,0.716797,-0.588379,0.163574,0
52840,0.777344,-0.578125,0.139648,0
52860,0.811523,-0.543457,0.0927734,0
52880,0.771973,-0.492188,0.0834961,0
52900,0.728027,-0.462891,0.0581055,0
52920,0.762207,-0.432617,0.10791,0
52940,0.808105,-0.414551,0.0888672,0
52960,0.839844,-0.449707,0.059082,0
52980,0.841797,-0.387695,0.0629883,0
53000,0.895508,-0.404297,0.0678711,0
53020,0.9375,-0.424316,0.0537109,0
53040,0.914062,-0.429688,0.0200195,1001
53060,0.883789,-0.405762,0.0712891,0
53080,0.907227,-0.383789,0.0683594,0
53100,0.895508,-0.397461,0.0371094,0
53120,0.833008,-0.396973,0.0678711,0
53140,0.832031,-0.384766,0.0942383,0
53160,0.878906,-0.370605,0.0791016,0
53180,0.87793,-0.38623,0.034668,0
53200,0.827148,-0.392578,0.0810547,0
53220,0.850586,-0.409668,0.0952148,0
53240,0.872559,-0.406738,0.065918,0
53260,0.855957,-0.40332,0.0610352,0
53280,0.891113,-0.435547,0.078125,0
53300,0.861816,-0.42627,0.0898438,0
53320,0.819824,-0.395996,0.0605469,0
53340,0.768555,-0.416016,0.0922852,0
53360,0.667969,-0.399414,0.0610352,0
53380,0.60791,-0.410156,0.0673828,0
53400,0.54248,-0.45166,0.0639648,0
53420,0.404785,-0.369629,0.0439453,0
53440,0.336426,-0.333008,0.101562,0
53460,0.36377,-0.403809,0.015625,0
53480,0.411133,-0.419434,0.0322266,0
53500,0.374023,-0.398438,0.174316,0
53520,0.318848,-0.40625,0.250488,0
53540,0.329102,-0.414062,0.334961,0
53560,0.750977,-0.511719,0.373535,0
53580,0.516113,-0.451172,0.52002,0
53600,0.604004,-0.350098,0.64209,0
53620,0.797363,-0.377441,0.585938,0
53640,0.918945,-0.355957,0.70752,0
53660,0.956055,-0.404785,0.777832,0
53680,1.23975,-0.580078,0.633301,0
53700,1.31152,-0.774902,0.613281,0
53720,0.967773,-0.871094,0.771484,0
53740,0.870605,-0.901367,0.793457,0
53760,0.847168,-0.954102,0.775391,0
53780,0.770508,-0.965332,0.740723,0
53800,0.567383,-0.864746,0.732422,0
53820,0.432617,-0.845215,0.705078,0
53840,0.380859,-0.750977,0.703125,0
53860,0.348145,-0.629395,0.694336,0
53880,0.312012,-0.594238,0.692871,0
53900,0.223145,-0.597656,0.660156,0
53920,0.166016,-0.571289,0.665039,0
53940,0.159668,-0.539062,0.601562,0
53960,0.180176,-0.524902,0.634766,0
53980,0.167969,-0.563477,0.665527,0
54000,0.132324,-0.605957,0.626953,0
54020,0.17334,-0.591797,0.61084,0
54040,0.216309,-0.627441,0.67041,0
54060,0.116211,-0.637695,0.732422,0
54080,0.0898438,-0.725098,0.702148,1000
54100,0.362305,-0.643066,0.605957,0
54120,0.302734,-0.665527,0.661133,0
54140,0.251465,-0.68457,0.640137,0
54160,0.295898,-0.689453,0.62793,0
54180,0.333008,-0.6875,0.631836,0
54200,0.306641,-0.669434,0.608887,0
54220,0.265625,-0.641602,0.62793,0
54240,0.214355,-0.635254,0.615234,0
54260,0.231445,-0.625977,0.666992,0
54280,0.246582,-0.611328,0.64502,0
54300,0.212891,-0.606934,0.644043,0
54320,0.230469,-0.614258,0.637695,0
54340,0.248047,-0.615723,0.652344,0
54360,0.250977,-0.621094,0.65625,0
54380,0.229004,-0.615234,0.637207,0
54400,0.203613,-0.638184,0.651367,0
54420,0.185547,-0.641602,0.645996,0
54440,0.191895,-0.656738,0.662598,0
54460,0.201172,-0.644043,0.659668,0
54480,0.194336,-0.639648,0.664551,0
54500,0.255371,-0.644043,0.64502,0
54520,0.234863,-0.646484,0.664551,0
54540,0.263184,-0.637695,0.633301,0
54560,0.272461,-0.612793,0.628906,0
54580,0.334473,-0.62793,0.628906,0
54600,0.303223,-0.619141,0.622559,0
54620,0.374023,-0.617676,0.592773,0
54630,0.374512,-0.599121,0.599609,0
54650,0.40625,-0.589844,0.626953,0
54670,0.452637,-0.586426,0.568848,0
54690,0.470703,-0.591797,0.566406,0
54700,0.44043,-0.584961,0.560547,0
54720,0.462891,-0.601562,0.578125,0
54730,0.460449,-0.574219,0.555176,0
54750,0.510742,-0.555176,0.527832,0
54770,0.511719,-0.546875,0.524414,0
54790,0.530273,-0.543945,0.515625,0
54810,0.549805,-0.557617,0.486816,0
54830,0.586426,-0.530762,0.449707,0
54850,0.631348,-0.531738,0.440918,0
54870,0.630859,-0.524414,0.435059,0
54890,0.617676,-0.513672,0.44873,0
54910,0.644043,-0.526367,0.426758,0
54930,0.635742,-0.482422,0.428711,0
54950,0.637695,-0.477539,0.429199,0
54970,0.658203,-0.467285,0.440918,0
54990,0.677734,-0.431152,0.45752,0
55010,0.710449,-0.428711,0.411621,0
55030,0.695801,-0.433594,0.403809,0
55050,0.699219,-0.434082,0.425293,0
55080,0.735352,-0.398926,0.385254,0
55100,0.771973,-0.356934,0.417969,0
55120,0.784668,-0.311523,0.436523,0
55140,0.811035,-0.295898,0.436523,0
55160,0.802246,-0.289551,0.448242,0
55180,0.810059,-0.285645,0.472168,0
55200,0.833496,-0.28418,0.492676,0
55220,0.782227,-0.272949,0.504883,0
55240,0.80127,-0.271973,0.495117,0
55260,0.78418,-0.263672,0.546875,0
55280,0.653809,-0.245605,0.567383,0
55300,0.647461,-0.250977,0.615234,0
55320,0.71875,-0.247559,0.624512,0
55340,0.657715,-0.262207,0.604492,0
55360,0.541992,-0.161133,0.660156,0
55380,0.565918,-0.233887,0.669922,0
55400,0.610352,-0.211426,0.695312,0
55420,0.54248,-0.248047,0.681641,0
55440,0.60791,-0.202637,0.702637,0
55460,0.594238,-0.123535,0.691406,0
55480,0.563965,-0.140137,0.734863,0
55500,0.481445,-0.211914,0.69043,0
55520,0.495117,-0.295898,0.755371,0
55540,0.409668,-0.274902,0.783691,0
55560,0.369141,-0.232422,0.777832,0
55580,0.405762,-0.229004,0.758789,0
55600,0.417969,-0.233398,0.783691,0
55620,0.400879,-0.327148,0.803223,0
55640,0.411133,-0.341309,0.824707,0
55660,0.352051,-0.27832,0.799805,0
55680,0.296875,-0.283691,0.806641,0
55700,0.3125,-0.326172,0.844727,0
55720,0.320312,-0.34082,0.8125,0
55740,0.277344,-0.330078,0.82666,0
55760,0.273438,-0.345215,0.821777,0
55780,0.27002,-0.317871,0.819824,0
55800,0.30957,-0.361816,0.794434,0
55820,0.322266,-0.381836,0.833984,0
55840,0.265137,-0.380371,0.809082,0
55860,0.270508,-0.350098,0.787598,0
55880,0.314453,-0.322754,0.793945,0
55900,0.306152,-0.353516,0.8125,0
55920,0.276855,-0.375977,0.772461,0
55940,0.287109,-0.365234,0.787598,0
55960,0.311035,-0.331055,0.794434,0
55980,0.309082,-0.36084,0.783203,0
56000,0.298828,-0.384766,0.779785,0
56020,0.310059,-0.369141,0.803711,0
56040,0.312988,-0.353027,0.797363,0
56060,0.319336,-0.380859,0.769531,0
56080,0.302246,-0.423828,0.773438,0
56100,0.270996,-0.393066,0.780762,0
56120,0.287598,-0.39502,0.79834,0
56140,0.3125,-0.40332,0.776855,0
56160,0.262207,-0.43457,0.744141,0
56180,0.257324,-0.436523,0.751465,0
56200,0.306152,-0.419434,0.779297,0
56220,0.279785,-0.456055,0.752441,0
56240,0.22998,-0.46875,0.716797,0
56260,0.245117,-0.456543,0.745605,0
56280,0.248535,-0.469727,0.75,0
56300,0.219238,-0.477539,0.734375,0
56320,0.229492,-0.494141,0.711914,0
56340,0.221191,-0.491699,0.748047,0
56360,0.21875,-0.531738,0.72998,0
56380,0.256348,-0.525879,0.720703,0
56400,0.263672,-0.523926,0.706055,0
56420,0.22168,-0.525879,0.720215,0
56440,0.200195,-0.579102,0.718262,0
56460,0.249512,-0.582031,0.683105,0
56480,0.257812,-0.567871,0.694824,0
56500,0.222168,-0.553223,0.716309,0
56520,0.210449,-0.599121,0.679688,0
56540,0.211426,-0.602539,0.655762,0
56560,0.212891,-0.576172,0.671387,0
56580,0.23584,-0.601562,0.669922,0
56600,0.269531,-0.643066,0.649902,0
56620,0.254395,-0.640625,0.678711,0
56640,0.243164,-0.60791,0.613281,0
56660,0.279785,-0.60498,0.625977,0
56680,0.280762,-0.629883,0.621582,0
56700,0.293457,-0.673828,0.615723,0
56720,0.366211,-0.655273,0.635742,0
56740,0.35791,-0.586914,0.631836,0
56760,0.303711,-0.635254,0.557129,0
56780,0.364258,-0.687012,0.515137,0
56800,0.412109,-0.635254,0.575195,0
56820,0.399414,-0.557129,0.597168,0
56840,0.435547,-0.614258,0.554199,0
56860,0.486816,-0.612793,0.47998,0
56880,0.540039,-0.589844,0.487793,0
56900,0.536133,-0.588867,0.500977,0
56920,0.630859,-0.597168,0.470215,0
56940,0.593262,-0.590332,0.407227,0
56960,0.607422,-0.584473,0.415527,0
56980,0.570801,-0.584473,0.418457,0
57000,0.596191,-0.543945,0.393066,0
57020,0.625,-0.57959,0.345215,0
57040,0.678711,-0.605469,0.279297,0
57060,0.653809,-0.586914,0.312012,0
57080,0.67334,-0.536133,0.361816,0
57100,0.741699,-0.516113,0.303711,0
57120,0.751953,-0.489258,0.287598,0
57140,0.728027,-0.470703,0.287598,0
57160,0.763672,-0.467285,0.262695,0
57180,0.816406,-0.416016,0.266113,0
57200,0.836426,-0.381836,0.263672,0
57220,0.790039,-0.359863,0.271973,0
57240,0.802734,-0.342285,0.272949,0
57260,0.816895,-0.297852,0.287109,0
57280,0.838867,-0.292969,0.310059,0
57300,0.835938,-0.306641,0.297363,0
57320,0.833984,-0.273438,0.356445,0
57340,0.837891,-0.224609,0.385254,0
57360,0.861816,-0.23291,0.331055,0
57380,0.85498,-0.256348,0.327148,0
57400,0.856934,-0.19873,0.412109,0
57420,0.825195,-0.169434,0.438965,0
57440,0.847168,-0.183105,0.38623,0
57460,0.855469,-0.19043,0.367676,0
57480,0.794922,-0.145996,0.442383,0
57500,0.760742,-0.141113,0.475098,0
57520,0.776367,-0.180176,0.415527,0
57540,0.86084,-0.137695,0.436523,0
57560,0.782227,-0.12207,0.476562,0
57580,0.782227,-0.0859375,0.482422,0
57600,0.8125,-0.109863,0.464844,0
57620,0.790039,-0.146484,0.481445,0
57640,0.777344,-0.129883,0.529785,0
57660,0.804688,-0.0888672,0.546875,0
57680,0.811035,-0.0673828,0.54541,0
57700,0.781738,-0.117676,0.52002,0
57720,0.715332,-0.0800781,0.564941,0
57740,0.712402,-0.0883789,0.564941,0
57760,0.776367,-0.0869141,0.551758,0
57780,0.784668,-0.0615234,0.582031,0
57800,0.686523,-0.0761719,0.594238,0
57820,0.633789,-0.11377,0.583984,0
57840,0.685059,-0.139648,0.586914,0
57860,0.709473,-0.102539,0.625488,0
57880,0.693848,-0.133789,0.666992,0
57900,0.62207,-0.121582,0.654785,0
57920,0.650879,-0.139648,0.645508,0
57940,0.729492,-0.128906,0.640625,0
57960,0.694824,-0.119141,0.682617,0
57980,0.598145,-0.154297,0.669434,0
58000,0.624023,-0.20166,0.631348,0
58010,0.665039,-0.166504,0.623535,0
58030,0.615723,-0.128418,0.680664,0
58050,0.564453,-0.179199,0.675293,0
58070,0.550293,-0.217773,0.656738,0
58090,0.620605,-0.217285,0.64502,0
58110,0.633301,-0.198242,0.734375,0
58130,0.495605,-0.141602,0.718262,0
58150,0.470215,-0.228027,0.682617,0
58170,0.54834,-0.226074,0.687988,0
58190,0.57959,-0.277344,0.690918,0
58210,0.533203,-0.231934,0.745605,0
58230,0.48291,-0.238281,0.70166,0
58250,0.535645,-0.271973,0.696289,0
58270,0.556152,-0.295898,0.686523,0
58290,0.506836,-0.34082,0.742676,0
58310,0.442871,-0.304688,0.713379,0
58330,0.505859,-0.318359,0.699707,0
58350,0.537109,-0.318848,0.702148,0
58370,0.478027,-0.374023,0.696289,0
58390,0.445312,-0.375977,0.69873,0
58410,0.463867,-0.365723,0.702637,0
58430,0.48291,-0.369141,0.671875,0
58450,0.466309,-0.419434,0.677734,0
58470,0.441406,-0.422363,0.695312,0
58490,0.452148,-0.42334,0.680176,0
58510,0.452637,-0.400391,0.666016,0
58530,0.422852,-0.452637,0.647461,0
58550,0.424805,-0.478027,0.657715,0
58570,0.453125,-0.486328,0.682129,0
58590,0.455078,-0.488281,0.644043,0
58610,0.443848,-0.50293,0.640137,0
58630,0.421875,-0.531738,0.638184,0
58650,0.430664,-0.538086,0.638672,0
58670,0.429688,-0.52002,0.645996,0
58690,0.446289,-0.538086,0.614258,0
58710,0.462891,-0.564453,0.599121,0
58730,0.435547,-0.572754,0.599609,0
58750,0.424805,-0.569824,0.612793,0
58770,0.449219,-0.558594,0.61084,0
58790,0.474121,-0.58252,0.568359,0
58810,0.42627,-0.606934,0.556152,0
58830,0.39502,-0.603516,0.588867,0
58850,0.423828,-0.594238,0.575684,0
58870,0.444824,-0.609375,0.537598,0
58890,0.42627,-0.63916,0.522949,0
58910,0.408203,-0.645508,0.560547,0
58930,0.405762,-0.642578,0.533203,0
58950,0.448242,-0.63916,0.48877,0
58970,0.475098,-0.640137,0.494141,0
58990,0.435059,-0.659668,0.479492,0
59010,0.385742,-0.680664,0.489746,0
59030,0.420898,-0.690918,0.416504,0
59050,0.560547,-0.68457,0.395996,0
59070,0.583008,-0.665039,0.411133,0
59090,0.477539,-0.702637,0.432129,0
59110,0.515625,-0.725098,0.425781,0
59130,0.583496,-0.69043,0.384766,0
59150,0.619141,-0.649902,0.328613,0
59170,0.685059,-0.644043,0.348633,0
59190,0.67041,-0.612305,0.395508,0
59210,0.638184,-0.601562,0.318848,0
59230,0.729004,-0.561523,0.273438,0
59250,0.743652,-0.519043,0.273926,0
59270,0.696777,-0.466797,0.291992,0
59290,0.740723,-0.48291,0.228027,0
59310,0.797852,-0.436035,0.243164,0
59330,0.755371,-0.402832,0.21875,0
59350,0.726074,-0.408691,0.186523,0
59370,0.801758,-0.40625,0.183105,0
59390,0.890625,-0.363281,0.177734,0
59410,0.876465,-0.352539,0.164551,0
59430,0.838379,-0.328613,0.1875,0
59450,0.808105,-0.311035,0.181641,0
59470,0.867676,-0.288086,0.132812,0
59490,0.924316,-0.29248,0.142578,0
59510,0.881836,-0.262207,0.17334,0
59530,0.84375,-0.175781,0.23584,0
59550,0.869629,-0.18457,0.171387,0
59570,0.887207,-0.172363,0.149902,0
59590,0.905273,-0.16748,0.209473,0
59610,0.882812,-0.150879,0.211426,0
59630,0.877441,-0.138672,0.217285,0
59650,0.909668,-0.117676,0.206055,0
59670,0.928711,-0.108398,0.226074,0
59690,0.932129,-0.0742188,0.270996,0
59710,0.985352,-0.0449219,0.263672,0
59730,0.991211,-0.0639648,0.25,0
59750,0.973145,-0.0761719,0.280762,0
59770,0.962891,-0.0732422,0.323242,0
59790,0.921875,-0.0288086,0.342285,0
59810,0.805664,0.0166016,0.338379,0
59830,0.786133,0.0126953,0.337891,0
59850,0.886719,-0.015625,0.378906,0
59870,0.846191,-0.00878906,0.454102,0
59890,0.776367,0.00195312,0.43457,0
59910,0.802734,0.0239258,0.380859,0
59930,0.862793,0.0112305,0.461914,0
59950,0.807129,-0.0556641,0.562988,0
59970,0.784668,-0.0664062,0.537598,0
59980,0.824219,-0.00585938,0.472656,0
60000,0.829102,-0.0756836,0.562012,0
60020,0.724121,-0.097168,0.604004,0
60040,0.721191,-0.142578,0.609375,0
60060,0.73877,-0.105469,0.598633,0
60080,0.699219,-0.106445,0.5625,0
60100,0.738281,-0.202637,0.624023,0
60120,0.71875,-0.172852,0.722168,0
60140,0.62207,-0.197266,0.617188,0
60160,0.658203,-0.200195,0.588867,0
60180,0.652344,-0.208984,0.672852,0
60200,0.555664,-0.242188,0.693359,0
60220,0.507812,-0.289551,0.651367,0
60240,0.598145,-0.255859,0.63623,0
60260,0.602051,-0.244141,0.664551,0
60280,0.505371,-0.259277,0.665527,0
60300,0.494629,-0.320801,0.66748,0
60320,0.581055,-0.325195,0.632324,0
60340,0.577148,-0.333496,0.648926,0
60360,0.488281,-0.311035,0.63916,0
60380,0.474121,-0.348145,0.65332,0
60400,0.524902,-0.349609,0.629883,0
60420,0.533691,-0.400391,0.618652,0
60440,0.518066,-0.409668,0.648926,0
60460,0.481934,-0.429688,0.639648,0
60480,0.469238,-0.460938,0.624512,0
60500,0.508301,-0.473145,0.609863,0
60520,0.491699,-0.488281,0.609863,0
60540,0.467773,-0.519531,0.597168,0
60560,0.471191,-0.561523,0.59668,0
60580,0.475586,-0.55957,0.592773,0
60600,0.493164,-0.554199,0.57373,0
60620,0.510254,-0.559082,0.581543,0
60640,0.5,-0.591309,0.554199,0
60660,0.474121,-0.625977,0.553223,0
60680,0.518555,-0.633301,0.529297,0
60700,0.508301,-0.632324,0.523438,0
60720,0.494629,-0.648438,0.505371,0
60740,0.52832,-0.648438,0.525391,0
60760,0.522461,-0.67627,0.504883,0
60780,0.527344,-0.677734,0.466309,0
60800,0.504883,-0.624512,0.467773,0
60820,0.501953,-0.629883,0.447754,0
60840,0.515625,-0.658203,0.43457,0
60860,0.54834,-0.694824,0.393555,0
60880,0.556641,-0.662598,0.381836,0
60900,0.540039,-0.649902,0.36377,0
60920,0.577148,-0.65918,0.352539,0
60940,0.636719,-0.681152,0.342285,0
60960,0.605957,-0.6875,0.322754,0
60980,0.589844,-0.67627,0.276855,0
61000,0.664062,-0.668945,0.233398,0
61020,0.652832,-0.63916,0.208984,0
61040,0.651367,-0.646973,0.225586,0
61060,0.669434,-0.622559,0.207031,0
61080,0.697754,-0.626465,0.164062,0
61100,0.73877,-0.614258,0.147949,0
61120,0.734375,-0.57666,0.203613,0
61140,0.721191,-0.52002,0.185059,0
61160,0.76123,-0.528809,0.135254,0
61180,0.790039,-0.512695,0.0942383,0
61200,0.711914,-0.500977,0.108398,0
61220,0.682617,-0.46582,0.0952148,0
61240,0.782715,-0.45752,0.0869141,0
61260,0.846191,-0.483887,0.0546875,0
61280,0.866699,-0.498535,0.0136719,0
61300,0.856934,-0.408203,0.0332031,0
61320,0.904785,-0.417969,0.0595703,0
61340,0.913086,-0.410156,0.00830078,0
61360,0.860352,-0.40332,0.0390625,0
61380,0.828613,-0.365723,0.0205078,0
61400,0.849609,-0.384766,0.0224609,0
61420,0.848145,-0.385742,0.0483398,0
61440,0.806152,-0.390137,0.0332031,0
61460,0.868164,-0.427734,0.0234375,0
61480,0.877441,-0.407227,0.0454102,0
61500,0.871094,-0.43457,0.0341797,0
61520,0.894043,-0.464355,0.0410156,0
61540,0.873535,-0.449707,0.0336914,0
61560,0.89209,-0.46875,0.0351562,0
61580,0.893066,-0.47998,0.0771484,0
61600,0.836914,-0.477539,0.0703125,0
61620,0.813477,-0.477051,0.0424805,0
61640,0.84082,-0.47998,0.0805664,0
61660,0.82666,-0.44043,0.0756836,0
61680,0.831055,-0.437988,0.0854492,0
61700,0.856934,-0.488281,0.0478516,0
61720,0.841309,-0.491211,0.0395508,0
61740,0.849609,-0.466797,0.0317383,0
61760,0.887695,-0.474609,0.0356445,0
61780,0.884766,-0.472656,0.0551758,0
61800,0.82959,-0.472168,0.0727539,0
61820,0.863281,-0.462891,0.0566406,0
61840,0.884277,-0.445801,0.0786133,0
61860,0.855469,-0.462891,0.0678711,0
61880,0.873047,-0.474609,0.074707,0
61900,0.903809,-0.46582,0.0786133,0
61920,0.945801,-0.487305,0.0800781,0
61940,0.920898,-0.486816,0.0698242,0
61960,0.879395,-0.495117,0.0541992,0
61980,0.879883,-0.486816,0.0385742,0
62000,0.814453,-0.493652,0.0527344,0
62020,0.775391,-0.474609,0.0498047,0
62040,0.852539,-0.486328,0.0229492,0
62060,0.878906,-0.475586,0.0732422,0
62080,0.813477,-0.498047,0.0766602,0
62100,0.808105,-0.478516,0.0805664,0
62120,0.818359,-0.455566,0.0825195,0
62140,0.773926,-0.44873,0.046875,0
62160,0.745117,-0.442383,0.0454102,0
62180,0.758301,-0.45752,0.0668945,0
62200,0.745605,-0.455078,0.0410156,0
62220,0.774414,-0.429199,0.00634766,0
62240,0.793945,-0.437988,0.000976562,1001
62260,0.772461,-0.460938,0.0283203,0
62280,0.839844,-0.470215,0.0200195,0
62300,0.864746,-0.466797,-0.0161133,0
62320,0.82666,-0.453613,-0.0141602,0
62340,0.805176,-0.475586,0.0078125,0
62360,0.824707,-0.465332,0.00976562,0
62380,0.857422,-0.453613,0.00244141,0
62400,0.869629,-0.460938,-0.00341797,0
62420,0.847168,-0.455566,0.0180664,0
62440,0.874023,-0.452637,-0.0112305,0
62460,0.902832,-0.458984,-0.00878906,0
62480,0.911133,-0.467285,0.0078125,0
62500,0.901367,-0.447754,0.00146484,0
62520,0.886719,-0.458008,-0.0205078,0
62540,0.891113,-0.477051,-0.0107422,0
62560,0.890625,-0.461914,0.0307617,0
62580,0.845703,-0.44043,0.0107422,0
62600,0.813477,-0.443848,0.00488281,0
62620,0.836914,-0.448242,0.0307617,0
62640,0.84375,-0.453613,0.00976562,0
62660,0.804199,-0.448242,0.0273438,0
62680,0.776367,-0.452637,0.0268555,0
62700,0.723633,-0.439941,0.0439453,0
62720,0.736328,-0.462402,-0.0229492,0
62740,0.703613,-0.559082,-0.0654297,0
62760,0.45752,-0.401367,0.0664062,0
62780,0.271484,-0.321289,0.0493164,0
62800,0.195312,-0.348633,-0.0942383,0
62820,0.146484,-0.291992,0.0219727,0
62840,0.182617,-0.323242,0.0981445,0
62860,0.168457,-0.379883,0.10791,0
62880,0.0556641,-0.314941,0.271973,0
62900,0.174316,-0.335938,0.374512,0
62920,0.577148,-0.389648,0.471191,0
62940,0.331543,-0.35791,0.727539,0
62960,0.666992,-0.384766,0.853516,0
62980,0.768066,-0.449219,0.835449,0
63000,0.841309,-0.474121,1.02393,0
63020,1.10889,-0.619629,1.00293,0
63050,1.33057,-0.919922,0.887207,0
63070,1.10205,-0.619629,0.915527,0
63090,0.930664,-0.739746,0.904297,0
63110,0.851074,-0.867188,0.838379,0
63130,0.848145,-0.789551,0.766602,0
63150,0.803711,-0.701172,0.72998,0
63170,0.712891,-0.56543,0.77832,0
63190,0.666016,-0.599121,0.783691,0
63210,0.510254,-0.538574,0.726074,0
63230,0.459473,-0.564453,0.706055,0
63250,0.388672,-0.575195,0.716797,0
63270,0.3125,-0.558105,0.677734,0
63290,0.321289,-0.549316,0.657227,0
63310,0.313477,-0.54541,0.658691,0
63330,0.267578,-0.547363,0.661133,0
63340,0.265137,-0.577637,0.637207,0
63360,0.266602,-0.548828,0.620117,0
63380,0.293945,-0.564941,0.630371,0
63400,0.281738,-0.598633,0.620605,0
63420,0.273438,-0.641602,0.59082,0
63440,0.336914,-0.643066,0.551758,0
63460,0.345215,-0.657227,0.544922,0
63480,0.361328,-0.678223,0.499512,0
63500,0.374023,-0.682129,0.50293,0
63520,0.413574,-0.682617,0.503906,0
63540,0.420898,-0.662598,0.468262,0
63560,0.425781,-0.632324,0.484863,0
63580,0.436523,-0.609863,0.462402,0
63600,0.447266,-0.61084,0.453125,0
63620,0.495117,-0.63623,0.428223,0
63640,0.505371,-0.619629,0.44043,0
63660,0.498535,-0.657715,0.429199,0
63680,0.379395,-0.669434,0.483398,0
63700,0.243164,-0.706543,0.532227,0
63720,0.320801,-0.65918,0.553711,0
63740,0.375488,-0.660156,0.54541,0
63760,0.41748,-0.695801,0.540527,0
63780,0.414551,-0.701172,0.512695,1000
63800,0.441406,-0.71582,0.459961,0
63820,0.44043,-0.710938,0.434082,0
63840,0.405273,-0.727051,0.458496,0
63860,0.345703,-0.729004,0.475586,0
63880,0.352051,-0.725586,0.461426,0
63900,0.375977,-0.695801,0.490723,0
63920,0.353516,-0.715332,0.505859,0
63940,0.375977,-0.724121,0.510254,0
63960,0.399414,-0.70459,0.482422,0
63980,0.401367,-0.694824,0.487793,0
64000,0.387207,-0.712891,0.487793,0
64020,0.354492,-0.703613,0.492188,0
64040,0.344238,-0.689941,0.490234,0
64060,0.341797,-0.693359,0.495605,0
64080,0.306641,-0.682617,0.51709,0
64100,0.288086,-0.662109,0.535645,0
64120,0.274414,-0.682129,0.557617,0
64140,0.358887,-0.706543,0.520508,0
64160,0.370605,-0.68457,0.515625,0
64180,0.391113,-0.678223,0.506348,0
64200,0.437012,-0.711914,0.5,0
64220,0.436523,-0.6875,0.486328,0
64240,0.453125,-0.705078,0.498535,0
64260,0.447754,-0.728027,0.510742,0
64280,0.456055,-0.743652,0.495605,0
64300,0.480469,-0.717285,0.479492,0
64320,0.45459,-0.688477,0.475098,0
64340,0.440918,-0.693848,0.479492,0
64360,0.453125,-0.704102,0.498535,0
64380,0.461914,-0.679199,0.47168,0
64400,0.438965,-0.648438,0.45752,0
64420,0.44873,-0.682129,0.469727,0
64440,0.453125,-0.687012,0.483887,0
64460,0.48584,-0.676758,0.462891,0
64480,0.437012,-0.666992,0.430176,0
64500,0.442383,-0.68457,0.452148,0
64520,0.474121,-0.696777,0.484375,0
64540,0.494629,-0.700195,0.460938,0
64560,0.455078,-0.679688,0.43457,0
64580,0.46875,-0.686523,0.454102,0
64600,0.466797,-0.688477,0.469238,0
64620,0.467773,-0.675781,0.457031,0
64640,0.458008,-0.682129,0.444824,0
64660,0.461426,-0.678223,0.446777,0
64680,0.48291,-0.701172,0.457031,0
64700,0.484375,-0.683594,0.441895,0
64720,0.455078,-0.675293,0.41748,0
64740,0.467285,-0.689453,0.432129,0
64760,0.462402,-0.687988,0.445801,0
64780,0.462891,-0.681641,0.439941,0
64800,0.467773,-0.675781,0.424316,0
64820,0.465332,-0.67627,0.414551,0
64840,0.475098,-0.671387,0.425293,0
64860,0.494629,-0.665039,0.433594,0
64880,0.510254,-0.687988,0.401855,0
64900,0.507324,-0.685059,0.378906,0
64920,0.500488,-0.663086,0.387207,0
64940,0.523438,-0.706543,0.412598,0
64960,0.532227,-0.706055,0.39502,0
64980,0.54834,-0.692383,0.365234,0
65000,0.554688,-0.689453,0.369629,0
65020,0.537598,-0.695801,0.370605,0
65040,0.560059,-0.703125,0.368652,0
65060,0.591797,-0.706055,0.336914,0
65080,0.59375,-0.693359,0.327148,0
65100,0.592773,-0.685059,0.326172,0
65120,0.57373,-0.671387,0.334961,0
65140,0.571289,-0.677734,0.336914,0
65160,0.570801,-0.672363,0.323242,0
65180,0.561035,-0.662598,0.330078,0
65200,0.555176,-0.661621,0.334473,0
65220,0.560547,-0.666992,0.343262,0
65240,0.555664,-0.666016,0.32959,0
65260,0.583984,-0.672363,0.32373,0
65280,0.586914,-0.681641,0.318359,0
65300,0.578125,-0.691895,0.310059,0
65310,0.589355,-0.686035,0.318359,0
65330,0.618652,-0.691895,0.316895,0
65350,0.594238,-0.677734,0.291504,0
65370,0.593262,-0.686523,0.276855,0
65390,0.603516,-0.694824,0.282715,0
65410,0.61084,-0.680176,0.285156,0
65430,0.61377,-0.654297,0.285645,0
65450,0.615723,-0.661133,0.279297,0
65470,0.611816,-0.663574,0.28125,0
65490,0.643066,-0.663574,0.271973,0
65510,0.62207,-0.637695,0.263672,0
65530,0.607422,-0.649414,0.281738,0
65550,0.614746,-0.658691,0.308594,0
65570,0.634766,-0.658203,0.303711,0
65590,0.635254,-0.652344,0.277344,0
65610,0.627441,-0.658691,0.294434,0
65640,0.657227,-0.652832,0.282715,0
65680,0.65918,-0.59668,0.29541,0
65700,0.681641,-0.583008,0.291504,0
65720,0.688965,-0.575684,0.280762,0
65740,0.687988,-0.585938,0.290039,0
65760,0.69043,-0.591309,0.287109,0
65780,0.699219,-0.57373,0.301758,0
65800,0.695801,-0.558105,0.291992,0
65820,0.690918,-0.563965,0.297363,0
65840,0.697754,-0.570312,0.307617,0
65860,0.705078,-0.560547,0.300293,0
65880,0.700684,-0.55957,0.294922,0
65900,0.716309,-0.561035,0.299805,0
65920,0.711426,-0.549316,0.303223,0
65940,0.714355,-0.541504,0.310059,0
65960,0.711426,-0.536621,0.29541,0
65970,0.714355,-0.536133,0.294434,0
65990,0.720703,-0.541992,0.324707,0
66010,0.711914,-0.526367,0.324707,0
66030,0.724121,-0.517578,0.313477,0
66050,0.724609,-0.525879,0.308105,0
66070,0.711426,-0.527344,0.31543,0
66090,0.70166,-0.518555,0.331543,0
66110,0.716309,-0.521484,0.32373,0
66130,0.720215,-0.521973,0.316406,0
66150,0.71875,-0.516113,0.314941,0
66170,0.729492,-0.510254,0.325195,0
66190,0.728027,-0.504883,0.316895,0
66210,0.729492,-0.504883,0.322754,0
66230,0.733398,-0.500488,0.342285,0
66250,0.73877,-0.496582,0.334473,0
66270,0.732422,-0.490723,0.330566,0
66290,0.726562,-0.496094,0.339355,0
66310,0.740723,-0.490234,0.338867,0
66330,0.742188,-0.478516,0.336426,0
66350,0.72998,-0.474121,0.334961,0
66370,0.724609,-0.475098,0.352051,0
66390,0.732422,-0.476074,0.369141,0
66410,0.745605,-0.475586,0.366699,0
66430,0.719238,-0.470215,0.373535,0
66450,0.702148,-0.476562,0.380859,0
66470,0.699707,-0.482422,0.382812,0
66490,0.726074,-0.494629,0.396484,0
66510,0.697266,-0.493652,0.399414,0
66530,0.649902,-0.490723,0.40625,0
66550,0.675293,-0.496582,0.415039,0
66570,0.697754,-0.491211,0.431152,0
66590,0.666016,-0.48584,0.446777,0
66610,0.624023,-0.481934,0.46582,0
66630,0.648438,-0.473145,0.478027,0
66650,0.674805,-0.461426,0.47168,0
66670,0.692871,-0.463379,0.481445,0
66690,0.605469,-0.46582,0.510742,0
66710,0.603516,-0.450684,0.524414,0
66730,0.613281,-0.443848,0.511719,0
66750,0.659668,-0.474121,0.525391,0
66770,0.641113,-0.471191,0.532715,0
