Timestamp, Acceleration x, Acceleration y, Acceleration z, Marker
40,-0.375977,-0.622559,0.64209,0
60,-0.396973,-0.619141,0.630371,0
80,-0.387207,-0.555664,0.634766,0
100,-0.389648,-0.572266,0.649414,0
120,-0.384277,-0.564453,0.645508,0
140,-0.398926,-0.624512,0.663086,0
140,-0.416016,-0.651855,0.635742,0
160,-0.424316,-0.651855,0.60791,0
190,-0.383301,-0.628906,0.60791,0
210,-0.395508,-0.607422,0.660645,0
230,-0.375,-0.629883,0.649902,0
250,-0.355957,-0.632324,0.647461,0
270,-0.400391,-0.624512,0.662598,0
290,-0.373535,-0.574707,0.671387,0
310,-0.388672,-0.632324,0.638184,0
330,-0.466309,-0.536133,0.687988,0
350,-0.38916,-0.556641,0.652832,0
370,-0.452637,-0.539062,0.663574,0
390,-0.348633,-0.51416,0.658203,0
410,-0.430664,-0.557129,0.691895,0
430,-0.352051,-0.612305,0.678711,0
450,-0.438477,-0.474121,0.696289,0
470,-0.462891,-0.413574,0.75,0
490,-0.472168,-0.380371,0.73584,0
510,-0.446777,-0.431152,0.677734,0
530,-0.481934,-0.47998,0.766602,0
550,-0.469727,-0.458008,0.725098,0
570,-0.394043,-0.404785,0.65918,0
590,-0.393555,-0.509277,0.714844,0
610,-0.529785,-0.481934,0.769531,0
630,-0.370117,-0.498535,0.719238,0
650,-0.321777,-0.54834,0.664551,0
670,-0.368652,-0.47168,0.776855,0
690,-0.352539,-0.475586,0.67041,0
710,-0.432129,-0.523438,0.721191,0
730,-0.401367,-0.536621,0.748535,0
750,-0.390625,-0.522949,0.71582,0
770,-0.47998,-0.518066,0.723145,0
790,-0.442383,-0.474609,0.736328,0
810,-0.375488,-0.437988,0.716797,0
830,-0.340332,-0.461426,0.665527,0
850,-0.373047,-0.495605,0.658691,0
870,-0.398438,-0.595703,0.668457,0
870,-0.365234,-0.63916,0.654785,0
890,-0.342285,-0.648438,0.677734,0
910,-0.35791,-0.658691,0.696777,0
930,-0.366211,-0.603516,0.688477,0
950,-0.287109,-0.601562,0.651367,0
970,-0.393555,-0.626953,0.674316,0
990,-0.408203,-0.55957,0.657715,0
1010,-0.359863,-0.527344,0.641602,0
1030,-0.398438,-0.59082,0.64502,0
1050,-0.415039,-0.583008,0.637207,0
1070,-0.424805,-0.59375,0.63916,0
1090,-0.408691,-0.587891,0.633301,0
1110,-0.422852,-0.573242,0.640625,0
1130,-0.427734,-0.559082,0.654297,0
1150,-0.412598,-0.553223,0.645508,0
1170,-0.41748,-0.558105,0.651367,0
1190,-0.40625,-0.565918,0.663574,0
1210,-0.400391,-0.592773,0.665527,0
1230,-0.406738,-0.614258,0.626953,0
1250,-0.420898,-0.618652,0.632324,0
1270,-0.419434,-0.617676,0.619629,0
1290,-0.42627,-0.604004,0.609863,0
1300,-0.404785,-0.605957,0.606934,0
1330,-0.415527,-0.595703,0.589355,0
1350,-0.439941,-0.591797,0.600586,0
1370,-0.447754,-0.604492,0.621582,0
1390,-0.428711,-0.592773,0.624023,0
1400,-0.42334,-0.570312,0.622559,0
1420,-0.431641,-0.571289,0.635742,0
1440,-0.418457,-0.605469,0.631836,0
1460,-0.41748,-0.617676,0.628906,0
1480,-0.422852,-0.619629,0.619629,0
1500,-0.426758,-0.612305,0.618164,0
1520,-0.420898,-0.605957,0.635254,0
1540,-0.424316,-0.61377,0.631348,0
1560,-0.429199,-0.615234,0.648438,0
1580,-0.41748,-0.59375,0.641602,0
1600,-0.415039,-0.583496,0.627441,0
1620,-0.427246,-0.578125,0.62207,0
1640,-0.433594,-0.577637,0.640625,0
1660,-0.434082,-0.570801,0.63916,0
1680,-0.423828,-0.569336,0.633789,0
1700,-0.42627,-0.573242,0.635254,0
1720,-0.431152,-0.587891,0.623047,0
1740,-0.436035,-0.588379,0.64502,0
1760,-0.442383,-0.581543,0.64502,0
1780,-0.425781,-0.577637,0.630371,0
1800,-0.422852,-0.583984,0.624023,0
1820,-0.434082,-0.597168,0.636719,0
1840,-0.43457,-0.594238,0.640625,0
1860,-0.429199,-0.59375,0.62793,0
1880,-0.429688,-0.57373,0.609863,0
1900,-0.437988,-0.572266,0.617188,0
1920,-0.442383,-0.578613,0.622559,0
1940,-0.450684,-0.591797,0.631348,0
1960,-0.431152,-0.583984,0.643066,0
1980,-0.42334,-0.581055,0.651855,0
2000,-0.423828,-0.579102,0.654785,0
2020,-0.427734,-0.580078,0.655762,0
2040,-0.419434,-0.577637,0.628906,0
2060,-0.412109,-0.581543,0.632324,0
2080,-0.415527,-0.575684,0.62793,0
2100,-0.419922,-0.583008,0.641113,0
2120,-0.400879,-0.591797,0.648438,0
2140,-0.39502,-0.597168,0.665527,0
2160,-0.388672,-0.608887,0.679199,0
2180,-0.401367,-0.598633,0.668945,0
2200,-0.392578,-0.605957,0.64502,0
2220,-0.401855,-0.60498,0.649414,0
2240,-0.404297,-0.584473,0.651367,0
2260,-0.416504,-0.588867,0.652344,0
2280,-0.433594,-0.583496,0.644531,0
2300,-0.444336,-0.583984,0.640625,0
2320,-0.424316,-0.562012,0.608887,0
2340,-0.441406,-0.561523,0.611816,0
2360,-0.440918,-0.579102,0.633789,0
2380,-0.449219,-0.585449,0.620117,0
2400,-0.442871,-0.581543,0.619141,0
2420,-0.446289,-0.585449,0.626465,0
2440,-0.440918,-0.599609,0.621582,0
2460,-0.442383,-0.614258,0.615723,0
2480,-0.438477,-0.622559,0.621094,0
2500,-0.427734,-0.615234,0.615723,0
2520,-0.416504,-0.618164,0.609375,0
2540,-0.410645,-0.619629,0.629883,0
2560,-0.417969,-0.606934,0.640625,0
2580,-0.430664,-0.600098,0.626465,0
2600,-0.419922,-0.589355,0.599609,0
2620,-0.424316,-0.597656,0.609863,0
2640,-0.435059,-0.610352,0.621582,0
2660,-0.450195,-0.610352,0.623535,0
2680,-0.445312,-0.591797,0.613281,0
2700,-0.43457,-0.599609,0.614258,0
2720,-0.440918,-0.604492,0.615234,0
2740,-0.429199,-0.61377,0.608398,0
2760,-0.428711,-0.622559,0.609863,0
2780,-0.428223,-0.616211,0.618652,0
2800,-0.412598,-0.615723,0.604492,0
2820,-0.411621,-0.612305,0.600098,0
2840,-0.409668,-0.607422,0.610352,0
2860,-0.418457,-0.615234,0.62207,0
2880,-0.430664,-0.608887,0.619141,0
2900,-0.430176,-0.616211,0.61084,0
2920,-0.437012,-0.614746,0.61377,0
2940,-0.436035,-0.612793,0.609375,0
2960,-0.435059,-0.608887,0.607422,0
2980,-0.442383,-0.612793,0.608887,0
3000,-0.441406,-0.606934,0.587402,0
3020,-0.431641,-0.609375,0.605469,0
3040,-0.432617,-0.598145,0.618164,0
3060,-0.43457,-0.600098,0.616699,0
3080,-0.437988,-0.603027,0.625,0
3100,-0.437988,-0.603516,0.620605,0
3120,-0.443359,-0.612793,0.629395,0
3140,-0.437012,-0.607422,0.619141,0
3160,-0.442383,-0.606934,0.611816,0
3180,-0.433594,-0.602051,0.608398,0
3200,-0.436035,-0.597168,0.611328,0
3220,-0.429199,-0.592285,0.611328,0
3240,-0.42334,-0.588867,0.630371,0
3260,-0.430176,-0.597656,0.620605,0
3280,-0.427246,-0.601074,0.632324,0
3300,-0.432617,-0.604004,0.630859,0
3320,-0.428711,-0.602539,0.638184,0
3340,-0.426758,-0.607422,0.628906,0
3360,-0.433105,-0.613281,0.619629,0
3380,-0.430664,-0.614258,0.613281,0
3400,-0.435059,-0.594727,0.628418,0
3420,-0.451172,-0.582031,0.628906,0
3440,-0.450195,-0.59375,0.618164,0
3460,-0.429199,-0.603027,0.606445,0
3480,-0.422852,-0.61377,0.600098,0
3500,-0.419922,-0.613281,0.607422,0
3520,-0.418945,-0.608398,0.613281,0
3540,-0.420898,-0.600586,0.609375,0
3560,-0.419434,-0.603027,0.61377,0
3580,-0.428711,-0.59668,0.618164,0
3600,-0.420898,-0.593262,0.619141,0
3620,-0.414062,-0.594238,0.614746,0
3640,-0.412598,-0.588379,0.607422,0
3660,-0.410645,-0.589844,0.594727,0
3680,-0.409668,-0.599609,0.599121,0
3700,-0.40918,-0.612793,0.616211,0
3720,-0.412109,-0.611328,0.628906,0
3740,-0.40918,-0.615234,0.644531,0
3760,-0.416992,-0.594238,0.648438,0
3780,-0.418945,-0.575684,0.655762,0
3800,-0.42627,-0.56543,0.662598,0
3820,-0.42627,-0.564941,0.650391,0
3840,-0.433105,-0.578125,0.66748,0
3860,-0.422363,-0.562012,0.661133,0
3880,-0.416016,-0.561035,0.673828,0
3900,-0.40625,-0.558594,0.67334,0
3920,-0.390137,-0.571777,0.655762,0
3940,-0.380371,-0.582031,0.67334,0
3960,-0.366211,-0.587402,0.691406,0
3980,-0.362793,-0.589355,0.689941,0
4000,-0.364746,-0.574219,0.700684,0
4020,-0.376465,-0.570801,0.688965,0
4040,-0.380859,-0.555664,0.68457,0
4060,-0.379395,-0.547363,0.656738,0
4080,-0.38916,-0.536133,0.662109,0
4100,-0.411621,-0.540527,0.671875,0
4120,-0.415039,-0.538086,0.676758,0
4140,-0.426758,-0.539551,0.67041,0
4160,-0.438965,-0.537109,0.69043,0
4180,-0.445801,-0.538574,0.692383,0
4200,-0.435547,-0.536133,0.678711,0
4220,-0.422852,-0.549316,0.666992,0
4240,-0.408203,-0.575195,0.668945,0
4260,-0.439941,-0.562012,0.651367,0
4280,-0.382324,-0.592773,0.664551,0
4300,-0.384277,-0.564453,0.646973,0
4320,-0.383301,-0.554199,0.669434,0
4340,-0.347168,-0.558594,0.687988,0
4360,-0.36377,-0.548828,0.67334,0
4380,-0.377441,-0.541992,0.678711,0
4400,-0.37207,-0.55127,0.675293,0
4420,-0.398438,-0.567383,0.671875,0
4440,-0.395508,-0.585938,0.685059,0
4460,-0.391113,-0.597656,0.740234,0
4480,-0.381348,-0.580566,0.746094,0
4500,-0.391602,-0.598145,0.753418,0
4520,-0.39209,-0.598145,0.723633,0
4540,-0.362305,-0.553223,0.714355,0
4560,-0.386719,-0.509766,0.706543,0
4580,-0.390625,-0.447754,0.643066,0
4600,-0.40332,-0.428711,0.605957,0
4620,-0.430176,-0.436035,0.620117,0
4640,-0.472168,-0.458984,0.636719,0
4660,-0.483398,-0.477539,0.654297,0
4680,-0.472168,-0.513184,0.665039,0
4700,-0.472656,-0.527344,0.663086,0
4720,-0.436035,-0.529785,0.658203,0
4740,-0.438477,-0.550293,0.710938,0
4760,-0.443359,-0.539551,0.717773,0
4780,-0.417969,-0.54834,0.692383,0
4790,-0.405762,-0.560547,0.666016,0
4810,-0.376953,-0.55957,0.679688,0
4830,-0.363281,-0.515625,0.699707,0
4850,-0.366699,-0.494141,0.693359,0
4870,-0.367188,-0.485352,0.67041,0
4890,-0.370605,-0.495117,0.689941,0
4910,-0.372559,-0.557617,0.73584,0
4930,-0.411133,-0.558594,0.73291,0
4950,-0.346191,-0.535645,0.716309,0
4970,-0.339355,-0.525391,0.744141,0
4990,-0.368164,-0.484863,0.731445,0
5010,-0.369141,-0.493164,0.713379,0
5030,-0.388184,-0.522949,0.700195,0
5050,-0.415527,-0.556152,0.68457,0
5070,-0.424316,-0.536621,0.680176,0
5090,-0.45166,-0.519043,0.645996,0
5110,-0.433594,-0.489746,0.63916,0
5130,-0.44873,-0.513672,0.670898,0
5150,-0.445801,-0.461914,0.667969,0
5170,-0.442871,-0.42334,0.67334,0
5190,-0.430176,-0.447754,0.740234,0
5210,-0.467773,-0.447266,0.772461,0
5230,-0.471191,-0.433594,0.757324,0
5250,-0.434082,-0.431152,0.787109,0
5270,-0.401367,-0.44043,0.844238,0
5290,-0.398926,-0.45752,0.894531,0
5310,-0.433594,-0.438477,0.95459,0
5330,-0.450195,-0.444336,1.02246,0
5350,-0.36084,-0.508789,0.897949,0
5370,-0.345215,-0.42041,0.737305,0
5390,-0.266113,-0.345703,0.566895,0
5410,-0.19043,-0.221191,0.385742,0
5430,-0.28418,-0.117188,0.504395,0
5450,-0.398926,-0.384766,0.597168,0
5470,-0.391602,-0.704102,0.650879,0
5490,-0.376953,-0.707031,0.668945,0
5510,-0.428711,-0.658691,0.755371,0
5530,-0.469238,-0.583984,0.821777,0
5550,-0.464355,-0.505859,0.924316,0
5570,-0.401855,-0.456543,0.888184,0
5590,-0.42334,-0.336426,0.885742,0
5610,-0.492188,-0.37793,0.895996,0
5630,-0.458496,-0.368164,0.835938,0
5650,-0.409668,-0.242676,0.780762,0
5670,-0.294434,-0.249023,0.645508,0
5690,-0.258789,-0.419922,0.602051,0
5710,-0.289551,-0.543457,0.605469,0
5730,-0.319824,-0.65625,0.623535,0
5750,-0.327148,-0.614258,0.712402,0
5770,-0.332031,-0.52832,0.750488,0
5790,-0.294434,-0.460938,0.760742,0
5810,-0.247559,-0.506348,0.837402,0
5830,-0.311523,-0.503906,0.82373,0
5850,-0.369141,-0.428711,0.81543,0
5870,-0.417969,-0.373047,0.804688,0
5890,-0.462402,-0.351074,0.786133,0
5910,-0.484863,-0.408203,0.745117,0
5930,-0.505371,-0.455566,0.681152,0
5950,-0.482422,-0.456055,0.650391,0
5970,-0.446289,-0.465332,0.61084,0
5990,-0.396484,-0.51123,0.628906,0
6010,-0.370605,-0.541504,0.676758,0
6030,-0.36084,-0.524902,0.703613,0
6050,-0.368164,-0.488281,0.721191,0
6070,-0.385254,-0.478027,0.727539,0
6090,-0.39502,-0.453125,0.743164,0
6110,-0.390625,-0.436035,0.743652,0
6130,-0.395996,-0.429688,0.741211,0
6150,-0.406738,-0.441406,0.734863,0
6170,-0.405762,-0.446777,0.745605,0
6190,-0.397949,-0.432129,0.754395,0
6210,-0.386719,-0.452637,0.736816,0
6230,-0.404297,-0.469727,0.73291,0
6250,-0.446777,-0.474609,0.76709,0
6270,-0.428711,-0.45752,0.76416,0
6290,-0.38623,-0.442383,0.731445,0
6310,-0.372559,-0.410156,0.731445,0
6330,-0.405762,-0.408203,0.752441,0
6350,-0.406738,-0.444824,0.757812,0
6370,-0.38916,-0.491211,0.75,0
6390,-0.39209,-0.522949,0.72998,0
6410,-0.379883,-0.507324,0.69043,0
6430,-0.339355,-0.498047,0.628418,0
6450,-0.342285,-0.443359,0.608887,0
6470,-0.379883,-0.467285,0.644531,0
6490,-0.422852,-0.538086,0.666016,0
6510,-0.481934,-0.570801,0.703125,0
6530,-0.422852,-0.567383,0.70459,0
6550,-0.343262,-0.496094,0.694336,0
6570,-0.335449,-0.471191,0.734863,0
6590,-0.339844,-0.540527,0.795898,0
6610,-0.353516,-0.589355,0.75293,0
6630,-0.369141,-0.577637,0.768066,0
6650,-0.348633,-0.557617,0.734375,0
6670,-0.336914,-0.488281,0.71582,0
6690,-0.321777,-0.480469,0.706543,0
6710,-0.317871,-0.493164,0.694824,0
6730,-0.328613,-0.483887,0.698242,0
6750,-0.356445,-0.486816,0.742188,0
6760,-0.347168,-0.477539,0.755371,0
6780,-0.356445,-0.48291,0.731445,0
6800,-0.378418,-0.478027,0.72168,0
6820,-0.406738,-0.48291,0.758301,0
6840,-0.421875,-0.499023,0.749512,0
6850,-0.412109,-0.498535,0.744141,0
6870,-0.388672,-0.505371,0.737305,0
6890,-0.37793,-0.503418,0.73584,0
6910,-0.36084,-0.501465,0.71582,0
6930,-0.36084,-0.511719,0.716309,0
6950,-0.358398,-0.522949,0.723633,0
6970,-0.364746,-0.511719,0.717773,0
6990,-0.358887,-0.475586,0.703613,0
7010,-0.354004,-0.481934,0.712402,0
7030,-0.347656,-0.495117,0.729004,0
7050,-0.348633,-0.498047,0.735352,0
7070,-0.354492,-0.501465,0.743164,0
7090,-0.364746,-0.491699,0.742188,0
7110,-0.379395,-0.478516,0.748047,0
7130,-0.391113,-0.49707,0.741211,0
7150,-0.400391,-0.494629,0.734863,0
7170,-0.388184,-0.503906,0.738281,0
7190,-0.384766,-0.494629,0.727051,0
7210,-0.367188,-0.478027,0.712891,0
7230,-0.362305,-0.484863,0.723633,0
7250,-0.342773,-0.491211,0.732422,0
7270,-0.334473,-0.515625,0.725586,0
7290,-0.340332,-0.52002,0.727539,0
7310,-0.341309,-0.521484,0.71582,0
7330,-0.339844,-0.520508,0.714355,0
7350,-0.359375,-0.520508,0.710938,0
7370,-0.383301,-0.492676,0.714844,0
7390,-0.385254,-0.477539,0.713379,0
7410,-0.394043,-0.490234,0.708496,0
7430,-0.398438,-0.501465,0.710938,0
7450,-0.410156,-0.508301,0.717773,0
7470,-0.407715,-0.493164,0.712891,0
7490,-0.394043,-0.499023,0.708984,0
7510,-0.38623,-0.497559,0.708008,0
7530,-0.376953,-0.509766,0.713867,0
7550,-0.353516,-0.49707,0.723145,0
7570,-0.345215,-0.498535,0.737793,0
7590,-0.347168,-0.494629,0.748047,0
7610,-0.327637,-0.499023,0.746582,0
7630,-0.304688,-0.502441,0.755371,0
7650,-0.31543,-0.48584,0.76709,0
7670,-0.322754,-0.470703,0.758789,0
7690,-0.319336,-0.464355,0.742188,0
7710,-0.324219,-0.46875,0.740723,0
7730,-0.341309,-0.470215,0.766113,0
7750,-0.359375,-0.48291,0.764648,0
7770,-0.377441,-0.457031,0.754883,0
7790,-0.394531,-0.467285,0.759277,0
7810,-0.396484,-0.47168,0.745605,0
7830,-0.400879,-0.479492,0.728516,0
7850,-0.418457,-0.500488,0.725098,0
7870,-0.416016,-0.503418,0.704102,0
7890,-0.417969,-0.495117,0.703613,0
7910,-0.401367,-0.498047,0.702148,0
7930,-0.387207,-0.498047,0.718262,0
7950,-0.384277,-0.503418,0.702637,0
7970,-0.364746,-0.512695,0.712402,0
7990,-0.360352,-0.519043,0.714355,0
8010,-0.355469,-0.50293,0.71582,0
8030,-0.361328,-0.507324,0.705566,0
8050,-0.367188,-0.513184,0.703613,0
8070,-0.379395,-0.522949,0.700195,0
8090,-0.386719,-0.528809,0.69043,0
8110,-0.390137,-0.526367,0.697266,0
8130,-0.400879,-0.519531,0.710938,0
8150,-0.396973,-0.513672,0.700195,0
8170,-0.395508,-0.522461,0.699707,0
8190,-0.399902,-0.516113,0.702637,0
8210,-0.405273,-0.515625,0.695312,0
8230,-0.404785,-0.502441,0.689941,0
8250,-0.39502,-0.509277,0.681152,0
8270,-0.394043,-0.506836,0.690918,0
8290,-0.379395,-0.507324,0.677734,0
8310,-0.378906,-0.51709,0.688965,0
8330,-0.383789,-0.523926,0.729492,0
8350,-0.392578,-0.522949,0.709961,0
8370,-0.390137,-0.505859,0.699707,0
8390,-0.388184,-0.515625,0.712402,0
8410,-0.376465,-0.509766,0.730957,0
8430,-0.367188,-0.508789,0.725586,0
8450,-0.365723,-0.49707,0.736328,0
8470,-0.369629,-0.476562,0.73584,0
8490,-0.358887,-0.486328,0.712891,0
8510,-0.370605,-0.50293,0.71875,0
8530,-0.376953,-0.492676,0.716797,0
8550,-0.371582,-0.481934,0.702637,0
8570,-0.380859,-0.489746,0.700684,0
8590,-0.377441,-0.495117,0.723145,0
8610,-0.393555,-0.501465,0.731445,0
8630,-0.404785,-0.495605,0.739746,0
8650,-0.398926,-0.506836,0.728027,0
8670,-0.380859,-0.508789,0.736816,0
8690,-0.36377,-0.503906,0.751953,0
8710,-0.362305,-0.485352,0.751953,0
8730,-0.371582,-0.466797,0.729492,0
8750,-0.378418,-0.484863,0.723633,0
8770,-0.387695,-0.491699,0.72998,0
8790,-0.370605,-0.482422,0.716309,0
8810,-0.373047,-0.467773,0.713867,0
8830,-0.376953,-0.464844,0.730469,0
8850,-0.370605,-0.486816,0.737305,0
8870,-0.365234,-0.51123,0.720215,0
8890,-0.378906,-0.53125,0.716309,0
8910,-0.391602,-0.539551,0.704102,0
8930,-0.382812,-0.537109,0.713867,0
8950,-0.388672,-0.528809,0.713867,0
8970,-0.399414,-0.515137,0.703125,0
8990,-0.39209,-0.507324,0.697266,0
9010,-0.404297,-0.512695,0.701172,0
9030,-0.410156,-0.501465,0.694336,0
9050,-0.406738,-0.487793,0.677246,0
9070,-0.411621,-0.500977,0.674805,0
9090,-0.403809,-0.506836,0.687012,0
9110,-0.407227,-0.522461,0.698242,0
9130,-0.394043,-0.51416,0.691406,0
9150,-0.393555,-0.515625,0.706055,0
9170,-0.398926,-0.543945,0.703125,0
9190,-0.394531,-0.554688,0.697266,0
9210,-0.397461,-0.550293,0.697266,0
9230,-0.400879,-0.543457,0.687012,0
9250,-0.402832,-0.537109,0.686523,0
9270,-0.407227,-0.511719,0.687988,0
9290,-0.411621,-0.492676,0.688477,0
9310,-0.407227,-0.475586,0.690918,0
9330,-0.403809,-0.479492,0.69873,0
9350,-0.398438,-0.489746,0.703125,0
9370,-0.387695,-0.503418,0.685547,0
9390,-0.381348,-0.529297,0.685059,0
9410,-0.381836,-0.538086,0.69873,0
9430,-0.381836,-0.561523,0.724609,0
9450,-0.365234,-0.540527,0.708496,0
9470,-0.347656,-0.528809,0.722656,0
9490,-0.34375,-0.5,0.713379,0
9510,-0.364258,-0.513184,0.736328,0
9530,-0.374512,-0.506348,0.734863,0
9550,-0.379883,-0.5,0.722168,0
9570,-0.38623,-0.491211,0.714355,0
9590,-0.386719,-0.488281,0.722168,0
9610,-0.382812,-0.485352,0.719238,0
9630,-0.388672,-0.486328,0.72998,0
9650,-0.378906,-0.490723,0.720703,0
9670,-0.366211,-0.490234,0.731445,0
9690,-0.362793,-0.507812,0.72998,0
9710,-0.369141,-0.506348,0.734375,0
9730,-0.362793,-0.510254,0.725098,0
9750,-0.370605,-0.506348,0.716797,0
9770,-0.364258,-0.515137,0.71582,0
9790,-0.368164,-0.507324,0.72168,0
9810,-0.360352,-0.5,0.72168,0
9830,-0.369141,-0.495605,0.728516,0
9850,-0.375977,-0.494629,0.740234,0
9870,-0.369141,-0.491699,0.719238,0
9890,-0.372559,-0.494629,0.722168,0
9910,-0.371582,-0.503906,0.721191,0
9930,-0.380859,-0.519043,0.72168,0
9950,-0.373047,-0.522949,0.73877,0
9970,-0.358398,-0.513672,0.728516,0
9990,-0.345703,-0.499023,0.73291,0
10010,-0.349609,-0.507812,0.73877,0
10030,-0.35498,-0.503906,0.717773,0
10050,-0.370117,-0.498535,0.697754,0
10070,-0.36377,-0.472656,0.688477,0
10090,-0.38623,-0.483887,0.691406,0
10110,-0.376953,-0.499512,0.686523,0
10130,-0.386719,-0.52002,0.702148,0
10150,-0.38623,-0.508301,0.712891,0
10160,-0.391113,-0.498535,0.720215,0
10180,-0.39502,-0.504883,0.727539,0
10200,-0.391113,-0.494141,0.733887,0
10220,-0.383789,-0.500977,0.72168,0
10240,-0.366211,-0.513672,0.70752,0
10260,-0.363281,-0.549316,0.727051,0
10280,-0.369629,-0.541016,0.762695,0
10300,-0.350586,-0.507324,0.741699,0
10320,-0.340332,-0.507812,0.745117,0
10340,-0.374023,-0.52002,0.751465,0
10360,-0.379883,-0.502441,0.715332,0
10380,-0.376465,-0.473145,0.67334,0
10400,-0.39209,-0.464355,0.654297,0
10420,-0.395996,-0.480957,0.63623,0
10440,-0.393066,-0.49707,0.665039,0
10460,-0.388672,-0.489746,0.692383,0
10480,-0.398926,-0.51416,0.780762,0
10500,-0.397461,-0.511719,0.745117,0
10520,-0.357422,-0.522461,0.730469,0
10540,-0.352539,-0.550781,0.759766,0
10560,-0.339355,-0.546387,0.773438,0
10580,-0.362305,-0.530762,0.760742,0
10600,-0.338379,-0.500488,0.731445,0
10620,-0.345703,-0.51416,0.708496,0
10640,-0.369629,-0.518555,0.692871,0
10660,-0.38623,-0.494629,0.670898,0
10680,-0.388184,-0.476562,0.635254,0
10700,-0.410645,-0.467773,0.626953,0
10720,-0.410156,-0.491211,0.651367,0
10740,-0.40332,-0.501465,0.694336,0
10760,-0.409668,-0.519043,0.724121,0
10780,-0.402832,-0.547852,0.76123,0
10800,-0.382812,-0.552246,0.729004,0
10820,-0.359863,-0.526367,0.740234,0
10840,-0.352051,-0.52002,0.762695,0
10860,-0.34082,-0.509766,0.755859,0
10880,-0.336426,-0.496094,0.739746,0
10900,-0.344727,-0.505859,0.714355,0
10920,-0.355957,-0.511719,0.695312,0
10940,-0.373047,-0.503906,0.693359,0
10960,-0.395996,-0.503906,0.703613,0
10980,-0.398926,-0.504395,0.722656,0
11000,-0.407715,-0.501953,0.716309,0
11020,-0.397461,-0.510254,0.712891,0
11040,-0.390137,-0.507812,0.728027,0
11060,-0.391602,-0.520508,0.72998,0
11080,-0.400391,-0.536133,0.712891,0
11100,-0.381348,-0.529785,0.692383,0
11120,-0.376465,-0.521973,0.698242,0
11140,-0.371582,-0.515137,0.71582,0
11160,-0.368164,-0.513672,0.711426,0
11180,-0.367188,-0.506348,0.689941,0
11200,-0.369629,-0.506348,0.691406,0
11220,-0.371094,-0.49707,0.692871,0
11240,-0.376465,-0.505859,0.709473,0
11260,-0.380859,-0.508301,0.711914,0
11280,-0.375488,-0.509277,0.722656,0
11300,-0.377441,-0.530273,0.723145,0
11320,-0.387207,-0.524414,0.728027,0
11340,-0.389648,-0.516602,0.724609,0
11360,-0.383789,-0.508301,0.711914,0
11380,-0.375488,-0.52002,0.707031,0
11400,-0.372559,-0.517578,0.738281,0
11420,-0.37793,-0.492188,0.739746,0
11440,-0.373535,-0.515625,0.733398,0
11460,-0.361816,-0.51123,0.702148,0
11480,-0.367676,-0.512695,0.692383,0
11500,-0.364258,-0.492676,0.681152,0
11520,-0.367188,-0.479492,0.686035,0
11540,-0.380859,-0.484375,0.683105,0
11560,-0.383301,-0.510254,0.715332,0
11580,-0.428711,-0.547363,0.780762,0
11600,-0.385742,-0.529785,0.723145,0
11620,-0.394043,-0.544434,0.721191,0
11640,-0.375488,-0.560059,0.741211,0
11660,-0.381836,-0.525391,0.717285,0
11680,-0.351562,-0.484375,0.674805,0
11700,-0.350586,-0.474121,0.643066,0
11720,-0.36084,-0.495117,0.644531,0
11740,-0.376953,-0.509766,0.659668,0
11760,-0.387695,-0.498535,0.67334,0
11780,-0.401367,-0.488281,0.705566,0
11800,-0.418457,-0.523438,0.732422,0
11820,-0.41748,-0.540039,0.71582,0
11840,-0.414062,-0.532227,0.724121,0
11860,-0.42041,-0.527344,0.726074,0
11880,-0.39502,-0.52002,0.716309,0
11900,-0.378906,-0.503906,0.72168,0
11920,-0.371094,-0.499023,0.72168,0
11940,-0.373535,-0.516113,0.72168,0
11960,-0.363281,-0.522461,0.708008,0
11980,-0.349121,-0.529785,0.710449,0
12000,-0.346191,-0.506348,0.717285,0
12020,-0.343262,-0.501465,0.728516,0
12040,-0.348633,-0.498535,0.736816,0
12060,-0.354492,-0.506348,0.739746,0
12080,-0.356934,-0.498047,0.730957,0
12100,-0.364258,-0.496582,0.726074,0
12120,-0.366211,-0.500977,0.730469,0
12140,-0.364258,-0.511719,0.716797,0
12150,-0.371582,-0.516113,0.714844,0
12170,-0.387695,-0.515625,0.704102,0
12190,-0.383789,-0.529297,0.693359,0
12210,-0.407715,-0.504883,0.687988,0
12230,-0.411621,-0.484863,0.698242,0
12250,-0.431152,-0.48291,0.717773,0
12270,-0.447266,-0.479004,0.744141,0
12290,-0.460938,-0.482422,0.749512,0
12310,-0.428223,-0.489746,0.705566,0
12330,-0.376953,-0.488281,0.695801,0
12350,-0.32959,-0.499023,0.796387,0
12370,-0.269531,-0.522949,0.8125,0
12390,-0.21875,-0.514648,0.812988,0
12410,-0.253906,-0.507812,0.814453,0
12430,-0.210938,-0.519531,0.859863,0
12450,-0.132812,-0.539062,0.890625,0
12470,-0.0844727,-0.597656,0.879395,0
12490,-0.0405273,-0.603516,0.866211,0
12510,-0.0893555,-0.541504,0.822266,0
12530,-0.134277,-0.476562,0.853516,0
12550,-0.105469,-0.520996,0.84668,0
12570,-0.108398,-0.550293,0.859375,0
12590,-0.113281,-0.552734,0.830078,0
12610,-0.0957031,-0.535645,0.782715,0
12630,-0.0947266,-0.53418,0.802246,0
12650,-0.0986328,-0.502441,0.804199,0
12670,-0.0913086,-0.500488,0.773438,0
12690,-0.065918,-0.527832,0.75,0
12710,-0.0249023,-0.539062,0.756348,0
12730,-0.00390625,-0.515625,0.716797,0
12750,0.000488281,-0.524414,0.630371,0
12770,0.0273438,-0.536621,0.620117,0
12790,0.0283203,-0.522461,0.682129,0
12810,0.0185547,-0.543945,0.650879,0
12830,-0.0322266,-0.581543,0.593262,0
12850,-0.0722656,-0.645996,0.681152,0
12870,-0.0288086,-0.678711,0.658203,0
12890,-0.0688477,-0.603516,0.711914,0
12910,-0.0566406,-0.572754,0.680176,0
12930,-0.0351562,-0.654297,0.625488,0
12950,-0.0683594,-0.70166,0.631348,0
12970,-0.0361328,-0.754395,0.652832,0
12990,-0.0356445,-0.766113,0.661621,0
13010,-0.0151367,-0.742188,0.679199,0
13030,0.0126953,-0.724121,0.715332,0
13050,0.0722656,-0.781738,0.642578,0
13070,0.0742188,-0.829102,0.614746,0
13090,0.0737305,-0.774414,0.617676,0
13110,0.0878906,-0.70752,0.638184,0
13130,0.10498,-0.696777,0.626465,0
13150,0.104004,-0.706055,0.63623,0
13170,0.108398,-0.751465,0.514648,0
13190,0.109375,-0.682129,0.584473,0
13210,0.121582,-0.618652,0.621094,0
13230,0.148438,-0.619141,0.620117,0
13250,0.111328,-0.652832,0.603516,0
13270,0.137207,-0.77832,0.606934,0
13290,0.216309,-0.834473,0.606445,0
13310,0.228027,-0.758789,0.475098,0
13330,0.188965,-0.771484,0.52002,0
13350,0.208008,-0.851562,0.537109,0
13370,0.208496,-0.818359,0.48584,0
13370,0.208496,-0.818359,0.48584,0
13380,0.109375,-0.682129,0.584473,0
13410,0.236816,-0.821289,0.456055,0
13430,0.248047,-0.848633,0.412598,0
13450,0.187988,-0.831055,0.407227,0
13470,0.150391,-0.854492,0.495605,0
13490,0.194336,-0.859375,0.45459,0
13510,0.300293,-0.847656,0.392578,0
13530,0.220703,-0.80957,0.379395,0
13550,0.137695,-0.762207,0.462402,0
13570,0.143555,-0.745605,0.469238,0
13590,0.188477,-0.845215,0.355957,0
13610,0.175781,-0.881348,0.401855,0
13630,0.171387,-0.859375,0.406738,0
13650,0.157715,-0.787109,0.321777,0
13670,0.169434,-0.844238,0.347168,0
13690,0.183594,-0.864258,0.398438,0
13710,0.156738,-0.872559,0.36377,0
13730,0.178711,-0.852051,0.347656,0
13750,0.183594,-0.842285,0.369629,0
13770,0.197754,-0.869141,0.343262,0
13790,0.158691,-0.873047,0.33252,0
13810,0.152344,-0.849609,0.36084,0
13830,0.206055,-0.858887,0.312012,0
13850,0.229492,-0.898438,0.319824,0
13870,0.199707,-0.81543,0.353027,0
13890,0.251465,-0.847656,0.318848,0
13910,0.268555,-0.882812,0.354492,0
13930,0.280762,-0.805176,0.366211,0
13950,0.320312,-0.805176,0.327148,0
13970,0.366211,-0.811035,0.27002,0
13990,0.317871,-0.828125,0.265625,0
14010,0.312988,-0.811523,0.298828,0
14030,0.269531,-0.875977,0.339355,0
14050,0.23877,-0.887695,0.263184,0
14070,0.201172,-0.935059,0.263184,0
14090,0.246094,-0.901367,0.29248,0
14110,0.219727,-0.902832,0.292969,0
14130,0.224609,-0.897461,0.285156,0
14150,0.251953,-0.936523,0.248047,0
14170,0.255859,-0.943848,0.266113,0
14190,0.242676,-0.936035,0.272461,0
14210,0.266113,-0.935547,0.267578,0
14230,0.291992,-0.915039,0.26416,0
14250,0.264648,-0.911133,0.262695,0
14270,0.249023,-0.935059,0.251953,0
14290,0.23584,-0.912598,0.243164,0
14310,0.240234,-0.874023,0.239258,0
14330,0.235352,-0.895996,0.270996,0
14350,0.231445,-0.899902,0.26123,0
14370,0.208984,-0.918457,0.242188,0
14390,0.218262,-0.930176,0.223633,0
14410,0.209961,-0.893555,0.251953,0
14430,0.185059,-0.872559,0.241211,0
14450,0.202637,-0.888184,0.224609,0
14470,0.213867,-0.918457,0.246582,0
14490,0.21875,-0.912109,0.254395,0
14510,0.204102,-0.921875,0.225586,0
14530,0.210938,-0.933594,0.241211,0
14550,0.205566,-0.913574,0.262695,0
14570,0.203125,-0.89502,0.254395,0
14590,0.223633,-0.907227,0.255859,0
14610,0.218262,-0.894043,0.257324,0
14630,0.220215,-0.912109,0.249023,0
14650,0.238281,-0.93457,0.255371,0
14670,0.21875,-0.908203,0.252441,0
14690,0.209473,-0.895508,0.244141,0
14710,0.240723,-0.893066,0.253418,0
14730,0.239258,-0.905762,0.270996,2000
14750,0.220703,-0.914062,0.250977,0
14770,0.22998,-0.916016,0.24707,0
14790,0.235352,-0.895508,0.248535,0
14810,0.238281,-0.889648,0.258301,0
14830,0.242188,-0.933594,0.241211,0
14850,0.240234,-0.952148,0.262207,0
14870,0.222168,-0.912109,0.270996,0
14890,0.210938,-0.897949,0.25293,0
14910,0.235352,-0.922363,0.248047,0
14930,0.239746,-0.90918,0.256348,0
14950,0.201172,-0.912598,0.248047,0
14970,0.20752,-0.921387,0.237305,0
14990,0.204102,-0.921875,0.234375,0
15010,0.19873,-0.897461,0.241211,0
15030,0.192871,-0.887207,0.24707,0
15050,0.209473,-0.90918,0.239258,0
15070,0.208008,-0.902344,0.253906,0
15090,0.202148,-0.909668,0.248535,0
15110,0.226074,-0.917969,0.248535,0
15130,0.226074,-0.91748,0.248535,0
15150,0.217285,-0.903809,0.244141,0
15170,0.222656,-0.921875,0.238281,0
15190,0.224609,-0.905762,0.254395,0
15210,0.205566,-0.888184,0.239258,0
15230,0.208984,-0.929688,0.223633,0
15250,0.234863,-0.902832,0.24707,0
15270,0.226562,-0.877441,0.249023,0
15290,0.236816,-0.900879,0.229492,0
15310,0.268555,-0.912109,0.216797,0
15330,0.266113,-0.899902,0.23291,0
15350,0.249512,-0.899414,0.23584,0
15370,0.25,-0.929688,0.212402,0
15390,0.277832,-0.910645,0.235352,0
15410,0.274414,-0.878906,0.254395,0
15430,0.286133,-0.895996,0.227051,0
15450,0.329102,-0.940918,0.212402,0
15470,0.333008,-0.925293,0.226074,0
15490,0.299316,-0.889648,0.229492,0
15510,0.309082,-0.876465,0.205566,0
15530,0.331543,-0.908203,0.209961,0
15550,0.338379,-0.891113,0.239258,0
15560,0.336914,-0.875488,0.21875,0
15580,0.339844,-0.884277,0.208008,0
15600,0.352051,-0.876465,0.214355,0
15620,0.342773,-0.858398,0.221191,0
15640,0.34375,-0.863281,0.224121,0
15660,0.359863,-0.892578,0.216309,0
15680,0.359375,-0.861328,0.210449,0
15700,0.354004,-0.860352,0.208984,0
15720,0.36084,-0.89209,0.194824,0
15740,0.400879,-0.880371,0.231934,0
15760,0.405762,-0.863281,0.242676,0
15780,0.380859,-0.870117,0.231934,0
15800,0.380371,-0.85791,0.234863,0
15820,0.395508,-0.82373,0.245605,0
15840,0.387207,-0.842285,0.256348,0
15860,0.362793,-0.841309,0.239258,0
15880,0.384277,-0.833008,0.248047,0
15900,0.427246,-0.847656,0.272949,0
15920,0.405273,-0.835938,0.248535,0
15940,0.399414,-0.828613,0.247559,0
15960,0.426758,-0.824707,0.23877,0
15980,0.426758,-0.827148,0.272461,0
16000,0.410645,-0.808105,0.271973,0
16020,0.415039,-0.818359,0.251953,0
16040,0.428711,-0.82959,0.249023,0
16060,0.412109,-0.81543,0.256348,0
16080,0.436035,-0.820312,0.256348,0
16100,0.452148,-0.809082,0.249512,0
16120,0.443359,-0.804199,0.236816,0
16140,0.455078,-0.788574,0.259766,0
16160,0.491211,-0.803711,0.262207,0
16180,0.489258,-0.788086,0.26123,0
16200,0.463379,-0.763672,0.268555,0
16220,0.469727,-0.763184,0.255859,0
16240,0.497559,-0.781738,0.263184,0
16260,0.524414,-0.769043,0.270508,0
16280,0.522949,-0.756348,0.286621,0
16300,0.526367,-0.763184,0.282227,0
16320,0.543945,-0.76416,0.277344,0
16340,0.560547,-0.765625,0.305664,0
16360,0.544434,-0.73291,0.310547,0
16380,0.544922,-0.728027,0.299805,0
16400,0.551758,-0.723145,0.327637,0
16420,0.557129,-0.731445,0.349609,0
16440,0.571777,-0.730957,0.337891,0
16460,0.564453,-0.707031,0.342285,0
16480,0.569336,-0.692383,0.353516,0
16500,0.581055,-0.700195,0.346191,0
16520,0.568848,-0.700684,0.372559,0
16540,0.556152,-0.680664,0.372559,0
16560,0.580566,-0.667969,0.361328,0
16580,0.601562,-0.658203,0.365723,0
16600,0.603027,-0.657715,0.381348,0
16620,0.598145,-0.660645,0.374023,0
16640,0.621582,-0.647461,0.368164,0
16660,0.646973,-0.641602,0.365723,0
16680,0.645996,-0.621094,0.386719,0
16700,0.640137,-0.60498,0.379395,0
16720,0.650391,-0.613281,0.391113,0
16740,0.657227,-0.626953,0.374023,0
16760,0.668945,-0.619141,0.392578,0
16780,0.679199,-0.608887,0.401855,0
16800,0.69043,-0.621094,0.394531,0
16820,0.686523,-0.599609,0.412109,0
16840,0.67041,-0.602539,0.441406,0
16860,0.653809,-0.622559,0.443359,0
16880,0.629883,-0.616211,0.450195,0
16900,0.641113,-0.601562,0.449707,0
16920,0.63916,-0.598633,0.421875,0
16940,0.656738,-0.58252,0.45459,0
16960,0.640137,-0.584961,0.455078,0
16980,0.598145,-0.575684,0.453613,0
17000,0.606445,-0.583984,0.480957,0
17020,0.595215,-0.591797,0.494141,0
17040,0.56543,-0.592285,0.498535,0
17060,0.549316,-0.633789,0.503418,0
17080,0.544922,-0.598633,0.491699,0
17100,0.546387,-0.581543,0.488281,0
17120,0.521484,-0.57373,0.509766,0
17140,0.476074,-0.587891,0.516113,0
17160,0.461914,-0.621582,0.498047,0
17180,0.459961,-0.625488,0.510742,0
17200,0.422363,-0.611816,0.506348,0
17220,0.428711,-0.634277,0.484863,0
17240,0.437988,-0.64502,0.506348,0
17260,0.429199,-0.615234,0.518066,0
17280,0.414062,-0.605469,0.495117,0
17300,0.419434,-0.643066,0.506348,0
17320,0.416504,-0.642578,0.511719,0
17340,0.420898,-0.633301,0.491211,0
17360,0.426758,-0.641602,0.498535,0
17380,0.442383,-0.654297,0.515625,0
17400,0.42627,-0.633301,0.486816,0
17420,0.410645,-0.662598,0.478516,0
17440,0.404297,-0.647461,0.484375,0
17460,0.406738,-0.62793,0.486816,0
17480,0.416992,-0.660645,0.48877,0
17500,0.405273,-0.692871,0.505371,0
17510,0.413574,-0.6875,0.480469,0
17530,0.412598,-0.69873,0.480957,0
17550,0.430176,-0.694824,0.477539,0
17570,0.438965,-0.700684,0.480469,0
17590,0.400879,-0.70459,0.481934,0
17610,0.396973,-0.71582,0.479004,0
17630,0.40918,-0.733398,0.461914,0
17650,0.405762,-0.714844,0.458008,0
17670,0.40918,-0.730957,0.478516,0
17690,0.387695,-0.741699,0.471191,0
17710,0.375488,-0.746094,0.444824,0
17730,0.396973,-0.731445,0.454102,0
17750,0.383789,-0.724609,0.452637,0
17770,0.36377,-0.732422,0.450195,0
17790,0.368164,-0.75293,0.461426,0
17810,0.353027,-0.746094,0.449707,0
17830,0.328125,-0.724609,0.447754,0
17850,0.336426,-0.735352,0.445801,0
17870,0.359863,-0.746582,0.443359,0
17890,0.335449,-0.75,0.442383,0
17910,0.315918,-0.74707,0.437988,0
17930,0.324707,-0.748535,0.429199,0
17950,0.330078,-0.750977,0.437012,0
17970,0.31543,-0.745605,0.417969,0
17990,0.315918,-0.771484,0.416992,0
18010,0.315918,-0.775391,0.406738,0
18030,0.319336,-0.779297,0.402832,0
18050,0.339355,-0.790039,0.392578,0
18070,0.337402,-0.801758,0.39502,0
18090,0.330078,-0.788086,0.37793,0
18110,0.344238,-0.805176,0.366211,0
18130,0.356445,-0.791992,0.378418,0
18150,0.349609,-0.795898,0.370117,0
18170,0.351074,-0.815918,0.367188,0
18190,0.370605,-0.8125,0.371094,0
18210,0.366211,-0.820312,0.375488,0
18230,0.36377,-0.83252,0.366211,0
18250,0.388672,-0.824707,0.349609,0
18270,0.401367,-0.808594,0.356445,0
18290,0.405762,-0.811035,0.343262,0
18310,0.415527,-0.813477,0.355469,0
18330,0.427246,-0.812988,0.362305,0
18350,0.422852,-0.803223,0.355469,0
18370,0.421387,-0.79834,0.330566,0
18390,0.430176,-0.815918,0.314453,0
18410,0.422852,-0.801758,0.337402,0
18430,0.401367,-0.78418,0.333496,0
18450,0.39209,-0.810547,0.308594,0
18470,0.391602,-0.812988,0.31543,0
18490,0.374023,-0.798828,0.32373,0
18510,0.352051,-0.805664,0.30127,0
18530,0.341309,-0.813477,0.299805,0
18550,0.338379,-0.806152,0.313477,0
18570,0.324707,-0.824707,0.292969,0
18590,0.334473,-0.830078,0.276367,0
18610,0.353516,-0.843262,0.261719,0
18630,0.358398,-0.850098,0.259277,0
18650,0.34668,-0.828125,0.275391,0
18670,0.364746,-0.849609,0.271484,0
18690,0.394043,-0.856445,0.269043,0
18710,0.384766,-0.867676,0.265625,0
18730,0.382324,-0.853516,0.267578,0
18750,0.410156,-0.844727,0.261719,0
18770,0.414062,-0.854492,0.271973,0
18790,0.421875,-0.870605,0.260742,0
18810,0.420898,-0.84668,0.267578,0
18830,0.419922,-0.855957,0.23877,0
18850,0.435059,-0.84668,0.236328,0
18870,0.465332,-0.818848,0.237305,0
18890,0.468262,-0.833984,0.220215,0
18910,0.463379,-0.822266,0.217285,0
18930,0.47168,-0.786621,0.227051,0
18950,0.486816,-0.807129,0.219727,0
18970,0.474121,-0.807617,0.212891,0
18990,0.476074,-0.791016,0.192383,0
19010,0.48877,-0.808594,0.186035,0
19030,0.509766,-0.793457,0.180176,0
19050,0.510742,-0.799805,0.17334,0
19070,0.493652,-0.799805,0.192383,0
19090,0.515625,-0.812012,0.169922,0
19110,0.519531,-0.833008,0.152344,0
19130,0.495117,-0.803223,0.145996,0
19150,0.489746,-0.788086,0.166016,0
19170,0.518066,-0.794922,0.154785,0
19190,0.538086,-0.813965,0.147461,0
19210,0.532227,-0.79248,0.126465,0
19230,0.53418,-0.801758,0.138184,0
19250,0.533203,-0.787109,0.129395,0
19270,0.54541,-0.77832,0.129883,0
19290,0.552246,-0.802246,0.115723,0
19310,0.519043,-0.78418,0.136719,0
19330,0.526367,-0.756836,0.146484,0
19350,0.543457,-0.773438,0.143555,0
19370,0.541992,-0.764648,0.132812,0
19390,0.556152,-0.758789,0.130371,0
19410,0.588867,-0.747559,0.13916,0
19430,0.591309,-0.757812,0.14209,0
19450,0.594238,-0.76416,0.135742,0
19470,0.607422,-0.772461,0.115234,0
19490,0.615723,-0.741699,0.128418,0
19510,0.625488,-0.722656,0.144043,0
19530,0.641602,-0.737305,0.129395,0
19550,0.634277,-0.734375,0.144531,0
19570,0.62793,-0.73584,0.125488,0
19590,0.62793,-0.726562,0.117188,0
19610,0.632812,-0.702148,0.138672,0
19630,0.65625,-0.706543,0.146484,0
19650,0.666504,-0.725586,0.141602,0
19670,0.65918,-0.700195,0.14209,0
19690,0.669922,-0.6875,0.138672,0
19710,0.669434,-0.699707,0.144043,0
19730,0.677246,-0.687012,0.125,0
19750,0.682129,-0.668457,0.134766,0
19770,0.687012,-0.650879,0.152832,0
19790,0.715332,-0.672852,0.146973,0
19810,0.713867,-0.649414,0.144531,0
19830,0.712402,-0.630371,0.162109,0
19850,0.720215,-0.62207,0.164551,0
19870,0.736328,-0.631348,0.162598,0
19890,0.729492,-0.618652,0.167969,0
19910,0.726074,-0.59668,0.168457,0
19930,0.736816,-0.598633,0.168945,0
19950,0.739746,-0.580078,0.177734,0
19970,0.737793,-0.580566,0.192383,0
19990,0.750977,-0.582031,0.191895,0
20010,0.762207,-0.575684,0.208008,0
20030,0.758789,-0.577637,0.202637,0
20050,0.772949,-0.568848,0.217773,0
20070,0.775391,-0.536133,0.248535,0
20090,0.779785,-0.538086,0.234863,0
20110,0.773926,-0.562988,0.244629,0
20130,0.755859,-0.543457,0.255859,0
20150,0.759277,-0.540527,0.266113,0
20170,0.766113,-0.557617,0.261719,0
20190,0.777344,-0.544434,0.26709,0
20210,0.788574,-0.541016,0.268555,0
20230,0.759766,-0.539551,0.28125,0
20250,0.75293,-0.537598,0.28418,0
20270,0.759766,-0.522949,0.297363,0
20290,0.75293,-0.525879,0.303223,0
20310,0.739746,-0.51709,0.300293,0
20330,0.743652,-0.522461,0.305664,0
20350,0.719727,-0.48877,0.299805,0
20370,0.724121,-0.500488,0.308105,0
20390,0.728516,-0.513672,0.319336,0
20410,0.716797,-0.51709,0.328125,0
20430,0.704102,-0.538574,0.320312,0
20450,0.711914,-0.530762,0.325684,0
20470,0.71875,-0.524414,0.34082,0
20490,0.706543,-0.523438,0.343262,0
20510,0.704102,-0.539062,0.328613,0
20530,0.702637,-0.527344,0.352051,0
20550,0.697754,-0.534668,0.353027,0
20570,0.708008,-0.538086,0.335938,0
20590,0.70459,-0.554199,0.331543,0
20610,0.68457,-0.54248,0.374023,0
20630,0.644531,-0.527344,0.390625,0
20650,0.644531,-0.542969,0.376465,0
20670,0.665039,-0.554688,0.364746,0
20690,0.670898,-0.551758,0.380859,0
20710,0.660156,-0.552246,0.370117,0
20730,0.666992,-0.563965,0.368652,0
20750,0.672363,-0.566895,0.378418,0
20770,0.64209,-0.556152,0.379395,0
20790,0.652832,-0.559082,0.369141,0
20810,0.668945,-0.574707,0.37793,0
20830,0.649902,-0.586426,0.356934,0
20850,0.639648,-0.59375,0.347168,0
20870,0.665527,-0.594238,0.364258,0
20890,0.661133,-0.594238,0.367676,0
20910,0.661133,-0.606934,0.360352,0
20920,0.639648,-0.597656,0.392578,0
20940,0.61377,-0.608398,0.389648,0
20960,0.611816,-0.623535,0.403809,0
20980,0.583496,-0.61084,0.413574,0
21000,0.569824,-0.601074,0.394531,0
21020,0.575684,-0.615234,0.376953,0
21040,0.582031,-0.627441,0.399414,0
21060,0.5625,-0.615723,0.401367,0
21080,0.560547,-0.644531,0.364258,0
21100,0.575684,-0.645508,0.370117,0
21120,0.555664,-0.626465,0.395508,0
21140,0.558105,-0.632812,0.370605,0
21160,0.568848,-0.639648,0.378418,0
21180,0.55127,-0.638672,0.379395,0
21200,0.541992,-0.665039,0.375488,0
21220,0.560547,-0.661621,0.389648,0
21240,0.54248,-0.657715,0.398926,0
21260,0.527832,-0.694824,0.372559,0
21280,0.563965,-0.70166,0.366699,0
21300,0.555664,-0.685059,0.380859,0
21320,0.536133,-0.69043,0.363281,0
21340,0.521484,-0.710449,0.358887,0
21360,0.493164,-0.705078,0.356934,0
21380,0.499023,-0.709473,0.34082,0
21400,0.512695,-0.706055,0.351074,0
21420,0.508789,-0.709473,0.355469,0
21440,0.504395,-0.731934,0.347656,0
21460,0.511719,-0.720215,0.337891,0
21480,0.48877,-0.726074,0.341309,0
21500,0.484375,-0.727051,0.345703,0
21520,0.499023,-0.727051,0.338379,0
21540,0.484375,-0.727539,0.320801,0
21560,0.495117,-0.74707,0.313477,0
21580,0.503906,-0.745605,0.330078,0
21600,0.480957,-0.72998,0.334961,0
21620,0.472168,-0.750488,0.311035,0
21640,0.484863,-0.758301,0.306641,0
21660,0.478516,-0.770996,0.295898,0
21680,0.485352,-0.760742,0.303711,0
21700,0.488281,-0.763184,0.30127,0
21720,0.479004,-0.787109,0.288086,0
21740,0.474609,-0.811035,0.283691,0
21760,0.480957,-0.793945,0.289551,0
21780,0.472168,-0.774414,0.27832,0
21800,0.476074,-0.773438,0.270996,0
21820,0.484863,-0.78418,0.270996,0
21840,0.492676,-0.822266,0.261719,0
21860,0.498047,-0.8125,0.26123,0
21880,0.492188,-0.776855,0.26416,0
21900,0.471191,-0.760742,0.227051,0
21920,0.476562,-0.787598,0.21875,0
21940,0.494629,-0.813965,0.242188,0
21960,0.492188,-0.796387,0.23291,0
21980,0.487793,-0.791992,0.222656,0
22000,0.493652,-0.78418,0.210938,0
22020,0.520996,-0.787598,0.217285,0
22040,0.546387,-0.809082,0.208496,0
22060,0.532715,-0.811523,0.223145,0
22080,0.525391,-0.781738,0.195801,0
22100,0.537109,-0.783203,0.184082,0
22120,0.550781,-0.802246,0.19873,0
22140,0.534668,-0.799316,0.197754,0
22160,0.520508,-0.798828,0.166992,0
22180,0.520996,-0.79248,0.177246,0
22200,0.522461,-0.766602,0.19043,0
22220,0.532715,-0.776367,0.187012,0
22240,0.535156,-0.794922,0.164551,0
22260,0.503418,-0.795898,0.139648,0
22280,0.491699,-0.777344,0.144531,0
22300,0.509277,-0.78125,0.134766,0
22320,0.527344,-0.802246,0.137695,0
22340,0.513672,-0.792969,0.132324,0
22360,0.514648,-0.790039,0.120605,0
22380,0.540039,-0.814941,0.132812,0
22400,0.543945,-0.793457,0.125,0
22420,0.525879,-0.776367,0.112793,0
22440,0.526367,-0.791016,0.108398,0
22460,0.553223,-0.771973,0.106445,0
22480,0.570801,-0.781738,0.106934,0
22500,0.567383,-0.806641,0.0932617,0
22520,0.559082,-0.776855,0.102051,0
22540,0.58252,-0.784668,0.0693359,0
22560,0.577148,-0.79834,0.0698242,0
22580,0.580078,-0.740723,0.0717773,0
22600,0.600586,-0.739746,0.0527344,0
22620,0.610352,-0.752441,0.0517578,0
22640,0.60498,-0.745117,0.0605469,0
22660,0.605469,-0.720703,0.0463867,0
22680,0.616699,-0.725586,0.0361328,0
22700,0.618652,-0.714844,0.0205078,0
22720,0.626465,-0.695312,0.0214844,0
22740,0.644531,-0.72168,0.00878906,0
22760,0.669922,-0.726074,0.00585938,0
22780,0.688965,-0.722656,0.00341797,0
22800,0.696289,-0.729492,-0.0112305,0
22810,0.679199,-0.706055,-0.00146484,0
22840,0.710449,-0.691406,0.000976562,0
22860,0.73291,-0.685059,-0.00488281,0
22880,0.715332,-0.72168,-0.000976562,0
22890,0.670898,-0.652832,0.019043,0
22910,0.695312,-0.643066,-0.000976562,0
22930,0.736328,-0.663086,-0.0117188,0
22950,0.743652,-0.643555,-0.0126953,0
22970,0.753906,-0.614746,-0.0185547,0
22990,0.771973,-0.633789,-0.0283203,0
23010,0.746094,-0.62793,-0.0288086,0
23030,0.749023,-0.606445,-0.0141602,0
23050,0.769531,-0.603516,-0.0292969,0
23070,0.767578,-0.595703,-0.03125,0
23090,0.759766,-0.605957,-0.0307617,0
23110,0.758789,-0.575195,-0.0263672,0
23130,0.778809,-0.570312,-0.0224609,0
23150,0.796875,-0.558594,-0.0166016,0
23170,0.790527,-0.561035,-0.012207,0
23190,0.79834,-0.560059,-0.0244141,0
23210,0.816406,-0.549805,-0.0356445,0
23230,0.830566,-0.553223,-0.0268555,0
23250,0.819336,-0.538574,-0.0263672,0
23270,0.833984,-0.535156,-0.0317383,0
23290,0.84082,-0.521973,-0.0209961,0
23310,0.836914,-0.514648,-0.0273438,0
23330,0.842773,-0.509277,-0.0244141,0
23350,0.852539,-0.498535,-0.0161133,0
23370,0.849609,-0.486816,-0.0146484,0
23390,0.844727,-0.470215,-0.0244141,0
23410,0.855957,-0.467773,-0.0214844,0
23430,0.854004,-0.44873,0.0146484,0
23450,0.864746,-0.437988,0.0141602,0
23470,0.873047,-0.431641,0.000976562,0
23490,0.887207,-0.421387,0.00683594,0
23510,0.904785,-0.419922,0.0151367,0
23530,0.90332,-0.422852,0.0366211,0
23550,0.878906,-0.411621,0.0712891,0
23570,0.901855,-0.40625,0.0791016,0
23590,0.915039,-0.407715,0.0859375,0
23610,0.894531,-0.39502,0.109375,0
23630,0.868652,-0.394043,0.116211,0
23650,0.885254,-0.399414,0.123535,0
23670,0.899414,-0.425781,0.142578,0
23690,0.857422,-0.396973,0.166016,0
23710,0.871094,-0.382812,0.164551,0
23730,0.897949,-0.397461,0.171387,0
23750,0.885742,-0.375,0.189453,0
23770,0.862793,-0.362793,0.201172,0
23790,0.872559,-0.382324,0.188965,0
23810,0.899902,-0.408691,0.216309,0
23830,0.897949,-0.402344,0.214355,0
23850,0.866699,-0.417969,0.216797,0
23870,0.80127,-0.375,0.219727,0
23890,0.808105,-0.364746,0.222168,0
23910,0.832031,-0.368652,0.236816,0
23930,0.84082,-0.371094,0.264648,0
23950,0.82666,-0.390625,0.25293,0
23970,0.812012,-0.405273,0.257812,0
23990,0.823242,-0.388184,0.267578,0
24010,0.818359,-0.370605,0.278809,0
24030,0.837402,-0.401855,0.30127,0
24050,0.822754,-0.397461,0.296875,0
24070,0.805176,-0.398926,0.302246,0
24090,0.799316,-0.411621,0.294434,0
24110,0.811035,-0.411133,0.314453,0
24130,0.788086,-0.422852,0.338867,0
24150,0.773438,-0.440918,0.320312,0
24170,0.774902,-0.439453,0.330566,0
24190,0.766113,-0.43457,0.337891,0
24210,0.741699,-0.460938,0.344238,0
24230,0.742188,-0.462402,0.369141,0
24250,0.731934,-0.476074,0.353027,0
24270,0.711914,-0.47168,0.352051,0
24290,0.712891,-0.438965,0.382324,0
24310,0.70752,-0.428711,0.399414,0
24330,0.724609,-0.452637,0.370117,0
24350,0.73584,-0.496094,0.368164,0
24370,0.711914,-0.500977,0.37793,0
24390,0.71582,-0.519531,0.359375,0
24410,0.70166,-0.500488,0.368164,0
24430,0.653809,-0.468262,0.364746,0
24450,0.69043,-0.497559,0.344727,0
24470,0.734375,-0.507324,0.374512,0
24490,0.688477,-0.514648,0.407227,0
24510,0.662598,-0.525391,0.380371,0
24530,0.712402,-0.553711,0.375977,0
24550,0.709473,-0.525879,0.399414,0
24570,0.651367,-0.524414,0.378906,0
24590,0.644531,-0.529785,0.352539,0
24610,0.666504,-0.534668,0.358398,0
24630,0.654297,-0.543945,0.351074,0
24650,0.616211,-0.540039,0.355469,0
24670,0.613281,-0.567383,0.364258,0
24690,0.646484,-0.580078,0.362305,0
24710,0.638672,-0.563965,0.372559,0
24730,0.598633,-0.563965,0.342285,0
24750,0.630859,-0.593262,0.323242,0
24770,0.644043,-0.583984,0.352539,0
24790,0.601074,-0.599121,0.343262,0
24810,0.589355,-0.620605,0.334473,0
24830,0.619141,-0.617188,0.342285,0
24850,0.624512,-0.616211,0.32373,0
24870,0.645996,-0.646484,0.312988,0
24890,0.649414,-0.646973,0.333496,0
24910,0.611328,-0.645508,0.308594,0
24930,0.640625,-0.65918,0.31543,0
24950,0.661621,-0.663086,0.339355,0
24970,0.611328,-0.642578,0.314941,0
24990,0.624512,-0.674316,0.275879,0
25010,0.672852,-0.695312,0.29834,0
25030,0.647949,-0.676758,0.307617,0
25050,0.615723,-0.671875,0.286133,0
25070,0.604492,-0.666992,0.279785,0
25090,0.570312,-0.65332,0.274414,0
25110,0.599609,-0.69043,0.280762,0
25130,0.628418,-0.694336,0.283691,0
25150,0.572754,-0.680664,0.262207,0
25170,0.543945,-0.673828,0.220703,0
25190,0.591309,-0.677246,0.211426,0
25210,0.583496,-0.695312,0.232422,0
25230,0.549316,-0.70166,0.208496,0
25250,0.581055,-0.711426,0.203613,0
25270,0.606934,-0.72168,0.207031,0
25290,0.586914,-0.693848,0.202637,0
25310,0.562988,-0.678711,0.179688,0
25330,0.601562,-0.712891,0.189941,0
25350,0.630859,-0.72998,0.177246,0
25370,0.608398,-0.713867,0.180664,0
25390,0.609863,-0.71875,0.152832,0
25410,0.65625,-0.727539,0.154297,0
25430,0.640625,-0.735352,0.146973,0
25450,0.614258,-0.728027,0.116211,0
25470,0.641602,-0.731445,0.128906,0
25490,0.66748,-0.713867,0.132812,0
25510,0.644531,-0.689453,0.137695,0
25530,0.64209,-0.716309,0.0888672,0
25550,0.671387,-0.720703,0.0952148,0
25570,0.678223,-0.713379,0.097168,0
25590,0.668945,-0.721191,0.0825195,0
25610,0.693359,-0.716309,0.0869141,0
25630,0.70459,-0.708984,0.0810547,0
25650,0.683105,-0.695801,0.0761719,0
25670,0.682129,-0.687012,0.0678711,0
25690,0.702148,-0.6875,0.0478516,0
25710,0.69873,-0.677734,0.0473633,0
25730,0.671875,-0.662598,0.0234375,0
25750,0.685059,-0.677734,0.00244141,0
25770,0.698242,-0.671875,0.00537109,0
25790,0.697754,-0.660156,0.00634766,0
25810,0.681641,-0.646484,0.00976562,0
25830,0.678711,-0.662109,-0.0219727,0
25850,0.69043,-0.661621,-0.0292969,0
25870,0.688477,-0.631348,-0.0249023,0
25890,0.676758,-0.61377,-0.0214844,0
25910,0.699707,-0.62793,-0.0488281,0
25930,0.726562,-0.650879,-0.0600586,0
25950,0.72168,-0.630859,-0.0463867,0
25970,0.712402,-0.598633,-0.0517578,0
25990,0.740234,-0.587402,-0.0722656,0
26010,0.789551,-0.603516,-0.0776367,0
26030,0.792969,-0.602539,-0.0703125,0
26050,0.798828,-0.597656,-0.0712891,0
26070,0.835449,-0.59668,-0.0532227,0
26090,0.804688,-0.57666,-0.0400391,2001
26110,0.824219,-0.552246,-0.0629883,0
26130,0.853027,-0.550781,-0.0561523,0
26150,0.854492,-0.563965,-0.0366211,0
26170,0.849121,-0.547363,-0.0356445,0
26190,0.858887,-0.562012,-0.0385742,0
26210,0.853516,-0.54834,-0.0292969,0
26230,0.85791,-0.525879,-0.0166016,0
26250,0.839355,-0.5,-0.012207,0
26270,0.822266,-0.496094,-0.0185547,0
26290,0.808594,-0.487793,-0.019043,0
26300,0.761719,-0.481445,0.0146484,0
26320,0.73291,-0.474121,0.0214844,0
26340,0.702637,-0.46582,-0.00683594,0
26360,0.659668,-0.468262,0.0151367,0
26380,0.631348,-0.464844,0.0126953,0
26400,0.604004,-0.467285,0.0117188,0
26420,0.665527,-0.499023,-0.00927734,0
26440,0.772461,-0.557129,-0.0078125,0
26460,0.812988,-0.552246,-0.00195312,0
26480,0.802734,-0.544434,0.0390625,0
26500,0.820312,-0.552734,0.0483398,0
26520,0.85498,-0.600586,0.0424805,0
26540,0.817383,-0.601562,0.0644531,0
26560,0.744629,-0.552246,0.0908203,0
26580,0.756348,-0.555176,0.0888672,0
26600,0.758789,-0.57959,0.105957,0
26620,0.714844,-0.538086,0.134277,0
26640,0.638184,-0.481934,0.156738,0
26660,0.596191,-0.487793,0.121094,0
26680,0.604004,-0.519531,0.105957,0
26700,0.686523,-0.517578,0.160156,0
26720,0.793457,-0.499023,0.186523,0
26740,0.808105,-0.546387,0.205078,0
26760,0.712891,-0.539551,0.190918,0
26780,0.731934,-0.565918,0.229004,0
26800,0.80957,-0.611816,0.268555,0
26820,0.797852,-0.663086,0.313477,0
26840,0.713867,-0.683594,0.252441,0
26860,0.786621,-0.703125,0.178223,0
26880,0.909668,-0.70459,0.225586,0
26900,0.888672,-0.728027,0.291016,0
26920,0.757324,-0.754883,0.247559,0
26940,0.765137,-0.773926,0.194336,0
26960,0.813477,-0.769531,0.262207,0
26980,0.816406,-0.787598,0.272949,0
27000,0.701172,-0.787598,0.23291,0
27020,0.628418,-0.769043,0.279297,0
27040,0.615234,-0.800293,0.334961,0
27060,0.580078,-0.834473,0.325684,0
27080,0.523926,-0.851562,0.316406,0
27100,0.45752,-0.834473,0.336426,0
27120,0.425293,-0.837891,0.353516,0
27140,0.375977,-0.860352,0.337891,0
27160,0.308105,-0.84082,0.316406,0
27180,0.223633,-0.800781,0.354004,0
27200,0.242676,-0.798828,0.362305,0
27220,0.256348,-0.851074,0.354004,0
27240,0.246582,-0.873535,0.31543,0
27260,0.258301,-0.827637,0.33252,0
27280,0.313477,-0.820801,0.396973,0
27300,0.32373,-0.847656,0.38916,0
27320,0.285156,-0.82959,0.368164,0
27340,0.274414,-0.831543,0.360352,0
27360,0.310547,-0.850586,0.376953,0
27380,0.312012,-0.803223,0.390625,0
27400,0.279785,-0.803711,0.385742,0
27420,0.316406,-0.821289,0.339355,0
27440,0.340332,-0.812988,0.353516,0
27460,0.308594,-0.784668,0.359863,0
27480,0.29248,-0.791504,0.341309,0
27500,0.339844,-0.820801,0.318359,0
27520,0.351074,-0.826172,0.316895,0
27540,0.333496,-0.79834,0.32666,0
27560,0.347656,-0.808594,0.305664,0
27580,0.382324,-0.835938,0.316895,0
27600,0.36084,-0.821777,0.320801,0
27620,0.345215,-0.830078,0.342285,0
27640,0.356445,-0.862305,0.343262,0
27660,0.37793,-0.904297,0.347168,0
27680,0.337402,-0.855469,0.318848,0
27700,0.304199,-0.794922,0.307129,2000
27720,0.352051,-0.82666,0.311035,0
27740,0.344727,-0.875977,0.333496,0
27760,0.275879,-0.85791,0.302246,0
27780,0.280762,-0.808594,0.327148,0
27800,0.276855,-0.827637,0.322754,0
27820,0.296387,-0.844727,0.347168,0
27840,0.318359,-0.811523,0.349121,0
27860,0.33252,-0.801758,0.345703,0
27880,0.32373,-0.808105,0.32373,0
27900,0.309082,-0.802734,0.316406,0
27920,0.321777,-0.808105,0.314941,0
27940,0.314453,-0.851562,0.337402,0
27960,0.298828,-0.813965,0.344238,0
27980,0.33252,-0.815918,0.350586,0
28000,0.367676,-0.858398,0.356445,0
28020,0.360352,-0.810059,0.345703,0
28040,0.34082,-0.785156,0.356934,0
28060,0.356934,-0.793945,0.336914,0
28080,0.358887,-0.791504,0.335938,0
28100,0.380859,-0.781738,0.338867,0
28120,0.395996,-0.807129,0.336426,0
28140,0.375977,-0.795898,0.32959,0
28160,0.402344,-0.797852,0.324707,0
28180,0.415527,-0.8125,0.306152,0
28190,0.400879,-0.758789,0.320801,0
28220,0.407227,-0.769531,0.345703,0
28240,0.416504,-0.82959,0.316406,0
28260,0.4375,-0.857422,0.308105,0
28270,0.461426,-0.82373,0.301758,0
28290,0.488281,-0.853027,0.303711,0
28310,0.495605,-0.817383,0.335938,0
28330,0.476562,-0.783203,0.326172,0
28350,0.498047,-0.799316,0.307617,0
28370,0.512207,-0.794922,0.304688,0
28390,0.510254,-0.739746,0.328125,0
28410,0.5,-0.741211,0.312988,0
28430,0.502441,-0.75293,0.29248,0
28450,0.532227,-0.760742,0.285645,0
28470,0.544434,-0.73877,0.284668,0
28490,0.552246,-0.710938,0.287109,0
28510,0.541992,-0.750488,0.262207,0
28530,0.553711,-0.781738,0.26123,0
28550,0.548828,-0.763184,0.275879,0
28570,0.542969,-0.758301,0.275391,0
28590,0.532227,-0.78418,0.275879,0
28610,0.532715,-0.758301,0.257812,0
28630,0.556152,-0.751465,0.250488,0
28650,0.580566,-0.731934,0.255371,0
28670,0.583008,-0.70459,0.238281,0
28690,0.564453,-0.691895,0.250977,0
28710,0.603027,-0.707031,0.270508,0
28730,0.601562,-0.695801,0.260254,0
28750,0.581543,-0.668945,0.241699,0
28770,0.568848,-0.650879,0.257324,0
28790,0.59668,-0.655273,0.276367,0
28810,0.636719,-0.680664,0.295898,0
28830,0.625977,-0.665039,0.272949,0
28850,0.612305,-0.649902,0.255371,0
28870,0.63623,-0.661133,0.258789,0
28890,0.666016,-0.666992,0.298828,0
28910,0.64502,-0.64502,0.287109,0
28930,0.639648,-0.643555,0.276855,0
28950,0.678223,-0.640625,0.292969,0
28970,0.673828,-0.638184,0.304688,0
28990,0.650391,-0.624512,0.289551,0
29010,0.658691,-0.650391,0.305664,0
29030,0.697266,-0.634766,0.322266,0
29050,0.688477,-0.605957,0.321777,0
29070,0.668945,-0.59668,0.316406,0
29090,0.674316,-0.611328,0.304688,0
29110,0.690918,-0.603516,0.334961,0
29130,0.682617,-0.609375,0.336426,0
29150,0.67627,-0.597168,0.345215,0
29170,0.700195,-0.556152,0.35791,0
29190,0.724609,-0.556152,0.353516,0
29210,0.717773,-0.5625,0.355469,0
29230,0.695801,-0.5625,0.344238,0
29250,0.700684,-0.579102,0.348145,0
29270,0.704102,-0.549316,0.375488,0
29290,0.706055,-0.532715,0.39502,0
29310,0.708008,-0.55127,0.39502,0
29330,0.694824,-0.53418,0.407715,0
29350,0.692871,-0.510254,0.42334,0
29370,0.691406,-0.532227,0.414551,0
29390,0.695801,-0.543457,0.397949,0
29410,0.681641,-0.552246,0.422363,0
29430,0.662598,-0.545898,0.441895,0
29450,0.689941,-0.519043,0.412109,0
29470,0.696777,-0.494141,0.434082,0
29490,0.674316,-0.50293,0.444336,0
29510,0.651367,-0.522461,0.438477,0
29530,0.645996,-0.527832,0.435059,0
29550,0.652344,-0.503418,0.439941,0
29570,0.630371,-0.492676,0.453613,0
29590,0.627441,-0.526855,0.462402,0
29610,0.628906,-0.514648,0.464844,0
29630,0.612793,-0.510742,0.437012,0
29650,0.610352,-0.5,0.434082,0
29670,0.645508,-0.51709,0.469727,0
29690,0.625488,-0.53418,0.468262,0
29710,0.609375,-0.53418,0.446777,0
29730,0.617676,-0.533691,0.458496,0
29750,0.640625,-0.522949,0.465332,0
29770,0.632812,-0.543457,0.463379,0
29790,0.591309,-0.544922,0.490234,0
29810,0.585938,-0.562988,0.496094,0
29830,0.593262,-0.53418,0.490234,0
29850,0.583008,-0.513672,0.497559,0
29870,0.5625,-0.531738,0.479004,0
29890,0.567871,-0.549316,0.460938,0
29910,0.572266,-0.568848,0.470703,0
29930,0.561523,-0.570312,0.46875,0
29950,0.560547,-0.568848,0.460449,0
29970,0.549805,-0.569336,0.46875,0
29990,0.541016,-0.574707,0.489258,0
30010,0.51709,-0.577148,0.477539,0
30030,0.506836,-0.584961,0.480957,0
30050,0.51416,-0.577637,0.504395,0
30070,0.518066,-0.585449,0.5,0
30090,0.501953,-0.611816,0.499023,0
30110,0.493164,-0.602539,0.506348,0
30130,0.489258,-0.604492,0.512695,0
30150,0.519043,-0.598145,0.510742,0
30170,0.529297,-0.597168,0.519531,0
30190,0.492676,-0.621094,0.51416,0
30210,0.487305,-0.621582,0.53418,0
30230,0.48584,-0.611816,0.532227,0
30250,0.473633,-0.583008,0.520996,0
30270,0.466797,-0.583008,0.527344,0
30290,0.498047,-0.617188,0.537598,0
30310,0.503418,-0.656738,0.514648,0
30330,0.509277,-0.628418,0.501953,0
30350,0.496094,-0.626953,0.504395,0
30370,0.492188,-0.636719,0.516602,0
30390,0.481934,-0.638184,0.499512,0
30410,0.469727,-0.653809,0.492676,0
30430,0.46582,-0.608887,0.495605,0
30450,0.455566,-0.617676,0.479004,0
30470,0.46875,-0.646973,0.486328,0
30490,0.453613,-0.647949,0.489258,0
30510,0.443359,-0.654297,0.466797,0
30530,0.457031,-0.663574,0.468262,0
30550,0.45752,-0.681152,0.46875,0
30570,0.436035,-0.671875,0.45459,0
30590,0.426758,-0.675781,0.460938,0
30610,0.425293,-0.689453,0.463867,0
30630,0.436523,-0.707031,0.455566,0
30650,0.457031,-0.689941,0.463867,0
30670,0.431152,-0.691406,0.451172,0
30690,0.420898,-0.695312,0.43457,0
30710,0.429688,-0.717773,0.432617,0
30730,0.435059,-0.726562,0.428711,0
30750,0.433594,-0.720215,0.421387,0
30770,0.427734,-0.716797,0.423828,0
30790,0.414551,-0.71875,0.424805,0
30810,0.389648,-0.71875,0.416992,0
30830,0.416992,-0.718262,0.408691,0
30850,0.409668,-0.707031,0.399902,0
30870,0.383789,-0.72168,0.388672,0
30890,0.407227,-0.774414,0.361328,0
30910,0.440918,-0.799316,0.37207,0
30930,0.437012,-0.76709,0.402832,0
30950,0.418945,-0.761719,0.375977,0
30970,0.412109,-0.77832,0.372559,0
30990,0.395508,-0.789551,0.384766,0
31010,0.401367,-0.780762,0.381348,0
31030,0.408203,-0.779297,0.359375,0
31050,0.401855,-0.777832,0.347656,0
31070,0.412598,-0.776367,0.338379,0
31090,0.432617,-0.785156,0.351562,0
31110,0.423828,-0.79541,0.335449,0
31130,0.419922,-0.791992,0.334473,0
31150,0.428711,-0.780762,0.349121,0
31170,0.42627,-0.777832,0.34668,0
31190,0.411621,-0.790527,0.327148,0
31210,0.395996,-0.791016,0.318359,0
31230,0.404785,-0.769043,0.313965,0
31250,0.40918,-0.777832,0.297363,0
31270,0.422852,-0.790527,0.285645,0
31290,0.430176,-0.792969,0.290527,0
31310,0.440918,-0.793457,0.287598,0
31330,0.457031,-0.777832,0.29834,0
31350,0.463867,-0.771484,0.313965,0
31370,0.453125,-0.766113,0.302734,0
31390,0.43457,-0.780762,0.285645,0
31410,0.444336,-0.752441,0.275879,0
31430,0.469727,-0.775391,0.26123,0
31450,0.48877,-0.772949,0.267578,0
31470,0.485352,-0.765137,0.265625,0
31490,0.485352,-0.782715,0.255371,0
31510,0.478516,-0.790039,0.249023,0
31530,0.513672,-0.789062,0.246094,0
31550,0.534668,-0.79248,0.24707,0
31570,0.529785,-0.806152,0.229004,0
31590,0.537109,-0.812012,0.220703,0
31610,0.564453,-0.819824,0.227051,0
31630,0.578613,-0.814941,0.228516,0
31650,0.549316,-0.79834,0.219727,0
31670,0.554688,-0.771973,0.230469,0
31680,0.550781,-0.749023,0.219238,0
31700,0.551758,-0.767578,0.187012,0
31720,0.541016,-0.76123,0.187012,0
31740,0.54834,-0.770508,0.19043,0
31760,0.561035,-0.772949,0.17041,0
31780,0.577637,-0.766602,0.147461,0
31800,0.563477,-0.760254,0.133789,0
31820,0.554199,-0.758789,0.148926,0
31840,0.565918,-0.754883,0.153809,0
31860,0.578613,-0.788574,0.132324,0
31880,0.568359,-0.783203,0.12793,0
31900,0.574219,-0.759766,0.128906,0
31920,0.596191,-0.769531,0.131836,0
31940,0.583008,-0.758301,0.109375,0
31960,0.578613,-0.749023,0.123535,0
31980,0.597656,-0.729492,0.138672,0
32000,0.588867,-0.769043,0.131348,0
32020,0.575684,-0.766602,0.0908203,0
32040,0.577148,-0.75293,0.0869141,0
32060,0.577637,-0.733398,0.104004,0
32080,0.612305,-0.749023,0.0839844,0
32100,0.632812,-0.79834,0.0756836,0
32120,0.573242,-0.734863,0.100098,0
32140,0.598633,-0.707031,0.103516,0
32160,0.669922,-0.750977,0.0883789,0
32180,0.645508,-0.75,0.0869141,0
32200,0.636719,-0.717285,0.0859375,0
32220,0.646973,-0.719727,0.078125,0
32240,0.65332,-0.675781,0.0854492,0
32260,0.679688,-0.709961,0.0766602,0
32280,0.681641,-0.714844,0.0717773,0
32300,0.680664,-0.682129,0.0737305,0
32320,0.70752,-0.687012,0.059082,0
32340,0.713867,-0.690918,0.0454102,0
32360,0.692383,-0.660156,0.0615234,0
32380,0.695312,-0.663574,0.0537109,0
32400,0.702148,-0.681152,0.046875,0
32420,0.704102,-0.671875,0.0629883,0
32440,0.709473,-0.626953,0.0644531,0
32460,0.725098,-0.630371,0.0673828,0
32480,0.750488,-0.640137,0.0649414,0
32500,0.749512,-0.640137,0.0786133,0
32520,0.740723,-0.616211,0.0649414,0
32540,0.734863,-0.612305,0.0712891,0
32560,0.735352,-0.608887,0.0898438,0
32580,0.749512,-0.611328,0.0932617,0
32600,0.764648,-0.594238,0.115723,0
32620,0.748535,-0.583496,0.103516,0
32640,0.742188,-0.57959,0.0957031,0
32660,0.755371,-0.583496,0.103516,0
32680,0.765137,-0.571289,0.123535,0
32700,0.75,-0.549805,0.118164,0
32720,0.753906,-0.558594,0.118164,0
32740,0.772949,-0.552734,0.143066,0
32760,0.798828,-0.525391,0.165039,0
32780,0.797852,-0.514648,0.150391,0
32800,0.808594,-0.523438,0.135254,0
32820,0.806152,-0.525391,0.153809,0
32840,0.813477,-0.517578,0.186035,0
32860,0.837402,-0.522461,0.178711,0
32880,0.835938,-0.514648,0.160645,0
32900,0.823242,-0.49707,0.171875,0
32920,0.840332,-0.48584,0.19873,0
32940,0.840332,-0.494141,0.23291,0
32960,0.811523,-0.500488,0.217773,0
32980,0.82666,-0.494629,0.200195,0
33000,0.822266,-0.486328,0.217773,0
33020,0.814453,-0.439941,0.257324,0
33040,0.823242,-0.446289,0.25,0
33060,0.851562,-0.479004,0.243652,0
33080,0.844238,-0.470703,0.260254,0
33100,0.8125,-0.452148,0.281738,0
33120,0.823242,-0.459961,0.25293,0
33140,0.832031,-0.43457,0.269043,0
33160,0.80127,-0.388184,0.304688,0
33180,0.79248,-0.422363,0.273926,0
33200,0.798828,-0.437012,0.274902,0
33220,0.780273,-0.425293,0.310059,0
33240,0.782227,-0.435059,0.303223,0
33260,0.799316,-0.442383,0.282715,0
33280,0.785645,-0.447266,0.311035,0
33300,0.759277,-0.436523,0.313965,0
33320,0.762207,-0.459473,0.296387,0
33340,0.768555,-0.453125,0.327637,0
33360,0.751465,-0.43457,0.329102,0
33380,0.76416,-0.443848,0.311523,0
33400,0.768555,-0.465332,0.317383,0
33420,0.756836,-0.472168,0.353027,0
33440,0.731445,-0.471191,0.333008,0
33460,0.745605,-0.481934,0.326172,0
33480,0.753906,-0.464844,0.342285,0
33500,0.708496,-0.460449,0.344727,0
33520,0.70166,-0.478027,0.34082,0
33540,0.720215,-0.508789,0.341797,0
33560,0.711914,-0.502441,0.337891,0
33580,0.697754,-0.496582,0.357422,0
33600,0.706055,-0.48291,0.355957,0
33620,0.694336,-0.493652,0.337891,0
33640,0.679199,-0.520508,0.34375,0
33650,0.696777,-0.530762,0.341797,0
33670,0.739258,-0.517578,0.345215,0
33690,0.724609,-0.495605,0.342285,0
33710,0.692871,-0.501465,0.355469,0
33730,0.692871,-0.546387,0.353027,0
33750,0.716797,-0.568359,0.342773,0
33770,0.70752,-0.541992,0.351074,0
33790,0.660645,-0.525391,0.339844,0
33810,0.674805,-0.53418,0.348145,0
33830,0.678711,-0.547363,0.359863,0
33850,0.658691,-0.550781,0.360352,0
33870,0.650391,-0.554199,0.353027,0
33890,0.670898,-0.549805,0.380859,0
33910,0.671875,-0.529785,0.367676,0
33930,0.664551,-0.572754,0.356934,0
33950,0.653809,-0.614746,0.367676,0
33970,0.640137,-0.609863,0.376953,0
33990,0.658691,-0.583984,0.355469,0
34010,0.694824,-0.578613,0.355469,0
34030,0.657715,-0.591309,0.376465,0
34050,0.613281,-0.588379,0.363281,0
34070,0.637207,-0.601074,0.355469,0
34090,0.658691,-0.571289,0.376953,0
34110,0.627441,-0.555664,0.367676,0
34130,0.604492,-0.572754,0.351074,0
34150,0.64502,-0.611328,0.349609,0
34170,0.650391,-0.605957,0.370117,0
34190,0.616699,-0.595703,0.366699,0
34210,0.593262,-0.602539,0.338867,0
34230,0.617188,-0.611328,0.34082,0
34250,0.621094,-0.611816,0.367188,0
34270,0.605957,-0.610352,0.361816,0
34290,0.597168,-0.634766,0.333984,0
34310,0.595703,-0.644043,0.32373,0
34330,0.632812,-0.649902,0.354492,0
34350,0.634277,-0.641113,0.364746,0
34370,0.609863,-0.637207,0.338379,0
34390,0.608887,-0.657715,0.328125,0
34410,0.608887,-0.662109,0.344238,0
34430,0.573242,-0.663086,0.356934,0
34450,0.556152,-0.680664,0.333008,0
34470,0.583984,-0.679199,0.322266,0
34490,0.572754,-0.674316,0.328613,0
34510,0.562988,-0.688477,0.327637,0
34530,0.556641,-0.705078,0.316406,0
34550,0.553223,-0.681641,0.322266,0
34570,0.543945,-0.691895,0.323242,0
34590,0.56543,-0.716309,0.313477,0
34610,0.542969,-0.716797,0.319336,0
34630,0.517578,-0.701172,0.323242,0
34650,0.537598,-0.733887,0.287109,0
34670,0.54541,-0.73877,0.289551,0
34690,0.510742,-0.714355,0.291992,0
34710,0.510254,-0.731934,0.283203,0
34730,0.532227,-0.743164,0.270508,0
34750,0.532227,-0.743652,0.270508,0
34770,0.524414,-0.73877,0.266602,0
34790,0.533691,-0.752441,0.256836,0
34810,0.529785,-0.746582,0.251465,0
34830,0.534668,-0.753906,0.243164,0
34850,0.558105,-0.741211,0.241211,0
34870,0.553711,-0.753906,0.229492,0
34890,0.541016,-0.757324,0.219727,0
34910,0.570312,-0.761719,0.212891,0
34930,0.59082,-0.749512,0.201172,0
34950,0.575684,-0.730469,0.20166,0
34970,0.579102,-0.73877,0.213379,0
34990,0.607422,-0.736816,0.20166,0
35010,0.606934,-0.736328,0.199219,0
35030,0.593262,-0.715332,0.208984,0
35050,0.633789,-0.725098,0.171875,0
35070,0.636719,-0.754883,0.138672,0
35090,0.600586,-0.767578,0.114746,0
35110,0.596191,-0.772949,0.115723,0
35130,0.61377,-0.748047,0.128418,0
35150,0.600098,-0.734375,0.144531,0
35170,0.567383,-0.76123,0.106934,0
35190,0.581543,-0.781738,0.0917969,0
35210,0.599121,-0.762695,0.128418,0
35230,0.589844,-0.744141,0.117676,0
35250,0.585449,-0.758301,0.0927734,0
35270,0.575195,-0.785156,0.0859375,0
35290,0.571289,-0.768555,0.102051,0
35310,0.57373,-0.742676,0.0966797,0
35330,0.562012,-0.771484,0.050293,0
35350,0.562988,-0.791992,0.0576172,0
35370,0.565918,-0.77832,0.105957,0
35390,0.57666,-0.773438,0.100586,0
35410,0.588379,-0.787598,0.0585938,0
35430,0.560547,-0.778809,0.0581055,0
35450,0.578613,-0.786621,0.0712891,0
35470,0.599121,-0.799316,0.0639648,0
35490,0.606934,-0.763672,0.0600586,0
35510,0.589355,-0.762695,0.0556641,0
35530,0.583984,-0.766602,0.043457,0
35550,0.61084,-0.78418,0.0473633,0
35570,0.611328,-0.770996,0.0571289,0
35590,0.598633,-0.753418,0.0327148,0
35610,0.644043,-0.760742,0.00830078,0
35630,0.671875,-0.769531,0.0258789,0
35650,0.643066,-0.754395,0.012207,0
35670,0.632812,-0.741699,0.00439453,0
35690,0.653809,-0.757324,-0.0117188,0
35710,0.65918,-0.733887,-0.0107422,0
35730,0.641113,-0.725586,-0.0297852,0
35750,0.641113,-0.742676,-0.050293,0
35770,0.661621,-0.725586,-0.0322266,0
35790,0.66748,-0.718262,-0.0390625,0
35810,0.655762,-0.710449,-0.0576172,0
35830,0.65332,-0.712402,-0.0693359,0
35850,0.666016,-0.696777,-0.0615234,0
35870,0.658203,-0.682129,-0.0722656,0
35890,0.669922,-0.679199,-0.0957031,0
35910,0.678223,-0.70459,-0.0888672,0
35930,0.669922,-0.67041,-0.0825195,0
35950,0.691895,-0.652344,-0.0878906,0
35970,0.727051,-0.663574,-0.109863,0
35990,0.712891,-0.620605,-0.0825195,0
36010,0.708008,-0.59668,-0.0932617,0
36030,0.763184,-0.646973,-0.126465,0
36050,0.757812,-0.658203,-0.101074,0
36070,0.754883,-0.62793,-0.0898438,0
36090,0.755371,-0.629395,-0.116211,0
36110,0.78418,-0.611328,-0.142578,0
36130,0.796875,-0.612305,-0.140625,0
36150,0.774414,-0.603027,-0.108398,0
36170,0.761719,-0.573242,-0.124512,0
36190,0.791504,-0.586426,-0.13916,0
36210,0.79248,-0.573242,-0.108398,0
36230,0.801758,-0.564453,-0.111816,0
36250,0.830078,-0.545898,-0.125488,0
36270,0.842285,-0.554199,-0.126953,0
36290,0.838379,-0.538086,-0.142578,0
36310,0.840332,-0.534668,-0.13623,0
36330,0.828613,-0.535645,-0.124023,0
36350,0.836426,-0.530762,-0.115234,0
36370,0.83252,-0.518066,-0.105469,0
36390,0.817383,-0.505371,-0.11084,0
36410,0.814453,-0.496094,-0.114258,0
36430,0.839355,-0.491699,-0.0996094,0
36450,0.834473,-0.484863,-0.0922852,0
36470,0.837402,-0.458008,-0.097168,0
36490,0.84668,-0.455078,-0.0961914,0
36510,0.852539,-0.449219,-0.0878906,0
36530,0.858398,-0.443848,-0.0864258,0
36550,0.859863,-0.43457,-0.090332,0
36570,0.879395,-0.445801,-0.0874023,0
36590,0.859863,-0.443848,-0.0810547,0
36610,0.879395,-0.414551,-0.0576172,0
36630,0.900879,-0.403809,-0.0371094,0
36650,0.916992,-0.416992,-0.0541992,0
36670,0.896484,-0.412598,-0.0541992,0
36690,0.88623,-0.414062,-0.0405273,0
36710,0.898926,-0.395996,-0.0249023,0
36730,0.885254,-0.382812,0.00195312,0
36750,0.871582,-0.367676,0.00195312,0
36770,0.869629,-0.382812,-0.00537109,0
36790,0.879395,-0.385742,0.0297852,0
36810,0.872559,-0.39502,0.0273438,0
36830,0.880371,-0.393555,0.0268555,0
36850,0.875488,-0.379395,0.0454102,0
36870,0.901367,-0.393066,0.0522461,0
36890,0.911621,-0.385742,0.0395508,0
36910,0.916992,-0.378418,0.0644531,0
36930,0.951172,-0.382812,0.081543,0
36950,0.95752,-0.378906,0.0737305,0
36970,0.909668,-0.388672,0.0952148,0
36990,0.882324,-0.408203,0.0996094,0
37010,0.869141,-0.406738,0.110352,0
37030,0.842773,-0.394043,0.128906,0
37050,0.853027,-0.391602,0.115723,0
37060,0.898438,-0.412598,0.109375,0
37080,0.885254,-0.415527,0.157715,0
37100,0.858398,-0.433594,0.140625,0
37120,0.852051,-0.45459,0.136719,0
37140,0.833008,-0.434082,0.18457,0
37160,0.819336,-0.412109,0.180664,0
37180,0.84082,-0.421875,0.162598,0
37200,0.864258,-0.434082,0.180664,0
37220,0.842773,-0.444824,0.197754,0
37240,0.85791,-0.474609,0.174316,0
37260,0.844727,-0.463867,0.212891,0
37280,0.803223,-0.45459,0.229004,0
37300,0.830566,-0.455566,0.213379,0
37320,0.846191,-0.443848,0.219238,0
37340,0.80127,-0.442383,0.21582,0
37360,0.811035,-0.458496,0.218262,0
37380,0.834473,-0.472656,0.262695,0
37400,0.759766,-0.45166,0.269043,0
37420,0.759766,-0.453125,0.238281,0
37440,0.817871,-0.47998,0.242676,0
37460,0.8125,-0.483887,0.238281,0
37480,0.774414,-0.485352,0.261719,0
37500,0.773926,-0.479004,0.276367,0
37520,0.756348,-0.487305,0.270996,0
37540,0.769043,-0.477539,0.268555,0
37560,0.77832,-0.466797,0.275879,0
37580,0.760254,-0.508301,0.271973,0
37600,0.727539,-0.496582,0.283203,0
37620,0.700195,-0.475586,0.275391,0
37640,0.737305,-0.48584,0.265137,0
37660,0.766602,-0.491699,0.272949,0
37680,0.724121,-0.495117,0.271484,0
37720,0.724121,-0.527832,0.297363,0
37740,0.727051,-0.505859,0.288086,0
37760,0.710449,-0.496582,0.275879,0
37780,0.714355,-0.49707,0.289551,0
37800,0.686035,-0.519531,0.300293,0
37820,0.689941,-0.535645,0.297852,0
37840,0.73584,-0.542969,0.345703,0
37860,0.730469,-0.533203,0.315918,0
37880,0.71582,-0.533691,0.277832,0
37900,0.695801,-0.537109,0.287109,0
37920,0.693848,-0.54248,0.293457,0
37940,0.713379,-0.569824,0.285645,0
37960,0.696777,-0.563965,0.293945,0
37980,0.67627,-0.574707,0.304688,0
38000,0.679688,-0.586914,0.322266,0
38020,0.67334,-0.579102,0.326172,0
38040,0.634277,-0.578125,0.305176,0
38060,0.649414,-0.570801,0.297363,0
38080,0.716309,-0.568359,0.323242,0
38100,0.70752,-0.587891,0.315918,0
38120,0.672363,-0.584473,0.284668,0
38140,0.706055,-0.595215,0.271973,0
38160,0.71875,-0.579102,0.309082,0
38180,0.69873,-0.56543,0.295898,0
38200,0.675781,-0.589844,0.272461,0
38220,0.70459,-0.594238,0.285645,0
38240,0.713867,-0.601074,0.289062,0
38260,0.682617,-0.577148,0.270508,0
38280,0.664551,-0.577148,0.254395,0
38300,0.699219,-0.597656,0.265137,0
38320,0.734375,-0.606445,0.288086,0
38340,0.700684,-0.597656,0.288574,0
38360,0.656738,-0.586914,0.262207,0
38380,0.706055,-0.623047,0.261719,0
38400,0.737305,-0.61084,0.28418,0
38420,0.668945,-0.580566,0.245117,0
38440,0.632324,-0.589355,0.20166,0
38460,0.687988,-0.602051,0.219727,0
38480,0.666016,-0.62793,0.242188,0
38500,0.622559,-0.646973,0.224121,0
38520,0.687012,-0.665527,0.196777,0
38540,0.69873,-0.629883,0.212402,0
38560,0.669922,-0.62793,0.213867,0
38580,0.71582,-0.646973,0.225098,0
38600,0.709961,-0.650879,0.233398,0
38620,0.615723,-0.623535,0.197266,0
38640,0.633789,-0.654785,0.178711,0
38660,0.695312,-0.683105,0.196777,0
38680,0.664062,-0.651367,0.213379,0
38700,0.621582,-0.680664,0.188965,0
38720,0.678223,-0.702637,0.166016,0
38740,0.720703,-0.691406,0.188965,0
38760,0.677734,-0.663574,0.188477,0
38780,0.666016,-0.692871,0.172852,0
38800,0.689941,-0.71875,0.174316,0
38820,0.658203,-0.691406,0.17627,0
38840,0.617188,-0.67334,0.142578,0
38860,0.658691,-0.705078,0.143555,0
38880,0.670898,-0.713867,0.151855,0
38900,0.634277,-0.693848,0.14209,0
38920,0.644043,-0.696289,0.133301,0
38940,0.647461,-0.702148,0.125977,0
38960,0.646973,-0.699707,0.124023,0
38980,0.649414,-0.71875,0.126953,0
39000,0.64209,-0.715332,0.118164,0
39020,0.628418,-0.699707,0.104004,0
39030,0.660645,-0.744141,0.0844727,0
39050,0.683105,-0.750488,0.11084,0
39070,0.632324,-0.715332,0.09375,0
39090,0.616699,-0.721191,0.0688477,0
39110,0.664062,-0.737305,0.0888672,0
39130,0.633789,-0.738281,0.0820312,0
39150,0.60791,-0.741699,0.0678711,0
39170,0.634766,-0.765625,0.0532227,0
39190,0.632324,-0.741699,0.0556641,0
39210,0.641602,-0.719238,0.0400391,0
39230,0.644531,-0.752441,0.0488281,0
39250,0.634277,-0.749023,0.050293,0
39270,0.649414,-0.749512,0.0415039,0
39290,0.654297,-0.743164,0.046875,0
39310,0.625,-0.725586,0.027832,0
39330,0.611816,-0.717773,-0.000488281,0
39350,0.627441,-0.751953,0.00146484,0
39370,0.641113,-0.751953,0.0214844,0
39390,0.624512,-0.72168,-0.00341797,0
39410,0.608398,-0.727539,-0.0224609,0
39430,0.621582,-0.720703,-0.0219727,0
39450,0.636719,-0.730957,-0.0283203,0
39470,0.654785,-0.754883,-0.0253906,0
39490,0.649414,-0.752441,-0.0292969,0
39510,0.627441,-0.730469,-0.0449219,0
39530,0.652832,-0.74707,-0.0478516,0
39550,0.679688,-0.729004,-0.0322266,0
39570,0.657227,-0.679688,-0.0444336,0
39590,0.639648,-0.688477,-0.059082,0
39610,0.665527,-0.70752,-0.0756836,0
39630,0.712402,-0.703125,-0.0942383,0
39650,0.688965,-0.710938,-0.0717773,0
39670,0.651367,-0.71582,-0.0922852,0
39690,0.680176,-0.696777,-0.104004,0
39710,0.720703,-0.69043,-0.106445,0
39730,0.70166,-0.691895,-0.0966797,0
39750,0.68457,-0.700195,-0.115234,0
39770,0.701172,-0.709961,-0.125488,0
39790,0.722168,-0.682129,-0.129395,0
39810,0.719238,-0.694824,-0.138672,0
39830,0.696289,-0.719238,-0.131348,0
39850,0.70752,-0.708496,-0.134277,0
39870,0.724609,-0.693359,-0.17041,0
39890,0.718262,-0.678223,-0.166016,0
39910,0.706055,-0.688965,-0.15625,0
39930,0.714355,-0.706543,-0.162598,0
39950,0.708496,-0.694336,-0.183594,0
39970,0.708496,-0.687012,-0.175781,0
39990,0.710449,-0.702637,-0.171387,0
40010,0.693359,-0.67041,-0.175781,0
40030,0.666504,-0.65625,-0.193848,0
40050,0.695312,-0.670898,-0.186523,0
40070,0.714355,-0.681641,-0.171387,0
40090,0.671875,-0.669922,-0.177246,0
40110,0.671875,-0.659668,-0.223633,0
40130,0.683594,-0.678223,-0.227051,0
40150,0.666504,-0.659668,-0.202637,0
40170,0.658203,-0.627441,-0.210938,0
40190,0.684082,-0.652344,-0.228027,0
40210,0.720703,-0.679199,-0.192871,0
40230,0.701172,-0.654297,-0.181152,0
40250,0.709961,-0.630371,-0.19043,0
40270,0.773926,-0.64502,-0.203125,0
40290,0.78418,-0.649902,-0.191895,0
40310,0.742676,-0.619141,-0.19043,0
40330,0.75,-0.637695,-0.202148,0
40350,0.768066,-0.607422,-0.196289,0
40370,0.769043,-0.586426,-0.197754,0
40390,0.756348,-0.574219,-0.209473,0
40410,0.780762,-0.583496,-0.214844,0
40430,0.786621,-0.581543,-0.211426,2001
40450,0.773926,-0.571289,-0.226074,0
40470,0.79541,-0.551758,-0.226074,0
40490,0.783203,-0.544922,-0.21582,0
40510,0.756348,-0.515137,-0.243652,0
40530,0.747559,-0.506348,-0.241699,0
40550,0.74707,-0.510254,-0.252441,0
40570,0.728027,-0.505859,-0.253906,0
40590,0.702637,-0.507324,-0.269531,0
40610,0.696777,-0.486816,-0.262207,0
40630,0.672852,-0.474121,-0.240723,0
40650,0.646973,-0.464844,-0.240234,0
40670,0.628418,-0.470703,-0.255371,0
40690,0.629883,-0.472168,-0.270508,0
40710,0.637695,-0.482422,-0.252441,0
40730,0.647949,-0.469727,-0.225098,0
40750,0.645508,-0.492676,-0.230957,0
40770,0.659668,-0.549805,-0.26709,0
40790,0.715332,-0.563477,-0.237793,0
40810,0.730957,-0.529785,-0.182129,0
40830,0.759766,-0.538086,-0.188965,0
40850,0.87793,-0.603027,-0.23584,0
40870,0.963379,-0.643066,-0.190918,0
40890,0.960449,-0.665039,-0.153809,0
40910,0.972168,-0.724609,-0.164062,0
40930,0.90918,-0.71875,-0.143066,0
40950,0.843262,-0.638672,-0.109863,0
40970,0.79541,-0.59082,-0.101074,0
40990,0.785645,-0.603027,-0.136719,0
41010,0.783691,-0.598145,-0.111328,0
41030,0.722656,-0.550781,-0.0507812,0
41050,0.659668,-0.510742,-0.0136719,0
41070,0.628418,-0.542969,-0.00585938,0
41090,0.645508,-0.590332,-0.0200195,0
41110,0.647461,-0.575684,0.0336914,0
41130,0.618164,-0.57373,0.0942383,0
41150,0.566406,-0.560547,0.0942383,0
41170,0.643066,-0.606445,0.0336914,0
41190,0.727539,-0.637207,0.0883789,0
41210,0.707031,-0.652832,0.15918,0
41230,0.693359,-0.76123,0.105469,0
41250,0.754883,-0.846191,0.081543,0
41270,0.772949,-0.817383,0.158691,0
41290,0.707031,-0.817871,0.174316,0
41310,0.659668,-0.872559,0.142578,0
41330,0.668457,-0.927246,0.188477,0
41350,0.639648,-0.945801,0.263672,0
41370,0.569336,-0.955078,0.256348,0
41390,0.519531,-0.981445,0.257324,0
41410,0.475098,-0.957031,0.281738,0
41430,0.436035,-0.967285,0.280273,0
41450,0.406738,-0.959473,0.276855,0
41470,0.380371,-0.911621,0.316895,0
41490,0.365723,-0.896484,0.3125,0
41510,0.335449,-0.893555,0.290527,0
41530,0.321777,-0.873535,0.305664,0
41550,0.319824,-0.85498,0.316406,0
41570,0.348145,-0.880371,0.297363,0
41590,0.362305,-0.898438,0.30127,0
41610,0.370117,-0.880859,0.30957,0
41630,0.371582,-0.852539,0.314941,0
41650,0.366699,-0.853027,0.29541,0
41670,0.384277,-0.847656,0.294434,0
41690,0.362305,-0.837891,0.290527,0
41710,0.344727,-0.846191,0.274902,0
41730,0.341309,-0.852539,0.273926,0
41750,0.353027,-0.851562,0.29248,0
41770,0.334961,-0.816895,0.291016,0
41790,0.316406,-0.823242,0.267578,0
41810,0.336914,-0.833008,0.274902,2000
41830,0.325195,-0.86084,0.274414,0
41850,0.291992,-0.81543,0.283691,0
41870,0.319824,-0.809082,0.281738,0
41890,0.294922,-0.897949,0.263184,0
41910,0.291504,-0.88916,0.277344,0
41930,0.275391,-0.855957,0.285645,0
41950,0.279785,-0.873047,0.269043,0
41970,0.296387,-0.839355,0.277344,0
41990,0.313477,-0.82959,0.282715,0
42010,0.306152,-0.867676,0.289062,0
42030,0.312988,-0.904297,0.287109,0
42050,0.34375,-0.896484,0.270996,0
42070,0.35498,-0.872559,0.255859,0
42090,0.352051,-0.855957,0.244629,0
42110,0.362793,-0.871582,0.255859,0
42130,0.366211,-0.838379,0.251953,0
42150,0.361328,-0.851562,0.257324,0
42170,0.383789,-0.891602,0.256348,0
42190,0.398926,-0.90332,0.23291,0
42210,0.354004,-0.883789,0.210938,0
42230,0.357422,-0.861328,0.226562,0
42250,0.364258,-0.84082,0.235352,0
42270,0.362793,-0.877441,0.230957,0
42290,0.359375,-0.908203,0.22168,0
42310,0.366699,-0.867676,0.21582,0
42330,0.401855,-0.839844,0.208008,0
42350,0.401855,-0.838867,0.20166,0
42370,0.400391,-0.851562,0.183594,0
42390,0.404297,-0.822754,0.188965,0
42410,0.434082,-0.860352,0.220215,0
42430,0.444336,-0.862305,0.203613,0
42440,0.446289,-0.825195,0.187012,0
42460,0.42627,-0.81543,0.166992,0
42480,0.420898,-0.805176,0.165039,0
42500,0.425293,-0.813477,0.169922,0
42520,0.452637,-0.82373,0.152344,0
42540,0.476562,-0.83252,0.157715,0
42560,0.472656,-0.833008,0.16748,0
42580,0.478516,-0.823242,0.15332,0
42600,0.459473,-0.830078,0.127441,0
42620,0.466309,-0.80957,0.146484,0
42640,0.473145,-0.801758,0.155273,0
42660,0.496582,-0.812012,0.155762,0
42680,0.542969,-0.819336,0.17334,0
42700,0.560059,-0.780762,0.20166,0
42720,0.538574,-0.76416,0.174805,0
42740,0.556152,-0.814941,0.150879,0
42760,0.600586,-0.816895,0.178223,0
42780,0.577637,-0.744141,0.215332,0
42800,0.583008,-0.777832,0.196777,0
42820,0.618652,-0.828613,0.163574,0
42840,0.626465,-0.759766,0.199707,0
42860,0.624023,-0.727051,0.193848,0
42880,0.621094,-0.740234,0.182129,0
42900,0.626953,-0.70166,0.193848,0
42920,0.615723,-0.676758,0.22168,0
42940,0.623535,-0.716309,0.229492,0
42960,0.623047,-0.717773,0.207031,0
42980,0.632812,-0.663574,0.203125,0
43000,0.650879,-0.677246,0.188965,0
43020,0.66748,-0.655762,0.192383,0
43040,0.667969,-0.631348,0.209473,0
43060,0.666504,-0.651855,0.233887,0
43080,0.681641,-0.667969,0.226074,0
43100,0.708008,-0.678711,0.234863,0
43120,0.698242,-0.631836,0.249023,0
43140,0.681152,-0.619629,0.246582,0
43160,0.685547,-0.642578,0.256348,0
43180,0.71875,-0.669922,0.264648,0
43200,0.71875,-0.643066,0.277832,0
43220,0.696289,-0.601074,0.266113,0
43240,0.711426,-0.592773,0.276367,0
43260,0.722656,-0.616211,0.302734,0
43280,0.705078,-0.645508,0.317383,0
43300,0.695312,-0.614258,0.319336,0
43320,0.707031,-0.595703,0.31543,0
43340,0.711426,-0.59375,0.308105,0
43360,0.716309,-0.598145,0.309082,0
43380,0.703125,-0.586426,0.351562,0
43400,0.701172,-0.569336,0.364746,0
43420,0.708008,-0.566895,0.339844,0
43440,0.708008,-0.556152,0.343262,0
43460,0.683594,-0.549805,0.35791,0
43480,0.662598,-0.553711,0.360352,0
43500,0.665527,-0.556152,0.363281,0
43520,0.667969,-0.549316,0.36377,0
43540,0.666992,-0.544922,0.376465,0
43560,0.669434,-0.560059,0.399902,0
43580,0.636719,-0.550781,0.400391,0
43600,0.638184,-0.534668,0.380371,0
43620,0.659668,-0.539062,0.377441,0
43640,0.661133,-0.52002,0.380859,0
43660,0.657715,-0.537598,0.390137,0
43680,0.637695,-0.556641,0.40332,0
43700,0.624512,-0.544434,0.408203,0
43720,0.635742,-0.558105,0.416504,0
43740,0.646973,-0.556641,0.448242,0
43760,0.623047,-0.538086,0.433105,0
43780,0.617188,-0.524902,0.421387,0
43800,0.644531,-0.547852,0.438477,0
43820,0.626953,-0.54248,0.449219,0
43840,0.596191,-0.530273,0.460449,0
43860,0.605957,-0.555176,0.45752,0
43880,0.629883,-0.519531,0.449707,0
43900,0.629395,-0.521484,0.438965,0
43920,0.634277,-0.530273,0.446777,0
43940,0.626465,-0.541016,0.461914,0
43960,0.606445,-0.540527,0.46875,0
43980,0.590332,-0.540527,0.466309,0
44000,0.602051,-0.556641,0.455566,0
44020,0.608887,-0.541992,0.476562,0
44040,0.586426,-0.532715,0.471191,0
44060,0.591797,-0.541504,0.444336,0
44080,0.608887,-0.540039,0.463867,0
44100,0.59668,-0.553223,0.478027,0
44120,0.583984,-0.5625,0.483887,0
44140,0.577637,-0.555176,0.455078,0
44160,0.588379,-0.554688,0.453125,0
44180,0.617676,-0.566895,0.463867,0
44200,0.604492,-0.55957,0.476074,0
44220,0.566406,-0.559082,0.472656,0
44240,0.55957,-0.563477,0.479492,0
44260,0.561523,-0.584961,0.480957,0
44280,0.5625,-0.572754,0.481445,0
44300,0.561035,-0.570312,0.479004,0
44320,0.541992,-0.581543,0.467285,0
44340,0.53418,-0.584961,0.481445,0
44360,0.552734,-0.589844,0.501465,0
44380,0.552246,-0.57666,0.481445,0
44390,0.550293,-0.591309,0.478516,0
44410,0.523926,-0.60498,0.483887,0
44430,0.498047,-0.629395,0.461426,0
44450,0.533203,-0.644043,0.442383,0
44470,0.548828,-0.62207,0.465332,0
44490,0.517578,-0.600586,0.475586,0
44510,0.508301,-0.611328,0.45459,0
44530,0.508301,-0.652344,0.462402,0
44550,0.495117,-0.643555,0.463867,0
44570,0.486328,-0.632812,0.461914,0
44590,0.51416,-0.658203,0.456055,0
44610,0.503418,-0.65625,0.467285,0
44630,0.474121,-0.642578,0.455078,0
44650,0.490723,-0.646973,0.450195,0
44670,0.483398,-0.654297,0.475586,0
44690,0.454102,-0.648926,0.45459,0
44710,0.471191,-0.685547,0.433594,0
44730,0.496094,-0.669434,0.461914,0
44750,0.467285,-0.64209,0.475098,0
44770,0.445312,-0.643555,0.441406,0
44790,0.461914,-0.692871,0.432617,0
44810,0.464355,-0.682129,0.454102,0
44830,0.457031,-0.669922,0.455566,0
44850,0.467773,-0.67334,0.441895,0
44870,0.458496,-0.698242,0.4375,0
44890,0.458496,-0.691895,0.458984,0
44910,0.463867,-0.689941,0.456543,0
44930,0.44043,-0.693848,0.437988,0
44960,0.481934,-0.69873,0.452637,0
44980,0.461426,-0.698242,0.427734,0
45000,0.459473,-0.709473,0.421387,0
45020,0.478516,-0.725586,0.431152,0
45040,0.477051,-0.708008,0.429688,0
45060,0.457031,-0.708984,0.419434,0
45080,0.441406,-0.737793,0.405762,0
45100,0.455078,-0.739746,0.408203,0
45120,0.463379,-0.731445,0.415039,0
45140,0.474121,-0.737305,0.404785,0
45160,0.446777,-0.736328,0.392578,0
45180,0.424316,-0.741699,0.378418,0
45200,0.471191,-0.752441,0.37207,0
45220,0.484863,-0.756348,0.378418,0
45240,0.429199,-0.746582,0.378418,0
45260,0.40918,-0.757324,0.356445,0
45280,0.449219,-0.763672,0.36084,0
45300,0.451172,-0.749512,0.364258,0
45320,0.406738,-0.757324,0.34082,0
45340,0.404785,-0.789551,0.315918,0
45360,0.441406,-0.789551,0.336914,0
45380,0.439453,-0.786133,0.343262,0
45400,0.412598,-0.789062,0.312012,0
45420,0.417969,-0.784668,0.304199,0
45440,0.415527,-0.790039,0.314941,0
45460,0.381348,-0.797852,0.313477,0
45480,0.394531,-0.812988,0.292969,0
45500,0.414551,-0.821777,0.289062,0
45520,0.411133,-0.804688,0.285645,0
45540,0.413086,-0.794434,0.284668,0
45560,0.429688,-0.796875,0.282715,0
45580,0.423828,-0.822754,0.273926,0
45600,0.41748,-0.82373,0.264648,0
45620,0.42334,-0.836426,0.274414,0
45640,0.461914,-0.822754,0.271973,0
45660,0.46582,-0.807617,0.260254,0
45680,0.434082,-0.798828,0.255859,0
45700,0.432617,-0.800781,0.245605,0
45720,0.451172,-0.817383,0.246094,0
45740,0.452637,-0.810547,0.225586,0
45760,0.444336,-0.809082,0.219727,0
45780,0.459473,-0.816406,0.215332,0
45800,0.489746,-0.816895,0.193848,0
45820,0.51416,-0.802246,0.208984,0
45840,0.513672,-0.810547,0.197754,0
45860,0.508301,-0.8125,0.187988,0
45880,0.539551,-0.838379,0.191895,0
45900,0.517578,-0.82373,0.183594,0
45920,0.511719,-0.803223,0.168457,0
45940,0.526855,-0.814941,0.165527,0
45960,0.502441,-0.783691,0.163086,0
45980,0.499023,-0.788574,0.158203,0
46000,0.51709,-0.785645,0.152344,0
46020,0.535156,-0.776367,0.158203,0
46040,0.543945,-0.786621,0.130371,0
46060,0.545898,-0.790039,0.125977,0
46080,0.569336,-0.785645,0.115234,0
46100,0.594238,-0.765625,0.105957,0
46120,0.581055,-0.790527,0.0791016,0
46140,0.577637,-0.769531,0.0727539,0
46160,0.583984,-0.78418,0.0786133,0
46180,0.589844,-0.783203,0.0800781,0
46200,0.606445,-0.772461,0.0644531,0
46220,0.612305,-0.765625,0.065918,0
46240,0.60791,-0.776855,0.0556641,0
46260,0.591797,-0.75293,0.0634766,0
46280,0.641113,-0.723145,0.0620117,0
46300,0.672852,-0.728027,0.0634766,0
46320,0.650391,-0.716309,0.0673828,0
46340,0.655273,-0.728516,0.0336914,0
46360,0.699707,-0.717773,0.034668,0
46380,0.689941,-0.701172,0.0429688,0
46400,0.689941,-0.694824,0.0239258,0
46420,0.69873,-0.700195,-0.000976562,0
46440,0.708984,-0.680176,0.0249023,0
46460,0.707031,-0.681152,0.027832,0
46480,0.680664,-0.661133,0.0209961,0
46500,0.690918,-0.632812,0.0175781,0
46520,0.723145,-0.627441,0.0151367,0
46540,0.712891,-0.633789,0.0322266,0
46560,0.724609,-0.623047,0.0166016,0
46580,0.743652,-0.611816,0.0146484,0
46600,0.770996,-0.601074,0.0170898,0
46620,0.765137,-0.598633,0.0195312,0
46640,0.763184,-0.591309,0.0317383,0
46660,0.761719,-0.586426,0.0224609,0
46680,0.77832,-0.592773,0.0244141,0
46700,0.774902,-0.594238,0.0302734,0
46720,0.777832,-0.553711,0.0551758,0
46740,0.780273,-0.540527,0.0556641,0
46760,0.790039,-0.544922,0.0405273,0
46780,0.82666,-0.541504,0.0678711,0
46800,0.845215,-0.541504,0.0830078,0
46820,0.84375,-0.533691,0.074707,0
46840,0.848145,-0.540039,0.0761719,0
46860,0.844238,-0.516602,0.0922852,0
46880,0.842285,-0.515137,0.108887,0
46900,0.839844,-0.512695,0.100586,0
46920,0.84668,-0.491211,0.117188,0
46940,0.84375,-0.485352,0.132324,0
46960,0.836914,-0.475098,0.148926,0
46980,0.841309,-0.480469,0.130859,0
47000,0.841309,-0.474121,0.150391,0
47020,0.831055,-0.481445,0.167969,0
47040,0.812988,-0.467285,0.166016,0
47060,0.803223,-0.463867,0.169434,0
47080,0.79541,-0.441406,0.181641,0
47100,0.824707,-0.437988,0.15625,0
47120,0.855469,-0.447266,0.185547,0
47140,0.84375,-0.442383,0.197266,0
47160,0.82959,-0.440918,0.184082,0
47180,0.833496,-0.44043,0.191895,0
47200,0.818359,-0.433594,0.214844,0
47220,0.810547,-0.418457,0.209473,0
47240,0.807617,-0.435547,0.223145,0
47260,0.82373,-0.437012,0.227051,0
47280,0.82373,-0.431152,0.217773,0
47300,0.827148,-0.410645,0.225098,0
47320,0.821777,-0.416504,0.249512,0
47340,0.816895,-0.44043,0.237793,0
47360,0.825195,-0.446289,0.232422,0
47380,0.818359,-0.448242,0.248047,0
47400,0.802734,-0.444824,0.239258,0
47420,0.793457,-0.45166,0.235352,0
47440,0.810547,-0.452637,0.257812,0
47460,0.820312,-0.476074,0.271973,0
47480,0.77002,-0.484375,0.270508,0
47500,0.774902,-0.470215,0.269043,0
47520,0.780273,-0.490723,0.279297,0
47540,0.744141,-0.48291,0.286621,0
47560,0.747559,-0.478516,0.290527,0
47580,0.789551,-0.480957,0.306641,0
47600,0.76709,-0.468262,0.307617,0
47620,0.729004,-0.458496,0.29834,0
47640,0.75,-0.48584,0.313965,0
47660,0.755859,-0.492676,0.339355,0
47680,0.741211,-0.482422,0.319336,0
47700,0.745605,-0.477051,0.292969,0
47720,0.758789,-0.48584,0.30127,0
47740,0.743652,-0.495605,0.310547,0
47760,0.73584,-0.486816,0.32666,0
47780,0.726562,-0.501465,0.328125,0
47790,0.724609,-0.505859,0.306641,0
47810,0.759766,-0.486816,0.309082,0
47830,0.749512,-0.476562,0.338867,0
47850,0.713867,-0.494629,0.320312,0
47870,0.720215,-0.518066,0.294434,0
47890,0.754395,-0.521484,0.305176,0
47910,0.734863,-0.498535,0.32666,0
47930,0.693359,-0.503906,0.293457,0
47950,0.706055,-0.522461,0.293457,0
47970,0.725586,-0.532715,0.322754,0
47990,0.692871,-0.527344,0.330078,0
48010,0.680664,-0.518555,0.307129,0
48030,0.695312,-0.524902,0.310059,0
48050,0.689941,-0.544434,0.324219,0
48070,0.691895,-0.554199,0.324219,0
48090,0.677246,-0.543945,0.318359,0
48110,0.668457,-0.538086,0.322266,0
48130,0.679688,-0.574219,0.321289,0
48150,0.67041,-0.584473,0.324707,0
48170,0.674805,-0.575684,0.318848,0
48190,0.69873,-0.57959,0.306152,0
48210,0.720215,-0.585938,0.322754,0
48230,0.6875,-0.587402,0.32959,0
48250,0.644531,-0.598633,0.30957,0
48270,0.657227,-0.609863,0.324219,0
48290,0.6875,-0.599609,0.341797,0
48310,0.67627,-0.59668,0.321777,0
48330,0.669434,-0.61377,0.301758,0
48350,0.67627,-0.615723,0.316406,0
48370,0.699707,-0.609375,0.336914,0
48390,0.693359,-0.591309,0.3125,0
48410,0.692871,-0.606445,0.282715,0
48430,0.708008,-0.641113,0.288086,0
48450,0.692383,-0.655273,0.30127,0
48470,0.65625,-0.651855,0.296387,0
48490,0.629883,-0.645508,0.288574,0
48510,0.648438,-0.644043,0.27002,0
48530,0.627441,-0.651367,0.263672,0
48550,0.584961,-0.664551,0.272949,0
48570,0.594238,-0.665039,0.272949,0
48590,0.621094,-0.656738,0.266113,0
48610,0.600586,-0.65332,0.257324,0
48630,0.589355,-0.673828,0.245117,0
48650,0.626953,-0.703613,0.250977,0
48670,0.629395,-0.686035,0.270508,0
48690,0.57373,-0.668457,0.26123,0
48710,0.561035,-0.69873,0.222656,0
48730,0.606445,-0.715332,0.246582,0
48750,0.609863,-0.706543,0.260254,0
48770,0.586426,-0.700195,0.231934,0
48790,0.588867,-0.713867,0.203125,0
48810,0.587891,-0.726562,0.224121,0
48830,0.601074,-0.693359,0.233887,0
48850,0.620117,-0.696289,0.226562,0
48870,0.595703,-0.706543,0.211426,0
48890,0.586426,-0.729004,0.191895,0
48910,0.61377,-0.727051,0.216797,0
48930,0.623535,-0.702148,0.199707,0
48950,0.614746,-0.698242,0.149414,0
48970,0.602051,-0.709961,0.133301,0
48990,0.566895,-0.751465,0.160645,0
49010,0.577637,-0.773926,0.153809,0
49030,0.597168,-0.786133,0.132812,0
49050,0.568359,-0.749512,0.0966797,0
49070,0.542969,-0.734863,0.0976562,0
49090,0.579102,-0.771484,0.146484,0
49110,0.604492,-0.782227,0.151855,0
49130,0.549316,-0.76416,0.104004,0
49150,0.538574,-0.745605,0.0717773,0
49170,0.55127,-0.770508,0.078125,0
49190,0.541992,-0.818848,0.0859375,0
49210,0.541016,-0.812988,0.0883789,0
49230,0.562012,-0.762207,0.0668945,0
49250,0.550293,-0.776367,0.101074,0
49270,0.560547,-0.821289,0.11377,0
49290,0.600586,-0.801758,0.0742188,0
49310,0.613281,-0.801758,0.043457,0
49330,0.619629,-0.717773,0.0322266,0
49350,0.618652,-0.734375,0.0195312,0
49370,0.619141,-0.786133,0.0297852,0
49390,0.604492,-0.812988,0.0200195,0
49410,0.623535,-0.782715,-0.0107422,0
49430,0.647461,-0.750977,-0.0429688,0
49450,0.64502,-0.743652,-0.03125,0
49470,0.651855,-0.744141,-0.03125,0
49490,0.659668,-0.76416,-0.0341797,0
49510,0.663086,-0.76416,-0.0576172,0
49530,0.677734,-0.756348,-0.0888672,0
49550,0.687988,-0.724609,-0.0927734,0
49570,0.668457,-0.737793,-0.0722656,0
49590,0.685547,-0.690918,-0.0834961,0
49610,0.694824,-0.689941,-0.0986328,0
49630,0.672852,-0.700684,-0.115234,0
49650,0.657715,-0.71875,-0.12207,0
49670,0.657227,-0.71875,-0.118652,0
49690,0.65625,-0.679688,-0.128418,0
49710,0.671875,-0.675781,-0.156738,0
49730,0.685547,-0.697266,-0.156738,0
49740,0.67334,-0.671387,-0.129883,0
49760,0.689941,-0.666504,-0.152832,0
49780,0.701172,-0.683105,-0.161621,0
49800,0.700684,-0.667969,-0.145508,0
49820,0.711426,-0.646973,-0.153809,0
49840,0.728516,-0.668945,-0.177734,0
49860,0.724609,-0.669922,-0.165039,0
49880,0.723633,-0.614258,-0.149414,0
49900,0.733887,-0.624512,-0.167969,0
49920,0.750488,-0.643555,-0.179199,0
49940,0.748047,-0.626465,-0.180664,0
49960,0.735352,-0.61377,-0.169922,0
49980,0.760254,-0.592285,-0.164551,0
50000,0.799316,-0.583496,-0.168945,0
50020,0.796387,-0.583008,-0.189453,0
50040,0.775879,-0.561035,-0.186035,0
50060,0.784668,-0.557617,-0.20459,0
50080,0.799316,-0.579102,-0.188477,0
50100,0.771973,-0.558105,-0.174805,0
50120,0.780273,-0.535156,-0.192383,0
50140,0.800293,-0.533203,-0.191895,0
50160,0.804199,-0.52002,-0.17334,0
50180,0.804199,-0.507324,-0.179688,0
50200,0.822754,-0.519531,-0.175781,0
50220,0.848145,-0.512207,-0.137695,0
50240,0.850098,-0.484375,-0.149902,0
50250,0.84082,-0.466797,-0.17334,0
50270,0.839355,-0.469238,-0.161133,0
50290,0.84668,-0.478516,-0.150391,0
50310,0.852051,-0.478516,-0.131348,0
50330,0.865234,-0.467285,-0.116699,0
50350,0.877441,-0.445801,-0.148926,0
50370,0.873535,-0.428711,-0.134277,0
50390,0.865723,-0.422852,-0.106934,0
50410,0.887695,-0.427734,-0.133789,0
50430,0.89209,-0.418457,-0.121582,0
50450,0.887695,-0.390625,-0.0878906,0
50470,0.913086,-0.375,-0.0742188,0
50490,0.932129,-0.391113,-0.0712891,0
50510,0.921875,-0.401855,-0.0610352,0
50530,0.911621,-0.379395,-0.0561523,0
50550,0.918457,-0.375977,-0.0478516,0
50570,0.917969,-0.375,-0.0229492,0
50590,0.89209,-0.396484,-0.00927734,0
50610,0.874512,-0.388184,-0.00830078,0
50630,0.876953,-0.402832,-0.00244141,0
50650,0.893066,-0.401855,0.0336914,0
50670,0.894531,-0.407227,0.0498047,0
50690,0.901855,-0.428711,0.0537109,0
50710,0.90332,-0.421875,0.0732422,0
50730,0.908203,-0.404785,0.065918,0
50750,0.917969,-0.418945,0.0751953,0
50770,0.901855,-0.416992,0.0708008,0
50790,0.876953,-0.419922,0.0957031,0
50810,0.848633,-0.421875,0.111816,0
50830,0.86377,-0.428711,0.114746,0
50850,0.868164,-0.440918,0.126465,0
50870,0.853027,-0.456055,0.157227,0
50890,0.849609,-0.424316,0.155273,0
50910,0.833984,-0.395996,0.137207,0
50930,0.842285,-0.401367,0.147949,0
50950,0.862793,-0.421875,0.176758,0
50970,0.843262,-0.439941,0.180176,0
50990,0.84082,-0.469238,0.166992,0
51010,0.872559,-0.480469,0.172852,0
51030,0.856445,-0.462891,0.197754,0
51050,0.816895,-0.447266,0.208008,0
51070,0.829102,-0.450195,0.187988,0
51090,0.805664,-0.475586,0.205566,0
51110,0.755859,-0.460938,0.20459,0
51130,0.770996,-0.462402,0.211914,0
51150,0.801758,-0.476074,0.229492,0
51170,0.793945,-0.458008,0.212891,0
51190,0.78125,-0.460938,0.219238,0
51210,0.807129,-0.496582,0.217285,0
51230,0.819824,-0.515625,0.207031,0
51250,0.800781,-0.495605,0.226074,0
51270,0.780273,-0.495117,0.216309,0
51290,0.784668,-0.478027,0.210449,0
51310,0.766113,-0.477051,0.243652,0
51330,0.724121,-0.521973,0.248535,0
51350,0.73877,-0.522461,0.260254,0
51370,0.728516,-0.499023,0.253906,0
51390,0.72998,-0.463867,0.210938,0
51410,0.750488,-0.47998,0.237793,0
51430,0.746582,-0.511719,0.252441,0
51450,0.731445,-0.533203,0.243652,0
51470,0.742676,-0.541016,0.225098,0
51490,0.730469,-0.520996,0.248047,0
51510,0.71582,-0.521484,0.24707,0
51530,0.726074,-0.543945,0.219238,0
51550,0.754395,-0.537598,0.219238,0
51570,0.73584,-0.525391,0.23877,0
51590,0.723145,-0.550781,0.252441,0
51610,0.75293,-0.563965,0.227539,0
51630,0.727051,-0.562988,0.21875,0
51650,0.707031,-0.57666,0.210938,0
51670,0.756836,-0.593262,0.237305,0
51690,0.745605,-0.55957,0.241211,0
51710,0.685547,-0.548828,0.219727,0
51730,0.70459,-0.577637,0.209473,0
51750,0.769043,-0.590332,0.210938,0
51770,0.733398,-0.586426,0.230469,0
51790,0.706055,-0.592285,0.216797,0
51810,0.74707,-0.625,0.204102,0
51830,0.719238,-0.601562,0.213867,0
51850,0.683594,-0.57959,0.202637,0
51870,0.713379,-0.614258,0.189453,0
51890,0.708496,-0.631348,0.199219,0
51910,0.685059,-0.624512,0.19873,0
51930,0.691895,-0.637695,0.183105,0
51950,0.705566,-0.653809,0.177246,0
51970,0.675293,-0.630371,0.186523,0
51990,0.676758,-0.635742,0.166016,0
52010,0.714355,-0.663086,0.143555,0
52030,0.718262,-0.671875,0.166504,0
52050,0.67627,-0.649414,0.174805,0
52070,0.680176,-0.673828,0.149902,0
52090,0.67627,-0.678223,0.131836,0
52110,0.679688,-0.653809,0.137695,0
52130,0.691406,-0.683105,0.131836,0
52150,0.700195,-0.69043,0.118652,0
52170,0.67041,-0.684082,0.115234,0
52190,0.673828,-0.669434,0.120117,0
52210,0.703613,-0.673828,0.123535,0
52230,0.683594,-0.677246,0.125977,0
52250,0.649902,-0.688965,0.121094,0
52270,0.684082,-0.691895,0.101562,0
52290,0.707031,-0.6875,0.101562,0
52310,0.653809,-0.677246,0.112793,0
52330,0.633301,-0.673828,0.0927734,0
52350,0.673828,-0.692383,0.0820312,0
52370,0.671387,-0.686523,0.0766602,0
52390,0.631836,-0.670898,0.0693359,0
52410,0.62793,-0.685059,0.0620117,0
52430,0.629883,-0.699219,0.0512695,0
52450,0.657715,-0.692871,0.0253906,0
52470,0.664551,-0.696777,0.0288086,0
52490,0.670898,-0.693848,0.0395508,0
52510,0.674316,-0.680176,0.03125,0
52530,0.685059,-0.711426,0.0341797,0
52550,0.677734,-0.705566,0.0249023,0
52570,0.688965,-0.702148,0.00830078,0
52590,0.714355,-0.697266,0.015625,0
52610,0.702148,-0.696777,0.0161133,0
52630,0.691406,-0.696777,0.0078125,0
52650,0.723145,-0.718262,-0.0151367,0
52670,0.719727,-0.717285,-0.0200195,0
52690,0.688965,-0.693359,-0.0205078,0
52710,0.69043,-0.683594,-0.0214844,0
52730,0.695312,-0.693359,-0.0405273,0
52750,0.708984,-0.711426,-0.0498047,0
52770,0.704102,-0.697754,-0.0405273,0
52790,0.685059,-0.699707,-0.0463867,0
52810,0.69873,-0.697266,-0.0722656,0
52830,0.714844,-0.681641,-0.0756836,0
52850,0.684082,-0.685547,-0.0834961,0
52870,0.669922,-0.688477,-0.107422,0
52890,0.695312,-0.715332,-0.101074,0
52910,0.691895,-0.715332,-0.106934,0
52930,0.670898,-0.701172,-0.106934,0
52950,0.677734,-0.697266,-0.124512,0
52970,0.696777,-0.708008,-0.125977,0
52990,0.676758,-0.706543,-0.114258,0
53010,0.660156,-0.710449,-0.135254,0
53030,0.687988,-0.716309,-0.145996,0
53050,0.69043,-0.702148,-0.137695,0
53070,0.663086,-0.687988,-0.140137,0
53090,0.669922,-0.696289,-0.160156,0
53110,0.69873,-0.737305,-0.166504,0
53130,0.70166,-0.729492,-0.15332,0
53150,0.688965,-0.699707,-0.166016,0
53160,0.696777,-0.680664,-0.158203,0
53180,0.719727,-0.664062,-0.155762,0
53200,0.722168,-0.664551,-0.179688,0
53220,0.715332,-0.661621,-0.188965,0
53240,0.705078,-0.662598,-0.183105,0
53260,0.696777,-0.644043,-0.189453,0
53280,0.70166,-0.649414,-0.199219,0
53300,0.722656,-0.653809,-0.224121,0
53320,0.726562,-0.63623,-0.233398,0
53340,0.711914,-0.614258,-0.237305,0
53360,0.735352,-0.606934,-0.269531,0
53380,0.769531,-0.625977,-0.278809,0
53400,0.760742,-0.635254,-0.253906,0
53420,0.740234,-0.611816,-0.273926,0
53440,0.75293,-0.605957,-0.30127,0
53460,0.770996,-0.598145,-0.311035,0
53480,0.753418,-0.564453,-0.297852,0
53500,0.739258,-0.556152,-0.291016,0
53520,0.74707,-0.590332,-0.30957,0
53540,0.772461,-0.542969,-0.315918,0
53560,0.762695,-0.520996,-0.324707,0
53580,0.759766,-0.543945,-0.324707,0
53600,0.745117,-0.499023,-0.315918,0
53620,0.742676,-0.472656,-0.312988,2001
53640,0.720215,-0.497559,-0.332031,0
53660,0.727051,-0.508789,-0.348145,0
53680,0.743652,-0.478516,-0.331055,0
53700,0.734863,-0.490234,-0.326172,0
53720,0.742188,-0.459473,-0.328125,0
53740,0.743652,-0.467285,-0.32959,0
53760,0.734863,-0.480957,-0.314941,0
53780,0.736328,-0.476074,-0.32373,0
53800,0.79541,-0.485352,-0.311035,0
53820,0.779785,-0.491211,-0.287598,0
53840,0.755859,-0.467773,-0.308105,0
53860,0.764648,-0.455078,-0.319824,0
53880,0.806152,-0.469238,-0.277832,0
53900,0.867188,-0.490234,-0.276367,0
53920,0.869629,-0.499023,-0.312988,0
53940,0.821289,-0.422363,-0.300781,0
53960,0.818359,-0.419434,-0.294922,0
53980,0.833984,-0.439941,-0.29248,0
54000,0.813477,-0.469238,-0.273926,0
54020,0.79248,-0.468262,-0.253418,0
54040,0.750977,-0.447266,-0.259766,0
54060,0.731934,-0.469727,-0.27002,0
54080,0.773926,-0.466797,-0.260254,0
54100,0.774414,-0.478516,-0.210938,0
54120,0.736328,-0.461914,-0.158203,0
54140,0.68457,-0.490234,-0.139648,0
54160,0.646973,-0.481445,-0.149902,0
54180,0.659668,-0.43457,-0.107422,0
54200,0.684082,-0.42041,-0.0898438,0
54220,0.719727,-0.501465,-0.114746,0
54240,0.726562,-0.562012,-0.141602,0
54260,0.743652,-0.511719,-0.0727539,0
54280,0.79248,-0.502441,-0.00488281,0
54300,0.862305,-0.597656,-0.0209961,0
54320,0.856445,-0.685059,-0.074707,0
54340,0.845703,-0.634277,0.000976562,0
54360,0.86084,-0.644531,0.0454102,0
54380,0.844727,-0.761719,0.0302734,0
54400,0.838379,-0.797852,-0.00634766,0
54420,0.80957,-0.754883,0.0439453,0
54440,0.731445,-0.763672,0.103027,0
54460,0.702148,-0.794434,0.148926,0
54480,0.679688,-0.794434,0.161621,0
54500,0.664062,-0.791016,0.188965,0
54520,0.666016,-0.796875,0.20166,0
54540,0.663086,-0.827148,0.200195,0
54560,0.654785,-0.859863,0.191406,0
54580,0.616699,-0.89502,0.173828,0
54600,0.595703,-0.907227,0.192871,0
54620,0.547852,-0.875,0.237793,0
54640,0.515625,-0.899902,0.25,0
54660,0.503418,-0.920898,0.277832,0
54680,0.47168,-0.921387,0.283691,0
54700,0.422363,-0.905762,0.305176,0
54720,0.362793,-0.900391,0.316895,0
54740,0.312012,-0.876953,0.320312,0
54760,0.296387,-0.862305,0.316895,0
54780,0.307617,-0.887695,0.304199,0
54800,0.275391,-0.876953,0.3125,0
54820,0.23584,-0.859375,0.32666,0
54840,0.234863,-0.867188,0.294922,0
54860,0.240723,-0.880859,0.266602,0
54880,0.268555,-0.886719,0.311035,0
54900,0.27002,-0.880859,0.327148,0
54920,0.259277,-0.882324,0.304688,0
54940,0.26416,-0.875977,0.287598,0
54960,0.288086,-0.866211,0.304688,0
54980,0.308594,-0.875977,0.316406,0
55000,0.310059,-0.882812,0.288086,0
55020,0.299316,-0.884766,0.293945,0
55040,0.325684,-0.876465,0.285156,0
55060,0.335938,-0.875977,0.271973,0
55080,0.339844,-0.883301,0.281738,0
55100,0.325684,-0.869629,0.294922,0
55120,0.318848,-0.894043,0.277832,0
55140,0.335938,-0.895996,0.257324,2000
55150,0.338867,-0.865234,0.279297,0
55170,0.313965,-0.861816,0.275879,0
55190,0.313477,-0.890625,0.279785,0
55210,0.316406,-0.854492,0.280273,0
55230,0.301758,-0.839355,0.267578,0
55250,0.296387,-0.870605,0.25,0
55270,0.319824,-0.868652,0.239258,0
55290,0.314941,-0.852051,0.265137,0
55310,0.29834,-0.845215,0.261719,0
55330,0.30957,-0.861816,0.254395,0
55350,0.330566,-0.868652,0.268555,0
55370,0.316895,-0.841797,0.271973,0
55390,0.304688,-0.847656,0.247559,0
55410,0.296875,-0.869629,0.237305,0
55430,0.298828,-0.869141,0.247559,0
55450,0.30957,-0.874023,0.239258,0
55470,0.311523,-0.87207,0.227539,0
55490,0.317871,-0.86377,0.253418,0
55510,0.346191,-0.869629,0.246582,0
55530,0.359863,-0.889648,0.241699,0
55550,0.348633,-0.871582,0.210938,0
55570,0.339355,-0.864746,0.223145,0
55590,0.327637,-0.857422,0.255371,0
55610,0.319824,-0.84375,0.242676,0
55630,0.327148,-0.857422,0.223145,0
55650,0.334473,-0.865723,0.22998,0
55670,0.351562,-0.844727,0.237305,0
55690,0.358398,-0.843262,0.234375,0
55710,0.364258,-0.868652,0.223633,0
55730,0.370117,-0.859375,0.231934,0
55750,0.396484,-0.867676,0.212891,0
55770,0.399902,-0.862305,0.222168,0
55790,0.385254,-0.854004,0.235352,0
55810,0.398926,-0.855957,0.235352,0
55830,0.434082,-0.845215,0.237793,0
55850,0.443848,-0.853516,0.23291,0
55870,0.424316,-0.848633,0.22998,0
55890,0.424316,-0.850098,0.21875,0
55910,0.439941,-0.855469,0.232422,0
55930,0.436035,-0.830078,0.242676,0
55950,0.459961,-0.849609,0.215332,0
55970,0.489746,-0.904785,0.192871,0
55990,0.470703,-0.878418,0.204102,0
56010,0.459961,-0.817383,0.217773,0
56030,0.47168,-0.817871,0.229004,0
56050,0.472656,-0.797852,0.22998,0
56070,0.476074,-0.808594,0.193848,0
56090,0.472656,-0.802246,0.208496,0
56110,0.470703,-0.778809,0.21582,0
56130,0.491211,-0.786621,0.183105,0
56150,0.505859,-0.799805,0.166992,0
56170,0.503906,-0.769043,0.183105,0
56190,0.527832,-0.768555,0.180176,0
56210,0.537109,-0.779785,0.188965,0
56230,0.552734,-0.769531,0.188477,0
56250,0.538574,-0.778809,0.180176,0
56270,0.544434,-0.765137,0.169434,0
56290,0.574219,-0.769043,0.179688,0
56310,0.583008,-0.770508,0.19043,0
56330,0.563477,-0.773926,0.1875,0
56350,0.563477,-0.754395,0.183105,0
56370,0.585449,-0.753418,0.174805,0
56390,0.594727,-0.763184,0.195801,0
56410,0.581055,-0.723145,0.189453,0
56430,0.604004,-0.745605,0.182129,0
56450,0.630371,-0.74707,0.189453,0
56470,0.626953,-0.723633,0.202148,0
56490,0.614258,-0.700684,0.193848,0
56510,0.641113,-0.720215,0.19043,0
56530,0.65332,-0.719238,0.207031,0
56550,0.637207,-0.685059,0.210938,0
56570,0.652832,-0.693359,0.207031,0
56590,0.668945,-0.711426,0.207031,0
56610,0.655273,-0.692383,0.230469,0
56630,0.635254,-0.662109,0.230469,0
56650,0.651855,-0.668945,0.223633,0
56670,0.658203,-0.685059,0.243652,0
56690,0.66748,-0.668945,0.253418,0
56710,0.67334,-0.64502,0.248535,0
56730,0.690918,-0.649414,0.250488,0
56750,0.70166,-0.65625,0.263184,0
56770,0.688965,-0.647461,0.251953,0
56790,0.683105,-0.646484,0.267578,0
56810,0.700195,-0.629883,0.285645,0
56830,0.69873,-0.623047,0.298828,0
56850,0.669922,-0.622559,0.29834,0
56870,0.677246,-0.610352,0.287598,0
56890,0.687988,-0.609375,0.274414,0
56910,0.683105,-0.597168,0.305664,0
56930,0.647949,-0.550781,0.314941,0
56950,0.649902,-0.562988,0.316895,0
56970,0.679688,-0.578613,0.327637,0
56990,0.688965,-0.576172,0.338379,0
57010,0.685059,-0.559082,0.341309,0
57030,0.67627,-0.550293,0.325684,0
57050,0.695801,-0.554199,0.330078,0
57070,0.709473,-0.558594,0.34375,0
57090,0.697266,-0.556641,0.360352,0
57110,0.674805,-0.552734,0.351074,0
57130,0.692871,-0.544434,0.331055,0
57150,0.707031,-0.535645,0.349121,0
57170,0.691406,-0.516602,0.381348,0
57190,0.69043,-0.528809,0.375977,0
57210,0.708008,-0.539062,0.372559,0
57230,0.693359,-0.508789,0.384766,0
57250,0.684082,-0.524902,0.376953,0
57270,0.688965,-0.53418,0.365723,0
57290,0.700195,-0.536133,0.38916,0
57310,0.678223,-0.5,0.404297,0
57330,0.675781,-0.508789,0.38916,0
57350,0.67627,-0.521973,0.382324,0
57370,0.653809,-0.530273,0.414551,0
57390,0.637695,-0.524414,0.424316,0
57410,0.682129,-0.541504,0.383301,0
57430,0.710449,-0.538574,0.379395,0
57450,0.695801,-0.519531,0.418457,0
57470,0.686035,-0.525879,0.416504,0
57490,0.668945,-0.569336,0.429688,0
57510,0.644531,-0.5625,0.438477,0
57530,0.643555,-0.541992,0.407227,0
57550,0.672852,-0.521973,0.403809,0
57570,0.65332,-0.538086,0.425781,0
57590,0.596191,-0.543457,0.425781,0
57610,0.599121,-0.576172,0.405762,0
57630,0.654785,-0.581055,0.418457,0
57650,0.638672,-0.52832,0.4375,0
57670,0.598633,-0.509277,0.425293,0
57690,0.623047,-0.552246,0.393555,0
57710,0.634766,-0.570801,0.415039,0
57730,0.605469,-0.55127,0.443848,0
57750,0.602539,-0.555176,0.442871,0
57770,0.630371,-0.573242,0.424316,0
57790,0.621582,-0.558594,0.420898,0
57810,0.612305,-0.543945,0.431641,0
57830,0.605957,-0.572754,0.421875,0
57850,0.601074,-0.569336,0.429688,0
57870,0.590332,-0.567383,0.427734,0
57890,0.589844,-0.57373,0.431152,0
57910,0.602539,-0.578613,0.439941,0
57930,0.604492,-0.586426,0.442383,0
57950,0.587402,-0.570801,0.450195,0
57970,0.574219,-0.573242,0.425781,0
57990,0.579102,-0.600586,0.431152,0
58010,0.583496,-0.62207,0.450195,0
58030,0.570801,-0.598633,0.459961,0
58050,0.564941,-0.587891,0.445312,0
58070,0.563965,-0.608887,0.428711,0
58090,0.572754,-0.621582,0.438965,0
58110,0.540039,-0.603516,0.478027,0
58130,0.524902,-0.607422,0.455078,0
58150,0.568359,-0.649902,0.424805,0
58170,0.566406,-0.646484,0.46582,0
58190,0.521484,-0.641113,0.463867,0
58210,0.513672,-0.659668,0.422363,0
58230,0.549805,-0.663086,0.427734,0
58250,0.522461,-0.623535,0.460449,0
58270,0.495605,-0.632812,0.45459,0
58290,0.52002,-0.678711,0.439941,0
58310,0.525879,-0.666504,0.454102,0
58330,0.494629,-0.668945,0.431152,0
58350,0.499512,-0.677734,0.431641,0
58370,0.483398,-0.669922,0.439941,0
58390,0.452637,-0.675293,0.42334,0
58410,0.45166,-0.69043,0.422363,0
58430,0.479492,-0.697266,0.42627,0
58450,0.481934,-0.693848,0.426758,0
58470,0.474609,-0.702148,0.410156,0
58490,0.459473,-0.702148,0.422852,0
58510,0.462402,-0.680664,0.423828,0
58530,0.467285,-0.676758,0.418945,0
58540,0.442871,-0.683105,0.418945,0
58560,0.424316,-0.699707,0.411621,0
58580,0.476074,-0.722168,0.38916,0
58600,0.484863,-0.719238,0.413086,0
58620,0.450195,-0.708008,0.40625,0
58640,0.442871,-0.736328,0.386719,0
58660,0.46875,-0.755371,0.399414,0
58680,0.460449,-0.731934,0.402832,0
58700,0.456543,-0.740234,0.384277,0
58720,0.445312,-0.764648,0.390137,0
58740,0.428223,-0.741699,0.405762,0
58760,0.435059,-0.736328,0.404297,0
58780,0.444824,-0.768066,0.373535,0
58800,0.4375,-0.755371,0.368652,0
58820,0.422363,-0.753906,0.364746,0
58840,0.468262,-0.76416,0.358398,0
58860,0.433105,-0.771484,0.353516,0
58880,0.40625,-0.760254,0.349121,0
58900,0.422852,-0.762695,0.346191,0
58920,0.430176,-0.785156,0.343262,0
58940,0.394531,-0.777344,0.343262,0
58960,0.385254,-0.788574,0.323242,0
58980,0.416992,-0.804199,0.318359,0
59000,0.413574,-0.796875,0.317871,0
59020,0.401367,-0.800781,0.309082,0
59040,0.404785,-0.810059,0.309082,0
59060,0.410156,-0.813477,0.295898,0
59080,0.393555,-0.804199,0.304688,0
59100,0.372559,-0.817383,0.305176,0
59120,0.381348,-0.846191,0.291992,0
59140,0.385742,-0.831543,0.294922,0
59160,0.39209,-0.822266,0.280762,0
59180,0.424316,-0.812988,0.262207,0
59200,0.445801,-0.816406,0.253906,0
59220,0.448242,-0.825684,0.270508,0
59240,0.441406,-0.830078,0.258301,0
59260,0.45166,-0.850098,0.229492,0
59280,0.460938,-0.843262,0.241699,0
59300,0.460449,-0.819336,0.249023,0
59320,0.455566,-0.836914,0.224609,0
59340,0.469238,-0.835938,0.200195,0
59360,0.476562,-0.82666,0.197266,0
59380,0.45459,-0.805176,0.200684,0
59400,0.470215,-0.82373,0.193359,0
59420,0.459961,-0.80957,0.182617,0
59440,0.462402,-0.807129,0.179199,0
59460,0.472656,-0.822266,0.168945,0
59480,0.48291,-0.8125,0.145508,0
59500,0.496582,-0.811035,0.130859,0
59520,0.493164,-0.803711,0.158691,0
59540,0.491211,-0.800781,0.160156,0
59560,0.48291,-0.808105,0.130371,0
59580,0.487305,-0.802734,0.108887,0
59600,0.509766,-0.796387,0.0869141,0
59620,0.531738,-0.827637,0.0932617,0
59640,0.522949,-0.811523,0.12793,0
59660,0.527832,-0.771484,0.120605,0
59680,0.541504,-0.820312,0.0927734,0
59700,0.541504,-0.811523,0.0932617,0
59720,0.546875,-0.816895,0.0986328,0
59740,0.536133,-0.8125,0.0922852,0
59760,0.549316,-0.806152,0.0800781,0
59780,0.586426,-0.8125,0.0639648,0
59800,0.599121,-0.791504,0.0800781,0
59820,0.578125,-0.791016,0.0664062,0
59840,0.594727,-0.788574,0.0478516,0
59860,0.611328,-0.780273,0.0693359,0
59880,0.620117,-0.755371,0.0756836,0
59900,0.614258,-0.745117,0.0634766,0
59920,0.637695,-0.750977,0.0419922,0
59940,0.629883,-0.742188,0.0556641,0
59960,0.636719,-0.72168,0.059082,0
59980,0.645508,-0.727051,0.0400391,0
60000,0.645996,-0.708008,0.0322266,0
60020,0.640625,-0.691406,0.0380859,0
60040,0.651855,-0.717773,0.050293,0
60060,0.681152,-0.732422,0.0175781,0
60080,0.685059,-0.70166,0.0200195,0
60100,0.705566,-0.677246,0.0126953,0
60120,0.724121,-0.685059,0.0078125,0
60140,0.716797,-0.714844,0.00341797,0
60160,0.701172,-0.662109,0.0180664,0
60180,0.732422,-0.639648,0.019043,0
60200,0.753418,-0.634277,0.00488281,0
60220,0.748047,-0.641602,-0.0078125,0
60240,0.744141,-0.630859,-0.00537109,0
60260,0.76416,-0.649414,0.00341797,0
60280,0.75,-0.635254,-0.00537109,0
60300,0.742676,-0.601562,-0.015625,0
60320,0.762207,-0.592773,0.000488281,0
60340,0.780273,-0.591309,0.00195312,0
60360,0.775391,-0.601074,-0.00878906,0
60380,0.784668,-0.585449,0,0
60400,0.789062,-0.570801,0.00878906,0
60420,0.782715,-0.550781,-0.00585938,0
60440,0.79248,-0.5625,-0.0161133,0
60460,0.802246,-0.545898,0.0078125,0
60480,0.812012,-0.533203,0.0136719,0
60500,0.807617,-0.530273,0.00976562,0
60510,0.820312,-0.519531,0.0234375,0
60530,0.827637,-0.518555,0.0317383,0
60550,0.827148,-0.53125,0.0405273,0
60570,0.824707,-0.522461,0.0478516,0
60590,0.842773,-0.509277,0.043457,0
60610,0.857422,-0.504883,0.0493164,0
60630,0.849609,-0.480957,0.0668945,0
60650,0.847656,-0.473633,0.0898438,0
60670,0.852051,-0.502441,0.074707,0
60690,0.856934,-0.51709,0.0693359,0
60710,0.849121,-0.497559,0.0957031,0
60730,0.864746,-0.472168,0.122559,0
60750,0.835938,-0.460449,0.11377,0
60770,0.834473,-0.477539,0.124512,0
60790,0.835938,-0.477539,0.132324,0
60820,0.84082,-0.478516,0.131348,0
60840,0.822266,-0.455566,0.147461,0
60860,0.825684,-0.470215,0.144531,0
60880,0.825195,-0.479004,0.149902,0
60900,0.796875,-0.473145,0.147461,0
60920,0.793457,-0.490723,0.14209,0
60940,0.807129,-0.476074,0.170898,0
60960,0.817383,-0.46875,0.174316,0
60980,0.82373,-0.489258,0.174805,0
61000,0.807129,-0.479492,0.169922,0
61020,0.791992,-0.473145,0.166504,0
61040,0.815918,-0.492676,0.168457,0
61060,0.811035,-0.478027,0.199219,0
61080,0.802246,-0.472656,0.196777,0
61100,0.809082,-0.490234,0.184082,0
61120,0.813477,-0.489258,0.1875,0
61140,0.790039,-0.480469,0.192383,0
61160,0.791016,-0.484863,0.204102,0
61180,0.808105,-0.491211,0.21582,0
61200,0.782715,-0.483887,0.230957,0
61220,0.78125,-0.489746,0.213379,0
61240,0.801758,-0.507324,0.217285,0
61260,0.787109,-0.477051,0.24707,0
61280,0.763672,-0.479492,0.239746,0
61300,0.774414,-0.492188,0.229004,0
61320,0.790039,-0.496094,0.253906,0
61340,0.777832,-0.494629,0.258301,0
61360,0.773438,-0.508789,0.231445,0
61380,0.78418,-0.522461,0.234375,0
61400,0.777832,-0.489258,0.253906,0
61420,0.753418,-0.480957,0.265625,0
61440,0.755371,-0.484375,0.249023,0
61460,0.774902,-0.505371,0.241699,0
61480,0.778809,-0.527832,0.262695,0
61500,0.744629,-0.512695,0.281738,0
61520,0.71582,-0.47998,0.27832,0
61540,0.73584,-0.495117,0.270508,0
61560,0.766113,-0.50293,0.294922,0
61580,0.748047,-0.479004,0.292969,0
61600,0.711426,-0.498047,0.274902,0
61620,0.717285,-0.506836,0.28125,0
61640,0.70459,-0.519043,0.302246,0
61660,0.68457,-0.52002,0.305664,0
61680,0.727051,-0.540039,0.284668,0
61700,0.747559,-0.535645,0.294922,0
61720,0.711914,-0.520996,0.316895,0
61740,0.706055,-0.547852,0.299316,0
61760,0.750488,-0.557617,0.317871,0
61780,0.722168,-0.549805,0.325195,0
61800,0.695312,-0.549316,0.314941,0
61820,0.690918,-0.549805,0.326172,0
61840,0.686523,-0.55127,0.325195,0
61860,0.710449,-0.555664,0.316406,0
61880,0.714844,-0.573242,0.339355,0
61900,0.680176,-0.586426,0.321289,0
61920,0.666016,-0.578613,0.321777,0
61940,0.694824,-0.578125,0.333008,0
61960,0.675293,-0.580566,0.336914,0
61980,0.670898,-0.578125,0.335449,0
62000,0.689941,-0.595215,0.344238,0
62020,0.67334,-0.577637,0.333496,0
62040,0.651367,-0.572754,0.322754,0
62060,0.676758,-0.599609,0.316406,0
62080,0.688477,-0.614258,0.331055,0
62100,0.646973,-0.612305,0.315918,0
62120,0.637207,-0.596191,0.317383,0
62140,0.674316,-0.601562,0.320312,0
62160,0.671875,-0.605469,0.310059,0
62180,0.649902,-0.611816,0.297852,0
62200,0.658203,-0.62793,0.300781,0
62220,0.675781,-0.617188,0.312012,0
62240,0.673828,-0.619629,0.312012,0
62260,0.677734,-0.634277,0.296387,0
62280,0.674316,-0.622559,0.29541,0
62300,0.684082,-0.621582,0.284668,0
62320,0.664551,-0.63916,0.289062,0
62340,0.617676,-0.663086,0.280273,0
62360,0.60498,-0.691895,0.249023,0
62380,0.643066,-0.6875,0.26709,0
62400,0.615723,-0.658203,0.28418,0
62420,0.562012,-0.64209,0.266113,0
62440,0.578125,-0.67334,0.241211,0
62460,0.608398,-0.710449,0.283203,0
62480,0.600586,-0.673828,0.291016,0
62500,0.584961,-0.672363,0.263672,0
62520,0.598145,-0.686035,0.236816,0
62540,0.597168,-0.690918,0.25293,0
62560,0.567871,-0.688477,0.265625,0
62580,0.564453,-0.696777,0.259277,0
62600,0.586914,-0.715332,0.257812,0
62620,0.594238,-0.689453,0.260742,0
62640,0.562012,-0.713867,0.248047,0
62660,0.574707,-0.754395,0.218262,0
62680,0.621094,-0.751465,0.186035,0
62700,0.613281,-0.735352,0.203125,0
62720,0.556641,-0.748047,0.203125,0
62740,0.553711,-0.769043,0.178223,0
62760,0.568359,-0.762207,0.193848,0
62780,0.556152,-0.755371,0.196777,0
62800,0.548828,-0.768555,0.181152,0
62820,0.547852,-0.784668,0.162598,0
62840,0.547852,-0.767578,0.135742,0
62860,0.548828,-0.770996,0.139648,0
62880,0.555176,-0.762207,0.14502,0
62900,0.552734,-0.788574,0.141113,0
62920,0.55957,-0.799805,0.113281,0
62940,0.563477,-0.77002,0.105469,0
62960,0.572754,-0.755371,0.120605,0
62980,0.589844,-0.773438,0.105469,0
63000,0.588379,-0.771484,0.0869141,0
63020,0.608398,-0.771973,0.0888672,0
63040,0.617676,-0.761719,0.0908203,0
63060,0.634277,-0.74707,0.0761719,0
63080,0.630859,-0.751953,0.0522461,0
63100,0.605469,-0.757324,0.059082,0
63120,0.609863,-0.752441,0.0449219,0
63140,0.62793,-0.755859,0.0283203,0
63160,0.624512,-0.742188,0.0200195,0
63180,0.614258,-0.729492,0.0234375,0
63200,0.638184,-0.75293,0.0126953,0
63220,0.655273,-0.757324,0.00732422,0
63240,0.637207,-0.742188,-0.0161133,0
63260,0.631348,-0.733887,-0.0292969,0
63280,0.625488,-0.733398,-0.0341797,0
63300,0.656738,-0.740234,-0.03125,0
63320,0.655762,-0.73584,-0.0307617,0
63340,0.649902,-0.725586,-0.0634766,0
63360,0.675781,-0.741211,-0.0615234,0
63380,0.659668,-0.743652,-0.0546875,0
63400,0.643066,-0.742188,-0.0605469,0
63420,0.648926,-0.740723,-0.0874023,0
63440,0.65918,-0.725586,-0.0869141,0
63460,0.651367,-0.700195,-0.0859375,0
63480,0.650391,-0.707031,-0.0942383,0
63500,0.667969,-0.731445,-0.102051,0
63520,0.678711,-0.722656,-0.105957,0
63540,0.670898,-0.709473,-0.104492,0
63560,0.675781,-0.688965,-0.125488,0
63580,0.6875,-0.696777,-0.129395,0
63600,0.693848,-0.714355,-0.112305,0
63620,0.674805,-0.693359,-0.122559,0
63640,0.702637,-0.677734,-0.147949,0
63660,0.715332,-0.678711,-0.146973,0
63680,0.70752,-0.668457,-0.126465,0
63700,0.713867,-0.638184,-0.118652,0
63720,0.729492,-0.645508,-0.151367,0
63740,0.733887,-0.644043,-0.169922,0
63760,0.734863,-0.619629,-0.160156,0
63780,0.747559,-0.628418,-0.155273,0
63800,0.740723,-0.620117,-0.155273,0
63820,0.749512,-0.59668,-0.165039,0
63840,0.762695,-0.592285,-0.169922,0
63860,0.776855,-0.608398,-0.16748,0
63880,0.780273,-0.578125,-0.165039,0
63900,0.789551,-0.577637,-0.172852,0
63910,0.773438,-0.587891,-0.166992,0
63930,0.800293,-0.571289,-0.158203,0
63950,0.813477,-0.557129,-0.148926,0
63970,0.8125,-0.54834,-0.155762,0
63990,0.804199,-0.530762,-0.157715,0
64010,0.811523,-0.514648,-0.148926,0
64030,0.835938,-0.529785,-0.14502,0
64050,0.84082,-0.515625,-0.129395,0
64070,0.82373,-0.48877,-0.132812,0
64090,0.831055,-0.5,-0.13623,0
64110,0.849121,-0.513184,-0.128418,0
64130,0.833496,-0.489746,-0.108398,0
64150,0.824219,-0.472168,-0.131836,0
64170,0.834473,-0.483887,-0.124023,0
64190,0.860352,-0.454102,-0.0966797,0
64210,0.859375,-0.426758,-0.0839844,0
64230,0.854492,-0.435059,-0.103516,0
64250,0.866211,-0.447754,-0.104004,0
64270,0.865723,-0.427734,-0.0722656,0
64290,0.867676,-0.42041,-0.0737305,0
64310,0.87793,-0.443359,-0.0849609,0
64330,0.893066,-0.431641,-0.065918,0
64350,0.881348,-0.407715,-0.0576172,0
64370,0.880371,-0.397461,-0.0429688,0
64390,0.887207,-0.426758,-0.0649414,0
64410,0.87793,-0.424316,-0.0371094,0
64430,0.875,-0.416504,-0.0166016,0
64450,0.872559,-0.40625,-0.0131836,0
64470,0.881836,-0.406738,0.0131836,0
64490,0.884277,-0.40918,0.0161133,0
64510,0.887207,-0.412598,0.00830078,0
64530,0.914062,-0.4375,0.0327148,0
64550,0.91748,-0.443848,0.0664062,0
64570,0.908203,-0.417969,0.0712891,0
64590,0.900391,-0.42334,0.065918,0
64610,0.915039,-0.440918,0.0859375,0
64630,0.906738,-0.437012,0.105469,0
64650,0.873047,-0.454102,0.103516,0
64670,0.861816,-0.458496,0.118652,0
64690,0.870117,-0.438965,0.130371,0
64710,0.84375,-0.450195,0.147949,0
64730,0.846191,-0.462891,0.149902,0
64750,0.866699,-0.496094,0.159668,0
64770,0.845703,-0.491699,0.168945,0
64790,0.793457,-0.474121,0.178711,0
64810,0.824219,-0.461426,0.165039,0
64830,0.818848,-0.454102,0.185547,0
64850,0.784668,-0.475586,0.193359,0
64870,0.794922,-0.48291,0.202637,0
64890,0.791992,-0.466309,0.222168,0
64910,0.770508,-0.459473,0.214355,0
64930,0.793945,-0.486328,0.20459,0
64950,0.805664,-0.500488,0.220703,0
64970,0.766113,-0.506348,0.23584,0
64990,0.740234,-0.484863,0.213379,0
65010,0.788086,-0.488281,0.203125,0
65030,0.789551,-0.493164,0.23584,0
65050,0.726562,-0.496094,0.232422,0
65070,0.737793,-0.520996,0.187988,0
65090,0.79248,-0.52002,0.220215,0
65110,0.767578,-0.513184,0.234863,0
65130,0.756836,-0.519531,0.21582,0
65150,0.769043,-0.526855,0.224121,0
65170,0.735352,-0.516113,0.239258,0
65190,0.743164,-0.540039,0.216309,0
65210,0.776367,-0.564453,0.223633,0
65230,0.751465,-0.54248,0.22998,0
65250,0.739258,-0.532227,0.227051,0
65270,0.768555,-0.556641,0.21582,0
65290,0.758301,-0.5625,0.227051,0
65310,0.716797,-0.543945,0.236328,0
65330,0.746582,-0.569824,0.203613,0
65350,0.765625,-0.587402,0.224609,0
65370,0.731445,-0.561035,0.225586,0
65390,0.734375,-0.577637,0.192383,0
65410,0.780762,-0.589844,0.199707,0
65430,0.747559,-0.567383,0.217773,0
65450,0.702148,-0.567871,0.200684,0
65470,0.740723,-0.596191,0.199707,0
65490,0.727539,-0.587402,0.219727,0
65510,0.682617,-0.560547,0.205566,0
65530,0.719727,-0.585938,0.178223,0
65550,0.751465,-0.611328,0.192383,0
65570,0.708496,-0.606934,0.203125,0
65590,0.68457,-0.599121,0.192383,0
65610,0.731934,-0.603516,0.179199,0
65630,0.741211,-0.61084,0.206543,0
65650,0.689453,-0.604492,0.199707,0
65670,0.70459,-0.628906,0.17041,0
65690,0.728516,-0.630371,0.180664,0
65710,0.682617,-0.620117,0.187012,0
65730,0.663086,-0.632324,0.180176,0
65750,0.676758,-0.63623,0.17334,0
65770,0.668945,-0.616211,0.170898,0
65790,0.657715,-0.631836,0.177246,0
65810,0.683594,-0.667969,0.171387,0
65830,0.678223,-0.664551,0.171387,0
65850,0.666016,-0.642578,0.178223,0
65870,0.672363,-0.651367,0.17334,0
65880,0.699219,-0.689941,0.166016,0
65900,0.6875,-0.693359,0.176758,0
65920,0.658691,-0.675781,0.152344,0
65940,0.667969,-0.674805,0.133301,0
65960,0.686523,-0.69873,0.146973,0
65980,0.661621,-0.689941,0.141113,0
66000,0.659668,-0.687012,0.130859,0
66020,0.655273,-0.696777,0.112793,0
66040,0.679688,-0.689941,0.112793,0
66060,0.672852,-0.692871,0.113281,0
66080,0.666504,-0.698242,0.0947266,0
66100,0.660645,-0.70166,0.0761719,0
66120,0.675781,-0.686523,0.0786133,0
66140,0.672852,-0.679199,0.0688477,0
66160,0.654297,-0.70166,0.0556641,0
66180,0.689941,-0.716797,0.0288086,0
66200,0.679688,-0.712891,0.0380859,0
66220,0.657227,-0.685547,0.0234375,0
66240,0.682129,-0.688477,-0.000976562,0
66260,0.708008,-0.710449,-0.00830078,0
66280,0.681152,-0.728027,-0.00537109,0
66300,0.66748,-0.730957,-0.00927734,0
66320,0.701172,-0.722656,-0.0175781,0
66340,0.69873,-0.71875,-0.0356445,0
66360,0.667969,-0.722168,-0.0439453,0
66380,0.670898,-0.71875,-0.0424805,0
66400,0.668945,-0.711426,-0.0429688,0
