Timestamp, Acceleration x, Acceleration y, Acceleration z, Marker
30,-0.27002,-0.648438,0.71875,0
50,-0.269043,-0.649902,0.717285,0
70,-0.272461,-0.650879,0.722168,0
90,-0.271484,-0.649414,0.729492,0
110,-0.271484,-0.640625,0.732422,0
110,-0.266113,-0.64502,0.723633,0
120,-0.272461,-0.661621,0.722168,0
130,-0.277344,-0.654785,0.714355,0
150,-0.279297,-0.655273,0.720215,0
170,-0.282715,-0.65332,0.713379,0
190,-0.270996,-0.655273,0.712891,0
200,-0.270996,-0.655762,0.710449,0
200,-0.274414,-0.657715,0.717285,0
220,-0.274902,-0.658203,0.712891,0
240,-0.274902,-0.664062,0.71875,0
280,-0.27832,-0.657715,0.704102,0
300,-0.280762,-0.654785,0.712402,0
320,-0.282715,-0.660645,0.713379,0
340,-0.287109,-0.655762,0.703125,0
340,-0.281738,-0.664551,0.702148,0
340,-0.28125,-0.669922,0.705078,0
390,-0.280762,-0.666016,0.699219,0
420,-0.27832,-0.666504,0.703613,0
430,-0.28125,-0.662598,0.699219,0
450,-0.281738,-0.663574,0.692871,0
450,-0.279297,-0.668945,0.703125,0
460,-0.276855,-0.666992,0.710938,0
480,-0.280273,-0.665039,0.710449,0
500,-0.278809,-0.665527,0.709473,0
520,-0.282715,-0.664062,0.706543,0
540,-0.283691,-0.665527,0.696777,0
560,-0.286133,-0.665527,0.700195,0
590,-0.287598,-0.661621,0.701172,0
610,-0.279785,-0.666504,0.706055,0
630,-0.281738,-0.668945,0.702148,0
650,-0.276367,-0.66748,0.708496,0
660,-0.274414,-0.666504,0.706055,0
680,-0.277344,-0.668457,0.70166,0
700,-0.279785,-0.663086,0.700684,0
730,-0.277832,-0.662598,0.706543,0
750,-0.283203,-0.663574,0.70752,0
770,-0.27832,-0.659668,0.709473,0
790,-0.279297,-0.660156,0.708984,0
810,-0.28125,-0.668457,0.706055,0
830,-0.281738,-0.660156,0.703613,0
840,-0.279297,-0.662598,0.695312,0
850,-0.278809,-0.660156,0.702637,0
870,-0.273926,-0.664062,0.70752,0
870,-0.277344,-0.663574,0.717773,0
890,-0.273438,-0.658691,0.706543,0
910,-0.276367,-0.654785,0.713867,0
930,-0.282227,-0.662598,0.710938,0
970,-0.276367,-0.661621,0.713867,0
990,-0.277344,-0.665039,0.708984,0
990,-0.273438,-0.661133,0.712402,0
990,-0.27832,-0.651367,0.713867,0
990,-0.280273,-0.658203,0.708008,0
1000,-0.279785,-0.666016,0.709473,0
1010,-0.285645,-0.663574,0.710449,0
1030,-0.282227,-0.666016,0.700684,0
1050,-0.286621,-0.666016,0.705566,0
1070,-0.278809,-0.663086,0.712402,0
1090,-0.277344,-0.660645,0.710449,0
1110,-0.279297,-0.660156,0.70166,0
1130,-0.284668,-0.661621,0.706055,0
1160,-0.28125,-0.663086,0.692871,0
1190,-0.283691,-0.665039,0.708008,0
1210,-0.289551,-0.661133,0.712891,0
1220,-0.288086,-0.664062,0.706055,0
1240,-0.286621,-0.663574,0.698242,0
1260,-0.288574,-0.666016,0.691895,0
1280,-0.281738,-0.661133,0.703125,0
1300,-0.277832,-0.665039,0.705566,0
1320,-0.280762,-0.671875,0.706543,0
1340,-0.276855,-0.66748,0.709961,0
1360,-0.283203,-0.659668,0.70459,0
1380,-0.284668,-0.662598,0.706055,0
1400,-0.286621,-0.662109,0.699707,0
1430,-0.288086,-0.665527,0.70166,0
1450,-0.28418,-0.668457,0.700195,0
1460,-0.28418,-0.666016,0.700195,0
1480,-0.288574,-0.662109,0.700195,0
1500,-0.287598,-0.665527,0.703125,0
1510,-0.28125,-0.664551,0.695312,0
1540,-0.282227,-0.661621,0.689453,0
1560,-0.283203,-0.664062,0.691895,0
1580,-0.279297,-0.665039,0.700684,0
1600,-0.279785,-0.665527,0.715332,0
1630,-0.289551,-0.746094,0.685059,0
1650,-0.291992,-0.901367,0.626953,0
1660,-0.294434,-1.15039,0.571777,0
1680,-0.213379,-1.27441,0.469727,0
1710,-0.45459,-1.43311,0.445801,0
1730,-0.665039,-1.2793,0.578613,0
1750,-0.57373,-1.20215,0.58252,0
1770,-0.27832,-1.19434,0.592773,0
1790,-0.121094,-0.991211,0.617676,0
1810,-0.0429688,-0.862793,0.664551,0
1830,-0.138672,-0.740723,0.708984,0
1870,-0.112793,-0.0820312,1.01758,0
1890,-0.178711,-0.102051,0.891602,0
1910,-0.365723,-0.0908203,0.787598,0
1930,-0.460938,-0.0429688,0.694824,0
1950,-0.366211,-0.0307617,0.67041,0
1970,-0.257324,0.0878906,0.64209,0
1990,-0.23291,0.128906,0.706055,0
2010,-0.250488,0.0581055,0.672852,0
2030,-0.191406,-0.135742,0.625977,0
2050,-0.114746,-0.35791,0.655273,0
2070,-0.046875,-0.56543,0.732422,0
2090,-0.0805664,-0.59375,0.652344,0
2110,-0.0532227,-0.717773,0.530762,0
2130,0.0078125,-1.12793,0.638184,0
2150,-0.141602,-1.38477,0.703125,0
2170,-0.21875,-1.39746,0.614258,0
2190,-0.0898438,-1.22363,0.358398,0
2210,0.101562,-1.6333,0.279785,0
2230,0.179688,-1.7207,0.335938,0
2250,0.154297,-1.52686,0.42627,0
2270,0.135742,-1.37988,0.47998,0
2290,0.121582,-1.15088,0.497559,0
2310,0.106445,-0.944336,0.583008,0
2330,0.12207,-0.822754,0.620117,0
2350,0.137695,-0.702148,0.619629,0
2370,0.192871,-0.581543,0.725098,0
2390,0.251465,-0.459473,0.85498,0
2410,0.164062,-0.323242,0.908691,0
2430,-0.0102539,-0.183594,0.944336,0
2450,-0.0825195,-0.145508,0.952148,0
2470,-0.192871,-0.186523,0.886719,0
2490,-0.243164,-0.188965,0.819336,0
2510,-0.142578,-0.126953,0.779785,0
2530,-0.0166016,-0.0180664,0.801758,0
2550,0.0263672,0.145508,0.837402,0
2570,-0.015625,0.202637,0.847168,0
2590,0.0292969,-0.00830078,0.851562,0
2610,0.125977,-0.273926,0.912109,0
2630,0.143555,-0.475098,0.95459,0
2650,0.101074,-0.606445,0.862305,0
2670,0.012207,-0.725098,0.790039,0
2690,-0.143555,-0.858398,0.77832,0
2710,-0.198242,-1.01709,0.71582,0
2730,-0.164062,-1.36475,0.532227,0
2750,-0.191406,-1.69287,0.495605,0
2770,-0.175293,-1.54736,0.55957,0
2790,-0.0478516,-1.38232,0.473633,0
2800,0.097168,-1.39404,0.449707,0
2820,0.152344,-1.36816,0.500488,0
2840,0.118164,-1.27393,0.424805,0
2860,0.125,-1.14893,0.44873,0
2880,0.182617,-0.890137,0.401855,0
2900,0.249023,-0.789062,0.38623,0
2920,0.308105,-0.698242,0.402344,0
2940,0.291992,-0.609375,0.349121,0
2960,0.257324,-0.626953,0.396973,0
2980,0.258789,-0.662598,0.583984,0
3000,0.29834,-0.682129,0.750977,0
3020,0.324707,-0.713379,0.814941,0
3040,0.217773,-0.770508,0.837402,0
3060,0.0664062,-0.880371,0.827637,0
3080,-0.0102539,-0.833008,0.741699,0
3100,-0.0283203,-0.656738,0.78125,0
3120,-0.0429688,-0.499023,0.866699,0
3140,-0.059082,-0.443359,0.96582,0
3160,-0.000976562,-0.385254,0.992188,0
3180,0.0678711,-0.313477,0.970703,0
3200,0.0898438,-0.347168,0.891602,0
3220,0.158203,-0.339844,0.776855,0
3240,0.168945,-0.290527,0.725586,0
3260,0.00878906,-0.362305,0.728027,0
3280,-0.14502,-0.492676,0.72168,0
3300,-0.185059,-0.631348,0.740723,0
3320,-0.128418,-0.788574,0.722168,0
3340,-0.102051,-0.95459,0.709961,0
3360,-0.112793,-1.14111,0.501465,0
3380,-0.15332,-1.42822,0.37207,0
3400,-0.194824,-1.63232,0.37793,0
3420,-0.19873,-1.57129,0.710449,0
3440,-0.243164,-1.08594,0.769531,0
3460,-0.128418,-0.963867,0.457031,0
3470,0.0263672,-1.08789,0.240234,0
3490,0.124023,-1.09033,0.148926,0
3510,0.090332,-1.11768,0.219727,0
3530,0.00830078,-1.01855,0.23877,0
3550,-0.0366211,-0.993652,0.22998,0
3570,-0.0307617,-1.01758,0.228516,0
3590,-0.00927734,-0.980957,0.257324,0
3610,0.0205078,-0.905762,0.314453,0
3630,0.0810547,-0.815918,0.373535,0
3650,0.128418,-0.749512,0.48291,0
3670,0.0839844,-0.733887,0.59668,0
3690,0.0375977,-0.719727,0.736816,0
3710,0.0463867,-0.767578,0.834961,0
3730,0.0561523,-0.82959,0.894531,0
3750,0.0317383,-0.755859,0.846191,0
3770,-0.0473633,-0.598145,0.838867,0
3790,-0.121582,-0.516113,0.888672,0
3810,-0.106934,-0.394531,0.90332,0
3830,0.012207,-0.16748,0.861328,0
3850,0.115723,-0.00292969,0.876465,0
3870,0.133789,0.0180664,0.878906,0
3890,0.163086,0.0522461,0.793945,0
3910,0.206055,0.117676,0.814453,0
3930,0.132324,-0.0273438,0.950684,0
3950,-0.00927734,-0.150391,0.983887,0
3970,-0.109863,-0.325684,0.846191,0
3990,-0.0810547,-0.531738,0.871582,0
4010,0.0136719,-0.527832,0.794922,0
4030,0.0385742,-0.670898,0.690918,0
4050,0.00390625,-0.989746,0.667969,0
4070,-0.0874023,-1.33643,0.513184,0
4090,-0.184082,-1.60889,0.461914,0
4110,-0.219727,-1.67676,0.423828,0
4130,-0.108887,-1.62158,0.590332,0
4150,-0.046875,-1.39795,0.651855,0
4170,-0.0966797,-1.31201,0.501465,0
4190,-0.100098,-1.34619,0.316406,0
4210,-0.100586,-1.34033,0.333984,0
4230,-0.171387,-1.04541,0.48877,0
4250,-0.12793,-0.736328,0.282715,0
4270,-0.00927734,-0.784668,0.15625,0
4290,0.115723,-0.818359,0.145508,0
4310,0.155273,-0.727539,0.140137,0
4330,0.137207,-0.668945,0.174316,0
4350,0.129883,-0.609375,0.260254,0
4370,0.137695,-0.557129,0.382812,0
4390,0.0737305,-0.634277,0.479492,0
4410,-0.00830078,-0.753906,0.632812,0
4430,0.00732422,-0.814453,0.719727,0
4450,-0.00146484,-0.874512,0.797363,0
4470,-0.0727539,-0.92041,0.774902,0
4490,-0.122559,-0.895996,0.702148,0
4510,-0.0771484,-0.683105,0.783203,0
4530,-0.0214844,-0.485352,0.882324,0
4550,-0.0112305,-0.508789,0.986328,0
4570,0.0727539,-0.592285,1.05127,0
4590,0.258789,-0.701172,1.02344,0
4610,0.306152,-0.850098,0.929199,0
4630,0.354004,-1.03174,0.717773,0
4650,0.241699,-0.937012,0.617188,0
4670,-0.226074,-0.902344,0.777832,0
4690,-0.477051,-0.947754,0.913574,0
4710,-0.328125,-0.925293,0.780273,0
4730,-0.289551,-1.09912,0.75293,0
4750,-0.28125,-1.44531,0.635254,0
4770,-0.232422,-1.72754,0.421387,0
4790,-0.22168,-1.79688,0.369629,0
4810,-0.074707,-1.72217,0.404785,0
4830,0.0478516,-1.45654,0.416504,0
4850,0.0375977,-1.12158,0.388672,0
4870,0.0375977,-0.819336,0.317871,0
4890,0.0537109,-0.61377,0.30957,0
4910,0.00683594,-0.5,0.292969,0
4930,-0.0478516,-0.480469,0.252441,0
4950,-0.0703125,-0.460938,0.176758,0
4970,-0.0556641,-0.411133,0.173828,0
4990,-0.0107422,-0.402344,0.229492,0
5010,0.0249023,-0.383789,0.27832,0
5030,0.0449219,-0.467285,0.315918,0
5050,0.121582,-0.572754,0.456055,0
5070,0.236328,-0.662598,0.564453,0
5090,0.288574,-0.752441,0.638184,0
5110,0.226074,-0.863281,0.668945,0
5130,0.205566,-0.821289,0.675293,0
5150,0.130859,-0.657227,0.918457,0
5170,0.1875,-0.637695,1.17383,0
5190,0.367676,-0.794922,1.41357,0
5210,0.649902,-0.849609,1.21484,0
5230,0.996582,-0.773438,0.982422,0
5250,1.49707,-0.687012,0.931152,0
5270,1.22412,-0.692871,0.839355,0
5290,0.375977,-0.593262,0.975586,0
5310,-0.585449,-0.70459,1.15967,0
5330,-1.15674,-0.458984,0.66748,0
5350,-0.828613,0.361328,0.869629,0
5370,-0.894043,0.322266,0.670898,0
5390,-0.776367,-0.688477,0.293945,0
5410,-0.693848,-1.646,0.278809,0
5430,-0.496094,-2.20215,0.318359,0
5450,-0.248047,-2.10791,0.302246,0
5470,-0.200195,-1.75439,0.52002,0
5490,-0.101562,-1.28662,0.626953,0
5510,-0.0834961,-0.854492,0.589844,0
5530,-0.0727539,-0.558594,0.469238,0
5550,0.0112305,-0.338867,0.381348,0
5570,0.0688477,-0.316895,0.439453,0
5590,0.125,-0.319824,0.490234,0
5610,0.0844727,-0.387207,0.458008,0
5630,0.0439453,-0.422363,0.420898,0
5650,0.0844727,-0.399902,0.427734,0
5670,0.166504,-0.312988,0.48877,0
5690,0.296875,-0.251465,0.611328,0
5710,0.424316,-0.236816,0.756836,0
5730,0.475586,-0.3125,0.90332,0
5750,0.446289,-0.504883,1.06689,0
5760,0.35498,-0.775391,1.06104,0
5780,0.109375,-0.96875,0.858398,0
5800,0.0898438,-0.895996,0.742676,0
5820,0.192871,-0.753906,0.828613,0
5840,0.019043,-0.672363,0.95459,0
5860,-0.150391,-0.470215,0.906738,0
5880,-0.30957,-0.257812,0.865723,0
5900,-0.420898,-0.334473,0.90625,0
5920,-0.438477,-0.54248,1.01953,0
5940,-0.432617,-0.572266,1.03174,0
5960,-0.35498,-0.520996,1.04004,0
5980,-0.237305,-0.537109,0.986328,0
6000,-0.165039,-0.57666,0.897461,0
6020,-0.188477,-0.664062,0.804199,0
6040,-0.241211,-0.68457,0.719238,0
6060,-0.322754,-0.689453,0.765625,0
6080,-0.307129,-0.647949,0.754883,0
6100,-0.278809,-0.629883,0.751465,0
6120,-0.303223,-0.754883,0.73291,0
6140,-0.277344,-0.790527,0.728027,0
6160,-0.245117,-0.72998,0.701172,0
6180,-0.179688,-0.723145,0.65332,0
6200,-0.0981445,-0.787109,0.573242,0
6220,-0.0952148,-0.824219,0.543945,0
6240,-0.162598,-0.806641,0.578125,0
6260,-0.233887,-0.702148,0.602051,0
6280,-0.199707,-0.634766,0.588379,0
6300,-0.157227,-0.679199,0.520508,0
6310,-0.192383,-0.808594,0.59375,0
6330,-0.204102,-0.951172,0.604004,0
6350,-0.230469,-0.979492,0.560059,0
6370,-0.313965,-0.877441,0.628418,0
6390,-0.353027,-0.77832,0.67334,0
6410,-0.353516,-0.723145,0.684082,0
6430,-0.302734,-0.686035,0.666992,0
6450,-0.298828,-0.654297,0.663574,0
6460,-0.277344,-0.66748,0.686035,0
6480,-0.240234,-0.727539,0.665527,0
6500,-0.250977,-0.773438,0.646973,0
6520,-0.254395,-0.78418,0.644043,0
6540,-0.231445,-0.776367,0.644531,0
6560,-0.217285,-0.774414,0.652832,0
6580,-0.216797,-0.755859,0.669434,0
6600,-0.21582,-0.729492,0.681641,0
6620,-0.224121,-0.703613,0.680664,0
6640,-0.233887,-0.700195,0.676758,0
6670,-0.249512,-0.688965,0.689453,0
6690,-0.250977,-0.697266,0.67627,0
6700,-0.259766,-0.713379,0.679688,0
6720,-0.253906,-0.72168,0.677246,0
6740,-0.251953,-0.717285,0.67334,0
6780,-0.235352,-0.711914,0.679199,0
6800,-0.233398,-0.707031,0.678711,0
6810,-0.244141,-0.702148,0.687012,0
6840,-0.24707,-0.706055,0.679688,0
6890,-0.249023,-0.705566,0.675293,0
6910,-0.248535,-0.706543,0.680664,0
6930,-0.248047,-0.709961,0.683105,0
6950,-0.243652,-0.702148,0.685059,0
6970,-0.248047,-0.70166,0.685059,0
6990,-0.249023,-0.698242,0.676758,0
7010,-0.250488,-0.706055,0.682129,0
7030,-0.246582,-0.703125,0.685059,0
7050,-0.242676,-0.699219,0.687012,0
7070,-0.241699,-0.702148,0.683105,0
7090,-0.243652,-0.693359,0.688477,0
7120,-0.245605,-0.690918,0.685547,0
7140,-0.244141,-0.696289,0.6875,0
7160,-0.246094,-0.696289,0.686035,0
7180,-0.239258,-0.687988,0.683105,0
7200,-0.242676,-0.690918,0.686523,0
7220,-0.241211,-0.69873,0.691406,0
7240,-0.23877,-0.700195,0.70166,0
7270,-0.23291,-0.681152,0.693848,0
7290,-0.234863,-0.69043,0.69873,0
7310,-0.233398,-0.693359,0.697754,0
7320,-0.223633,-0.712402,0.681641,0
7340,-0.229004,-0.686523,0.711426,0
7360,-0.230469,-0.668457,0.699219,0
7370,-0.262695,-0.660156,0.695312,0
7400,-0.282227,-0.642578,0.743652,0
7420,-0.238281,-0.637207,0.736816,0
7440,-0.268066,-0.647461,0.779297,0
7460,-0.313477,-0.659668,0.729004,0
7480,-0.237793,-0.620605,0.71875,0
7500,-0.148926,-0.683594,0.694336,0
7520,-0.162598,-0.753906,0.77002,0
7540,-0.215332,-0.714844,0.765137,0
7560,-0.202637,-0.669434,0.680664,0
7580,-0.152832,-0.679199,0.653809,0
7600,-0.211914,-0.70752,0.651855,0
7620,-0.200684,-0.734863,0.61377,0
7640,-0.106934,-0.851074,0.593262,0
7650,-0.130371,-0.758789,0.638672,0
7680,-0.179688,-0.743164,0.673828,0
7700,-0.155273,-0.722168,0.678223,0
7720,-0.132812,-0.709473,0.695801,0
7740,-0.194336,-0.699707,0.70459,0
7760,-0.257324,-0.685547,0.712402,0
7780,-0.32666,-0.67627,0.709961,0
7800,-0.309082,-0.663086,0.701172,0
7820,-0.312012,-0.661133,0.682617,0
7840,-0.269531,-0.671875,0.697266,0
7860,-0.255371,-0.678711,0.712891,0
7900,-0.234375,-0.657227,0.735352,0
7920,-0.222656,-0.669434,0.715332,0
7940,-0.221191,-0.677246,0.714844,0
7960,-0.22168,-0.67627,0.714355,0
7980,-0.220703,-0.679199,0.718262,0
8000,-0.223633,-0.675293,0.723633,0
8020,-0.226074,-0.677734,0.72168,0
8030,-0.223145,-0.672363,0.717285,0
8050,-0.229004,-0.665039,0.717773,0
8060,-0.233398,-0.662109,0.71875,0
8090,-0.233398,-0.665527,0.723633,0
8110,-0.234375,-0.661133,0.72998,0
8120,-0.227051,-0.663574,0.727051,0
8140,-0.230469,-0.662598,0.728027,0
8160,-0.229004,-0.662598,0.722168,0
8170,-0.226074,-0.666504,0.71582,0
8190,-0.233887,-0.660156,0.722168,0
8200,-0.226562,-0.65918,0.722656,0
8220,-0.224121,-0.660156,0.726562,0
8240,-0.226074,-0.663574,0.72998,0
8260,-0.224609,-0.662109,0.725586,0
8270,-0.228027,-0.666504,0.723633,0
8290,-0.228027,-0.662109,0.724609,0
8310,-0.231934,-0.661133,0.725098,0
8330,-0.232422,-0.663086,0.727539,0
8350,-0.229004,-0.663086,0.723633,0
8360,-0.224609,-0.664062,0.731445,0
8380,-0.229492,-0.662109,0.725586,0
8400,-0.22998,-0.666016,0.724609,0
8420,-0.232422,-0.666992,0.723145,0
8440,-0.229492,-0.663086,0.721191,0
8440,-0.228027,-0.66748,0.719238,0
8460,-0.230957,-0.667969,0.723633,0
8480,-0.229004,-0.666992,0.728027,0
8500,-0.226074,-0.664551,0.713867,0
8520,-0.229004,-0.665527,0.716309,0
8540,-0.228516,-0.665527,0.722168,0
8560,-0.233398,-0.665527,0.72998,0
8580,-0.230957,-0.658203,0.725098,0
8600,-0.225098,-0.661621,0.727051,0
8620,-0.229004,-0.664551,0.720215,0
8640,-0.229492,-0.664062,0.722656,0
8660,-0.231445,-0.668457,0.720215,0
8680,-0.233398,-0.666992,0.721191,0
8700,-0.227539,-0.665527,0.721191,0
8720,-0.225586,-0.665527,0.722168,0
8740,-0.229492,-0.668457,0.725586,0
8760,-0.226562,-0.668457,0.725586,0
8780,-0.227539,-0.666992,0.720703,0
8800,-0.229492,-0.664551,0.724121,0
8820,-0.229004,-0.663086,0.723145,0
8840,-0.230469,-0.664062,0.722656,0
8860,-0.231445,-0.662109,0.722656,0
8880,-0.231934,-0.664062,0.723145,0
8900,-0.230957,-0.662109,0.722656,0
8920,-0.231445,-0.663574,0.724121,0
8940,-0.233398,-0.663086,0.724609,0
8960,-0.227051,-0.665039,0.725098,0
8980,-0.229004,-0.662109,0.725586,0
8990,-0.23291,-0.662109,0.720703,0
9010,-0.230957,-0.665527,0.72168,0
9030,-0.227051,-0.663086,0.727051,0
9050,-0.229004,-0.662109,0.720215,0
9070,-0.227539,-0.664551,0.723145,0
9090,-0.230469,-0.659668,0.726562,0
9110,-0.232422,-0.659668,0.727539,0
9130,-0.228027,-0.657715,0.729492,0
9150,-0.229492,-0.661621,0.727539,0
9170,-0.233887,-0.660645,0.725098,0
9190,-0.228027,-0.663086,0.717773,0
9220,-0.228516,-0.661621,0.725098,0
9220,-0.228027,-0.664062,0.726074,0
9230,-0.224609,-0.662109,0.726074,0
9250,-0.226074,-0.662109,0.726074,0
9270,-0.23291,-0.665039,0.727539,0
9290,-0.228516,-0.665039,0.721191,0
9310,-0.228027,-0.663574,0.725098,0
9330,-0.230957,-0.660645,0.726074,0
9350,-0.229492,-0.661621,0.726562,0
9370,-0.226074,-0.663086,0.723145,0
9390,-0.231445,-0.663086,0.720215,0
9410,-0.232422,-0.663086,0.725586,0
9430,-0.228516,-0.661133,0.727539,0
9450,-0.233887,-0.662109,0.728027,0
9470,-0.22998,-0.660156,0.720215,0
9490,-0.229492,-0.666504,0.722656,0
9500,-0.231445,-0.665039,0.723633,0
9520,-0.232422,-0.662109,0.728027,0
9540,-0.233887,-0.661621,0.715332,0
9550,-0.230957,-0.665527,0.71875,0
9570,-0.234375,-0.660645,0.723633,0
9590,-0.229492,-0.666504,0.731445,0
9630,-0.234863,-0.664062,0.724609,0
9650,-0.234375,-0.664551,0.718262,0
9670,-0.237793,-0.666992,0.716797,0
9690,-0.231934,-0.666016,0.720703,0
9730,-0.232422,-0.666016,0.730469,0
9750,-0.229004,-0.662598,0.725586,0
9770,-0.234863,-0.666992,0.719238,0
9790,-0.236328,-0.666016,0.720215,0
9810,-0.235352,-0.665527,0.724121,0
9830,-0.23291,-0.664062,0.723633,0
9850,-0.238281,-0.665527,0.720215,0
9870,-0.233887,-0.666016,0.722656,0
9890,-0.234863,-0.662598,0.720215,0
9910,-0.233398,-0.657715,0.722656,0
9930,-0.23877,-0.664062,0.720215,0
9960,-0.233398,-0.666504,0.714355,0
9990,-0.233887,-0.666504,0.717285,0
10010,-0.240234,-0.666504,0.726562,0
10030,-0.241211,-0.662109,0.722168,0
10050,-0.23877,-0.661133,0.724609,0
10070,-0.237793,-0.661133,0.72168,0
10110,-0.240234,-0.664551,0.716797,0
10130,-0.233887,-0.668457,0.717285,0
10170,-0.233398,-0.665039,0.72168,0
10190,-0.237793,-0.662109,0.720215,0
10230,-0.23877,-0.666992,0.720703,0
10250,-0.240234,-0.669434,0.721191,0
10260,-0.237793,-0.666016,0.722656,0
10280,-0.234863,-0.666016,0.724609,0
10300,-0.232422,-0.666504,0.716309,0
10330,-0.233398,-0.656738,0.725586,0
10360,-0.238281,-0.661621,0.723145,0
10380,-0.234863,-0.663574,0.723145,0
10400,-0.22998,-0.660645,0.719727,0
10420,-0.229004,-0.65918,0.725586,0
10440,-0.233887,-0.658203,0.729492,0
10460,-0.238281,-0.649414,0.730957,0
10480,-0.234863,-0.656738,0.72998,0
10500,-0.231934,-0.65918,0.726562,0
10520,-0.231445,-0.662598,0.726074,0
10540,-0.232422,-0.659668,0.727539,0
10560,-0.232422,-0.663574,0.722656,0
10580,-0.233398,-0.657715,0.725586,0
10610,-0.230469,-0.658691,0.722656,0
10630,-0.231934,-0.65918,0.727051,0
10630,-0.232422,-0.654785,0.720703,0
10670,-0.228516,-0.660156,0.725586,0
10690,-0.230957,-0.657715,0.72998,0
10730,-0.23291,-0.657227,0.731445,0
10750,-0.231934,-0.655273,0.731445,0
10780,-0.230957,-0.656738,0.723145,0
10800,-0.229492,-0.660156,0.728516,0
10810,-0.22998,-0.658203,0.72998,0
10830,-0.233887,-0.651855,0.72998,0
10850,-0.23584,-0.65332,0.73584,0
10870,-0.226562,-0.652832,0.739746,0
10890,-0.225586,-0.65332,0.733398,0
10910,-0.231445,-0.65918,0.727051,0
10940,-0.231445,-0.658203,0.724609,0
10960,-0.232422,-0.658691,0.727539,0
10990,-0.225098,-0.65625,0.72998,0
11000,-0.231445,-0.65918,0.729004,0
11020,-0.231445,-0.658203,0.725586,0
11040,-0.230957,-0.655273,0.726562,0
11070,-0.233398,-0.657227,0.730957,0
11090,-0.233398,-0.656738,0.723145,0
11110,-0.232422,-0.657715,0.726074,0
11150,-0.226562,-0.656738,0.728027,0
11160,-0.232422,-0.661621,0.724609,0
11180,-0.230469,-0.65625,0.733398,0
11190,-0.232422,-0.654785,0.731934,0
11210,-0.227539,-0.651855,0.734375,0
11230,-0.228027,-0.654785,0.723633,0
11250,-0.238281,-0.654297,0.72168,0
11270,-0.234863,-0.660156,0.723633,0
11290,-0.23584,-0.658203,0.72998,0
11310,-0.229492,-0.657227,0.734375,0
11330,-0.22998,-0.653809,0.72998,0
11330,-0.229492,-0.654785,0.72998,0
11350,-0.23291,-0.654785,0.729004,0
11370,-0.233887,-0.657715,0.734863,0
11390,-0.231445,-0.65332,0.731445,0
11410,-0.231445,-0.654785,0.730957,0
11450,-0.231934,-0.65625,0.728516,0
11480,-0.230469,-0.653809,0.728516,0
11500,-0.229004,-0.652832,0.728027,0
11510,-0.22998,-0.658203,0.729004,0
11530,-0.22998,-0.660156,0.72998,0
11540,-0.230469,-0.654785,0.726074,0
11570,-0.233398,-0.653809,0.729004,0
11590,-0.230469,-0.655762,0.730957,0
11610,-0.228027,-0.651855,0.73584,0
11630,-0.232422,-0.657715,0.728516,0
11650,-0.233398,-0.657227,0.723633,0
11670,-0.232422,-0.657715,0.727539,0
11690,-0.230469,-0.654785,0.734375,0
11710,-0.227051,-0.65332,0.73291,0
11730,-0.227539,-0.654785,0.733398,0
11760,-0.227539,-0.65332,0.723633,0
11780,-0.230957,-0.65625,0.73291,0
11800,-0.228516,-0.654785,0.730469,0
11820,-0.228516,-0.650879,0.729004,0
11840,-0.229492,-0.654785,0.725098,0
11860,-0.232422,-0.65625,0.736816,0
11880,-0.23584,-0.651855,0.731934,0
11900,-0.228027,-0.650879,0.728516,0
11910,-0.228516,-0.65625,0.730469,0
11930,-0.232422,-0.65332,0.732422,0
11970,-0.229004,-0.657227,0.72998,0
11980,-0.225586,-0.654297,0.73291,0
12000,-0.230469,-0.651855,0.729004,0
12020,-0.230469,-0.655273,0.733398,0
12040,-0.231445,-0.654785,0.735352,0
12060,-0.235352,-0.649414,0.730957,0
12090,-0.228027,-0.650879,0.729492,0
12110,-0.234863,-0.660645,0.730469,0
12120,-0.233398,-0.678223,0.740234,0
12140,-0.210938,-0.688477,0.765625,0
12160,-0.196289,-0.671875,0.777832,0
12190,-0.227051,-0.654785,0.68457,0
12200,-0.25293,-0.634766,0.681641,0
12220,-0.280273,-0.63623,0.687988,0
12240,-0.288086,-0.63623,0.710938,0
12270,-0.234375,-0.714844,0.734863,0
12290,-0.21582,-0.696777,0.724609,0
12310,-0.19873,-0.677246,0.705566,0
12330,-0.195312,-0.677246,0.679688,0
12350,-0.206543,-0.692871,0.676758,0
12380,-0.240723,-0.681641,0.696289,0
12410,-0.26416,-0.689453,0.719727,0
12430,-0.262207,-0.685547,0.720703,0
12450,-0.25293,-0.689941,0.700195,0
12490,-0.242676,-0.693359,0.675781,0
12520,-0.248047,-0.688477,0.668457,0
12540,-0.25,-0.695312,0.671387,0
12560,-0.242188,-0.708984,0.680176,0
12580,-0.23584,-0.710938,0.687988,0
12600,-0.227539,-0.714355,0.694336,0
12620,-0.225098,-0.70752,0.686523,0
12630,-0.242676,-0.693848,0.681152,0
12650,-0.251953,-0.692871,0.689453,0
12670,-0.257324,-0.688477,0.696289,0
12690,-0.255371,-0.68457,0.701172,0
12720,-0.240234,-0.688965,0.702148,0
12740,-0.237793,-0.6875,0.695801,0
12760,-0.234375,-0.68457,0.696289,0
12780,-0.228516,-0.689453,0.694824,0
12800,-0.231934,-0.6875,0.70459,0
12830,-0.229004,-0.683594,0.707031,0
12860,-0.227539,-0.683594,0.710449,0
12880,-0.231445,-0.678711,0.70752,0
12900,-0.229492,-0.681641,0.70752,0
12920,-0.234375,-0.683594,0.705078,0
12940,-0.234375,-0.677734,0.720215,0
12960,-0.231445,-0.669922,0.721191,0
12980,-0.233398,-0.67041,0.720703,0
13000,-0.233398,-0.675781,0.720215,0
13020,-0.229492,-0.674316,0.711426,0
13040,-0.235352,-0.681152,0.709473,0
13060,-0.230957,-0.671387,0.714355,0
13070,-0.222168,-0.67041,0.71875,0
13070,-0.225098,-0.674316,0.722656,0
13090,-0.227051,-0.668457,0.720215,0
13090,-0.230957,-0.672363,0.713379,0
13110,-0.229004,-0.676758,0.717285,0
13130,-0.22998,-0.674805,0.713867,0
13150,-0.231934,-0.670898,0.714355,0
13170,-0.230469,-0.672852,0.714355,0
13180,-0.236328,-0.670898,0.715332,0
13200,-0.233887,-0.674805,0.711426,0
13210,-0.234863,-0.680664,0.706055,0
13240,-0.234863,-0.685547,0.710938,0
13260,-0.228516,-0.694824,0.722168,0
13280,-0.223145,-0.695312,0.726074,0
13300,-0.218262,-0.688477,0.730469,0
13320,-0.223633,-0.680176,0.723145,0
13340,-0.229492,-0.662598,0.712402,0
13360,-0.239258,-0.653809,0.699707,0
13380,-0.244629,-0.660156,0.699219,0
13400,-0.248047,-0.675293,0.694336,0
13420,-0.25293,-0.684082,0.688477,0
13440,-0.250488,-0.692871,0.692383,0
13470,-0.243652,-0.706543,0.697266,0
13500,-0.228027,-0.68457,0.693848,0
13520,-0.221191,-0.68457,0.695312,0
13540,-0.222168,-0.6875,0.693359,0
13560,-0.226562,-0.686523,0.697754,0
13580,-0.230957,-0.692871,0.692871,0
13600,-0.230957,-0.703125,0.708008,0
13620,-0.233887,-0.703613,0.705566,0
13640,-0.235352,-0.703125,0.704102,0
13660,-0.236328,-0.690918,0.701172,0
13680,-0.241211,-0.694336,0.708008,0
13680,-0.254883,-0.704102,0.706543,0
13690,-0.265137,-0.714844,0.689453,0
13710,-0.266113,-0.71875,0.671387,0
13750,-0.277832,-0.737305,0.648926,0
13770,-0.21582,-0.71582,0.618652,0
13780,-0.202637,-0.726074,0.625977,0
13800,-0.212891,-0.739258,0.629395,0
13820,-0.225098,-0.75293,0.62207,0
13830,-0.248047,-0.759766,0.615234,0
13840,-0.269043,-0.75,0.627441,0
13860,-0.27002,-0.738281,0.635254,0
13880,-0.261719,-0.732422,0.654297,0
13900,-0.26416,-0.733887,0.654297,0
13900,-0.259277,-0.740723,0.646484,0
13920,-0.255859,-0.738281,0.642578,0
13960,-0.30127,-0.792969,0.63916,0
13980,-0.302246,-0.866211,0.669434,0
14000,-0.384277,-0.824707,0.708496,0
14020,-0.353516,-0.845703,0.71582,0
14040,-0.288086,-0.773926,0.742676,0
14070,-0.191406,-0.686035,0.752441,0
14100,-0.126465,-0.677246,0.802734,0
14120,-0.0117188,-0.731934,0.817871,0
14150,0.137207,-0.622559,0.690918,0
14170,0.128418,-0.619141,0.664551,0
14190,0.106445,-0.632324,0.697266,0
14210,0.128906,-0.579102,0.736328,0
14230,0.183594,-0.535156,0.714355,0
14250,0.22168,-0.533203,0.714844,0
14280,0.131836,-0.706543,0.730469,0
14300,0.10498,-0.715332,0.78125,0
14340,0.225098,-0.404785,0.720215,0
14360,0.215332,-0.428711,0.730469,0
14360,0.217285,-0.501465,0.788574,0
14380,0.222656,-0.566406,0.817383,0
14410,0.28125,-0.532227,0.783691,0
14430,0.277344,-0.504395,0.778809,0
14450,0.259766,-0.581055,0.802246,0
14470,0.261719,-0.613281,0.802246,0
14490,0.266113,-0.594238,0.788574,0
14510,0.263184,-0.577637,0.782715,0
14530,0.269043,-0.579102,0.791992,0
14550,0.268555,-0.603027,0.799316,0
14560,0.303223,-0.611816,0.789062,0
14580,0.309082,-0.601562,0.791504,0
14600,0.328613,-0.591309,0.79541,0
14620,0.341309,-0.609375,0.792969,0
14640,0.344727,-0.604492,0.807617,0
14660,0.350098,-0.589355,0.824219,0
14670,0.375977,-0.606934,0.779785,0
14700,0.405273,-0.619141,0.760254,0
14720,0.433594,-0.63916,0.740234,0
14740,0.47998,-0.620605,0.696289,0
14760,0.499023,-0.647949,0.652832,0
14780,0.475586,-0.6875,0.65918,0
14800,0.463379,-0.694824,0.677734,0
14820,0.463867,-0.693848,0.679199,0
14860,0.439453,-0.679688,0.606934,0
14890,0.415039,-0.765625,0.612793,0
14920,0.42627,-0.74707,0.562988,0
14940,0.40332,-0.709473,0.557617,0
14960,0.396484,-0.706543,0.549316,0
14980,0.342285,-0.746582,0.538086,0
15000,0.285645,-0.796875,0.532715,0
15020,0.286621,-0.774414,0.550293,0
15040,0.347656,-0.756348,0.528809,0
15060,0.393555,-0.741699,0.487793,0
15080,0.420898,-0.754395,0.492188,0
15100,0.415039,-0.753906,0.528809,0
15120,0.354492,-0.72998,0.546387,0
15140,0.350586,-0.727051,0.540039,0
15160,0.423828,-0.69873,0.533691,0
15190,0.425781,-0.677246,0.542969,0
15220,0.416016,-0.686035,0.531738,0
15240,0.509766,-0.680664,0.562988,0
15260,0.477051,-0.703613,0.550781,0
15280,0.432129,-0.689453,0.561035,0
15300,0.44043,-0.691895,0.55127,0
15320,0.459473,-0.717773,0.535156,0
15340,0.462891,-0.726562,0.54248,0
15360,0.491699,-0.711426,0.527832,0
15370,0.510742,-0.70752,0.537109,0
15400,0.532227,-0.725098,0.511719,0
15420,0.506836,-0.705566,0.512695,0
15440,0.498047,-0.665527,0.515625,0
15470,0.495117,-0.692383,0.553223,0
15490,0.50293,-0.694336,0.55957,0
15510,0.515625,-0.67041,0.5625,0
15530,0.549316,-0.641113,0.552734,0
15550,0.564453,-0.62793,0.53125,0
15570,0.543457,-0.643555,0.566895,0
15590,0.52832,-0.655762,0.568848,0
15600,0.525879,-0.646973,0.562988,0
15640,0.5,-0.654297,0.567383,1000
15650,0.479004,-0.67627,0.552734,0
15660,0.529297,-0.69043,0.560059,0
15690,0.523926,-0.686523,0.549316,0
15700,0.478516,-0.679688,0.541504,0
15730,0.438477,-0.652832,0.554688,0
15750,0.438477,-0.643555,0.563477,0
15760,0.431152,-0.681152,0.555176,0
15770,0.497559,-0.664062,0.551758,0
15790,0.527832,-0.654785,0.518066,0
15810,0.668945,-0.663574,0.504883,0
15840,0.651367,-0.621582,0.504883,0
15860,0.663574,-0.641602,0.48291,0
15880,0.672363,-0.646484,0.473633,0
15900,0.651367,-0.614746,0.458008,0
15920,0.634766,-0.592285,0.484863,0
15940,0.647461,-0.589355,0.499023,0
15960,0.662109,-0.595703,0.48584,0
15980,0.649414,-0.600098,0.466797,0
16000,0.663574,-0.603516,0.487305,0
16020,0.671875,-0.617676,0.491211,0
16040,0.643066,-0.623535,0.465332,0
16060,0.628906,-0.618164,0.450684,0
16080,0.660645,-0.619141,0.458496,0
16120,0.685547,-0.621582,0.459961,0
16140,0.666992,-0.607422,0.460449,0
16160,0.664551,-0.57666,0.467285,0
16180,0.664551,-0.588379,0.456543,0
16200,0.651367,-0.598633,0.43457,0
16220,0.693359,-0.606934,0.445312,0
16240,0.733398,-0.601074,0.459473,0
16260,0.704102,-0.581543,0.459473,0
16280,0.646973,-0.554199,0.462402,0
16300,0.681152,-0.542969,0.44873,0
16320,0.754395,-0.549805,0.446777,0
16340,0.747559,-0.5625,0.443359,0
16360,0.714355,-0.558105,0.427246,0
16380,0.73291,-0.542969,0.450684,0
16400,0.776367,-0.523926,0.471191,0
16420,0.792969,-0.526855,0.454102,0
16440,0.782715,-0.530762,0.44043,0
16460,0.807617,-0.516113,0.455566,0
16480,0.8125,-0.505859,0.435059,0
16500,0.793945,-0.520996,0.428223,0
16520,0.786621,-0.511719,0.419434,0
16540,0.812012,-0.489746,0.452148,0
16560,0.834473,-0.458984,0.470703,0
16580,0.800293,-0.449219,0.442871,0
16600,0.793457,-0.451172,0.413574,0
16620,0.78125,-0.4375,0.434082,0
16640,0.776367,-0.45459,0.450684,0
16660,0.791992,-0.478516,0.463867,0
16680,0.79541,-0.476074,0.458984,0
16700,0.800781,-0.467773,0.458984,0
16720,0.799805,-0.454102,0.457031,0
16740,0.811035,-0.461426,0.463867,0
16760,0.801758,-0.458984,0.472656,0
16780,0.78418,-0.451172,0.462402,0
16800,0.781738,-0.449219,0.46582,0
16820,0.780273,-0.430664,0.473633,0
16840,0.783203,-0.422852,0.474609,0
16860,0.796387,-0.429199,0.490723,0
16880,0.808105,-0.430664,0.48584,0
16900,0.810547,-0.418945,0.474121,0
16920,0.833008,-0.401367,0.474121,0
16940,0.842285,-0.382812,0.493164,0
16960,0.81543,-0.375488,0.500977,0
16980,0.805176,-0.391113,0.5,0
17000,0.808594,-0.399902,0.507812,0
17020,0.784668,-0.380859,0.522461,0
17040,0.758789,-0.364258,0.499512,0
17060,0.786133,-0.358398,0.495605,0
17080,0.818848,-0.357422,0.513672,0
17100,0.839844,-0.378906,0.529785,0
17120,0.836914,-0.391602,0.535156,0
17140,0.809082,-0.396973,0.544922,0
17160,0.768555,-0.375977,0.54834,0
17180,0.733887,-0.35498,0.54541,0
17200,0.751953,-0.35791,0.541504,0
17220,0.770508,-0.380371,0.547852,0
17240,0.739258,-0.38623,0.564941,0
17260,0.705566,-0.375977,0.568359,0
17280,0.725586,-0.362793,0.5625,0
17300,0.746582,-0.356445,0.570801,0
17320,0.75293,-0.361816,0.576172,0
17340,0.744629,-0.367676,0.565918,0
17360,0.73584,-0.373047,0.571289,0
17390,0.759277,-0.37793,0.563965,0
17410,0.770996,-0.348145,0.568848,0
17430,0.787598,-0.338867,0.550781,0
17450,0.791504,-0.347656,0.556152,0
17470,0.765625,-0.375488,0.589355,0
17490,0.722656,-0.382812,0.592285,0
17510,0.728027,-0.361328,0.583496,0
17520,0.751953,-0.352051,0.585449,0
17540,0.75,-0.362793,0.594727,0
17560,0.741699,-0.374512,0.587891,0
17580,0.747559,-0.370117,0.595215,0
17590,0.747559,-0.358398,0.591309,0
17610,0.739746,-0.341309,0.602539,0
17630,0.718262,-0.345215,0.606934,0
17650,0.702637,-0.376465,0.601074,0
17670,0.722168,-0.387695,0.590332,0
17690,0.704102,-0.376465,0.606934,0
17710,0.700195,-0.362305,0.612305,0
17730,0.721191,-0.370117,0.614746,0
17750,0.719238,-0.383789,0.616211,0
17770,0.709961,-0.400879,0.608398,0
17790,0.725586,-0.40625,0.609863,0
17810,0.762207,-0.410645,0.608887,0
17830,0.775879,-0.393066,0.616699,0
17850,0.739746,-0.385742,0.605469,0
17870,0.692871,-0.393555,0.616211,0
17890,0.693848,-0.400391,0.613281,0
17910,0.697266,-0.413574,0.602539,0
17930,0.6875,-0.415527,0.612793,0
17950,0.653809,-0.411133,0.612793,0
17970,0.625488,-0.415039,0.615723,0
17990,0.629883,-0.430664,0.602539,0
18010,0.65625,-0.431641,0.598145,0
18030,0.628418,-0.397461,0.60498,0
18050,0.58252,-0.40625,0.623535,0
18070,0.540039,-0.434082,0.634766,0
18090,0.591309,-0.424316,0.637207,0
18110,0.661621,-0.400391,0.618164,0
18130,0.672363,-0.371582,0.614258,0
18150,0.659668,-0.371582,0.625488,0
18170,0.655273,-0.385254,0.658691,0
18190,0.681152,-0.391602,0.664551,0
18210,0.70459,-0.380859,0.686523,0
18230,0.71582,-0.347656,0.674316,0
18250,0.685547,-0.342285,0.683594,0
18270,0.665039,-0.384766,0.671387,0
18290,0.696289,-0.407227,0.666016,0
18310,0.731934,-0.404297,0.666504,0
18330,0.69043,-0.383789,0.672852,0
18350,0.634277,-0.404785,0.654297,0
18370,0.681152,-0.428223,0.636719,0
18390,0.684082,-0.427734,0.640137,0
18410,0.669922,-0.421387,0.640625,0
18410,0.669434,-0.413086,0.647461,0
18430,0.666992,-0.398926,0.63623,0
18450,0.627441,-0.405762,0.648926,0
18470,0.626953,-0.418945,0.643555,0
18500,0.630371,-0.411133,0.651855,0
18520,0.602539,-0.385254,0.647461,0
18540,0.603516,-0.379883,0.627441,0
18560,0.624023,-0.393555,0.639648,0
18580,0.628418,-0.397949,0.645508,0
18600,0.625488,-0.401855,0.651855,0
18620,0.642578,-0.40625,0.660156,0
18640,0.64209,-0.412598,0.659668,0
18660,0.634766,-0.413574,0.655273,0
18680,0.635254,-0.41748,0.654785,0
18700,0.611816,-0.429688,0.638184,0
18720,0.617676,-0.429199,0.64209,0
18740,0.628418,-0.425293,0.644531,0
18760,0.618164,-0.429688,0.633789,0
18780,0.618164,-0.449707,0.641602,0
18800,0.585449,-0.467285,0.647461,0
18820,0.569336,-0.47998,0.614258,0
18850,0.64502,-0.477539,0.618652,0
18870,0.564941,-0.508301,0.601074,0
18880,0.652344,-0.52002,0.592773,0
18900,0.626465,-0.512207,0.594238,0
18920,0.552246,-0.524902,0.588867,0
18930,0.54541,-0.568359,0.566406,0
18950,0.553711,-0.586914,0.557129,0
18970,0.544434,-0.599121,0.563965,0
19020,0.71582,-0.565918,0.302734,0
19060,0.794922,-0.604004,0.258301,0
19070,0.856445,-0.581543,0.241699,0
19090,0.811523,-0.589355,0.211914,0
19160,0.929199,-0.5625,0.206055,0
19180,0.899902,-0.512695,0.215332,0
19200,0.879395,-0.5,0.176758,0
19220,0.890137,-0.473145,0.152344,0
19240,0.90332,-0.441895,0.160645,0
19280,0.97168,-0.371094,0.204102,0
19300,0.962891,-0.317871,0.222656,0
19360,0.938477,-0.272461,0.275879,0
19400,0.969727,-0.223145,0.290039,0
19420,0.947266,-0.213867,0.327148,0
19440,0.952148,-0.149902,0.333496,0
19460,1.01807,-0.0810547,0.340332,0
19480,1.02246,-0.0805664,0.384766,0
19500,1.02197,-0.114258,0.400879,0
19520,1.02051,-0.106934,0.39502,0
19540,0.989258,-0.0751953,0.400879,0
19560,0.946777,-0.0800781,0.424316,0
19580,0.966797,-0.0942383,0.437012,0
19600,0.988281,-0.0976562,0.445801,0
19620,0.976562,-0.10791,0.443359,0
19640,0.953125,-0.0913086,0.436523,0
19650,0.923828,-0.110352,0.461426,0
19670,0.864258,-0.158691,0.487793,0
19670,0.817871,-0.157227,0.477051,0
19690,0.805176,-0.140625,0.496582,0
19710,0.817383,-0.124023,0.492676,0
19730,0.814941,-0.132812,0.496094,0
19750,0.794922,-0.177734,0.527832,0
19770,0.807617,-0.19043,0.499512,0
19790,0.831543,-0.185059,0.504395,0
19810,0.847656,-0.209961,0.53125,0
19830,0.853027,-0.217773,0.513184,0
19850,0.850098,-0.224121,0.509766,0
19870,0.859863,-0.258301,0.521484,0
19890,0.86084,-0.279297,0.497559,0
19910,0.844238,-0.259277,0.511719,0
19930,0.824707,-0.257812,0.505859,0
19950,0.785156,-0.251953,0.51709,0
19960,0.739258,-0.276855,0.519531,0
19970,0.738281,-0.317383,0.538086,0
19990,0.720215,-0.325684,0.535156,0
20010,0.730957,-0.324219,0.506348,0
20030,0.729492,-0.328613,0.509277,0
20050,0.681152,-0.327637,0.519043,0
20070,0.679199,-0.364258,0.51416,0
20090,0.700195,-0.373047,0.51416,0
20120,0.731934,-0.384277,0.507812,0
20140,0.719238,-0.397461,0.526367,0
20160,0.641113,-0.434082,0.526855,0
20170,0.648438,-0.481934,0.518555,0
20190,0.72998,-0.470703,0.505859,0
20210,0.717773,-0.441406,0.499512,0
20230,0.709961,-0.461914,0.503906,0
20250,0.722168,-0.472168,0.493652,0
20270,0.706055,-0.506836,0.487793,0
20290,0.730957,-0.507812,0.484863,0
20310,0.774414,-0.493164,0.478516,0
20330,0.716797,-0.503906,0.472656,0
20350,0.698242,-0.529297,0.449707,0
20370,0.697266,-0.553223,0.432617,0
20380,0.693359,-0.558105,0.444824,0
20390,0.695801,-0.561035,0.438477,0
20410,0.706543,-0.582031,0.419922,0
20430,0.672852,-0.592773,0.413574,0
20450,0.67627,-0.613281,0.418945,0
20470,0.697266,-0.623535,0.394531,0
20490,0.726074,-0.611328,0.382324,0
20510,0.751465,-0.600586,0.384277,0
20530,0.726074,-0.627441,0.381348,0
20550,0.678711,-0.632812,0.370117,0
20570,0.629883,-0.631836,0.361328,0
20590,0.648438,-0.613281,0.351562,0
20610,0.711426,-0.587402,0.34082,0
20630,0.75,-0.580566,0.328125,0
20650,0.727051,-0.620605,0.335938,0
20670,0.725586,-0.617676,0.351562,0
20690,0.743652,-0.581055,0.315918,0
20710,0.723145,-0.529297,0.295898,0
20730,0.732422,-0.530762,0.280762,0
20750,0.794434,-0.582031,0.269043,0
20770,0.783691,-0.645996,0.254395,0
20790,0.746094,-0.669922,0.26416,0
20810,0.749512,-0.632812,0.225098,0
20830,0.805664,-0.575684,0.188965,0
20850,0.85791,-0.554199,0.172363,0
20870,0.822754,-0.596191,0.177246,0
20890,0.789551,-0.650391,0.165039,0
20910,0.803711,-0.647949,0.174805,0
20920,0.792969,-0.606934,0.168945,0
20940,0.774902,-0.602539,0.125977,0
20960,0.797363,-0.625,0.112305,0
20980,0.864258,-0.597168,0.123535,0
21000,0.920898,-0.575684,0.148438,0
21020,0.899902,-0.575195,0.137207,0
21040,0.859375,-0.58252,0.0839844,0
21060,0.881348,-0.577148,0.000976562,0
21080,0.898438,-0.578613,0.012207,0
21100,0.866211,-0.570312,0.0273438,0
21120,0.878906,-0.572754,0.00439453,0
21140,0.898438,-0.588867,-0.0292969,0
21160,0.86377,-0.572266,-0.0185547,0
21180,0.851562,-0.555176,-0.0283203,0
21200,0.892578,-0.540039,-0.0175781,0
21220,0.92041,-0.538574,-0.0302734,0
21240,0.902344,-0.516602,-0.0273438,0
21260,0.87207,-0.502441,-0.0170898,0
21280,0.887207,-0.474609,0.0214844,0
21290,0.95166,-0.460449,0.00732422,0
21310,0.96582,-0.43457,-0.00732422,0
21330,0.923828,-0.39502,-0.0126953,0
21350,0.936035,-0.399902,-0.0317383,0
21370,0.992676,-0.427734,-0.0219727,0
21390,0.998047,-0.458984,0.0185547,0
21410,0.98584,-0.449707,0.0292969,0
21430,0.982422,-0.402344,0.00195312,0
21450,0.967773,-0.321777,-0.00537109,0
21480,0.946289,-0.39209,0.0356445,0
21500,0.938965,-0.353516,0.059082,0
21520,0.991211,-0.304688,0.0625,0
21540,0.986816,-0.273926,0.03125,0
21570,1,-0.253418,0.0854492,0
21590,0.996582,-0.232422,0.0957031,0
21610,0.98584,-0.243164,0.0756836,0
21630,0.979004,-0.254883,0.0708008,0
21650,0.984375,-0.268555,0.0966797,0
21670,0.984375,-0.27832,0.0913086,0
21690,0.975586,-0.255371,0.0932617,0
21710,0.997559,-0.233398,0.129883,0
21720,1.01709,-0.227051,0.154297,0
21750,1.01904,-0.169922,0.172852,0
21770,1.03223,-0.164551,0.157227,0
21790,1.04688,-0.151855,0.140625,0
21810,1.05957,-0.147461,0.169434,0
21830,1.06592,-0.180664,0.205566,0
21850,1.05469,-0.186523,0.200684,0
21870,1.06396,-0.0776367,0.20459,0
21890,1.04736,-0.0825195,0.188965,0
21910,1.00635,-0.131836,0.209473,0
21930,0.990234,-0.149414,0.226562,0
21950,0.973145,-0.125977,0.246582,0
21970,0.974121,-0.100586,0.228516,0
21990,0.955566,-0.124512,0.271484,0
22010,0.945312,-0.191895,0.287598,0
22030,0.964355,-0.208984,0.299316,0
22050,0.953613,-0.165527,0.322754,0
22070,0.961914,-0.151855,0.354004,0
22090,0.943359,-0.20459,0.374023,0
22110,0.912598,-0.242188,0.400879,0
22130,0.956543,-0.257812,0.390625,0
22150,0.928223,-0.230469,0.403809,0
22170,0.839844,-0.208984,0.400391,0
22190,0.796387,-0.247559,0.399414,0
22210,0.833984,-0.305176,0.410645,0
22230,0.858887,-0.283691,0.424316,0
22250,0.828613,-0.242676,0.416992,0
22270,0.804199,-0.26709,0.395996,0
22290,0.830566,-0.319824,0.417969,0
22310,0.808594,-0.359375,0.415039,0
22330,0.785645,-0.385742,0.40332,0
22340,0.811035,-0.356934,0.405273,0
22360,0.790039,-0.322266,0.415527,0
22380,0.794922,-0.347168,0.410645,0
22400,0.81543,-0.361328,0.405762,0
22420,0.782227,-0.376465,0.435059,0
22440,0.769043,-0.401855,0.427246,0
22460,0.813477,-0.391602,0.401855,0
22480,0.80957,-0.34375,0.391113,0
22500,0.845215,-0.361328,0.430176,0
22520,0.796387,-0.399414,0.418945,0
22540,0.774414,-0.462891,0.391602,0
22560,0.830566,-0.46582,0.387695,0
22580,0.833496,-0.461914,0.421387,0
22600,0.800781,-0.442871,0.396484,0
22620,0.801758,-0.475586,0.416504,0
22640,0.768066,-0.522461,0.401855,0
22660,0.793945,-0.513184,0.393555,0
22680,0.828125,-0.490234,0.408691,0
22700,0.793457,-0.487305,0.368164,0
22720,0.786621,-0.526855,0.368652,0
22740,0.746094,-0.554199,0.344238,0
22760,0.739258,-0.56543,0.348145,0
22780,0.794922,-0.556152,0.349121,0
22800,0.751465,-0.564941,0.300781,0
22820,0.73291,-0.628906,0.297363,0
22840,0.746094,-0.615723,0.302734,0
22860,0.754883,-0.59082,0.311523,0
22880,0.726562,-0.628418,0.307617,0
22900,0.71582,-0.643555,0.277832,0
22920,0.657227,-0.657227,0.250977,0
22940,0.634277,-0.662598,0.217773,0
22960,0.730469,-0.642578,0.243164,0
22980,0.742188,-0.615723,0.241211,0
23000,0.68457,-0.618164,0.217285,0
23020,0.657227,-0.660156,0.171387,0
23040,0.637695,-0.673828,0.135254,0
23060,0.650391,-0.66748,0.142578,0
23080,0.701172,-0.649414,0.147949,0
23100,0.71582,-0.637207,0.145996,0
23120,0.734375,-0.631836,0.10791,0
23140,0.664062,-0.638672,0.081543,0
23160,0.595215,-0.65332,0.107422,0
23180,0.687988,-0.667969,0.108887,0
23200,0.876465,-0.595215,0.109375,0
23220,0.896973,-0.547363,0.0874023,0
23240,0.78125,-0.604004,0.112305,0
23260,0.811523,-0.665527,0.0932617,0
23280,0.893555,-0.630371,0.0249023,0
23300,0.940918,-0.578125,0.03125,0
23320,0.941895,-0.566406,0.0463867,0
23340,0.916504,-0.601562,0.0224609,0
23360,0.870117,-0.635742,0.0244141,0
23380,0.849121,-0.600586,0.0214844,0
23400,0.878418,-0.509766,-0.0126953,0
23420,0.913086,-0.479492,-0.050293,0
23440,0.927734,-0.51709,-0.034668,0
23460,0.912598,-0.552734,-0.0107422,0
23480,0.934082,-0.492676,-0.0693359,0
23500,0.971191,-0.449707,-0.0947266,0
23520,0.983398,-0.445312,-0.0864258,0
23540,0.963867,-0.438477,-0.0761719,0
23560,0.945801,-0.420898,-0.0698242,0
23580,0.993652,-0.417969,-0.107422,0
23600,0.970215,-0.388184,-0.0986328,0
23620,0.942383,-0.345215,-0.0825195,0
23640,0.961914,-0.342773,-0.121094,0
23660,0.995605,-0.324219,-0.121582,0
23680,1.02197,-0.319824,-0.123047,0
23700,0.979492,-0.325195,-0.0913086,0
23720,0.976074,-0.333008,-0.0751953,0
23740,0.987793,-0.327148,-0.097168,0
23760,0.97998,-0.320312,-0.0805664,0
23780,0.974609,-0.327637,-0.0683594,1001
23800,0.999023,-0.32959,-0.0966797,0
23820,1.00195,-0.304199,-0.0913086,0
23840,1.00049,-0.301758,-0.108398,0
23860,0.986816,-0.300781,-0.108398,0
23880,0.984375,-0.304199,-0.0830078,0
23900,0.977539,-0.298828,-0.0786133,0
23920,0.952637,-0.275391,-0.0727539,0
23940,0.952637,-0.256836,-0.074707,0
23960,0.972168,-0.291992,-0.065918,0
23980,0.968262,-0.300781,-0.0727539,0
24000,0.959961,-0.302246,-0.106934,0
24020,0.94873,-0.300781,-0.117676,0
24040,0.95166,-0.319336,-0.120605,0
24060,0.95459,-0.37207,-0.134277,0
24080,0.929199,-0.329102,-0.131836,0
24100,0.907227,-0.350098,-0.0771484,0
24120,0.905762,-0.375977,-0.167969,0
24140,0.931152,-0.371094,-0.138672,0
24160,0.927734,-0.347168,-0.137695,0
24180,0.888184,-0.384766,-0.140137,0
24200,0.864746,-0.369629,-0.115723,0
24220,0.944336,-0.429199,-0.0947266,0
24240,0.984863,-0.366211,-0.0957031,0
24260,0.95752,-0.277832,-0.078125,0
24280,0.97168,-0.284668,-0.0566406,0
24300,0.960938,-0.353516,-0.078125,0
24320,0.918457,-0.397461,-0.074707,0
24340,0.885254,-0.394531,-0.0634766,0
24360,0.879883,-0.391113,-0.0805664,0
24380,0.851562,-0.38916,-0.0942383,0
24400,0.768555,-0.411621,-0.0605469,0
24420,0.703613,-0.432129,-0.0283203,0
24440,0.676758,-0.47998,-0.00976562,0
24460,0.666992,-0.503906,-0.00390625,0
24480,0.632324,-0.509766,-0.0170898,0
24500,0.59668,-0.476074,-0.0424805,0
24520,0.611328,-0.431641,0.00537109,0
24540,0.631348,-0.387695,0.0678711,0
24560,0.624512,-0.335938,0.0625,0
24580,0.67627,-0.352539,0.0288086,0
24610,0.839355,-0.267578,0.118652,0
24630,0.949707,-0.210449,0.105957,0
24650,1.03857,-0.215332,0.114258,0
24670,1.14795,-0.297852,0.050293,0
24690,1.28418,-0.335938,0.019043,0
24710,1.29883,-0.359863,0.0664062,0
24730,1.25977,-0.40625,0.0859375,0
24750,1.2627,-0.481934,0.0898438,0
24770,1.29736,-0.556641,0.101074,0
24850,0.711914,-0.768555,0.440918,0
24880,0.625,-0.735352,0.449219,0
24940,0.601562,-0.71582,0.438477,0
24960,0.604492,-0.689453,0.429199,0
24980,0.550781,-0.683594,0.45752,0
24990,0.477539,-0.708008,0.474121,0
25010,0.498535,-0.747559,0.451172,0
25010,0.538574,-0.759766,0.429199,0
25030,0.541016,-0.725098,0.437988,0
25050,0.518555,-0.716309,0.458008,0
25070,0.492676,-0.739258,0.455078,0
25090,0.500488,-0.764648,0.463867,0
25110,0.534668,-0.766113,0.449219,0
25120,0.606445,-0.732422,0.481934,0
25140,0.588867,-0.719238,0.482422,0
25160,0.56543,-0.726562,0.459473,0
25180,0.572754,-0.726074,0.445801,0
25180,0.555176,-0.709473,0.442871,0
25200,0.513184,-0.681641,0.45459,0
25210,0.541992,-0.71875,0.442871,0
25230,0.563965,-0.701172,0.466797,0
25250,0.562988,-0.669434,0.482422,0
25280,0.617188,-0.65918,0.444824,1000
25300,0.536133,-0.68457,0.439453,0
25330,0.583496,-0.723633,0.440918,0
25350,0.597656,-0.741699,0.41748,0
25370,0.60498,-0.686035,0.42041,0
25390,0.60791,-0.67334,0.412598,0
25410,0.584961,-0.665527,0.42041,0
25430,0.560059,-0.682129,0.427734,0
25450,0.527344,-0.708984,0.422852,0
25470,0.477051,-0.706543,0.429688,0
25490,0.440918,-0.695312,0.42041,0
25510,0.453613,-0.657715,0.456543,0
25530,0.51416,-0.63623,0.470703,0
25540,0.554688,-0.703125,0.448242,0
25550,0.687012,-0.666016,0.431152,0
25570,0.745605,-0.679199,0.421387,0
25580,0.831543,-0.648926,0.348145,0
25590,0.76123,-0.647461,0.335449,0
25610,0.726074,-0.628906,0.347656,0
25630,0.729004,-0.628418,0.321777,0
25650,0.820801,-0.640625,0.264648,0
25670,0.842285,-0.594238,0.264648,0
25690,0.781738,-0.569336,0.29541,0
25710,0.74707,-0.622559,0.278809,0
25730,0.775391,-0.671875,0.263672,0
25760,0.834473,-0.623535,0.251465,0
25780,0.803711,-0.600586,0.246094,0
25810,0.809082,-0.623535,0.229492,0
25830,0.843262,-0.641602,0.223633,0
25850,0.846191,-0.596191,0.21875,0
25870,0.833496,-0.544434,0.20459,0
25890,0.822266,-0.527344,0.214355,0
25900,0.851562,-0.518066,0.224609,0
25920,0.925293,-0.501953,0.244141,0
25940,0.904785,-0.456543,0.237793,0
25960,0.87207,-0.42334,0.231934,0
25980,0.905762,-0.419922,0.225586,0
26000,0.907715,-0.42627,0.245605,0
26020,0.90918,-0.408691,0.292969,0
26040,0.959961,-0.348633,0.296875,0
26060,0.989258,-0.329102,0.253906,0
26080,0.972168,-0.327148,0.26416,0
26100,0.953613,-0.353027,0.281738,0
26120,0.973633,-0.36377,0.292969,0
26140,1.00146,-0.362793,0.309082,0
26160,1.00586,-0.333496,0.302734,0
26180,0.989746,-0.309082,0.344727,0
26200,0.981934,-0.291992,0.36084,0
26220,0.995605,-0.331543,0.350586,0
26240,0.9375,-0.37793,0.379883,0
26260,0.900391,-0.334473,0.405273,0
26280,0.916504,-0.293457,0.405762,0
26300,0.92627,-0.279297,0.411133,0
26320,0.9375,-0.299316,0.455566,0
26340,0.922852,-0.342285,0.501465,0
26360,0.847168,-0.324219,0.52002,0
26380,0.8125,-0.272949,0.484863,0
26400,0.845703,-0.271484,0.552246,0
26420,0.800781,-0.364258,0.560059,0
26440,0.722168,-0.382324,0.566895,0
26460,0.734863,-0.307617,0.553711,0
26480,0.805664,-0.245117,0.536621,0
26500,0.793457,-0.281738,0.575195,0
26520,0.704102,-0.412598,0.612793,0
26540,0.646484,-0.445312,0.59082,0
26560,0.689941,-0.386719,0.589844,0
26580,0.766602,-0.307617,0.574219,0
26600,0.762695,-0.306152,0.61377,0
26620,0.725098,-0.37207,0.640625,0
26640,0.702637,-0.384277,0.601562,0
26660,0.722656,-0.35498,0.583496,0
26670,0.707031,-0.334961,0.574707,0
26690,0.711914,-0.380859,0.571289,0
26700,0.720215,-0.40625,0.565918,0
26720,0.722656,-0.396484,0.526367,0
26740,0.729492,-0.380371,0.550293,0
26760,0.69043,-0.410156,0.537598,0
26780,0.682617,-0.45166,0.509766,0
26800,0.671387,-0.498535,0.504883,0
26820,0.627441,-0.503906,0.48877,0
26840,0.656738,-0.512695,0.459961,0
26860,0.646973,-0.509766,0.489746,0
26880,0.617188,-0.551758,0.475586,0
26900,0.67627,-0.594727,0.499023,0
26920,0.694824,-0.604004,0.49707,0
26940,0.663086,-0.59668,0.496582,0
26960,0.591309,-0.571777,0.516113,0
26980,0.584473,-0.600586,0.481934,0
27000,0.621582,-0.614746,0.484375,0
27020,0.625,-0.619629,0.478516,0
27040,0.610352,-0.602539,0.494141,0
27060,0.522949,-0.609863,0.51709,0
27080,0.478027,-0.646973,0.490234,0
27100,0.540527,-0.646973,0.469238,0
27120,0.594238,-0.611816,0.443848,0
27160,0.535156,-0.671387,0.42334,0
27180,0.48584,-0.707031,0.401367,0
27200,0.490723,-0.696289,0.382812,0
27220,0.537109,-0.679199,0.374023,0
27240,0.561523,-0.681152,0.359863,0
27250,0.579102,-0.723145,0.348145,0
27270,0.62207,-0.753418,0.333984,0
27290,0.625488,-0.774902,0.29248,0
27310,0.617188,-0.787109,0.237793,0
27330,0.646973,-0.76416,0.221191,0
27350,0.625488,-0.693359,0.207031,0
27370,0.630371,-0.716797,0.201172,0
27390,0.687988,-0.750977,0.183105,0
27390,0.73291,-0.75293,0.209961,0
27410,0.683105,-0.712402,0.229492,0
27430,0.810547,-0.598633,-0.20166,0
27440,0.928223,-0.696777,0.23291,0
27450,1.0332,-0.649902,0.258301,0
27470,0.619141,-0.747559,-0.0751953,0
27480,1.26367,-0.537109,0.124512,0
27500,1.52979,-0.567871,0.340332,0
27520,0.281738,-0.634277,-0.385742,0
27540,1.21973,-0.612305,0.320801,0
27560,1.04785,-0.246582,-0.282715,0
27580,0.254883,-0.613281,-0.118652,0
27590,0.537598,-0.356445,-0.375488,0
27610,0.863281,-0.602539,0.304199,0
27630,1.31396,-0.194336,-0.0991211,0
27650,1.00391,-0.214844,-0.258301,0
27650,1.02539,-0.402344,0.0771484,0
27670,1.01709,-0.336426,0.0766602,0
27670,1.06982,-0.289062,0.0893555,0
27690,1.07178,-0.274414,0.101074,0
27710,1.33984,-0.17041,0.197754,0
27730,0.42041,-0.493652,-0.0327148,0
27750,1.63623,-0.0566406,0.840332,0
27770,0.431152,-0.444336,-0.196777,0
27790,1.28125,0.0229492,0.275391,0
27810,0.995605,-0.316895,0.644043,0
27830,0.516113,-0.322754,-0.33252,0
27880,1.29102,-0.197754,0.928223,0
27900,0.344238,-0.478516,-0.252441,0
27920,1.53125,-0.00732422,0.683594,0
27940,0.81543,-0.356445,0.596191,0
27960,0.585938,-0.291504,-0.161621,0
27980,1.59619,-0.0991211,1.03125,0
28000,0.402832,-0.5,0.174316,0
28020,0.922852,-0.148926,0.162598,0
28040,1.31934,-0.203613,1.0791,0
28060,0.740234,-0.47998,0.422363,0
28080,0.710938,-0.456055,0.412109,0
28110,0.680664,-0.489746,0.425781,0
28130,0.725098,-0.537598,0.450684,0
28160,0.748535,-0.489746,0.373047,0
28180,0.760742,-0.575684,0.376953,0
28200,0.733398,-0.566895,0.359375,0
28220,0.761719,-0.553223,0.318359,0
28240,0.828125,-0.553711,0.336426,0
28260,0.772461,-0.574707,0.345703,0
28280,0.725098,-0.598145,0.328613,0
28300,0.728027,-0.603516,0.315918,0
28340,0.771973,-0.615723,0.288574,0
28360,0.759277,-0.603516,0.295898,0
28380,0.737793,-0.618164,0.276855,0
28400,0.723633,-0.650879,0.245605,0
28420,0.730469,-0.664551,0.252441,0
28440,0.744141,-0.67334,0.237305,0
28460,0.759766,-0.658691,0.220215,0
28480,0.771973,-0.660645,0.200195,0
28500,0.736816,-0.668945,0.213379,0
28510,0.675293,-0.692383,0.228027,0
28540,0.697754,-0.653809,0.146973,0
28560,0.726562,-0.668945,0.188477,0
28580,0.729004,-0.674805,0.168457,0
28600,0.706055,-0.664551,0.116211,0
28620,0.695801,-0.69043,0.135254,0
28640,0.756348,-0.680664,0.149902,0
28660,0.791504,-0.646973,0.112793,0
28680,0.828125,-0.647949,0.0761719,0
28700,0.818848,-0.684082,0.0727539,0
28720,0.821777,-0.687012,0.0488281,0
28740,0.795898,-0.635742,0.0249023,0
28760,0.747559,-0.647461,0.0229492,0
28780,0.73584,-0.67041,0.0678711,0
28810,0.902344,-0.616699,-0.0610352,0
28830,0.774414,-0.677734,-0.0458984,0
28850,0.753906,-0.660645,-0.0844727,0
28870,0.901367,-0.601074,-0.126465,0
28890,0.935547,-0.556152,-0.135742,0
28910,0.836426,-0.575684,-0.118652,0
28930,0.83252,-0.608398,-0.144531,0
28950,0.875488,-0.570312,-0.158691,0
28970,0.902344,-0.543457,-0.155273,0
28990,0.876953,-0.521973,-0.156738,0
29010,0.881836,-0.493164,-0.182129,0
29030,0.938477,-0.485352,-0.181641,0
29050,0.947266,-0.486816,-0.166992,0
29070,0.932129,-0.458496,-0.16748,0
29090,0.941406,-0.422852,-0.171875,0
29110,0.943359,-0.408203,-0.161621,0
29130,0.954102,-0.393066,-0.164551,0
29150,0.964844,-0.417969,-0.195312,0
29170,0.944824,-0.421875,-0.197754,0
29190,0.902344,-0.395508,-0.193848,0
29210,0.905762,-0.367188,-0.206543,0
29230,0.949219,-0.344727,-0.179199,0
29250,1.00098,-0.336426,-0.158203,0
29270,0.998535,-0.299805,-0.145996,0
29290,0.982422,-0.272461,-0.122559,0
29310,0.996582,-0.242676,-0.126465,0
29330,1.0249,-0.216797,-0.122559,0
29350,1.04102,-0.204102,-0.0922852,0
29370,1.02686,-0.184082,-0.0898438,0
29390,1.02637,-0.179199,-0.108887,0
29410,1.04248,-0.161133,-0.0986328,0
29430,1.01904,-0.140625,-0.0874023,0
29450,0.990234,-0.126465,-0.0878906,0
29470,0.992676,-0.130859,-0.0830078,0
29490,1.01855,-0.138184,-0.0195312,0
29510,1.02979,-0.121582,-0.0390625,0
29530,1.04639,-0.105957,-0.0141602,0
29550,1.0542,-0.0981445,0.0185547,0
29570,1.05127,-0.0981445,0.0463867,0
29590,1.04785,-0.0888672,0.0551758,0
29610,1.03125,-0.0986328,0.0546875,0
29630,1.03906,-0.125977,0.0893555,0
29650,1.05566,-0.134766,0.119141,0
29660,1.06592,-0.105957,0.118164,0
29680,1.03223,-0.0776367,0.122559,0
29700,0.994629,-0.0864258,0.164551,0
29720,0.937012,-0.155762,0.185059,0
29730,0.935547,-0.179688,0.197266,0
29750,1.00732,-0.131348,0.203125,0
29770,0.990234,-0.125488,0.257324,0
29790,0.93457,-0.151855,0.28418,0
29810,0.949219,-0.200195,0.279297,0
29830,0.989746,-0.225098,0.293457,0
29850,1.01172,-0.232422,0.292969,0
29870,0.95166,-0.271973,0.310059,0
29890,0.911621,-0.27832,0.286621,0
29910,0.94873,-0.275391,0.288086,0
29930,0.967285,-0.271484,0.297852,0
29950,0.929199,-0.290039,0.30127,0
29970,0.89502,-0.33252,0.308594,0
29990,0.881836,-0.352051,0.337891,0
30010,0.888672,-0.345703,0.316406,0
30030,0.842285,-0.312988,0.304199,0
30050,0.858398,-0.345703,0.329102,0
30070,0.881348,-0.407715,0.324219,0
30090,0.787598,-0.422852,0.346191,0
30110,0.766602,-0.40918,0.326172,0
30130,0.815918,-0.405762,0.336426,0
30150,0.812012,-0.416992,0.334961,0
30170,0.802246,-0.473633,0.348145,0
30190,0.82373,-0.451172,0.338379,0
30210,0.840332,-0.469727,0.320312,0
30230,0.790527,-0.467285,0.336426,0
30250,0.769531,-0.486328,0.313477,0
30270,0.791504,-0.496582,0.342285,0
30290,0.808594,-0.486328,0.326172,0
30310,0.815918,-0.493652,0.324707,0
30330,0.785645,-0.524902,0.321777,0
30350,0.79248,-0.534668,0.30957,0
30370,0.806152,-0.564941,0.297852,0
30390,0.762695,-0.547852,0.316895,0
30410,0.861816,-0.530273,0.29541,0
30430,0.835938,-0.561035,0.337891,0
30450,0.769531,-0.567871,0.320801,0
30470,0.802246,-0.586426,0.297852,0
30490,0.806152,-0.567871,0.301758,0
30510,0.770508,-0.521973,0.269043,0
30530,0.777832,-0.54541,0.259766,0
30550,0.744629,-0.597656,0.231934,0
30570,0.742188,-0.593262,0.216309,0
30590,0.70752,-0.584473,0.166992,0
30610,0.756348,-0.600098,0.16748,0
30630,0.803223,-0.603027,0.15332,0
30650,0.814941,-0.611816,0.130371,0
30670,0.789062,-0.626465,0.132324,0
30690,0.752441,-0.648438,0.128906,0
30710,0.754883,-0.640137,0.0844727,0
30730,0.773438,-0.619629,0.0644531,0
30750,0.768066,-0.65332,0.0483398,0
30770,0.748047,-0.649414,0.0146484,0
30790,0.751465,-0.675293,0.0292969,0
30810,0.769531,-0.64209,0.0263672,0
30830,0.830078,-0.621094,-0.0185547,0
30850,0.807129,-0.63623,-0.0458984,0
30870,0.77832,-0.67627,-0.0488281,0
30890,0.819824,-0.649414,-0.0732422,0
30900,0.880371,-0.62207,-0.0888672,0
30920,0.87793,-0.618164,-0.111328,0
30940,0.873535,-0.615723,-0.119629,0
30960,0.848633,-0.612305,-0.13916,0
30980,0.798828,-0.575684,-0.15332,0
31000,0.820801,-0.594238,-0.171387,0
31020,0.883789,-0.563477,-0.194824,0
31040,0.877441,-0.543457,-0.213379,0
31060,0.856934,-0.568848,-0.18457,0
31080,0.831543,-0.537109,-0.194336,0
31100,0.841797,-0.503906,-0.21875,0
31120,0.848145,-0.475098,-0.244629,0
31140,0.866211,-0.475098,-0.265625,0
31160,0.910645,-0.455078,-0.258301,0
31180,0.890625,-0.442383,-0.300781,0
31200,0.825684,-0.458496,-0.307129,0
31220,0.850586,-0.464355,-0.287109,0
31240,0.896484,-0.419434,-0.29834,0
31260,0.921875,-0.364746,-0.289062,0
31280,0.95166,-0.365234,-0.309082,0
31300,0.943359,-0.38916,-0.304199,0
31320,0.915527,-0.381348,-0.269531,0
31340,0.95166,-0.358398,-0.304199,0
31360,0.976562,-0.313965,-0.323242,0
31380,0.947754,-0.280762,-0.295898,0
31400,0.956055,-0.288086,-0.303223,1001
31420,0.972656,-0.296875,-0.320801,0
31440,0.963379,-0.314941,-0.294434,0
31460,0.949707,-0.283203,-0.292969,0
31480,0.960449,-0.242188,-0.304199,0
31500,0.956543,-0.235352,-0.295898,0
31520,0.951172,-0.284668,-0.290527,0
31540,0.921387,-0.29834,-0.264648,0
31560,0.925781,-0.285156,-0.263184,0
31580,0.902832,-0.293457,-0.260742,0
31600,0.870117,-0.26416,-0.228516,0
31610,0.882324,-0.249023,-0.282227,0
31640,0.87793,-0.267578,-0.222168,0
31660,0.827148,-0.413086,-0.34082,0
31680,0.839844,-0.491211,-0.274902,0
31700,0.875,-0.354004,-0.208984,0
31720,0.843262,-0.234863,-0.28125,0
31740,0.775391,-0.213379,-0.248047,0
31760,0.76123,-0.316895,-0.225586,0
31780,0.76123,-0.383789,-0.208984,0
31800,0.755859,-0.415039,-0.209961,0
31820,0.763184,-0.388184,-0.157715,0
31840,0.739746,-0.292969,-0.145508,0
31860,0.709473,-0.290039,-0.200195,0
31880,0.768555,-0.357422,-0.216797,0
31910,0.688965,-0.412598,-0.118164,0
31930,0.677734,-0.42334,-0.125,0
31940,0.710449,-0.429199,-0.11377,0
31960,0.766113,-0.419434,-0.0854492,0
31980,0.795898,-0.397949,-0.0444336,0
32000,0.810059,-0.375,-0.0390625,0
32020,0.876465,-0.371582,-0.0527344,0
32040,0.976074,-0.350098,-0.0151367,0
32050,1.02783,-0.35498,0.0541992,0
32080,1.13818,-0.474609,-0.0161133,0
32100,1.22119,-0.513184,0.00585938,0
32120,1.2334,-0.524414,0.0566406,0
32140,1.20459,-0.512695,0.116211,0
32160,1.1499,-0.524902,0.141602,0
32180,1.13428,-0.599121,0.132324,0
32200,1.09717,-0.683594,0.194336,0
32220,1.04541,-0.729004,0.213867,0
32240,1.00293,-0.732422,0.241699,0
32260,0.975098,-0.755859,0.261719,0
32280,0.913086,-0.815918,0.272949,0
32300,0.769531,-0.859375,0.329102,0
32320,0.592773,-0.875977,0.395996,0
32340,0.489746,-0.877441,0.399902,0
32360,0.48584,-0.882324,0.382324,1000
32370,0.490234,-0.873047,0.392578,0
32390,0.478516,-0.843262,0.39209,0
32410,0.487305,-0.823242,0.369629,0
32420,0.517578,-0.817871,0.34375,0
32440,0.552734,-0.831543,0.349121,0
32460,0.544922,-0.828613,0.36084,0
32480,0.511719,-0.811523,0.36084,0
32500,0.508301,-0.80127,0.344727,0
32520,0.523926,-0.791504,0.355957,0
32540,0.513184,-0.804688,0.368652,0
32580,0.527344,-0.792969,0.337891,0
32600,0.550293,-0.765625,0.352539,0
32620,0.571289,-0.753906,0.396484,0
32640,0.570801,-0.73584,0.397949,0
32650,0.589355,-0.741699,0.415039,0
32670,0.606934,-0.744629,0.416016,0
32680,0.592773,-0.749023,0.419434,0
32700,0.566895,-0.756348,0.429688,0
32710,0.560547,-0.743652,0.400879,0
32730,0.60791,-0.733887,0.393555,0
32750,0.580078,-0.765137,0.390625,0
32770,0.550781,-0.755859,0.360352,0
32790,0.51416,-0.733887,0.38623,0
32810,0.487305,-0.733398,0.405762,0
32860,0.601074,-0.70459,0.388672,0
32900,0.699219,-0.717285,0.394531,0
32940,0.659668,-0.706543,0.308594,0
32960,0.672852,-0.708496,0.282227,0
32980,0.657715,-0.713867,0.304688,0
33000,0.585938,-0.726562,0.305664,0
33020,0.521973,-0.749512,0.30127,0
33060,0.708984,-0.739746,0.258789,0
33080,0.879395,-0.689941,0.130859,0
33110,1.01123,-0.512695,0.169922,0
33170,0.835449,-0.541992,0.136719,0
33190,0.847168,-0.536621,0.183594,0
33210,0.811035,-0.512207,0.17334,0
33220,0.923828,-0.452148,0.154785,0
33240,0.946289,-0.419922,0.215332,0
33290,0.998047,-0.346191,0.269043,0
33300,0.985352,-0.324707,0.369141,0
33330,0.93457,-0.303711,0.439453,0
33350,0.93457,-0.303223,0.460938,0
33370,0.977539,-0.273926,0.453613,0
33390,0.949219,-0.263672,0.540039,0
33410,0.842773,-0.269531,0.518066,0
33430,0.869141,-0.298828,0.555664,0
33450,0.797852,-0.304688,0.59668,0
33470,0.672852,-0.331055,0.61084,0
33490,0.711914,-0.330078,0.558594,0
33510,0.782227,-0.321289,0.556641,0
33530,0.808594,-0.348633,0.546875,0
33550,0.794922,-0.384766,0.558594,0
33570,0.706543,-0.436523,0.586914,0
33590,0.657227,-0.437012,0.574707,0
33610,0.702148,-0.375977,0.555664,0
33630,0.738281,-0.373047,0.54834,0
33650,0.753906,-0.404785,0.515625,0
33670,0.697754,-0.424805,0.568848,0
33700,0.702637,-0.407227,0.550781,0
33720,0.679199,-0.424316,0.639648,0
33730,0.655762,-0.40625,0.583496,0
33750,0.646484,-0.332031,0.562012,0
33760,0.613281,-0.356934,0.556152,0
33780,0.593262,-0.405273,0.509766,0
33800,0.617188,-0.454102,0.525391,0
33820,0.611816,-0.484863,0.535645,0
33840,0.578125,-0.496094,0.502441,0
33860,0.596191,-0.463379,0.507812,0
33880,0.615234,-0.460938,0.485352,0
33890,0.609375,-0.513184,0.499512,0
33910,0.577637,-0.579102,0.499512,0
33930,0.547363,-0.593262,0.501465,0
33950,0.616211,-0.580566,0.474121,0
33970,0.650879,-0.583008,0.474121,0
33990,0.601074,-0.616699,0.478516,0
34010,0.544434,-0.636719,0.482422,0
34030,0.566895,-0.666504,0.475586,0
34050,0.57959,-0.650879,0.458008,0
34070,0.573242,-0.654297,0.4375,0
34090,0.608887,-0.664551,0.445801,0
34110,0.589355,-0.688477,0.449219,0
34130,0.550293,-0.68457,0.430664,0
34150,0.540039,-0.682617,0.394043,0
34170,0.563965,-0.724609,0.351562,0
34190,0.668945,-0.754395,0.341309,0
34210,0.620117,-0.748047,0.319824,0
34230,0.547363,-0.766602,0.271973,0
34250,0.57666,-0.763672,0.234863,0
34280,0.618164,-0.759277,0.271484,0
34290,0.60498,-0.773438,0.178711,0
34320,0.673828,-0.739746,0.229004,0
34340,0.644531,-0.710449,0.17041,0
34360,0.648438,-0.680176,0.181641,0
34380,0.731934,-0.725586,0.122559,0
34410,0.707031,-0.629395,0.110352,0
34440,0.92041,-0.649414,-0.00878906,0
34460,0.875,-0.631348,-0.0229492,0
34480,0.88623,-0.586914,-0.00439453,0
34500,1.00586,-0.580078,-0.027832,0
34520,0.920898,-0.55957,-0.0273438,0
34560,0.972656,-0.527344,-0.019043,0
34570,1.04248,-0.457031,0.0507812,0
34590,1.0249,-0.37793,0.0263672,0
34610,1.0708,-0.30127,0.0488281,0
34630,1.10645,-0.330078,0.0668945,0
34650,1.10449,-0.377441,0.0893555,0
34670,1.07568,-0.333496,0.0952148,0
34690,1.07568,-0.282715,0.0473633,0
34710,1.08154,-0.231445,0.0727539,0
34730,1.08301,-0.208008,0.100586,0
34750,0.996582,-0.0830078,0.212402,0
34780,0.972656,-0.15625,0.293457,0
34800,0.915039,-0.145996,0.427734,0
34820,0.935547,-0.185059,0.477051,0
34840,0.903809,-0.206543,0.456055,0
34860,0.889648,-0.241211,0.449219,0
34880,0.905762,-0.263184,0.453125,0
34900,0.903809,-0.299316,0.438477,0
34920,0.879883,-0.286133,0.427246,0
34940,0.880859,-0.244629,0.399902,0
34960,0.896484,-0.273438,0.432617,0
34980,0.834473,-0.345703,0.431641,0
35000,0.754883,-0.382324,0.419434,0
35020,0.794922,-0.34668,0.397949,0
35040,0.833496,-0.317871,0.375488,0
35060,0.793457,-0.383789,0.396484,0
35090,0.814941,-0.472168,0.413086,0
35110,0.80127,-0.452148,0.371582,0
35130,0.828613,-0.457031,0.348145,0
35150,0.775879,-0.486816,0.34668,0
35170,0.745605,-0.541504,0.350586,0
35190,0.70752,-0.550293,0.366211,0
35230,0.685547,-0.605957,0.306641,0
35250,0.667969,-0.601562,0.288574,0
35270,0.624512,-0.646484,0.283203,0
35290,0.670898,-0.688477,0.262695,0
35310,0.718262,-0.669922,0.234375,0
35330,0.635742,-0.706055,0.226562,0
35350,0.553711,-0.730469,0.194336,0
35370,0.57666,-0.754883,0.145508,0
35390,0.633301,-0.758789,0.132324,0
35410,0.628906,-0.736816,0.108887,0
35430,0.59375,-0.743164,0.0883789,0
35450,0.571289,-0.776855,0.0888672,0
35470,0.594238,-0.773438,0.0678711,0
35490,0.63623,-0.733398,0.0385742,0
35510,0.65625,-0.751953,-0.00292969,0
35530,0.65918,-0.776367,-0.046875,0
35550,0.645996,-0.83252,-0.0253906,0
35570,0.654785,-0.844238,-0.0703125,0
35590,0.706543,-0.810059,-0.0981445,0
35610,0.766602,-0.694824,-0.103516,0
35630,0.813965,-0.643555,-0.133789,0
35650,0.798828,-0.690918,-0.177246,0
35670,0.734863,-0.739258,-0.147461,0
35690,0.787598,-0.76416,-0.182617,0
35710,0.92041,-0.650391,-0.27832,0
35720,0.879883,-0.57666,-0.283203,0
35750,0.766602,-0.67041,-0.263184,0
35770,0.825195,-0.642578,-0.263184,0
35790,0.844238,-0.624023,-0.262207,0
35810,0.818359,-0.569336,-0.289551,0
35830,0.796387,-0.554688,-0.307129,0
35860,0.952148,-0.52832,-0.352539,0
35880,0.897949,-0.507324,-0.341797,0
35900,0.852539,-0.492676,-0.386719,0
35920,0.843262,-0.428223,-0.390137,0
35940,0.88916,-0.431152,-0.361328,0
35960,0.918945,-0.414551,-0.381348,0
35980,0.912598,-0.400879,-0.362305,0
36000,0.920898,-0.37793,-0.313477,0
36020,0.92627,-0.327637,-0.297363,0
36040,0.9375,-0.320312,-0.285645,0
36060,0.976074,-0.308594,-0.288086,0
36080,0.964355,-0.259766,-0.242676,0
36100,0.958984,-0.222168,-0.221191,0
36120,0.997559,-0.219238,-0.189453,0
36140,1.0542,-0.205078,-0.181641,0
36160,1.09131,-0.165527,-0.171387,0
36180,1.10889,-0.137695,-0.160156,0
36200,1.09521,-0.116699,-0.151855,0
36220,1.09473,-0.135254,-0.132324,0
36240,1.10498,-0.136719,-0.078125,0
36260,1.09814,-0.101074,-0.0454102,0
36280,1.0459,-0.0541992,-0.00390625,0
36300,1.01416,-0.0703125,0.0195312,0
36320,0.98877,-0.106934,0.0620117,0
36340,1.00391,-0.101074,0.105957,0
36360,1.01953,-0.0742188,0.108398,0
36380,1.03174,-0.0605469,0.119629,0
36400,1.0127,-0.0717773,0.162109,0
36420,0.994141,-0.118164,0.192383,0
36440,0.946289,-0.141602,0.191895,0
36460,0.969238,-0.130371,0.200195,0
36480,1.00391,-0.106934,0.23877,0
36500,0.928711,-0.112793,0.266602,0
36520,0.864258,-0.224121,0.298828,0
36540,0.939453,-0.250977,0.300293,0
36560,1.01562,-0.164551,0.307129,0
36580,0.993652,-0.189941,0.331055,0
36600,0.910645,-0.286621,0.365234,0
36620,0.931152,-0.36377,0.352539,0
36640,0.893555,-0.338867,0.337402,0
36660,0.845215,-0.312012,0.310547,0
36680,0.857422,-0.290527,0.310059,0
36700,0.833984,-0.369629,0.341797,0
36720,0.763184,-0.459961,0.323242,0
36740,0.734863,-0.431641,0.32666,0
36760,0.74707,-0.369141,0.333496,0
36780,0.735352,-0.362305,0.289551,0
36800,0.759766,-0.460449,0.304199,0
36820,0.773926,-0.489258,0.364258,0
36840,0.803223,-0.463379,0.347168,0
36860,0.817383,-0.446289,0.351074,0
36880,0.84082,-0.499512,0.359375,0
36900,0.823242,-0.576172,0.359863,0
36920,0.771484,-0.563965,0.362793,0
36940,0.742676,-0.549805,0.305176,0
36960,0.773926,-0.557617,0.327637,0
36980,0.805664,-0.547363,0.337891,0
37000,0.784668,-0.556152,0.294434,0
37020,0.739746,-0.622559,0.277832,0
37040,0.733887,-0.660645,0.269531,0
37060,0.782227,-0.640625,0.265625,0
37080,0.833984,-0.613281,0.239258,0
37100,0.751465,-0.657227,0.19043,0
37120,0.674805,-0.683105,0.17334,0
37140,0.578125,-0.683594,0.12793,0
37160,0.666504,-0.661621,0.121094,0
37180,0.786621,-0.605957,0.0712891,0
37200,0.76709,-0.638184,0.0322266,0
37220,0.702637,-0.697754,-0.00927734,0
37240,0.706543,-0.698242,-0.00830078,0
37260,0.694824,-0.655273,-0.019043,0
37280,0.710938,-0.650391,-0.0776367,0
37300,0.74707,-0.651855,-0.101074,0
37320,0.737305,-0.653809,-0.124023,0
37340,0.739746,-0.656738,-0.14502,0
37360,0.827637,-0.644531,-0.128906,0
37380,0.939941,-0.631836,-0.154297,0
37400,0.91748,-0.665039,-0.193359,0
37420,0.841309,-0.643555,-0.199707,0
37440,0.8125,-0.591797,-0.216309,0
37460,0.839844,-0.53418,-0.214844,0
37480,0.897949,-0.529297,-0.25293,0
37500,0.875488,-0.498047,-0.213379,0
37520,0.833496,-0.449219,-0.24707,0
37540,0.863281,-0.41748,-0.282227,0
37560,0.91748,-0.439941,-0.285156,0
37570,0.886719,-0.450684,-0.31543,0
37590,0.844727,-0.400391,-0.303223,0
37610,0.888672,-0.36377,-0.33252,0
37630,0.937988,-0.310059,-0.347656,0
37650,0.912598,-0.30127,-0.349121,0
37670,0.901367,-0.32959,-0.353516,0
37690,0.958984,-0.331055,-0.385742,0
37710,1.00977,-0.262695,-0.438477,0
37730,1.04199,-0.27002,-0.399902,1001
37750,1.00391,-0.28418,-0.348633,0
37770,0.977539,-0.260742,-0.34082,0
37790,1.00537,-0.246582,-0.332031,0
37810,0.964355,-0.222168,-0.351562,0
37830,0.916992,-0.233887,-0.357422,0
37850,0.894531,-0.257812,-0.302246,0
37870,0.899902,-0.258789,-0.296387,0
37890,0.90625,-0.248535,-0.322754,0
37910,0.888672,-0.275879,-0.319336,0
37930,0.876465,-0.288086,-0.317871,0
37950,0.873535,-0.282715,-0.321777,0
37970,0.890137,-0.293945,-0.320312,0
37990,0.890137,-0.290039,-0.316406,0
38010,0.854492,-0.324219,-0.298828,0
38030,0.799805,-0.467285,-0.344238,0
38050,0.78418,-0.498047,-0.307129,0
38070,0.813477,-0.457031,-0.27832,0
38090,0.80127,-0.344727,-0.283203,0
38110,0.751953,-0.276855,-0.255859,0
38130,0.709473,-0.318359,-0.250488,0
38150,0.714844,-0.35791,-0.288086,0
38170,0.778809,-0.40918,-0.30957,0
38190,0.835449,-0.408203,-0.273438,0
38210,0.849121,-0.339844,-0.22998,0
38230,0.806641,-0.287598,-0.227539,0
38250,0.787109,-0.225586,-0.311523,0
38270,0.814941,-0.298828,-0.252441,0
38290,0.772461,-0.354004,-0.192383,0
38310,0.712402,-0.314453,-0.159668,0
38330,0.722168,-0.306641,-0.147949,0
38350,0.755371,-0.299316,-0.108398,0
38370,0.776367,-0.248535,-0.0947266,0
38390,1.00537,-0.260254,-0.0698242,0
38410,1.08643,-0.297363,-0.0439453,0
38410,1.12402,-0.414062,0.00830078,0
38440,1.10352,-0.582031,0.110352,0
38460,1.0835,-0.63623,0.143555,0
38480,1.02588,-0.670898,0.180664,0
38530,0.652832,-0.963867,0.308105,0
38560,0.501465,-0.871582,0.382812,1000
38600,0.512695,-0.830566,0.39209,0
38620,0.538086,-0.830566,0.391602,0
38630,0.556152,-0.811523,0.358887,0
38650,0.530273,-0.813477,0.336426,0
38650,0.552246,-0.835938,0.318848,0
38660,0.539551,-0.818848,0.346191,0
38700,0.628418,-0.780273,0.335449,0
38720,0.49707,-0.802734,0.325195,0
38740,0.455078,-0.810059,0.32959,0
38740,0.472168,-0.778809,0.327148,0
38750,0.493652,-0.762207,0.357422,0
38770,0.498047,-0.80127,0.336426,0
38790,0.505859,-0.810547,0.332031,0
38810,0.493652,-0.799805,0.318848,0
38830,0.509277,-0.783691,0.319824,0
38850,0.54834,-0.780762,0.320312,0
38870,0.61084,-0.775879,0.321777,0
38920,0.766602,-0.664551,0.119629,0
38940,0.758301,-0.67041,0.143066,0
38970,0.756348,-0.692383,0.119629,0
38980,0.772949,-0.632324,0.120605,0
39000,0.783203,-0.619629,0.109375,0
39020,0.812988,-0.619629,0.113281,0
39030,0.847656,-0.631348,0.126953,0
39080,0.908691,-0.465332,0.105469,0
39110,1.01074,-0.375977,0.109863,0
39150,1.10156,-0.306641,0.14502,0
39150,1.12305,-0.291504,0.164551,0
39170,1.10059,-0.251953,0.166992,0
39210,1.13867,-0.269531,0.205566,0
39230,1.12793,-0.26123,0.268555,0
39260,0.930664,-0.300781,0.389648,0
39280,0.925781,-0.275879,0.393555,0
39300,0.91748,-0.209473,0.437012,0
39320,0.873047,-0.216309,0.456543,0
39340,0.831543,-0.262207,0.498047,0
39360,0.774414,-0.319824,0.535645,0
39380,0.782227,-0.310547,0.511719,0
39400,0.803711,-0.259766,0.520996,0
39410,0.711914,-0.375,0.525879,0
39420,0.800781,-0.356445,0.565918,0
39440,0.720703,-0.444824,0.584473,0
39460,0.706055,-0.450684,0.566895,0
39480,0.74707,-0.408691,0.534668,0
39510,0.73291,-0.445801,0.529785,0
39520,0.695312,-0.527344,0.585449,0
39520,0.6875,-0.518066,0.55957,0
39530,0.714355,-0.524902,0.55957,0
39550,0.688477,-0.524414,0.56543,0
39570,0.610352,-0.55957,0.591309,0
39590,0.543457,-0.55127,0.53418,0
39610,0.539062,-0.553223,0.520508,0
39630,0.58252,-0.534668,0.516113,0
39650,0.603516,-0.490723,0.507812,0
39670,0.564941,-0.51123,0.464844,0
39690,0.547363,-0.555664,0.450195,0
39710,0.541016,-0.616211,0.461426,0
39730,0.541504,-0.63916,0.44873,0
39750,0.518555,-0.632324,0.449707,0
39770,0.520508,-0.610352,0.418945,0
39790,0.572266,-0.645508,0.379395,0
39820,0.55127,-0.693848,0.37207,0
39840,0.562988,-0.733887,0.361328,0
39860,0.568848,-0.737793,0.34375,0
39870,0.708984,-0.716797,0.32959,0
39890,0.693359,-0.721191,0.307617,0
39910,0.657715,-0.73877,0.280762,0
39930,0.608398,-0.725586,0.258789,0
39950,0.591309,-0.711426,0.22168,0
39980,0.666504,-0.69043,0.0976562,0
40000,0.776855,-0.683105,0.0644531,0
40020,0.761719,-0.703613,0.0576172,0
40050,0.768066,-0.716309,0.0166016,0
40060,0.92334,-0.601074,0.00195312,0
40100,0.950684,-0.528809,-0.129395,0
40120,0.948242,-0.51123,-0.118652,0
40150,0.991699,-0.368164,-0.0917969,0
40170,1.02637,-0.355957,-0.0708008,0
40190,1.04834,-0.322754,-0.0600586,0
40210,1.05371,-0.301758,-0.0253906,0
40230,1.01709,-0.257324,0.0253906,0
40250,1.02539,-0.236328,0.00195312,0
40270,1.06592,-0.200195,0.0131836,0
40290,1.08008,-0.175293,0.0498047,0
40310,1.08789,-0.16748,0.0859375,0
40340,1.03125,-0.153809,0.258301,0
40360,1.05762,-0.0996094,0.262207,0
40380,0.90625,-0.138672,0.315918,0
40400,0.833496,-0.225586,0.39209,0
40420,0.870605,-0.229004,0.374023,0
40450,0.943848,-0.107422,0.431152,0
40470,0.871094,-0.153809,0.437012,0
40490,0.875977,-0.225098,0.40918,0
40510,0.900391,-0.26123,0.475586,0
40530,0.938477,-0.253418,0.415039,0
40550,0.90918,-0.215332,0.430176,0
40570,0.818359,-0.269043,0.441406,0
40590,0.783691,-0.344238,0.456055,0
40610,0.811035,-0.330078,0.45752,0
40630,0.816406,-0.300781,0.457031,0
40650,0.769043,-0.477051,0.435547,0
40670,0.755371,-0.472656,0.416016,0
40690,0.778809,-0.431152,0.407227,0
40710,0.807617,-0.425781,0.401855,0
40730,0.73291,-0.472168,0.401367,0
40750,0.725098,-0.536133,0.369629,0
40770,0.819824,-0.53418,0.366211,0
40790,0.806641,-0.498047,0.348633,0
40810,0.738281,-0.490723,0.344238,0
40840,0.686523,-0.556641,0.343262,0
40860,0.736816,-0.54834,0.336426,0
40880,0.701172,-0.521484,0.355957,0
40900,0.670898,-0.558105,0.334473,0
40920,0.692871,-0.612305,0.281738,0
40940,0.677734,-0.665527,0.229492,0
40960,0.677246,-0.676758,0.219238,0
40980,0.682129,-0.683594,0.194824,0
41000,0.683105,-0.709473,0.176758,0
41020,0.675781,-0.722656,0.132812,0
41040,0.6875,-0.733398,0.125,0
41060,0.65625,-0.756348,0.112793,0
41080,0.618164,-0.768555,0.108887,0
41100,0.578125,-0.756836,0.0688477,0
41120,0.597168,-0.753906,0.0263672,0
41140,0.662109,-0.751465,0.0322266,0
41160,0.664062,-0.755859,0.0195312,0
41180,0.620117,-0.776855,0.00488281,0
41200,0.617676,-0.720215,0.0458984,0
41220,0.709961,-0.673828,0.00927734,0
41240,0.794922,-0.650391,-0.0488281,0
41260,0.748047,-0.650391,0.0166016,0
41280,0.694824,-0.635254,-0.00976562,0
41300,0.730469,-0.615234,-0.0917969,0
41320,0.875977,-0.62207,-0.166016,0
41340,0.947266,-0.631836,-0.196289,0
41350,0.902344,-0.614258,-0.185059,0
41370,0.935059,-0.638184,-0.22168,0
41390,1.00098,-0.633301,-0.24707,0
41410,1.02246,-0.576172,-0.28125,0
41430,0.964844,-0.505859,-0.286133,0
41440,0.910645,-0.504883,-0.288086,0
41460,0.908203,-0.524414,-0.299316,0
41480,0.947754,-0.480469,-0.316406,0
41490,0.960938,-0.335449,-0.33252,0
41520,0.983887,-0.281738,-0.364746,0
41540,0.965332,-0.269043,-0.37793,0
41560,0.964355,-0.240234,-0.358887,0
41580,0.966309,-0.223633,-0.318359,0
41600,0.983398,-0.200195,-0.268066,0
41620,0.993164,-0.14209,-0.220215,0
41640,1.02881,-0.0800781,-0.217773,0
41660,1.08154,-0.0449219,-0.204102,0
41680,1.10254,-0.0288086,-0.168457,0
41700,1.10156,-0.0307617,-0.0888672,0
41720,1.09961,-0.0268555,-0.0761719,0
41740,1.08936,0.0146484,-0.0737305,0
41760,1.10303,0.019043,-0.0205078,0
41780,1.12207,0.00585938,0.0351562,0
41800,1.09668,-0.000976562,0.0585938,0
41820,1.05908,0.0268555,0.0766602,0
41840,1.04297,0.0419922,0.108887,0
41860,0.986816,0.00878906,0.158203,0
41880,0.968262,-0.046875,0.145996,0
41900,0.98291,-0.0537109,0.180176,0
41920,0.996582,-0.0244141,0.213867,0
41940,0.984375,-0.0356445,0.26416,0
41960,0.932617,-0.100098,0.282227,0
41980,0.957031,-0.116211,0.251953,0
41990,1.02051,-0.127441,0.266602,0
42010,1.00977,-0.126953,0.324219,0
42030,0.995117,-0.159668,0.351074,0
42050,0.975586,-0.106445,0.340332,0
42070,0.963379,-0.125977,0.387695,0
42090,0.946289,-0.176758,0.361328,0
42110,0.875977,-0.215332,0.380859,0
42130,0.77832,-0.268555,0.411133,0
42150,0.759766,-0.265625,0.379395,0
42170,0.767578,-0.255859,0.341309,0
42190,0.737305,-0.291504,0.386719,0
42210,0.711914,-0.377441,0.397461,0
42230,0.756836,-0.449219,0.425781,0
42250,0.810547,-0.477539,0.398926,0
42270,0.810547,-0.430664,0.364746,0
42290,0.729492,-0.483398,0.388672,0
42310,0.720703,-0.56543,0.398438,0
42330,0.74707,-0.548828,0.348145,0
42350,0.697754,-0.553711,0.334473,0
42370,0.643555,-0.572266,0.310547,0
42390,0.674316,-0.549805,0.29248,0
42410,0.615723,-0.540527,0.246582,0
42430,0.59082,-0.591797,0.216797,0
42450,0.686035,-0.65918,0.203125,0
42470,0.65332,-0.656738,0.195312,0
42490,0.65332,-0.661133,0.178711,0
42540,0.730957,-0.734863,0.138672,0
42560,0.748047,-0.702637,0.12793,0
42580,0.772949,-0.700195,0.081543,0
42600,0.756836,-0.709473,0.0439453,0
42620,0.761719,-0.732422,0.0151367,0
42640,0.902344,-0.721191,-0.000976562,0
42660,0.913086,-0.686035,-0.0336914,0
42680,0.77002,-0.667969,-0.0473633,0
42700,0.711426,-0.661133,-0.0869141,0
42720,0.813965,-0.653809,-0.10498,0
42740,0.905762,-0.624023,-0.135254,0
42760,0.911133,-0.597656,-0.143555,0
42780,0.851074,-0.626465,-0.209473,0
42800,0.818359,-0.599121,-0.197754,0
42820,0.85791,-0.577637,-0.229492,0
42840,0.871582,-0.509766,-0.241211,0
42860,0.876465,-0.516602,-0.244629,0
42880,0.881836,-0.505371,-0.24707,0
42900,0.897461,-0.490723,-0.280273,0
42920,0.885742,-0.436035,-0.297852,0
42940,0.88916,-0.412109,-0.33252,0
42960,0.875977,-0.408203,-0.340332,0
42980,0.806152,-0.42627,-0.295898,0
43000,0.804199,-0.411621,-0.311523,0
43020,0.90918,-0.387207,-0.365723,0
43040,0.963379,-0.308594,-0.397949,0
43060,0.957031,-0.32666,-0.356934,0
43080,0.930664,-0.349609,-0.303711,0
43100,0.929688,-0.376465,-0.297852,1001
43120,0.953125,-0.338379,-0.318848,0
43140,0.940918,-0.221191,-0.32373,0
43160,0.947266,-0.238281,-0.319336,0
43180,0.967285,-0.341797,-0.285645,0
43200,0.924316,-0.306641,-0.279785,0
43220,0.897461,-0.262207,-0.265625,0
43240,0.915039,-0.251953,-0.262207,0
43260,0.929199,-0.283691,-0.280273,0
43280,0.912109,-0.345215,-0.28418,0
43300,0.912109,-0.335449,-0.28125,0
43320,0.924805,-0.302246,-0.277832,0
43340,0.913574,-0.269531,-0.263672,0
43360,0.89209,-0.34375,-0.272461,0
43380,0.858887,-0.443848,-0.312012,0
43400,0.823242,-0.490234,-0.263184,0
43420,0.809082,-0.454102,-0.25,0
43440,0.832031,-0.379883,-0.26416,0
43460,0.839355,-0.293945,-0.276855,0
43480,0.808594,-0.284668,-0.231445,0
43500,0.783691,-0.293457,-0.208496,0
43520,0.751953,-0.370605,-0.187988,0
43540,0.753906,-0.384277,-0.189941,0
43560,0.777832,-0.338867,-0.198242,0
43580,0.763672,-0.298828,-0.212891,0
43600,0.751953,-0.295898,-0.225098,0
43620,0.744629,-0.328613,-0.208984,0
43640,0.713379,-0.357422,-0.140625,0
43660,0.654297,-0.353027,-0.109863,0
43680,0.643066,-0.350098,-0.135254,0
43700,0.725586,-0.322266,-0.151855,0
43720,0.77002,-0.319336,-0.0898438,0
43740,0.743652,-0.30957,-0.00683594,0
43760,0.778809,-0.317383,-0.0317383,0
43780,0.960449,-0.392578,-0.131836,0
43800,1.08887,-0.475586,-0.0766602,0
43840,1.10547,-0.79834,0.081543,0
43880,0.881348,-0.955566,0.30127,0
43900,0.677734,-0.992676,0.385254,0
43910,0.54834,-0.9375,0.401367,0
43930,0.503418,-0.913086,0.379883,0
43950,0.520996,-0.870605,0.35498,0
43980,0.523926,-0.836426,0.380859,0
44000,0.595215,-0.814453,0.375488,0
44020,0.624023,-0.775391,0.40332,0
44040,0.579102,-0.766113,0.397461,0
44060,0.521484,-0.802734,0.381348,0
44080,0.5,-0.82959,0.388184,0
44100,0.518555,-0.829102,0.398438,1000
44120,0.574219,-0.799805,0.372559,0
44140,0.630371,-0.793945,0.36084,0
44160,0.633301,-0.819336,0.354004,0
44180,0.581055,-0.836914,0.355957,0
44200,0.556152,-0.835449,0.33252,0
44220,0.518555,-0.791504,0.344238,0
44250,0.523926,-0.754883,0.316406,0
44270,0.502441,-0.755371,0.317383,0
44290,0.487793,-0.766602,0.31543,0
44310,0.494141,-0.767578,0.319824,0
44330,0.493164,-0.742188,0.318848,0
44360,0.871582,-0.658691,0.0239258,0
44370,0.86084,-0.629395,0.0268555,0
44390,0.897461,-0.569336,0.0444336,0
44410,0.980469,-0.51709,0.0678711,0
44430,1.0166,-0.50293,0.043457,0
44450,0.910156,-0.499512,0.0571289,0
44470,0.894531,-0.469238,0.108398,0
44490,0.943848,-0.444336,0.12793,0
44510,0.97998,-0.38916,0.143555,0
44530,1.0498,-0.354004,0.138672,0
44550,1.09229,-0.342773,0.162109,0
44570,1.13574,-0.325684,0.209961,0
44590,1.06592,-0.352051,0.219727,0
44610,1.01416,-0.368164,0.224121,0
44630,1.04932,-0.352051,0.261719,0
44650,1.11621,-0.345703,0.304688,0
44670,1.11279,-0.314453,0.379883,0
44690,1.05176,-0.29834,0.455078,0
44710,0.966797,-0.305176,0.441406,0
44730,0.988281,-0.338379,0.42041,0
44750,1.0083,-0.354492,0.5,0
44770,0.920898,-0.33252,0.489258,0
44790,0.856934,-0.39209,0.500977,0
44810,0.811035,-0.430664,0.527832,0
44820,0.723633,-0.374023,0.486816,0
44850,0.686035,-0.413574,0.566895,0
44870,0.698242,-0.440918,0.606934,0
44890,0.719238,-0.437988,0.552246,0
44910,0.728516,-0.400391,0.507812,0
44930,0.720703,-0.374512,0.508789,0
44950,0.700195,-0.42041,0.527832,0
44970,0.751465,-0.520996,0.57959,0
44990,0.703613,-0.48877,0.600098,0
45010,0.639648,-0.444336,0.546387,0
45030,0.620605,-0.480957,0.518066,0
45050,0.577637,-0.55127,0.57373,0
45070,0.524902,-0.516602,0.555664,0
45090,0.59668,-0.447266,0.5625,0
45110,0.566406,-0.439941,0.586914,0
45130,0.508301,-0.545898,0.569824,0
45150,0.544434,-0.602539,0.578125,0
45170,0.439941,-0.521973,0.594238,0
45190,0.300781,-0.5,0.544434,0
45210,0.223145,-0.570312,0.500977,0
45230,0.180176,-0.623535,0.441895,0
45250,0.26709,-0.621094,0.463867,0
45270,0.481934,-0.656738,0.518066,0
45290,0.593262,-0.68457,0.561035,0
45310,0.587891,-0.724121,0.570312,0
45330,0.467285,-0.753418,0.535156,0
45340,0.403809,-0.757812,0.391113,0
45360,0.661133,-0.753906,0.350586,0
45380,0.597168,-0.737305,0.320312,0
45400,0.553223,-0.747559,0.300781,0
45420,0.610352,-0.806152,0.34668,0
45430,0.61377,-0.819336,0.282715,0
45450,0.59375,-0.839355,0.188965,0
45470,0.547363,-0.806152,0.161621,0
45490,0.569824,-0.825195,0.165527,0
45510,0.616699,-0.844727,0.144043,0
45530,0.650391,-0.835449,0.102051,0
45550,0.675293,-0.769043,0.050293,0
45570,0.745117,-0.723633,0.00537109,0
45590,0.734863,-0.724121,0.03125,0
45610,0.655273,-0.759766,0.0600586,0
45640,0.689941,-0.742676,-0.00195312,0
45660,0.819336,-0.663086,-0.00830078,0
45680,0.922852,-0.635742,-0.0322266,0
45700,0.912109,-0.581543,0.00585938,0
45720,0.898926,-0.516602,-0.0712891,0
45740,1.02148,-0.508789,-0.148438,0
45760,1.12598,-0.51416,-0.135254,0
45780,1.1084,-0.472168,-0.12207,0
45800,1.03125,-0.412109,-0.119629,0
45820,1.04785,-0.37207,-0.0996094,0
45840,1.16309,-0.34668,-0.105469,0
45860,1.18262,-0.287598,-0.119141,0
45880,1.16309,-0.24707,-0.130859,0
45900,1.14014,-0.23877,-0.0966797,0
45920,1.09521,-0.228027,-0.0253906,0
45950,1.15527,-0.20166,0.0263672,0
45980,1.11182,-0.0878906,0.0415039,0
46000,1.08496,-0.105469,0.219727,0
46020,1.0127,-0.165039,0.288574,0
46040,0.991211,-0.134766,0.262207,0
46060,0.945801,-0.0341797,0.373047,0
46080,0.927246,-0.151367,0.413086,0
46090,0.865723,-0.0898438,0.413574,0
46110,0.872559,-0.110352,0.441895,0
46130,0.84375,-0.192871,0.446777,0
46150,0.824219,-0.249023,0.404297,0
46170,0.836426,-0.268555,0.490723,0
46190,0.814941,-0.208496,0.513184,0
46210,0.800781,-0.23291,0.504395,0
46230,0.76416,-0.33252,0.542969,0
46250,0.714355,-0.414551,0.517578,0
46270,0.714355,-0.383301,0.503418,0
46290,0.710449,-0.360352,0.518066,0
46310,0.701172,-0.385254,0.465332,0
46330,0.708008,-0.416992,0.449219,0
46350,0.683594,-0.461914,0.453613,0
46370,0.670898,-0.478516,0.414062,0
46390,0.696777,-0.478516,0.380371,0
46410,0.730957,-0.515625,0.391113,0
46430,0.72998,-0.54541,0.361328,0
46450,0.732422,-0.619629,0.347656,0
46470,0.766602,-0.63916,0.361816,0
46490,0.797363,-0.608398,0.333008,0
46510,0.816406,-0.592773,0.325684,0
46530,0.748047,-0.621582,0.343262,0
46550,0.688477,-0.66748,0.335449,0
46570,0.662109,-0.719238,0.321777,0
46590,0.541504,-0.704102,0.246094,0
46610,0.413086,-0.661133,0.194336,0
46630,0.368652,-0.685059,0.128906,0
46650,0.458984,-0.746582,0.14209,0
46670,0.547852,-0.721191,0.137207,0
46690,0.513672,-0.703125,0.0756836,0
46710,0.505859,-0.763184,0.0771484,0
46730,0.497559,-0.832031,0.0927734,0
46750,0.518066,-0.84375,0.0454102,0
46770,0.647461,-0.788086,0.0219727,0
46790,0.773926,-0.741211,-0.0078125,0
46810,0.806152,-0.715332,-0.0161133,0
46830,0.693359,-0.72998,-0.0268555,0
46850,0.638672,-0.734375,-0.0239258,0
46870,0.70752,-0.696289,-0.0825195,0
46890,0.839355,-0.648438,-0.145996,0
46910,0.96875,-0.624512,-0.189941,0
46930,0.972656,-0.595703,-0.220215,0
46950,0.875488,-0.550293,-0.250488,0
46970,0.850586,-0.537598,-0.246582,0
46990,0.927734,-0.537598,-0.239746,0
47010,0.962891,-0.503418,-0.271484,0
47030,0.887695,-0.493164,-0.294434,0
47040,0.909668,-0.429199,-0.340332,0
47060,0.948242,-0.437012,-0.346191,0
47080,0.92627,-0.441895,-0.365234,0
47100,0.890137,-0.410156,-0.353516,0
47120,0.95166,-0.391113,-0.377441,0
47140,0.984863,-0.326172,-0.392578,0
47150,0.98584,-0.264648,-0.384277,0
47170,1.0166,-0.245605,-0.374023,0
47190,1.06885,-0.240234,-0.356445,0
47200,1.04492,-0.246582,-0.326172,0
47220,1.00928,-0.206055,-0.292969,0
47250,1.0957,-0.0854492,-0.274414,0
47270,1.13818,-0.101074,-0.237793,0
47290,1.13525,-0.121582,-0.187988,0
47310,1.09082,-0.120605,-0.167969,0
47330,1.09473,-0.0874023,-0.147461,0
47350,1.11719,-0.0322266,-0.140137,0
47370,1.12305,0.0224609,-0.0864258,0
47390,1.12061,0.00927734,-0.0698242,0
47410,1.08838,-0.0161133,-0.0385742,0
47430,1.07227,-0.059082,0.0195312,0
47450,1.04932,-0.0615234,0.0214844,0
47470,1.01855,-0.0537109,0.050293,0
47490,1.02734,-0.0742188,0.0576172,0
47510,1.01611,-0.0922852,0.135254,0
47530,1.00146,-0.135742,0.139648,0
47550,0.963379,-0.158203,0.152344,0
47570,0.929688,-0.174316,0.179688,0
47590,0.97168,-0.20752,0.179199,0
47610,1.07812,-0.251953,0.212891,0
47630,1.08643,-0.307129,0.195801,0
47650,1.00684,-0.383789,0.168945,0
47670,0.967773,-0.424805,0.219727,0
47690,0.972656,-0.40625,0.211914,0
47710,1.05713,-0.419434,0.244629,0
47730,0.954102,-0.44873,0.310547,0
47750,0.705078,-0.584961,0.338379,0
47770,0.704102,-0.59668,0.332031,0
47790,0.755371,-0.422363,0.287598,0
47810,0.677246,-0.412598,0.248047,0
47830,0.62793,-0.546875,0.268555,0
47850,0.612305,-0.628906,0.264648,0
47870,0.54248,-0.600586,0.262695,0
47890,0.569336,-0.577148,0.254883,0
47910,0.571289,-0.586914,0.184082,0
47930,0.60791,-0.642578,0.177246,0
47950,0.497559,-0.693359,0.168457,0
47970,0.478027,-0.683594,0.10791,0
47970,0.604492,-0.722168,0.185547,0
47990,0.587891,-0.666504,0.175781,0
48010,0.597168,-0.715332,0.158203,0
48030,0.645508,-0.768066,0.143066,0
48050,0.71582,-0.804199,0.164551,0
48070,0.648926,-0.794434,0.120605,0
48090,0.709961,-0.796875,0.10791,0
48110,0.786133,-0.776855,0.0927734,0
48130,0.799316,-0.78125,0.0791016,0
48150,0.73291,-0.808105,0.0913086,0
48170,0.690918,-0.799316,0.0380859,0
48190,0.748535,-0.760254,0.000976562,0
48210,0.800293,-0.701172,-0.0507812,0
48230,0.738281,-0.694824,-0.0571289,0
48250,0.689941,-0.727539,-0.0268555,0
48270,0.674316,-0.735352,-0.0698242,0
48290,0.759277,-0.693848,-0.0849609,0
48310,0.808594,-0.607422,-0.154785,0
48330,0.790527,-0.60791,-0.139648,0
48350,0.761719,-0.668945,-0.108887,0
48370,0.777344,-0.660156,-0.161133,0
48390,0.74707,-0.601074,-0.193359,0
48410,0.691406,-0.558105,-0.239746,0
48430,0.711914,-0.561035,-0.238281,0
48450,0.770508,-0.584961,-0.254883,0
48470,0.780273,-0.572754,-0.286133,0
48490,0.750977,-0.560059,-0.334473,0
48510,0.786133,-0.526367,-0.354004,0
48530,0.814941,-0.486328,-0.397461,0
48550,0.793945,-0.509766,-0.357422,0
48570,0.814453,-0.516602,-0.400391,0
48590,0.804199,-0.508301,-0.430176,0
48610,0.804199,-0.549316,-0.445801,0
48630,0.810547,-0.604492,-0.471191,0
48650,0.776367,-0.595215,-0.453613,0
48670,0.810059,-0.501465,-0.493164,0
48690,0.84668,-0.413086,-0.52002,0
48710,0.83252,-0.422852,-0.521484,0
48730,0.806641,-0.40625,-0.490234,0
48750,0.847168,-0.48877,-0.477051,0
48770,0.882812,-0.518066,-0.505371,0
48790,0.838379,-0.399414,-0.48584,0
48810,0.844238,-0.300293,-0.583008,0
48830,0.875977,-0.356934,-0.51416,1001
48850,0.879883,-0.438477,-0.427246,0
48870,0.875488,-0.486816,-0.475098,0
48890,0.853027,-0.372559,-0.532227,0
48910,0.858887,-0.243164,-0.496582,0
48930,0.848633,-0.305664,-0.424316,0
48950,0.806641,-0.375,-0.414062,0
48970,0.791504,-0.405273,-0.433105,0
48990,0.808105,-0.393555,-0.411621,0
49020,0.808594,-0.29834,-0.367188,0
49040,0.771484,-0.338867,-0.398438,0
49060,0.786621,-0.450684,-0.424805,0
49080,0.760254,-0.495605,-0.364746,0
49100,0.744141,-0.443848,-0.43457,0
49120,0.769531,-0.415527,-0.373047,0
49140,0.741211,-0.354492,-0.376465,0
49180,0.656738,-0.361816,-0.334961,0
49200,0.627441,-0.364746,-0.297852,0
49220,0.606445,-0.374512,-0.256836,0
49240,0.577148,-0.344727,-0.237793,0
49260,0.541504,-0.32373,-0.262207,0
49280,0.57666,-0.286133,-0.282715,0
49300,0.630859,-0.305664,-0.193848,0
49320,0.615234,-0.344238,-0.134766,0
49340,0.618164,-0.35498,-0.196289,0
49360,0.730469,-0.356934,-0.1875,0
49380,0.882812,-0.362305,-0.181641,0
49400,1.02002,-0.376953,-0.166992,0
49420,1.09277,-0.396484,-0.166504,0
49440,1.16992,-0.435547,-0.161621,0
49440,1.16016,-0.583496,-0.03125,0
49460,1.08594,-0.629395,-0.000976562,0
49490,1.18213,-0.750488,0.0400391,0
49510,1.17725,-0.778809,0.146484,0
49530,1.04834,-0.865723,0.160156,0
49560,0.527832,-0.839355,0.422852,0
49580,0.570801,-0.781738,0.460449,0
49640,0.657715,-0.776855,0.347656,0
49660,0.611328,-0.754883,0.384277,0
49680,0.584473,-0.75,0.359375,0
49700,0.573242,-0.76416,0.385742,0
49720,0.588867,-0.759277,0.394043,0
49740,0.59082,-0.744629,0.374023,1000
49760,0.574707,-0.719238,0.361328,0
49790,0.604004,-0.729492,0.394531,0
49810,0.601562,-0.741699,0.393555,0
49830,0.557129,-0.736816,0.414551,0
49850,0.536621,-0.733398,0.391602,0
49870,0.521973,-0.729492,0.391113,0
49890,0.561523,-0.754883,0.411621,0
49900,0.577637,-0.785645,0.404297,0
49920,0.565918,-0.740234,0.40332,0
49940,0.558105,-0.702148,0.448242,0
49960,0.560547,-0.691406,0.410156,0
49980,0.590332,-0.691406,0.380371,0
50000,0.644531,-0.722656,0.379883,0
50020,0.651855,-0.725586,0.380859,0
50040,0.614746,-0.722168,0.360352,0
50060,0.618652,-0.669434,0.350098,0
50080,0.636719,-0.632812,0.364746,0
50100,0.60498,-0.668457,0.374512,0
50140,0.613281,-0.675293,0.335449,0
50160,0.629395,-0.695312,0.331543,0
50180,0.700684,-0.724609,0.241699,0
50210,0.832031,-0.737793,0.171387,0
50230,0.962402,-0.577637,0.0727539,0
50250,0.950195,-0.427246,0.046875,0
50270,0.924805,-0.462402,0.0195312,0
50290,0.936523,-0.495605,0.0126953,0
50300,0.984375,-0.330078,0.0844727,0
50330,1.16113,-0.243652,0.118164,0
50350,1.17578,-0.226074,0.125977,0
50370,1.1499,-0.190918,0.192871,0
50390,1.1665,-0.165527,0.191895,0
50410,1.19287,-0.15332,0.193848,0
50430,1.19092,-0.150391,0.257812,0
50450,1.2334,-0.147461,0.298828,0
50470,1.2373,-0.115723,0.339355,0
50490,1.08301,-0.149414,0.452148,0
50510,0.921875,-0.222168,0.474121,0
50560,0.688965,-0.259277,0.634277,0
50580,0.539551,-0.324707,0.655762,0
50610,0.520996,-0.364746,0.61377,0
50620,0.564453,-0.316895,0.603027,0
50640,0.611328,-0.358887,0.643555,0
50660,0.593262,-0.492676,0.68457,0
50680,0.553711,-0.537109,0.649902,0
50700,0.496582,-0.470703,0.630859,0
50720,0.359863,-0.442871,0.608398,0
50740,0.279297,-0.507812,0.602051,0
50760,0.371094,-0.542969,0.536621,0
50780,0.449707,-0.544922,0.504395,0
50800,0.438477,-0.543457,0.491211,0
50820,0.439941,-0.574707,0.50293,0
50840,0.454102,-0.592285,0.480469,0
50860,0.505371,-0.612305,0.469238,0
50880,0.586426,-0.627441,0.45166,0
50900,0.626465,-0.645508,0.432617,0
50920,0.574707,-0.666992,0.387207,0
50940,0.48584,-0.665039,0.402344,0
50960,0.501465,-0.736816,0.369141,0
50980,0.554199,-0.744629,0.324219,0
51000,0.545898,-0.742676,0.331543,0
51030,0.605469,-0.749023,0.336914,0
51050,0.655273,-0.807617,0.294922,0
51080,0.521484,-0.82666,0.240234,0
51110,0.644043,-0.773926,0.194824,0
51120,0.609863,-0.771973,0.109375,0
51140,0.635254,-0.699219,0.111816,0
51150,0.707031,-0.706543,0.065918,0
51170,0.797363,-0.719238,0.0292969,0
51190,0.784668,-0.669922,0.0175781,0
51200,0.77002,-0.638184,-0.00634766,0
51220,0.79541,-0.685059,-0.0126953,0
51240,0.921387,-0.693848,-0.0634766,0
51260,0.95459,-0.629883,-0.0844727,0
51280,0.87207,-0.574707,-0.115234,0
51300,0.947754,-0.614746,-0.172363,0
51320,1.00244,-0.578613,-0.19873,0
51340,0.984863,-0.557129,-0.225586,0
51360,0.961914,-0.552734,-0.211426,0
51380,0.990723,-0.509277,-0.182617,0
51400,1.00293,-0.414551,-0.214355,0
51420,0.990723,-0.407227,-0.164551,0
51460,0.97168,-0.372559,-0.101562,0
51480,0.930664,-0.308105,-0.0888672,0
51500,0.98291,-0.227539,-0.0400391,0
51520,1.01807,-0.160645,-0.027832,0
51540,1.05908,-0.123535,-0.0141602,0
51560,1.09863,-0.0834961,0.00292969,0
51580,1.1123,-0.0449219,0.0546875,0
51600,1.08154,-0.0341797,0.059082,0
51620,1.06152,-0.00976562,0.0927734,0
51640,1.07129,0.0332031,0.145508,0
51660,1.00879,0.0664062,0.181641,0
51680,0.929688,0.0180664,0.255859,0
51690,0.874023,-0.0942383,0.341309,0
51710,0.750488,-0.0288086,0.361328,0
51730,0.67627,-0.00244141,0.411133,0
51750,0.645508,-0.0112305,0.462891,0
51770,0.69873,-0.0576172,0.447266,0
51790,0.77002,-0.0849609,0.463867,0
51810,0.849121,-0.0639648,0.402832,0
51830,0.941406,-0.0400391,0.308105,0
51850,1.03418,-0.123047,0.245117,0
51870,1.04053,-0.188477,0.216797,0
51880,1.03027,-0.233887,0.188477,0
51900,1.04688,-0.234863,0.133301,0
51920,1.1167,-0.240723,0.0561523,0
51930,1.14209,-0.279785,0.0253906,0
51950,1.11719,-0.359863,0.0410156,0
51970,1.04443,-0.454102,0.0556641,0
51990,0.992188,-0.477539,0.0415039,0
52010,0.969727,-0.485352,0.0498047,0
52030,0.92334,-0.532227,0.046875,0
52050,0.859863,-0.597656,0.0498047,0
52070,0.817383,-0.650391,0.0458984,0
52090,0.795898,-0.681152,0.0683594,0
52110,0.791992,-0.669434,0.101562,0
52140,0.74707,-0.677246,0.0864258,0
52160,0.712402,-0.663574,0.0830078,0
52180,0.748535,-0.674316,0.0556641,0
52200,0.772949,-0.680664,0.0527344,0
52220,0.747559,-0.695312,0.0415039,0
52240,0.734375,-0.688965,0.0390625,0
52260,0.748535,-0.652832,0.078125,0
52280,0.790039,-0.625,0.0800781,0
52300,0.815918,-0.628418,0.0419922,0
52320,0.777344,-0.621094,0.0805664,0
52340,0.712891,-0.628906,0.0917969,0
52350,0.670898,-0.654785,0.0712891,0
52370,0.690918,-0.674316,0.0424805,0
52390,0.781738,-0.674316,0.0307617,0
52410,0.818359,-0.661621,0.0205078,0
52430,0.82666,-0.662109,0.034668,0
52450,0.834961,-0.680664,0.0541992,0
52460,0.850098,-0.666992,0.0620117,0
52480,0.879395,-0.613281,0.0693359,0
52500,0.91748,-0.561523,0.0649414,0
52520,0.940918,-0.507324,0.0541992,0
52540,0.977051,-0.488281,0.0766602,0
52560,0.98291,-0.443848,0.129395,0
52580,0.972168,-0.417969,0.100098,0
52600,0.984863,-0.373535,0.0844727,0
52620,1.01221,-0.317871,0.114746,0
52640,1.02881,-0.272949,0.135742,0
52660,1.03662,-0.254883,0.14502,0
52680,1.04639,-0.260254,0.145996,0
52700,1.03467,-0.231934,0.175781,0
52720,1.021,-0.191895,0.174805,0
52740,1.04785,-0.159668,0.150391,0
52760,1.07178,-0.145996,0.164062,0
52780,1.07715,-0.183594,0.192383,0
52800,1.0752,-0.187012,0.195801,0
52820,1.02783,-0.146484,0.20459,0
52840,1.01611,-0.127441,0.217773,0
52870,0.972656,-0.229492,0.253418,0
52910,1.0083,-0.198242,0.371094,0
52930,1.06494,-0.168945,0.394531,0
52950,1.11816,-0.164062,0.393066,0
52970,1.10107,-0.218262,0.417969,0
52990,0.997559,-0.245117,0.405273,0
53010,0.931641,-0.233398,0.404785,0
53030,0.928711,-0.234863,0.430176,0
53050,0.827148,-0.238281,0.459473,0
53070,0.724609,-0.305176,0.4375,0
53090,0.716797,-0.311523,0.428223,0
53110,0.789551,-0.285645,0.432617,0
53130,0.798828,-0.289551,0.415527,0
53150,0.773438,-0.370605,0.424805,0
53170,0.80127,-0.444824,0.441895,0
53190,0.744141,-0.469238,0.430176,0
53210,0.649414,-0.464844,0.428711,0
53230,0.672363,-0.474609,0.405273,0
53250,0.733887,-0.5,0.398438,0
53270,0.657715,-0.547852,0.406738,0
53290,0.599121,-0.59668,0.382812,0
53310,0.630371,-0.560547,0.380859,0
53330,0.540527,-0.544434,0.361328,0
53350,0.588867,-0.59082,0.319824,0
53370,0.69043,-0.641602,0.331543,0
53390,0.617676,-0.608398,0.3125,0
53410,0.514648,-0.605957,0.284668,0
53430,0.563965,-0.650391,0.231934,0
53450,0.684082,-0.691895,0.23584,0
53470,0.738281,-0.66748,0.253418,0
53490,0.773926,-0.677734,0.227051,0
53510,0.732422,-0.697754,0.237793,0
53530,0.692871,-0.723145,0.20459,0
53550,0.700684,-0.719238,0.164062,0
53570,0.724609,-0.677246,0.161621,0
53590,0.736328,-0.646973,0.153809,0
53610,0.776855,-0.675293,0.13916,0
53630,0.728027,-0.688965,0.12207,0
53650,0.640625,-0.699707,0.125,0
53670,0.636719,-0.666992,0.100098,0
53690,0.740234,-0.629395,0.0786133,0
53710,0.762695,-0.635742,0.0981445,0
53730,0.667969,-0.663574,0.126465,0
53750,0.681152,-0.6875,0.0771484,0
53770,0.833496,-0.672363,-0.00146484,0
53790,0.872559,-0.635254,0.0219727,0
53810,0.786133,-0.620605,0.0473633,0
53830,0.765137,-0.63916,-0.0283203,0
53850,0.873047,-0.64502,-0.103516,0
53870,0.979492,-0.587402,-0.138184,0
53890,0.967773,-0.543457,-0.143555,0
53910,0.905273,-0.54541,-0.159668,0
53930,0.919922,-0.579102,-0.183105,0
53950,0.947754,-0.564453,-0.170898,0
53970,0.907227,-0.494141,-0.169434,0
53990,0.866699,-0.466309,-0.212891,0
54010,0.90918,-0.491699,-0.25,0
54030,0.950684,-0.484863,-0.26709,0
54050,0.947754,-0.462402,-0.295898,0
54070,0.983398,-0.463379,-0.325195,0
54090,0.995117,-0.450195,-0.355957,0
54110,0.972168,-0.433105,-0.347168,0
54130,0.98291,-0.427246,-0.32373,0
54150,0.993652,-0.319824,-0.212891,0
54170,0.963379,-0.290527,-0.185547,0
54190,0.944824,-0.245117,-0.155762,0
54210,0.979004,-0.221191,-0.141113,0
54230,1.0249,-0.180664,-0.0952148,0
54250,1.06592,-0.146973,-0.108887,0
54270,1.1084,-0.12793,-0.0942383,0
54290,1.13477,-0.102051,-0.0649414,0
54310,1.13477,-0.0698242,-0.0615234,0
54330,1.09766,-0.0712891,-0.0541992,0
54350,1.07861,-0.0722656,-0.0361328,0
54370,1.07715,-0.0786133,-0.00878906,0
54390,1.08301,-0.081543,0.00878906,0
54410,1.06445,-0.0527344,0.0610352,0
54430,1.02539,-0.043457,0.10791,0
54450,1.02148,-0.0551758,0.109375,0
54470,0.996582,-0.0932617,0.131348,0
54490,0.94043,-0.14209,0.18457,0
54510,0.912598,-0.119629,0.211426,0
54530,0.943359,-0.0795898,0.199707,0
54550,0.949219,-0.103027,0.233887,0
54570,0.91748,-0.1875,0.263184,0
54590,0.90625,-0.257324,0.34082,0
54610,0.913086,-0.228516,0.375488,0
54630,0.931641,-0.149902,0.330078,0
54650,0.953613,-0.14502,0.334473,0
54670,0.947266,-0.273926,0.382324,0
54690,0.932617,-0.378418,0.398438,0
54710,0.879395,-0.353516,0.376465,0
54730,0.80957,-0.293945,0.362793,0
54750,0.829102,-0.290039,0.365234,0
54770,0.825684,-0.388184,0.361816,0
54790,0.80957,-0.440918,0.37207,0
54810,0.850586,-0.427734,0.354492,0
54830,0.811523,-0.38623,0.344238,0
54850,0.771973,-0.425293,0.358887,0
54870,0.840332,-0.445801,0.347168,0
54890,0.878906,-0.45752,0.375488,0
54910,0.799805,-0.460938,0.368164,0
54930,0.804199,-0.495117,0.353516,0
54950,0.851074,-0.474609,0.375,0
54970,0.808594,-0.481934,0.369141,0
54990,0.789062,-0.52002,0.375977,0
55010,0.737793,-0.541992,0.372559,0
55030,0.654785,-0.523926,0.34082,0
55050,0.67041,-0.574707,0.356934,0
55070,0.71875,-0.570801,0.337891,0
55090,0.807617,-0.594238,0.342285,0
55110,0.727051,-0.589844,0.325195,0
55130,0.65332,-0.632324,0.313965,0
55150,0.639648,-0.628906,0.253906,0
55170,0.716797,-0.720215,0.204102,0
55190,0.650879,-0.673828,0.162598,0
55200,0.621582,-0.662598,0.111816,0
55220,0.611328,-0.658203,0.12207,0
55240,0.650391,-0.687988,0.121094,0
55260,0.613281,-0.693359,0.0356445,0
55280,0.651367,-0.746582,-0.0439453,0
55300,0.721191,-0.774414,-0.0263672,0
55320,0.716797,-0.708496,-0.0166016,0
55340,0.743652,-0.697266,-0.0625,0
55360,0.717773,-0.710449,-0.0864258,0
55380,0.726562,-0.729492,-0.126465,0
55400,0.785645,-0.719727,-0.135254,0
55420,0.823242,-0.682129,-0.15332,0
55440,0.79248,-0.65332,-0.197754,0
55460,0.794922,-0.640137,-0.225586,0
55480,0.821289,-0.619629,-0.252441,0
55500,0.875,-0.617188,-0.256836,0
55520,0.860352,-0.602051,-0.276855,0
55540,0.817383,-0.583008,-0.302734,0
55560,0.788086,-0.594238,-0.312988,0
55580,0.807617,-0.56543,-0.32666,0
55600,0.84082,-0.498047,-0.373535,0
55620,0.848145,-0.495605,-0.361816,0
55640,0.780762,-0.521484,-0.326172,0
55660,0.769043,-0.478516,-0.366699,0
55680,0.905762,-0.443359,-0.459473,0
55700,0.982422,-0.418457,-0.459961,0
55720,0.938965,-0.435059,-0.411621,0
55740,0.890625,-0.455078,-0.429199,0
55760,0.854004,-0.445312,-0.437012,0
55780,0.822266,-0.385254,-0.42041,0
55800,0.847656,-0.337402,-0.419922,0
55820,0.914062,-0.333496,-0.421387,0
55840,0.915039,-0.34668,-0.398926,1001
55860,0.901367,-0.368164,-0.365723,0
55880,0.914062,-0.325684,-0.387207,0
55900,0.915527,-0.31543,-0.369629,0
55920,0.888672,-0.261719,-0.350098,0
55940,0.887695,-0.255371,-0.352051,0
55960,0.872559,-0.290527,-0.372559,0
55980,0.840332,-0.373535,-0.34375,0
56000,0.844727,-0.400879,-0.317871,0
56020,0.851074,-0.332031,-0.327637,0
56040,0.86084,-0.288086,-0.375977,0
56060,0.866699,-0.297363,-0.390137,0
56080,0.805664,-0.402832,-0.276367,0
56100,0.798828,-0.425293,-0.271973,0
56120,0.787109,-0.515625,-0.306641,0
56140,0.788574,-0.479492,-0.345703,0
56160,0.797852,-0.455078,-0.372559,0
56180,0.727051,-0.384277,-0.422852,0
56200,0.69043,-0.291992,-0.322266,0
56220,0.678711,-0.249512,-0.248047,0
56240,0.658691,-0.299316,-0.244629,0
56260,0.629883,-0.318359,-0.257324,0
56280,0.631348,-0.377441,-0.263184,0
56300,0.644531,-0.402832,-0.264648,0
56320,0.64502,-0.376953,-0.199219,0
56340,0.574219,-0.34668,-0.109375,0
56360,0.521973,-0.307129,-0.105469,0
56380,0.597168,-0.303711,-0.147461,0
56400,0.74707,-0.328125,-0.113281,0
56400,0.945801,-0.403809,-0.00927734,0
56420,1.30615,-0.572266,0.0141602,0
56440,1.2749,-0.63916,0.0273438,0
56460,1.19141,-0.679199,0.0185547,0
56480,1.13721,-0.725586,0.0541992,0
56490,1.07227,-0.754395,0.105469,0
56510,0.998535,-0.783203,0.201172,0
56530,0.938965,-0.831055,0.20166,0
56550,0.927246,-0.905762,0.225098,0
56570,0.906738,-0.913086,0.314941,0
56590,0.823242,-0.873535,0.384277,0
56610,0.739746,-0.814453,0.366699,0
56640,0.658203,-0.830078,0.455078,0
56650,0.594238,-0.813477,0.443359,0
56670,0.545898,-0.788574,0.454102,0
56690,0.52002,-0.752441,0.478027,0
56710,0.516602,-0.740234,0.485352,0
56730,0.508301,-0.736816,0.48877,0
56750,0.5,-0.748047,0.495605,0
56770,0.504395,-0.724609,0.514648,0
56790,0.527832,-0.699707,0.471191,0
56810,0.569824,-0.707031,0.450684,0
56830,0.595703,-0.720703,0.452148,0
56850,0.560547,-0.735352,0.453613,0
56870,0.524902,-0.748047,0.439941,0
56890,0.515137,-0.735352,0.433105,0
56910,0.569336,-0.705078,0.428223,0
56930,0.578613,-0.710938,0.443848,0
56950,0.49707,-0.706055,0.453125,1000
56970,0.470215,-0.718262,0.486816,0
56990,0.500977,-0.761719,0.505371,0
57010,0.562988,-0.735352,0.48584,0
57030,0.602051,-0.708008,0.45166,0
57050,0.579102,-0.666992,0.45166,0
57070,0.57666,-0.632812,0.396973,0
57090,0.585449,-0.623535,0.391113,0
57110,0.621094,-0.657227,0.397461,0
57130,0.647949,-0.692871,0.399902,0
57150,0.654785,-0.703125,0.374512,0
57170,0.72998,-0.632324,0.342285,0
57180,0.67627,-0.661133,0.326172,0
57200,0.682617,-0.665527,0.337891,0
57230,0.649902,-0.654785,0.339355,0
57260,0.665039,-0.657227,0.319824,0
57280,0.707031,-0.666016,0.327637,0
57300,0.702637,-0.679688,0.333496,0
57320,0.850586,-0.633301,0.247559,0
57340,0.909668,-0.580566,0.242188,0
57360,0.899414,-0.54248,0.216797,0
57380,0.869141,-0.508789,0.221191,0
57400,0.876465,-0.509766,0.249023,0
57420,0.969727,-0.5,0.248535,0
57440,0.963379,-0.472656,0.208008,0
57460,0.922852,-0.447266,0.177246,0
57480,0.966797,-0.431152,0.166016,0
57500,1.04004,-0.395508,0.185059,0
57520,1.07666,-0.375977,0.151855,0
57540,1.06299,-0.381836,0.13623,0
57560,1.03662,-0.35791,0.19043,0
57580,1.03564,-0.326172,0.224609,0
57600,1.0415,-0.30127,0.225586,0
57620,1.04004,-0.282227,0.251953,0
57640,1.08447,-0.281738,0.275879,0
57660,1.09912,-0.305176,0.305176,0
57680,1.0376,-0.335938,0.383301,0
57700,0.970703,-0.330566,0.342773,0
57720,0.970215,-0.280273,0.353516,0
57740,0.975098,-0.254395,0.419434,0
57760,0.933594,-0.296875,0.464355,0
57780,0.89502,-0.368652,0.4375,0
57790,0.875977,-0.35498,0.474121,0
57790,0.782715,-0.36084,0.482422,0
57810,0.777344,-0.333008,0.522461,0
57820,0.70459,-0.39502,0.509766,0
57840,0.73291,-0.361328,0.538574,0
57850,0.683594,-0.396484,0.540039,0
57870,0.679688,-0.415039,0.51123,0
57890,0.76123,-0.428711,0.51709,0
57890,0.639648,-0.420898,0.528809,0
57910,0.575195,-0.44043,0.535156,0
57930,0.607422,-0.446289,0.503418,0
57950,0.669434,-0.421387,0.49707,0
57970,0.732422,-0.414551,0.512207,0
57990,0.744141,-0.430176,0.549805,0
58010,0.679199,-0.485352,0.550293,0
58030,0.622559,-0.51709,0.53125,0
58050,0.65625,-0.481934,0.515137,0
58070,0.653809,-0.472168,0.522949,0
58090,0.617676,-0.496094,0.55127,0
58110,0.629883,-0.527832,0.536621,0
58130,0.649902,-0.536621,0.520996,0
58150,0.641113,-0.55127,0.515137,0
58170,0.626953,-0.55957,0.539551,0
58190,0.641113,-0.5625,0.500977,0
58210,0.672363,-0.587402,0.501465,0
58230,0.61084,-0.596191,0.523438,0
58250,0.588379,-0.625977,0.487305,0
58270,0.624512,-0.642578,0.452148,0
58290,0.628906,-0.63623,0.467285,0
58310,0.572754,-0.650879,0.461914,0
58330,0.533203,-0.672363,0.45166,0
58350,0.522461,-0.675293,0.424316,0
58370,0.558594,-0.687012,0.397461,0
58390,0.604004,-0.70166,0.390625,0
58410,0.611816,-0.727539,0.363281,0
58430,0.59668,-0.734863,0.340332,0
58450,0.562012,-0.71875,0.347656,0
58470,0.541504,-0.704102,0.299316,0
58490,0.585449,-0.691406,0.274414,0
58510,0.630859,-0.692383,0.249023,0
58540,0.691406,-0.796387,0.230469,0
58570,0.666504,-0.736328,0.158203,0
58590,0.669922,-0.716309,0.0942383,0
58610,0.669922,-0.753418,0.0791016,0
58630,0.718262,-0.779785,0.103027,0
58650,0.693848,-0.744141,0.09375,0
58670,0.652344,-0.717773,0.0571289,0
58690,0.652344,-0.665527,0.0600586,0
58710,0.73877,-0.664551,0.0444336,0
58730,0.847656,-0.652344,-0.00439453,0
58750,0.901367,-0.608398,-0.00488281,0
58770,0.871094,-0.639648,-0.0166016,0
58790,0.853516,-0.713379,-0.0361328,0
58810,0.861816,-0.740723,-0.0776367,0
58830,0.83252,-0.653809,-0.0537109,0
58860,0.914551,-0.666016,-0.113281,0
58880,0.910645,-0.693359,-0.0893555,0
58900,0.901367,-0.660156,-0.065918,0
58920,0.925781,-0.584473,-0.0766602,0
58940,0.888672,-0.575684,-0.0620117,0
58970,0.803711,-0.548828,-0.0986328,0
58990,0.85791,-0.503906,-0.0537109,0
59010,0.958496,-0.442871,-0.0151367,0
59030,0.990234,-0.374512,-0.0361328,0
59050,1.00439,-0.336426,-0.0566406,0
59070,1.00488,-0.353027,-0.0439453,0
59090,1.01514,-0.375,-0.0351562,0
59110,1.02588,-0.352539,-0.0454102,0
59130,1.05322,-0.315918,-0.0283203,0
59150,1.06738,-0.290039,-0.0224609,0
59170,1.06543,-0.272949,-0.0239258,0
59190,1.09277,-0.279785,-0.0239258,0
59210,1.09473,-0.262695,0.0239258,0
59230,1.08936,-0.256348,0.0717773,0
59250,1.08057,-0.261719,0.0932617,0
59270,1.0874,-0.257324,0.0844727,0
59290,1.10254,-0.196777,0.144043,0
59310,1.05029,-0.184082,0.202148,0
59320,0.989746,-0.254395,0.232422,0
59340,0.962402,-0.226562,0.228027,0
59360,0.958496,-0.188477,0.235352,0
59380,0.954102,-0.210938,0.26709,0
59400,0.936035,-0.293945,0.320801,0
59410,0.96582,-0.271484,0.328125,0
59420,0.877441,-0.363281,0.371582,0
59440,0.855957,-0.348633,0.411133,0
59460,0.819824,-0.363281,0.404785,0
59480,0.825195,-0.418457,0.425781,0
59500,0.820312,-0.461426,0.388184,0
59520,0.838379,-0.40332,0.369629,0
59540,0.794434,-0.350098,0.386719,0
59560,0.706055,-0.397949,0.388672,0
59580,0.69873,-0.483398,0.382812,0
59600,0.769531,-0.504395,0.352051,0
59620,0.797363,-0.452637,0.349609,0
59640,0.755371,-0.447754,0.34375,0
59660,0.723145,-0.509277,0.330566,0
59680,0.749023,-0.554688,0.32666,0
59700,0.788574,-0.532227,0.29834,0
59720,0.731934,-0.513184,0.296875,0
59740,0.692871,-0.591309,0.270508,0
59760,0.749023,-0.634766,0.258301,0
59780,0.791992,-0.605957,0.268066,0
59800,0.759277,-0.583984,0.282227,0
59820,0.670898,-0.643555,0.242676,0
59840,0.706055,-0.698242,0.242188,0
59860,0.710938,-0.666992,0.222656,0
59880,0.66748,-0.655762,0.201172,0
59900,0.654785,-0.683594,0.203125,0
59920,0.647949,-0.712891,0.162598,0
59940,0.618164,-0.729492,0.14502,0
59950,0.594727,-0.736816,0.127441,0
59980,0.598145,-0.73584,0.0986328,0
60000,0.64209,-0.736816,0.0820312,0
60020,0.664062,-0.737793,0.0800781,0
60040,0.64502,-0.755859,0.0742188,0
60060,0.630859,-0.777832,0.0654297,0
60080,0.649902,-0.768555,0.050293,0
60100,0.695801,-0.742188,0.0498047,0
60120,0.711426,-0.74707,0.0351562,0
60140,0.696289,-0.750488,0.0380859,0
60170,0.720703,-0.725586,-0.0268555,0
60190,0.742676,-0.737305,-0.059082,0
60210,0.736816,-0.769531,-0.0786133,0
60230,0.710449,-0.765625,-0.112305,0
60250,0.671387,-0.725586,-0.136719,0
60270,0.622559,-0.675293,-0.167969,0
60290,0.62207,-0.664062,-0.161133,0
60310,0.670898,-0.665527,-0.180176,0
60330,0.726074,-0.653809,-0.181152,0
60350,0.732422,-0.620117,-0.194336,0
60370,0.774414,-0.548828,-0.208008,0
60390,0.805176,-0.535645,-0.224121,0
60410,0.838379,-0.545898,-0.247559,0
60430,0.942383,-0.555664,-0.291504,0
60450,1.01416,-0.481934,-0.293945,0
60460,0.995117,-0.441895,-0.318848,0
60500,0.98291,-0.439941,-0.30957,0
60520,0.963867,-0.38623,-0.344727,0
60530,1.04102,-0.306641,-0.373535,0
60550,1.08691,-0.244141,-0.367676,0
60570,1.07666,-0.221191,-0.332031,0
60590,1.05322,-0.243652,-0.324707,0
60610,1.0415,-0.239258,-0.34375,0
60630,1.04883,-0.196777,-0.322266,0
60650,1.02881,-0.153809,-0.270996,0
60670,0.989258,-0.122559,-0.240234,0
60690,1.00537,-0.114746,-0.260742,0
60710,1.0376,-0.11377,-0.212402,0
60730,1.05566,-0.090332,-0.188965,0
60750,1.0542,-0.0839844,-0.162109,0
60770,1.03027,-0.0668945,-0.145996,0
60790,1.03467,-0.0791016,-0.115234,0
60810,1.05664,-0.0869141,-0.0756836,0
60830,1.06885,-0.104492,-0.0644531,0
60850,1.05518,-0.0996094,-0.0439453,0
60870,1.05469,-0.0610352,-0.0126953,0
60890,1.05078,-0.0800781,0.0429688,0
60910,1.04785,-0.108887,0.0991211,0
60930,1.07617,-0.159668,0.137695,0
60950,1.09424,-0.135254,0.140137,0
60970,1.06934,-0.115234,0.140137,0
60990,1.00488,-0.157715,0.20166,0
61010,0.938477,-0.257812,0.248047,0
61030,0.971191,-0.262207,0.229004,0
61050,0.980957,-0.150879,0.25,0
61070,0.96875,-0.14502,0.28125,0
61090,0.899902,-0.236816,0.316406,0
61110,0.858887,-0.327148,0.314941,0
61130,0.873047,-0.335449,0.319824,0
61150,0.874512,-0.26709,0.335449,0
61170,0.816406,-0.245605,0.354492,0
61190,0.731934,-0.30957,0.355469,0
61210,0.711426,-0.397949,0.393555,0
61230,0.776367,-0.371582,0.394531,0
61250,0.787598,-0.320312,0.366211,0
61270,0.748047,-0.336426,0.405762,0
61290,0.735352,-0.419434,0.403809,0
61310,0.762207,-0.445801,0.371094,0
61330,0.753906,-0.453613,0.375977,0
61350,0.75293,-0.475098,0.339355,0
61370,0.789062,-0.526855,0.341309,0
61390,0.777832,-0.526367,0.308105,0
61410,0.802734,-0.552246,0.307617,0
61430,0.758301,-0.614258,0.317871,0
61450,0.75293,-0.586426,0.28418,0
61470,0.782715,-0.565918,0.269531,0
61490,0.788574,-0.589355,0.271484,0
61510,0.812012,-0.61084,0.236816,0
61530,0.79541,-0.639648,0.215332,0
61550,0.757324,-0.633301,0.201172,0
61570,0.744629,-0.624512,0.172363,0
61590,0.748535,-0.644043,0.137695,0
61610,0.776367,-0.67627,0.141113,0
61630,0.709473,-0.669434,0.0756836,0
61650,0.669922,-0.691406,0.0219727,0
61670,0.680176,-0.706055,0.0307617,0
61690,0.747559,-0.650879,-0.00292969,0
61710,0.766602,-0.620605,-0.000488281,0
61730,0.778809,-0.63916,0.0126953,0
61750,0.724609,-0.673828,-0.0219727,0
61760,0.736816,-0.602539,-0.0649414,0
61780,0.790527,-0.590332,-0.0834961,0
61800,0.802246,-0.592773,-0.120117,0
61820,0.806152,-0.664062,-0.106934,0
61840,0.80957,-0.653809,-0.131348,0
61860,0.834961,-0.628418,-0.176758,0
61880,0.862793,-0.580078,-0.207031,0
61900,0.859375,-0.583496,-0.235352,0
61920,0.857422,-0.59082,-0.283203,0
61940,0.856445,-0.573242,-0.280273,0
61960,0.87793,-0.547852,-0.29834,0
61980,0.896973,-0.529297,-0.352051,0
62000,0.894531,-0.518066,-0.363281,0
62020,0.894531,-0.489746,-0.400391,0
62040,0.920898,-0.454102,-0.412598,0
62060,0.920898,-0.425293,-0.391113,0
62080,0.932617,-0.421875,-0.415527,0
62100,0.939453,-0.42627,-0.449707,0
62120,0.927734,-0.397949,-0.427246,0
62140,0.924316,-0.376953,-0.425293,0
62160,0.884277,-0.327148,-0.429688,0
62180,0.83252,-0.321777,-0.379395,0
62200,0.809082,-0.332031,-0.386719,0
62220,0.843262,-0.307617,-0.405273,1001
62240,0.864258,-0.291504,-0.35498,0
62260,0.861328,-0.279785,-0.371582,0
62280,0.847168,-0.311523,-0.361328,0
62300,0.873535,-0.328125,-0.337891,0
62320,0.875,-0.291016,-0.336914,0
62340,0.877441,-0.273926,-0.345703,0
62360,0.898926,-0.316895,-0.334473,0
62380,0.92627,-0.348633,-0.343262,0
62400,0.922852,-0.34375,-0.342773,0
62420,0.90918,-0.345703,-0.333496,0
62440,0.875977,-0.374512,-0.308105,0
62460,0.819824,-0.390625,-0.327637,0
62480,0.824219,-0.429688,-0.295898,0
62500,0.836914,-0.363281,-0.236816,0
62520,0.772949,-0.29541,-0.259766,0
62540,0.716797,-0.27002,-0.246094,0
62560,0.671387,-0.294922,-0.224121,0
62580,0.627441,-0.290527,-0.196289,0
62600,0.610352,-0.25293,-0.209961,0
62620,0.618164,-0.24707,-0.220215,0
62640,0.608398,-0.264648,-0.216797,0
62660,0.604492,-0.255859,-0.193848,0
62680,0.604492,-0.282715,-0.183105,0
62700,0.655762,-0.324219,-0.21875,0
62720,0.74707,-0.368652,-0.244629,0
62740,0.787109,-0.370605,-0.164551,0
62760,0.77002,-0.376465,-0.0932617,0
62780,0.856445,-0.454102,-0.105957,0
62800,1.03613,-0.585938,-0.0639648,0
62820,1.104,-0.661621,0.0673828,0
62850,1.04346,-0.868164,0.230957,0
62860,0.849609,-0.980957,0.276855,0
62880,0.809082,-1.02051,0.333008,0
62900,0.791016,-0.964844,0.326172,0
62910,0.751465,-0.861328,0.341797,0
62930,0.666016,-0.811523,0.38916,0
62950,0.581543,-0.868652,0.421875,0
62980,0.515137,-0.738281,0.434082,1000
63000,0.496582,-0.791992,0.445801,0
63020,0.566895,-0.816895,0.453125,0
63040,0.638672,-0.769531,0.40918,0
63060,0.672363,-0.718262,0.379883,0
63080,0.644531,-0.72168,0.421875,0
63100,0.595215,-0.734863,0.394531,0
63120,0.616699,-0.755859,0.394531,0
63140,0.647949,-0.776855,0.391602,0
63160,0.660156,-0.789551,0.374023,0
63180,0.672852,-0.807617,0.35791,0
63200,0.563477,-0.810059,0.4375,0
63220,0.506348,-0.769531,0.40918,0
63240,0.476074,-0.737305,0.375488,0
63260,0.425781,-0.748047,0.406738,0
63280,0.405762,-0.75,0.432129,0
63300,0.472656,-0.76416,0.400879,0
63320,0.537598,-0.749512,0.383789,0
63340,0.546875,-0.725586,0.370605,0
63360,0.520508,-0.726562,0.388184,0
63380,0.512207,-0.744141,0.380371,0
63400,0.518066,-0.759277,0.361816,0
63420,0.546875,-0.769531,0.354492,0
63440,0.582031,-0.73877,0.335449,0
63460,0.617188,-0.730469,0.318359,0
63490,0.680664,-0.746582,0.152832,0
63510,0.689453,-0.741699,0.151367,0
63550,0.713867,-0.756836,0.16748,0
63610,0.742188,-0.681152,0.153809,0
63650,0.736328,-0.693848,0.141602,0
63670,0.736816,-0.711426,0.144043,0
63690,0.758301,-0.674805,0.199707,0
63720,0.855957,-0.587891,0.152344,0
63730,0.830078,-0.585938,0.154297,0
63750,0.870605,-0.609375,0.159668,0
63770,0.92334,-0.587402,0.144043,0
63780,0.914062,-0.530273,0.155273,0
63800,0.930664,-0.524902,0.164062,0
63820,0.96875,-0.50293,0.194336,0
63840,1.00977,-0.507812,0.221191,0
63860,1.01514,-0.507812,0.221191,0
63880,0.992676,-0.498047,0.245117,0
63900,0.975098,-0.45459,0.288574,0
63920,0.976074,-0.424316,0.308105,0
63940,0.972656,-0.463379,0.347656,0
63960,0.9375,-0.498535,0.387695,0
63980,0.90918,-0.460449,0.348633,0
64000,0.883789,-0.396973,0.375,0
64020,0.886719,-0.390137,0.422852,0
64020,0.867676,-0.461914,0.417969,0
64040,0.873535,-0.525391,0.424316,0
64060,0.914062,-0.464844,0.412598,0
64080,0.90625,-0.398926,0.445801,0
64100,0.82959,-0.429688,0.448242,0
64120,0.751465,-0.554199,0.496582,0
64140,0.703125,-0.582031,0.514648,0
64160,0.69873,-0.494629,0.511719,0
64180,0.69873,-0.476562,0.535156,0
64200,0.661621,-0.513672,0.52832,0
64220,0.598633,-0.571289,0.543945,0
64260,0.583984,-0.592773,0.524902,0
64280,0.59375,-0.618652,0.520508,0
64300,0.625977,-0.547363,0.492676,0
64320,0.604004,-0.523926,0.496094,0
64340,0.597656,-0.585449,0.498047,0
64360,0.574707,-0.662598,0.504395,0
64380,0.541504,-0.672852,0.486328,0
64400,0.545898,-0.605957,0.450684,0
64420,0.586426,-0.578125,0.460449,0
64440,0.560059,-0.650879,0.45166,0
64460,0.522949,-0.715332,0.435059,0
64480,0.538574,-0.695312,0.437988,0
64500,0.516602,-0.63623,0.428223,0
64520,0.505859,-0.652832,0.416016,0
64540,0.519043,-0.694824,0.416016,0
64560,0.493652,-0.717773,0.419434,0
64580,0.444824,-0.711426,0.41748,0
64600,0.433105,-0.741699,0.40625,0
64620,0.489258,-0.800781,0.35791,0
64640,0.541504,-0.837402,0.337402,0
64660,0.556641,-0.83252,0.321289,0
64680,0.56543,-0.841309,0.307129,0
64700,0.578125,-0.855469,0.304688,0
64720,0.569824,-0.874023,0.28125,0
64740,0.558105,-0.870117,0.263672,0
64760,0.53418,-0.864258,0.242188,0
64780,0.495117,-0.82666,0.193359,0
64800,0.50293,-0.831543,0.147461,0
64820,0.521484,-0.847168,0.172363,0
64840,0.538086,-0.882324,0.150391,0
64860,0.537598,-0.799805,0.121582,0
64880,0.601074,-0.79248,0.134277,0
64900,0.606934,-0.776855,0.0742188,0
64920,0.59082,-0.745605,0.0371094,0
64940,0.641602,-0.756836,0.0356445,0
64960,0.691406,-0.774414,0.0546875,0
64980,0.678711,-0.766602,0.0166016,0
65000,0.657715,-0.754395,-0.0322266,0
65020,0.688965,-0.73584,-0.0600586,0
65040,0.771973,-0.742676,-0.0610352,0
65060,0.787109,-0.740234,-0.0527344,0
65080,0.776367,-0.757324,-0.0722656,0
65110,0.756348,-0.703613,-0.137207,0
65130,0.78418,-0.686523,-0.150391,0
65150,0.79248,-0.674316,-0.138672,0
65170,0.816406,-0.66748,-0.132324,0
65190,0.80957,-0.646973,-0.137207,0
65210,0.882812,-0.600586,-0.151855,0
65230,0.925781,-0.577637,-0.154297,0
65250,0.92334,-0.541016,-0.173828,0
65270,0.91748,-0.51709,-0.165039,0
65290,0.965332,-0.487305,-0.149902,0
65310,1.01025,-0.436523,-0.135742,0
65330,1.0249,-0.374023,-0.138184,0
65350,1.04004,-0.35498,-0.137695,0
65360,1.08008,-0.34082,-0.122559,0
65380,1.07959,-0.307617,-0.0834961,0
65400,1.06348,-0.285645,-0.0644531,0
65420,1.10254,-0.28125,-0.0678711,0
65440,1.14502,-0.263184,-0.0405273,0
65460,1.1416,-0.221191,-0.0458984,0
65480,1.10352,-0.244141,0.000976562,0
65500,1.09082,-0.259766,0.0610352,0
65520,1.08105,-0.234375,0.0585938,0
65540,1.07812,-0.206055,0.0942383,0
65560,1.06299,-0.190918,0.150879,0
65580,1.03076,-0.257324,0.206543,0
65600,0.981934,-0.308594,0.242676,0
65620,0.948242,-0.257812,0.259766,0
65640,0.918457,-0.225098,0.285156,0
65660,0.82373,-0.401855,0.432617,0
65660,0.921387,-0.40918,0.421387,0
65680,0.888672,-0.37793,0.425293,0
65700,0.841309,-0.38623,0.42627,0
65720,0.842285,-0.431641,0.429688,0
65740,0.840332,-0.419922,0.430176,0
65760,0.861328,-0.418945,0.462891,0
65780,0.878418,-0.425781,0.486816,0
65790,0.736816,-0.491211,0.459961,0
65810,0.615234,-0.553711,0.40918,0
65830,0.633301,-0.536621,0.339844,0
65850,0.680176,-0.47168,0.315918,0
65870,0.65332,-0.501953,0.319336,0
65890,0.628418,-0.562012,0.318848,0
65910,0.655762,-0.585938,0.320801,0
65920,0.665527,-0.587402,0.301758,0
65940,0.660156,-0.583984,0.284668,0
65960,0.61084,-0.616211,0.302246,0
65980,0.698242,-0.637207,0.310059,0
66000,0.703125,-0.661621,0.33252,0
66020,0.558105,-0.680664,0.292969,0
66040,0.540039,-0.71875,0.279297,0
66060,0.620117,-0.746094,0.244141,0
66080,0.68457,-0.747559,0.213867,0
66100,0.686523,-0.741211,0.174805,0
66120,0.67334,-0.782227,0.170898,0
66140,0.629395,-0.81543,0.151367,0
66160,0.584473,-0.796387,0.120605,0
66180,0.543945,-0.773438,0.0488281,0
66200,0.61084,-0.782715,0.0317383,0
66220,0.660645,-0.791992,0.0268555,0
66240,0.600098,-0.788086,0.0112305,0
66260,0.550293,-0.739746,0.00830078,0
66280,0.57373,-0.718262,-0.015625,0
66300,0.571289,-0.709961,-0.0644531,0
66320,0.617188,-0.742188,-0.0795898,0
66340,0.579102,-0.749512,-0.0737305,0
66360,0.527832,-0.782715,-0.0825195,0
66380,0.603516,-0.78418,-0.0966797,0
66400,0.77002,-0.725586,-0.0874023,0
66420,0.807129,-0.712891,-0.130371,0
66440,0.726074,-0.746094,-0.212402,0
66450,0.743164,-0.77832,-0.238281,0
66470,0.803711,-0.742188,-0.271973,0
66490,0.862793,-0.686523,-0.32373,0
66510,0.870117,-0.661133,-0.363281,0
66530,0.902344,-0.641602,-0.35498,0
66560,0.876465,-0.51709,-0.319824,0
66580,0.885742,-0.503418,-0.347168,0
66600,0.901367,-0.445312,-0.354004,0
66620,0.943359,-0.381836,-0.346191,0
66640,0.980469,-0.349609,-0.339844,0
66660,0.996094,-0.350098,-0.345703,0
66680,0.999512,-0.369141,-0.306152,0
66700,1.0083,-0.352539,-0.290527,0
66720,1.01611,-0.300781,-0.257324,0
66740,1.00049,-0.257324,-0.224121,0
66760,1.01367,-0.251953,-0.193359,0
66780,1.05469,-0.238281,-0.179199,0
66800,1.08545,-0.212891,-0.171875,0
66820,1.08447,-0.225586,-0.146484,0
66840,1.07422,-0.174805,-0.0986328,0
66860,1.07227,-0.0898438,-0.0976562,0
66880,1.0332,-0.0961914,-0.0375977,0
66900,1.02246,-0.151367,-0.0483398,0
66920,1.02295,-0.208008,-0.00439453,0
66940,1.00439,-0.219238,0.0541992,0
66960,0.986328,-0.187012,0.0942383,0
66980,0.986328,-0.12793,0.113281,0
67000,1.00537,-0.0756836,0.125,0
67020,1.00439,-0.115234,0.130859,0
67040,1.00488,-0.202148,0.189941,0
67060,1.00977,-0.260254,0.280762,0
67080,1.04932,-0.23584,0.243652,0
67100,1.06934,-0.131348,0.230957,0
67120,1.01221,-0.134277,0.274414,0
67140,0.922852,-0.227051,0.265137,0
67160,0.912109,-0.292969,0.249512,0
67180,0.900391,-0.294922,0.268555,0
67200,0.814453,-0.259277,0.298828,0
67220,0.770996,-0.240723,0.260254,0
