Timestamp, Acceleration x, Acceleration y, Acceleration z, Marker
20,-0.330566,-0.73877,0.489258,0
60,-0.475098,-0.791992,0.48291,0
80,-0.434082,-0.805176,0.459473,0
100,-0.361328,-0.808594,0.433105,0
120,-0.310059,-0.747559,0.435059,0
130,-0.29834,-0.701172,0.443848,0
150,-0.299805,-0.70752,0.473633,0
170,-0.322266,-0.736328,0.523926,0
190,-0.359375,-0.770996,0.543945,0
210,-0.426758,-0.789551,0.538086,0
230,-0.475098,-0.796387,0.518555,0
250,-0.461914,-0.773926,0.479004,0
260,-0.39502,-0.760254,0.431152,0
260,-0.31543,-0.737793,0.409668,0
300,-0.289062,-0.710938,0.433105,0
310,-0.301758,-0.694824,0.458984,0
330,-0.337402,-0.702148,0.507812,0
350,-0.397461,-0.75293,0.541992,0
370,-0.450684,-0.793457,0.545898,0
390,-0.48584,-0.817383,0.522949,0
410,-0.457031,-0.818848,0.48291,0
430,-0.407227,-0.793457,0.441406,0
450,-0.358887,-0.755859,0.432617,0
470,-0.325195,-0.720215,0.445312,0
500,-0.39209,-0.688477,0.550293,0
540,-0.460449,-0.807129,0.507812,0
560,-0.472656,-0.80957,0.506836,0
570,-0.429199,-0.78418,0.475586,0
590,-0.329102,-0.772461,0.419434,0
610,-0.261719,-0.752441,0.427734,0
630,-0.250488,-0.728516,0.450684,0
650,-0.273926,-0.730957,0.474609,0
670,-0.318848,-0.745117,0.496582,0
690,-0.355957,-0.770996,0.522461,0
710,-0.430664,-0.812988,0.526367,0
730,-0.32959,-0.748047,0.426758,0
750,-0.306641,-0.70459,0.447754,0
770,-0.323242,-0.692383,0.481445,0
780,-0.369629,-0.719727,0.525391,0
810,-0.414551,-0.794434,0.541992,0
830,-0.395996,-0.8125,0.51123,0
860,-0.353516,-0.756348,0.460938,0
880,-0.355957,-0.744629,0.444824,0
900,-0.374023,-0.754883,0.461914,0
930,-0.396973,-0.778809,0.489258,0
960,-0.379395,-0.76709,0.475098,0
980,-0.369141,-0.753418,0.466797,0
1000,-0.361816,-0.762207,0.451172,0
1020,-0.349609,-0.784668,0.462891,0
1050,-0.325684,-0.824219,0.51709,0
1070,-0.312988,-0.824707,0.55957,0
1090,-0.326172,-0.791016,0.521484,0
1110,-0.346191,-0.77002,0.469238,0
1130,-0.377441,-0.746094,0.467285,0
1150,-0.422852,-0.713867,0.446777,0
1170,-0.45752,-0.729492,0.402344,0
1190,-0.464844,-0.762695,0.405762,0
1210,-0.462402,-0.747559,0.431641,0
1230,-0.457031,-0.686523,0.441895,0
1250,-0.444336,-0.688477,0.443848,0
1290,-0.38916,-0.777832,0.481934,0
1310,-0.370117,-0.782715,0.477051,0
1330,-0.353027,-0.763672,0.476562,0
1350,-0.345703,-0.764648,0.481934,0
1360,-0.350098,-0.771484,0.467285,0
1380,-0.352539,-0.793945,0.468262,0
1400,-0.34082,-0.816406,0.486816,0
1420,-0.339844,-0.830566,0.502441,0
1440,-0.351074,-0.834961,0.506348,0
1460,-0.376465,-0.84082,0.502441,0
1470,-0.368164,-0.881836,0.550781,0
1490,-0.34668,-0.916992,0.624023,0
1510,-0.393066,-0.916504,0.563965,0
1530,-0.380371,-0.885254,0.459473,0
1550,-0.42627,-0.839355,0.418457,0
1570,-0.464844,-0.802734,0.375977,0
1590,-0.479004,-0.767578,0.35791,0
1610,-0.43457,-0.733398,0.342285,0
1630,-0.403809,-0.690918,0.325684,0
1650,-0.384277,-0.65918,0.306152,0
1670,-0.364746,-0.632324,0.294434,0
1690,-0.36377,-0.625,0.288086,0
1710,-0.380371,-0.600586,0.253418,0
1730,-0.365234,-0.578125,0.234863,0
1750,-0.438477,-0.559082,0.239258,0
1770,-0.50293,-0.58252,0.297852,0
1790,-0.461914,-0.608887,0.540527,0
1810,-0.375,-0.742188,0.782227,0
1830,-0.276855,-0.990723,0.875488,0
1850,-0.294434,-1.12988,0.812012,0
1870,-0.402344,-1.14648,0.634277,0
1890,-0.418457,-1.11182,0.450195,0
1910,-0.343262,-0.959961,0.385742,0
1930,-0.314453,-0.730957,0.427246,0
1960,-0.414551,-0.734375,0.556152,0
1980,-0.45752,-0.808105,0.570801,0
2000,-0.470215,-0.821777,0.59668,0
2020,-0.466309,-0.817871,0.591797,0
2040,-0.462891,-0.807617,0.540527,0
2060,-0.478516,-0.808105,0.506836,0
2080,-0.492676,-0.827637,0.465332,0
2100,-0.496582,-0.82959,0.384277,0
2110,-0.47168,-0.814941,0.293457,0
2130,-0.409668,-0.768555,0.249023,0
2150,-0.355957,-0.730957,0.251465,0
2170,-0.31543,-0.699219,0.274902,0
2210,-0.305664,-0.787109,0.435059,0
2230,-0.323242,-0.805664,0.490234,0
2250,-0.334473,-0.798828,0.507324,0
2270,-0.354492,-0.790527,0.477539,0
2290,-0.375,-0.775391,0.426758,0
2310,-0.391113,-0.736816,0.375488,0
2330,-0.396973,-0.669922,0.295898,0
2350,-0.383789,-0.626465,0.226562,0
2370,-0.371582,-0.602051,0.286133,0
2390,-0.39502,-0.588867,0.454102,0
2410,-0.415039,-0.669922,0.623047,0
2430,-0.414062,-0.806641,0.708496,0
2450,-0.40625,-0.979004,0.723145,0
2470,-0.390137,-1.08691,0.64502,0
2490,-0.393066,-1.07568,0.530762,0
2510,-0.408691,-0.983398,0.435547,0
2530,-0.404297,-0.854492,0.38916,0
2570,-0.385742,-0.631348,0.432617,0
2580,-0.415039,-0.645508,0.51416,0
2600,-0.417969,-0.707031,0.543945,0
2620,-0.394531,-0.757812,0.568359,0
2640,-0.36084,-0.761719,0.573242,0
2660,-0.338379,-0.734863,0.555176,0
2680,-0.32666,-0.711914,0.535156,0
2700,-0.330566,-0.729492,0.508301,0
2720,-0.385742,-0.774414,0.491211,0
2740,-0.38623,-0.881836,0.500977,0
2760,-0.338867,-0.916016,0.557129,0
2780,-0.304688,-0.888672,0.504883,0
2800,-0.128418,-0.915527,0.50293,0
2820,-0.0571289,-0.918945,0.57959,0
2840,-0.00878906,-0.947266,0.584961,0
2860,-0.0561523,-0.984863,0.626465,0
2880,-0.159668,-0.987305,0.691895,0
2900,-0.129883,-1.03955,0.688477,0
2920,-0.0712891,-0.995117,0.624023,0
2950,-0.0776367,-0.941406,0.583496,0
2970,-0.0585938,-0.936523,0.541016,0
3030,0.0273438,-0.750488,0.476074,0
3050,0.019043,-0.718262,0.438477,0
3070,0.0185547,-0.746582,0.410156,0
3090,0.0253906,-0.770996,0.400879,0
3110,0.00390625,-0.760742,0.368652,0
3130,0.0141602,-0.74707,0.35498,0
3150,0.0400391,-0.77002,0.372559,0
3170,0.043457,-0.774414,0.32373,0
3190,0.0405273,-0.78125,0.306152,0
3210,0.0698242,-0.822266,0.333008,0
3230,0.0864258,-0.824219,0.347656,0
3250,0.0883789,-0.806152,0.354004,0
3270,0.131836,-0.812988,0.364746,0
3290,0.154297,-0.827637,0.358887,0
3310,0.177246,-0.847168,0.333984,0
3330,0.202637,-0.850586,0.349121,0
3350,0.210449,-0.865234,0.34668,0
3370,0.233887,-0.878418,0.345215,0
3390,0.251465,-0.880859,0.347168,0
3410,0.249512,-0.86084,0.323242,0
3430,0.254395,-0.859863,0.333984,0
3450,0.243652,-0.861816,0.347168,0
3470,0.251465,-0.848145,0.338867,0
3490,0.256836,-0.859863,0.339355,0
3510,0.227539,-0.839355,0.325684,0
3530,0.23291,-0.833008,0.317383,0
3550,0.236816,-0.843262,0.339844,0
3570,0.237793,-0.843262,0.331543,0
3590,0.250488,-0.844727,0.336426,0
3610,0.250977,-0.854004,0.335449,0
3630,0.259766,-0.845703,0.333008,0
3650,0.262207,-0.860352,0.342285,0
3670,0.267578,-0.880859,0.33252,0
3690,0.274414,-0.875488,0.338867,0
3710,0.282715,-0.864258,0.335938,0
3730,0.274414,-0.869629,0.330078,0
3750,0.28125,-0.887207,0.328125,0
3770,0.263184,-0.89502,0.325684,0
3790,0.254395,-0.878418,0.321777,0
3810,0.253906,-0.876953,0.333496,0
3820,0.260254,-0.873047,0.324219,0
3850,0.252441,-0.856445,0.330078,0
3870,0.24707,-0.866211,0.339355,2000
3890,0.251953,-0.863281,0.328125,0
3910,0.260742,-0.864746,0.322266,0
3930,0.270508,-0.856445,0.338867,0
3940,0.271484,-0.856934,0.337402,0
3960,0.272949,-0.861328,0.324707,0
3980,0.272461,-0.864746,0.319824,0
4000,0.272461,-0.86084,0.32373,0
4020,0.274414,-0.86377,0.315918,0
4040,0.27832,-0.873535,0.312988,0
4060,0.27832,-0.871582,0.342285,0
4080,0.287598,-0.867676,0.335938,0
4100,0.285156,-0.865723,0.318359,0
4120,0.277344,-0.869629,0.319824,0
4140,0.271484,-0.870605,0.315918,0
4160,0.253906,-0.864746,0.321777,0
4180,0.266602,-0.871094,0.322266,0
4200,0.265137,-0.876465,0.32666,0
4220,0.265625,-0.871094,0.333496,0
4240,0.266113,-0.873535,0.325684,0
4260,0.269531,-0.881836,0.333496,0
4280,0.269531,-0.875,0.341309,0
4300,0.274902,-0.865234,0.328613,0
4320,0.269043,-0.880859,0.322754,0
4340,0.265625,-0.880859,0.328125,0
4360,0.26709,-0.856934,0.325195,0
4380,0.249023,-0.866699,0.314453,0
4400,0.264648,-0.86377,0.313965,0
4420,0.262695,-0.856934,0.335938,0
4440,0.264648,-0.850586,0.34082,0
4460,0.257324,-0.898438,0.341797,0
4480,0.27002,-0.908691,0.303711,0
4500,0.269043,-0.86084,0.320801,0
4520,0.269043,-0.845215,0.32959,0
4540,0.263672,-0.848145,0.327148,0
4560,0.285645,-0.848633,0.301758,0
4580,0.270996,-0.862793,0.319824,0
4600,0.230957,-0.905762,0.331055,0
4620,0.228516,-0.928711,0.312012,0
4640,0.23877,-0.876953,0.323242,0
4660,0.23584,-0.830566,0.312988,0
4680,0.254395,-0.839355,0.284668,0
4700,0.228027,-0.902832,0.276855,0
4720,0.197266,-0.938965,0.289551,0
4740,0.209473,-0.904297,0.289062,0
4760,0.211426,-0.874512,0.266602,0
4780,0.218262,-0.878906,0.275879,0
4800,0.217285,-0.895996,0.280273,0
4820,0.228027,-0.911621,0.288086,0
4840,0.240723,-0.903809,0.288574,0
4860,0.264648,-0.899414,0.274414,0
4880,0.307617,-0.901367,0.259766,0
4900,0.287109,-0.884277,0.238281,0
4920,0.293457,-0.899414,0.241699,0
4940,0.320312,-0.919434,0.231445,0
4960,0.37207,-0.924805,0.201172,0
4980,0.383301,-0.911621,0.181641,0
5000,0.349121,-0.897461,0.165527,0
5020,0.370117,-0.90625,0.166016,0
5040,0.410156,-0.901855,0.15332,0
5060,0.453125,-0.903809,0.166016,0
5080,0.427734,-0.900879,0.125488,0
5100,0.411133,-0.852539,0.157715,0
5120,0.418945,-0.856445,0.132812,0
5140,0.417969,-0.884277,0.109863,0
5160,0.40625,-0.881836,0.101074,0
5180,0.375,-0.889648,0.081543,0
5200,0.381348,-0.891113,0.0712891,0
5220,0.398926,-0.849121,0.0864258,0
5240,0.44043,-0.85498,0.0908203,0
5260,0.405762,-0.842285,0.0825195,0
5280,0.372559,-0.846191,0.0722656,0
5300,0.357422,-0.811523,0.0830078,0
5320,0.397461,-0.804199,0.0644531,0
5340,0.447266,-0.853516,0.0854492,0
5360,0.45752,-0.856934,0.110352,0
5380,0.459961,-0.805664,0.111816,0
5400,0.51709,-0.817871,0.106934,0
5420,0.554199,-0.830078,0.100098,0
5440,0.591797,-0.814453,0.116211,0
5460,0.603516,-0.805176,0.122559,0
5480,0.624023,-0.785645,0.119141,0
5500,0.660156,-0.793457,0.123535,0
5520,0.681641,-0.781738,0.124023,0
5540,0.696777,-0.769043,0.126953,0
5560,0.719238,-0.748047,0.131836,0
5580,0.733398,-0.743652,0.134766,0
5600,0.734863,-0.719727,0.166504,0
5620,0.76416,-0.699219,0.172363,0
5640,0.785645,-0.70166,0.199219,0
5660,0.771484,-0.692383,0.208496,0
5680,0.750977,-0.663086,0.21875,0
5700,0.720215,-0.65332,0.223633,0
5720,0.702637,-0.658691,0.254395,0
5740,0.681152,-0.682617,0.26123,0
5760,0.672852,-0.690918,0.291016,0
5780,0.637207,-0.684082,0.296875,0
5800,0.643066,-0.68457,0.302246,0
5820,0.604492,-0.683594,0.302246,0
5840,0.569336,-0.729004,0.325195,0
5860,0.505371,-0.780273,0.337402,0
5880,0.461914,-0.807129,0.367676,0
5900,0.441895,-0.759766,0.393555,0
5920,0.432129,-0.729492,0.416504,0
5940,0.443359,-0.75,0.429688,0
5960,0.425781,-0.760254,0.44043,0
5980,0.427734,-0.746094,0.439453,0
6000,0.427734,-0.742188,0.453125,0
6020,0.391113,-0.691895,0.410645,0
6040,0.438477,-0.703613,0.416016,0
6060,0.432129,-0.734375,0.421387,0
6080,0.411133,-0.71582,0.393555,0
6100,0.385742,-0.773926,0.429688,0
6120,0.393555,-0.782715,0.435547,0
6140,0.416992,-0.733887,0.422852,0
6160,0.408691,-0.747559,0.434082,0
6180,0.388184,-0.76709,0.425293,0
6200,0.402344,-0.774902,0.412109,0
6220,0.404785,-0.794922,0.395508,0
6240,0.38916,-0.793457,0.368164,0
6260,0.362793,-0.791016,0.386719,0
6280,0.373535,-0.787109,0.388184,0
6300,0.39209,-0.782227,0.374512,0
6320,0.342773,-0.765137,0.380859,0
6340,0.316406,-0.773926,0.394531,0
6360,0.303223,-0.785156,0.398926,0
6380,0.289551,-0.806152,0.399902,0
6400,0.283691,-0.8125,0.385742,0
6420,0.271484,-0.782715,0.356445,0
6440,0.27002,-0.808105,0.340332,0
6460,0.270996,-0.814453,0.355469,0
6480,0.263184,-0.823242,0.32959,0
6500,0.271973,-0.82959,0.330078,0
6520,0.297363,-0.830566,0.315918,0
6540,0.32959,-0.859863,0.310059,0
6560,0.311523,-0.882324,0.298828,0
6580,0.292969,-0.882812,0.285645,0
6600,0.295898,-0.879395,0.273438,0
6620,0.290039,-0.879883,0.271973,0
6640,0.282715,-0.864746,0.260742,0
6660,0.298828,-0.859375,0.242676,0
6680,0.289551,-0.842285,0.259277,0
6700,0.302734,-0.830078,0.254883,0
6720,0.322754,-0.862793,0.227539,0
6740,0.341797,-0.888672,0.213379,0
6760,0.34668,-0.870605,0.212891,0
6780,0.338867,-0.865234,0.191895,0
6800,0.335938,-0.855469,0.182617,0
6820,0.330078,-0.861816,0.169434,0
6840,0.364258,-0.85498,0.187988,0
6860,0.357422,-0.850586,0.201172,0
6880,0.308594,-0.813965,0.219727,0
6900,0.325684,-0.825684,0.168457,0
6920,0.503906,-0.896484,0.0952148,0
6940,0.522461,-0.890137,0.130859,0
6960,0.445312,-0.824707,0.169434,0
6980,0.484375,-0.831543,0.149902,0
7000,0.537598,-0.854004,0.115234,0
7020,0.540527,-0.865723,0.0874023,0
7040,0.494141,-0.844727,0.101074,0
7060,0.48877,-0.812988,0.0844727,0
7080,0.544922,-0.818848,0.0678711,0
7100,0.544922,-0.788574,0.0600586,0
7120,0.508789,-0.785156,0.0620117,0
7140,0.51709,-0.79248,0.0698242,0
7160,0.588379,-0.799805,0.0668945,0
7180,0.659668,-0.791992,0.0673828,0
7200,0.609863,-0.71875,0.0981445,0
7220,0.581055,-0.646973,0.125488,0
7240,0.630859,-0.664551,0.0288086,0
7260,0.700195,-0.682129,-0.0385742,0
7280,0.715332,-0.67627,-0.00341797,0
7300,0.747559,-0.644531,0.0322266,0
7320,0.800781,-0.602539,-0.00976562,0
7340,0.853027,-0.619629,-0.0219727,0
7350,0.862793,-0.60498,-0.0395508,0
7370,0.838379,-0.560059,-0.0336914,0
7390,0.882324,-0.538086,0.0219727,0
7410,0.89209,-0.508301,0.0273438,0
7430,0.883301,-0.460938,0.0356445,0
7450,0.931152,-0.423828,0.0688477,0
7470,0.935547,-0.393066,0.102539,0
7490,0.914551,-0.382324,0.0732422,0
7510,0.929688,-0.397461,0.0522461,0
7530,0.986816,-0.40918,0.0917969,0
7550,1.01318,-0.385742,0.119141,0
7570,1.00488,-0.362793,0.142578,0
7590,1.00439,-0.317383,0.164062,0
7610,1.04932,-0.284668,0.189941,0
7630,1.03711,-0.312012,0.179199,0
7650,0.937988,-0.347168,0.234375,0
7670,0.912109,-0.340332,0.274902,0
7690,0.914062,-0.303223,0.280273,0
7710,0.919922,-0.275879,0.309082,0
7730,0.864258,-0.251953,0.347656,0
7750,0.796387,-0.314453,0.341309,0
7770,0.76416,-0.359375,0.332031,0
7790,0.766602,-0.372559,0.297852,0
7810,0.753418,-0.418457,0.354492,0
7830,0.724609,-0.467285,0.334961,0
7850,0.711426,-0.464844,0.349609,0
7870,0.73291,-0.454102,0.348145,0
7890,0.73291,-0.447754,0.330566,0
7910,0.688477,-0.506348,0.340332,0
7930,0.695312,-0.526855,0.375977,0
7950,0.714844,-0.500488,0.404297,0
7970,0.690918,-0.462891,0.394531,0
7990,0.65332,-0.522461,0.396973,0
8010,0.631348,-0.606934,0.40332,0
8030,0.587891,-0.586914,0.404785,0
8050,0.616211,-0.508301,0.410156,0
8070,0.621094,-0.51416,0.404297,0
8090,0.588379,-0.583008,0.394043,0
8110,0.58252,-0.649414,0.382812,0
8130,0.618652,-0.635254,0.400879,0
8150,0.695312,-0.5625,0.399414,0
8170,0.686523,-0.651367,0.430664,0
8190,0.584473,-0.708008,0.39502,0
8210,0.521973,-0.743164,0.408691,0
8230,0.516113,-0.688477,0.412598,0
8250,0.484863,-0.63916,0.370605,0
8270,0.488281,-0.625,0.357422,0
8290,0.509277,-0.681152,0.359375,0
8310,0.497559,-0.732422,0.350586,0
8330,0.487305,-0.73877,0.340332,0
8350,0.500488,-0.700684,0.328125,0
8370,0.472168,-0.691895,0.304199,0
8390,0.473145,-0.729004,0.282227,0
8410,0.470703,-0.758301,0.277344,0
8430,0.477539,-0.737793,0.263672,0
8450,0.475098,-0.725098,0.262207,0
8470,0.468262,-0.695801,0.241211,0
8490,0.460449,-0.696289,0.219238,0
8510,0.4375,-0.689941,0.208008,0
8530,0.506836,-0.761719,0.146484,0
8550,0.57959,-0.818848,0.134766,0
8570,0.581055,-0.812012,0.143555,0
8590,0.589355,-0.791016,0.125977,0
8610,0.598145,-0.786621,0.0986328,0
8630,0.601562,-0.789062,0.0952148,0
8650,0.611328,-0.776367,0.0878906,0
8670,0.616211,-0.760742,0.065918,0
8690,0.621094,-0.771484,0.0488281,0
8710,0.638184,-0.777832,0.0454102,0
8730,0.641113,-0.763184,0.0317383,0
8750,0.672363,-0.747559,0.00537109,0
8770,0.678223,-0.746094,-0.00976562,0
8790,0.632812,-0.73584,-0.00683594,0
8810,0.580566,-0.717285,-0.0332031,0
8830,0.601562,-0.743652,-0.0332031,0
8850,0.641602,-0.75293,-0.0253906,0
8870,0.624023,-0.719238,-0.0507812,0
8890,0.631836,-0.726562,-0.0708008,0
8910,0.663086,-0.708984,-0.0786133,0
8930,0.696289,-0.691895,-0.0664062,0
8950,0.755859,-0.692871,-0.0727539,0
8970,0.758301,-0.691406,-0.106445,0
8990,0.755371,-0.65625,-0.116699,0
9010,0.758301,-0.641113,-0.128418,0
9030,0.808594,-0.632324,-0.178223,0
9050,0.83252,-0.601074,-0.179199,0
9070,0.853027,-0.563965,-0.197266,0
9090,0.859375,-0.550293,-0.188477,0
9110,0.835449,-0.530273,-0.178711,0
9130,0.791504,-0.513184,-0.19043,0
9150,0.773438,-0.504395,-0.237305,0
9170,0.782715,-0.454102,-0.220215,0
9190,0.80127,-0.399414,-0.203613,0
9210,0.833984,-0.381836,-0.206055,0
9230,0.867676,-0.35498,-0.206543,0
9250,0.879883,-0.330566,-0.205078,0
9270,0.886719,-0.310059,-0.233398,0
9290,0.901855,-0.34375,-0.295898,0
9310,0.908691,-0.304199,-0.249023,0
9320,0.950684,-0.285645,-0.228027,0
9350,0.986816,-0.28418,-0.196289,0
9360,0.999023,-0.252441,-0.187012,0
9380,1.00977,-0.229004,-0.200195,0
9400,1.00781,-0.202637,-0.192871,0
9420,0.998535,-0.194824,-0.159668,0
9440,1.00781,-0.195312,-0.121582,0
9460,1.01221,-0.19043,-0.116699,0
9480,1.00781,-0.20459,-0.113281,0
9500,1.01367,-0.213867,-0.0981445,0
9520,1.01562,-0.228516,-0.0834961,0
9540,1.04346,-0.256348,-0.0683594,0
9560,1.03223,-0.310547,-0.0766602,0
9580,1.04346,-0.299316,-0.0205078,0
9600,0.956055,-0.27832,0.0126953,0
9620,0.899414,-0.236328,0.0273438,0
9640,0.883789,-0.282715,0.0722656,0
9660,0.857422,-0.324707,0.125488,0
9680,0.881348,-0.300781,0.130859,0
9700,0.930664,-0.319824,0.178711,0
9720,0.931152,-0.332031,0.220703,0
9740,0.887695,-0.329102,0.240234,0
9760,0.902832,-0.362793,0.26416,0
9780,0.873535,-0.385742,0.26416,0
9800,0.849121,-0.416016,0.269043,0
9820,0.837891,-0.45459,0.28418,0
9840,0.808594,-0.462891,0.275879,0
9860,0.769043,-0.455566,0.324219,0
9880,0.731934,-0.464844,0.310059,0
9900,0.727539,-0.55957,0.291992,0
9920,0.680664,-0.588379,0.300293,0
9940,0.675781,-0.498047,0.316895,0
9960,0.721191,-0.49707,0.339844,0
9980,0.65918,-0.572754,0.360352,0
10000,0.681641,-0.67334,0.347656,0
10020,0.692383,-0.679199,0.365234,0
10040,0.685059,-0.566895,0.368652,0
10060,0.651855,-0.546387,0.356934,0
10080,0.632812,-0.627441,0.336426,0
10100,0.617676,-0.655762,0.314453,0
10120,0.619629,-0.635254,0.324707,0
10140,0.564941,-0.602539,0.322754,0
10160,0.574707,-0.572266,0.322754,0
10180,0.586914,-0.608398,0.32959,0
10200,0.554688,-0.621094,0.325195,0
10220,0.530762,-0.631348,0.317871,0
10240,0.555664,-0.641602,0.308594,0
10260,0.552734,-0.624023,0.28418,0
10280,0.528809,-0.621582,0.297852,0
10300,0.543945,-0.648438,0.273926,0
10320,0.552734,-0.682617,0.274414,0
10340,0.538086,-0.677734,0.273438,0
10360,0.54541,-0.666016,0.26416,0
10380,0.555176,-0.677734,0.266602,0
10400,0.553223,-0.719238,0.266113,0
10420,0.537598,-0.751465,0.257324,0
10440,0.549805,-0.719727,0.252441,0
10460,0.544434,-0.730469,0.242676,0
10480,0.534668,-0.733887,0.24707,0
10500,0.537109,-0.753418,0.212402,0
10520,0.525879,-0.749023,0.188477,0
10540,0.477539,-0.719727,0.184082,0
10560,0.504883,-0.753418,0.155273,0
10580,0.585449,-0.76709,0.144043,0
10600,0.588379,-0.805664,0.133301,0
10620,0.580078,-0.810059,0.145508,0
10640,0.57959,-0.798828,0.113281,0
10660,0.623535,-0.816895,0.115234,0
10680,0.632812,-0.820312,0.108398,0
10700,0.643066,-0.820312,0.0942383,0
10720,0.65332,-0.808105,0.0703125,0
10740,0.64209,-0.802734,0.0644531,0
10760,0.64209,-0.794434,0.0449219,0
10780,0.631348,-0.795898,0.0239258,0
10800,0.646973,-0.782227,0.0268555,0
10820,0.668945,-0.756836,0.0112305,0
10840,0.668457,-0.743652,0.00146484,0
10860,0.648926,-0.726074,-0.0170898,0
10880,0.662598,-0.731445,-0.0180664,0
10900,0.663574,-0.733398,-0.0229492,0
10920,0.678223,-0.694336,-0.0395508,0
10940,0.71582,-0.680176,-0.0742188,0
10960,0.71582,-0.675781,-0.0776367,0
10980,0.693848,-0.683105,-0.0727539,0
11000,0.684082,-0.666016,-0.0932617,0
11020,0.700195,-0.610352,-0.108887,0
11040,0.743652,-0.560059,-0.124512,0
11060,0.771973,-0.561035,-0.134766,0
11080,0.757324,-0.573242,-0.14209,0
11100,0.753906,-0.567871,-0.179688,0
11120,0.785645,-0.581055,-0.189453,0
11140,0.809082,-0.550293,-0.20166,0
11160,0.794922,-0.515625,-0.213867,0
11180,0.787598,-0.503906,-0.240723,0
11200,0.799805,-0.484375,-0.234375,0
11220,0.79834,-0.476562,-0.236328,0
11240,0.798828,-0.451172,-0.228027,0
11260,0.816406,-0.423828,-0.255371,0
11280,0.866211,-0.408691,-0.270996,0
11300,0.880371,-0.407227,-0.270508,0
11320,0.890137,-0.424805,-0.271484,0
11340,0.875977,-0.42041,-0.262695,0
11360,0.894043,-0.367676,-0.272461,0
11380,0.919434,-0.332031,-0.280762,0
11400,0.910156,-0.352051,-0.282715,0
11420,0.878418,-0.402344,-0.274902,0
11440,0.897461,-0.436523,-0.284668,0
11460,0.884277,-0.379395,-0.264648,0
11480,0.909668,-0.30957,-0.276855,0
11500,0.892578,-0.356934,-0.26416,0
11520,0.881836,-0.413086,-0.272461,0
11540,0.845215,-0.427734,-0.260742,0
11560,0.82666,-0.405762,-0.246094,0
11580,0.84375,-0.37207,-0.234863,0
11600,0.847168,-0.384277,-0.255859,0
11620,0.852051,-0.397949,-0.23877,0
11640,0.880371,-0.416992,-0.230957,0
11660,0.910645,-0.452637,-0.236328,0
11680,0.938477,-0.480957,-0.259277,0
11700,0.942871,-0.493164,-0.263672,0
11720,0.946289,-0.505371,-0.23877,2001
11740,0.918457,-0.516113,-0.242676,0
11760,0.893066,-0.517578,-0.22998,0
11780,0.875,-0.521484,-0.219238,0
11800,0.85498,-0.499023,-0.212402,0
11820,0.836914,-0.495117,-0.210449,0
11840,0.834961,-0.500488,-0.202637,0
11860,0.82373,-0.494629,-0.195312,0
11880,0.815918,-0.478516,-0.205566,0
11900,0.806641,-0.477051,-0.210449,0
11920,0.784668,-0.480469,-0.199219,0
11940,0.767578,-0.479492,-0.17627,0
11960,0.781738,-0.478027,-0.198242,0
11980,0.79834,-0.480469,-0.203613,0
12000,0.784668,-0.47998,-0.197754,0
12020,0.768555,-0.477539,-0.189941,0
12040,0.764648,-0.467773,-0.193848,0
12060,0.760742,-0.462891,-0.195312,0
12080,0.77002,-0.454102,-0.19873,0
12100,0.749512,-0.450195,-0.208984,0
12120,0.730957,-0.45166,-0.213867,0
12140,0.730957,-0.463379,-0.210449,0
12160,0.731934,-0.460449,-0.187012,0
12180,0.694824,-0.445312,-0.184082,0
12200,0.719727,-0.432129,-0.248047,0
12220,0.775391,-0.458496,-0.218262,0
12240,0.751465,-0.461426,-0.190918,0
12260,0.696289,-0.459961,-0.161621,0
12280,0.656738,-0.460449,-0.175781,0
12300,0.700684,-0.509277,-0.235352,0
12320,0.742188,-0.577148,-0.182617,0
12340,0.704102,-0.573242,-0.125,0
12360,0.620117,-0.615723,-0.117188,0
12380,0.609375,-0.666992,-0.159668,0
12400,0.659668,-0.719727,-0.201172,0
12420,0.678223,-0.737793,-0.157715,0
12440,0.599121,-0.775391,-0.145508,0
12460,0.57373,-0.844238,-0.196289,0
12480,0.637695,-0.92041,-0.196777,0
12500,0.588867,-0.923828,-0.126465,0
12520,0.506348,-0.92334,-0.122559,0
12540,0.469238,-1.00195,-0.165039,0
12560,0.500977,-1.04102,-0.100098,0
12580,0.504395,-1.0459,-0.00439453,0
12600,0.481445,-1.02441,-0.00439453,0
12620,0.466309,-1.02539,-0.0078125,0
12640,0.432129,-1.02783,0.0654297,0
12660,0.384766,-1.02637,0.0805664,0
12680,0.361816,-1.04346,0.0883789,0
12700,0.351562,-1.04248,0.138184,0
12720,0.318359,-1.02881,0.152832,0
12740,0.296875,-1.00391,0.135742,0
12760,0.288086,-1.01123,0.125977,0
12770,0.268555,-0.993164,0.135742,0
12790,0.268555,-0.941895,0.134277,0
12810,0.255371,-0.937012,0.128906,2000
12830,0.259766,-0.959961,0.148926,0
12850,0.221191,-0.958984,0.169434,0
12870,0.249512,-0.921387,0.103027,0
12890,0.266602,-0.91748,0.131836,0
12910,0.274414,-0.932617,0.133789,0
12930,0.283691,-0.939453,0.120117,0
12950,0.23584,-0.951172,0.131348,0
12970,0.259766,-0.946777,0.117188,0
12990,0.280273,-0.96875,0.13623,0
13010,0.250488,-0.95166,0.125977,0
13030,0.236816,-0.941406,0.109375,0
13050,0.224609,-0.950195,0.0991211,0
13070,0.248047,-0.952637,0.11084,0
13090,0.224121,-0.944336,0.125977,0
13110,0.218262,-0.969727,0.0996094,0
13130,0.202637,-0.973145,0.101074,0
13150,0.209473,-0.985352,0.11084,0
13170,0.220703,-0.996582,0.102051,0
13190,0.217773,-0.952637,0.117676,0
13210,0.231934,-0.944336,0.0898438,0
13230,0.243164,-0.974121,0.0917969,0
13250,0.246094,-0.973145,0.0888672,0
13270,0.242188,-0.978027,0.0844727,0
13290,0.245605,-0.962402,0.059082,0
13310,0.252441,-0.956543,0.065918,0
13330,0.26416,-0.942871,0.0751953,0
13350,0.265137,-0.922852,0.0625,0
13370,0.231445,-0.901855,0.0751953,0
13390,0.191895,-0.852539,0.0727539,0
13410,0.250977,-0.886719,0.043457,0
13430,0.381836,-0.96582,0.0219727,0
13450,0.428223,-0.956543,0.046875,0
13470,0.397949,-0.898926,0.0454102,0
13490,0.382324,-0.894043,0.0263672,0
13510,0.397949,-0.939941,0.0268555,0
13530,0.391602,-0.899902,0.0458984,0
13550,0.388184,-0.914551,0.0258789,0
13570,0.358398,-0.883301,0.015625,0
13590,0.388672,-0.888184,-0.0234375,0
13610,0.445312,-0.890137,-0.0136719,0
13630,0.491211,-0.881836,0.0439453,0
13650,0.463867,-0.849609,-0.012207,0
13670,0.464844,-0.950684,-0.105469,0
13690,0.484375,-0.957031,-0.0263672,0
13710,0.494629,-0.871094,0.0209961,0
13730,0.509277,-0.84668,0.0126953,0
13750,0.487305,-0.844238,0.00195312,0
13770,0.449219,-0.856445,-0.0249023,0
13790,0.446777,-0.859375,-0.0395508,0
13810,0.48877,-0.868164,-0.043457,0
13830,0.539551,-0.836914,-0.0644531,0
13850,0.569824,-0.850586,-0.0898438,0
13870,0.543945,-0.824219,-0.0703125,0
13890,0.544434,-0.84375,-0.0830078,0
13910,0.562988,-0.864258,-0.122559,0
13930,0.58252,-0.860352,-0.104004,0
13950,0.620117,-0.835938,-0.09375,0
13970,0.614258,-0.84082,-0.0581055,0
13990,0.609863,-0.800293,-0.03125,0
14010,0.60791,-0.788574,-0.0224609,0
14030,0.604492,-0.780762,-0.0258789,0
14050,0.608887,-0.74707,-0.00244141,0
14070,0.637207,-0.738281,-0.0141602,0
14090,0.666992,-0.730957,-0.000976562,0
14110,0.662109,-0.740723,-0.00634766,0
14130,0.651367,-0.743652,-0.0146484,0
14150,0.641113,-0.73877,-0.00634766,0
14170,0.638672,-0.737793,0.0102539,0
14190,0.638184,-0.737305,0.00488281,0
14210,0.634277,-0.717285,0.00878906,0
14230,0.664551,-0.706543,0.0175781,0
14250,0.751465,-0.729492,0.0405273,0
14270,0.71582,-0.763184,0.0566406,0
14290,0.668945,-0.712402,0.074707,0
14310,0.69043,-0.716309,0.0639648,0
14330,0.733398,-0.713867,0.0541992,0
14350,0.744629,-0.722168,0.0737305,0
14370,0.65332,-0.743164,0.101074,0
14390,0.633789,-0.746582,0.124512,0
14410,0.664062,-0.747559,0.129883,0
14430,0.678711,-0.71582,0.103027,0
14450,0.677734,-0.736816,0.114258,0
14470,0.63916,-0.769531,0.17041,0
14490,0.628906,-0.769531,0.190918,0
14510,0.668945,-0.748535,0.180176,0
14530,0.713379,-0.717773,0.219727,0
14550,0.719238,-0.722168,0.23877,0
14570,0.666016,-0.752441,0.223633,0
14590,0.646484,-0.772461,0.196289,0
14610,0.612793,-0.75293,0.206543,0
14630,0.553223,-0.726562,0.245117,0
14650,0.524902,-0.744141,0.262207,0
14670,0.581543,-0.743164,0.262695,0
14690,0.592773,-0.736328,0.240723,0
14710,0.543945,-0.784668,0.233887,0
14720,0.493652,-0.859863,0.275879,0
14740,0.49707,-0.848145,0.300293,0
14760,0.49707,-0.756836,0.299316,0
14780,0.460938,-0.742676,0.297363,0
14800,0.464844,-0.79248,0.308594,0
14820,0.421875,-0.830078,0.283203,0
14840,0.416016,-0.820312,0.272461,0
14860,0.42627,-0.777832,0.283691,0
14880,0.424316,-0.748047,0.276367,0
14900,0.422363,-0.761719,0.279297,0
14920,0.428223,-0.81543,0.275879,0
14940,0.417969,-0.805664,0.271484,0
14960,0.422363,-0.768066,0.283691,0
14980,0.413086,-0.758301,0.291016,0
15000,0.382812,-0.775391,0.291016,0
15020,0.336426,-0.812988,0.250977,0
15040,0.356445,-0.883301,0.216309,0
15060,0.384766,-0.866699,0.265137,0
15080,0.363281,-0.812988,0.26416,0
15100,0.385254,-0.78418,0.256836,0
15120,0.382812,-0.829102,0.24707,0
15140,0.402344,-0.877441,0.253906,0
15160,0.41748,-0.875977,0.280273,0
15180,0.425293,-0.820312,0.268066,0
15200,0.428711,-0.811523,0.245605,0
15220,0.412598,-0.838379,0.245117,0
15240,0.38916,-0.87793,0.226562,0
15260,0.392578,-0.844727,0.23584,0
15280,0.38916,-0.812988,0.223145,0
15300,0.392578,-0.842285,0.229004,0
15320,0.361816,-0.871094,0.234375,0
15340,0.354492,-0.888672,0.243652,0
15360,0.375977,-0.864746,0.236816,0
15380,0.340332,-0.859863,0.249023,0
15400,0.310059,-0.895996,0.206055,0
15420,0.300293,-0.903809,0.184082,0
15440,0.301758,-0.880371,0.183594,0
15460,0.30127,-0.882812,0.189453,0
15480,0.311035,-0.904297,0.154785,0
15500,0.347168,-0.891602,0.146973,0
15520,0.34668,-0.89209,0.160645,0
15540,0.337402,-0.880371,0.140625,0
15560,0.367676,-0.877441,0.133301,0
15580,0.358887,-0.881348,0.115723,0
15600,0.379883,-0.876953,0.116699,0
15620,0.394043,-0.883301,0.110352,0
15640,0.387695,-0.868652,0.0981445,0
15660,0.397461,-0.891602,0.0683594,0
15680,0.412598,-0.875977,0.0571289,0
15700,0.404785,-0.857422,0.0742188,0
15720,0.395996,-0.848145,0.108398,0
15740,0.379883,-0.854492,0.0737305,0
15760,0.432617,-0.932129,0.0141602,0
15780,0.466309,-0.920898,0.0566406,0
15800,0.442383,-0.871582,0.0654297,0
15820,0.442383,-0.849121,0.0209961,0
15840,0.478027,-0.868652,0.00341797,0
15860,0.469727,-0.882812,0.0268555,0
15880,0.433594,-0.894043,0.0258789,0
15900,0.448242,-0.92627,-0.0126953,0
15920,0.521484,-0.910156,-0.0449219,0
15940,0.523926,-0.910645,-0.0493164,0
15960,0.474121,-0.880859,-0.0180664,0
15980,0.454102,-0.874512,-0.0356445,0
16000,0.48584,-0.890625,-0.0688477,0
16020,0.520996,-0.875,-0.0761719,0
16040,0.501953,-0.825684,-0.0585938,0
16060,0.478516,-0.812012,-0.0708008,0
16080,0.481445,-0.820312,-0.0996094,0
16100,0.500488,-0.810059,-0.140137,0
16120,0.517578,-0.797363,-0.102539,0
16140,0.514648,-0.78418,-0.0834961,0
16160,0.564941,-0.816895,-0.120605,0
16180,0.61084,-0.86377,-0.133789,0
16200,0.584473,-0.862793,-0.113281,0
16220,0.541992,-0.817871,-0.131836,0
16240,0.556152,-0.828613,-0.159668,0
16260,0.586426,-0.817383,-0.15332,0
16280,0.584473,-0.806152,-0.152832,0
16300,0.550781,-0.801758,-0.161133,0
16320,0.541016,-0.792969,-0.183594,0
16340,0.567871,-0.814941,-0.174316,0
16360,0.583984,-0.802246,-0.160645,0
16380,0.582031,-0.789551,-0.15918,0
16400,0.595215,-0.777344,-0.157715,0
16420,0.601074,-0.776367,-0.143066,0
16440,0.594238,-0.774414,-0.17041,0
16460,0.59375,-0.770996,-0.150391,0
16480,0.578613,-0.761719,-0.111328,0
16500,0.632324,-0.763184,-0.11084,0
16520,0.679199,-0.788574,-0.15332,0
16540,0.662598,-0.748047,-0.159668,0
16560,0.640137,-0.741211,-0.129883,0
16580,0.680176,-0.75293,-0.090332,0
16600,0.737305,-0.760254,-0.117188,0
16620,0.726562,-0.712402,-0.133789,0
16640,0.694824,-0.67334,-0.158691,0
16660,0.678711,-0.653809,-0.135254,0
16680,0.671875,-0.645996,-0.130859,0
16700,0.68457,-0.668457,-0.171387,0
16720,0.702148,-0.680176,-0.200195,0
16740,0.760742,-0.685547,-0.134766,0
16760,0.789551,-0.651367,-0.0664062,0
16780,0.796875,-0.618652,-0.120117,0
16800,0.784668,-0.624023,-0.169434,0
16820,0.765625,-0.595703,-0.144043,0
16840,0.771484,-0.609863,-0.0957031,0
16860,0.793457,-0.62793,-0.081543,0
16880,0.784668,-0.616699,-0.125,0
16900,0.786621,-0.575195,-0.122559,0
16920,0.82666,-0.572266,-0.0654297,0
16940,0.871094,-0.577148,-0.000976562,0
16960,0.888672,-0.568359,-0.0410156,0
16980,0.875,-0.571289,-0.0678711,0
17000,0.851074,-0.562988,-0.0395508,0
17020,0.842773,-0.55957,-0.0078125,0
17040,0.835449,-0.560059,0,0
17060,0.83252,-0.530762,0.00488281,0
17080,0.834961,-0.533203,-0.00292969,0
17100,0.82373,-0.535645,0.0297852,0
17120,0.814941,-0.56543,0.0556641,0
17140,0.835449,-0.583984,0.012207,0
17160,0.836914,-0.57373,0.000976562,0
17180,0.833984,-0.533691,0.0332031,0
17200,0.802246,-0.528809,0.0615234,0
17220,0.796387,-0.599609,0.0532227,0
17240,0.784668,-0.662598,0.0878906,0
17260,0.764648,-0.665527,0.110352,0
17280,0.763672,-0.630859,0.120117,0
17300,0.754883,-0.576172,0.119141,0
17320,0.717773,-0.582031,0.144043,0
17340,0.684082,-0.626465,0.167969,0
17360,0.67041,-0.654297,0.179199,0
17380,0.680176,-0.641113,0.1875,0
17400,0.682617,-0.644531,0.175293,0
17420,0.666016,-0.645996,0.206543,0
17440,0.658203,-0.629395,0.233887,0
17460,0.656738,-0.651855,0.219238,0
17480,0.663574,-0.658691,0.229004,0
17500,0.663086,-0.639648,0.231934,0
17520,0.664062,-0.64209,0.243164,0
17540,0.617676,-0.679688,0.248047,0
17560,0.577637,-0.697266,0.236816,0
17580,0.617188,-0.714355,0.226562,0
17600,0.615234,-0.709961,0.231934,0
17620,0.566895,-0.696289,0.222656,0
17640,0.548828,-0.71582,0.225586,0
17660,0.56543,-0.755371,0.21875,0
17680,0.556152,-0.733398,0.203613,0
17700,0.542969,-0.743164,0.227051,0
17720,0.530762,-0.772949,0.20752,0
17740,0.532227,-0.788086,0.206543,0
17760,0.503906,-0.777344,0.208496,0
17780,0.510742,-0.76709,0.197754,0
17800,0.500977,-0.786133,0.224609,0
17820,0.487305,-0.793457,0.245117,0
17840,0.502441,-0.787109,0.237305,0
17860,0.490234,-0.81543,0.204102,0
17880,0.499023,-0.790039,0.196777,0
17900,0.416504,-0.79834,0.22998,0
17920,0.429199,-0.845703,0.197266,0
17940,0.466797,-0.869629,0.209473,0
17960,0.462402,-0.837402,0.205566,0
17980,0.476562,-0.84375,0.170898,0
18000,0.497559,-0.842285,0.177734,0
18020,0.483398,-0.849121,0.174805,0
18040,0.478027,-0.866211,0.157227,0
18060,0.456055,-0.874023,0.135254,0
18080,0.39502,-0.833984,0.139648,0
18100,0.38916,-0.838379,0.112793,0
18120,0.419922,-0.892578,0.103027,0
18140,0.418945,-0.882812,0.100098,0
18150,0.437012,-0.839355,0.09375,0
18170,0.444824,-0.839355,0.0649414,0
18190,0.441406,-0.867188,0.0639648,0
18210,0.439453,-0.864258,0.0322266,0
18230,0.464355,-0.867676,-0.00537109,0
18250,0.48877,-0.842285,-0.00732422,0
18270,0.529785,-0.839355,-0.034668,0
18290,0.529297,-0.851074,-0.050293,0
18310,0.522461,-0.86377,-0.0541992,0
18330,0.508301,-0.864746,-0.081543,0
18350,0.481445,-0.851562,-0.0961914,0
18370,0.503418,-0.82373,-0.115234,0
18390,0.519531,-0.819824,-0.132812,0
18410,0.51416,-0.828125,-0.131836,0
18430,0.495117,-0.827637,-0.14209,0
18450,0.494629,-0.819824,-0.157715,0
18470,0.519043,-0.800781,-0.160156,0
18490,0.545898,-0.794434,-0.159668,0
18510,0.563477,-0.806152,-0.172363,0
18530,0.610352,-0.79248,-0.199219,0
18550,0.608398,-0.77002,-0.190918,0
18570,0.567871,-0.755859,-0.185547,0
18590,0.55957,-0.746094,-0.22168,0
18610,0.602539,-0.748047,-0.226562,0
18630,0.643066,-0.728027,-0.223145,0
18650,0.657227,-0.727539,-0.234375,0
18670,0.675781,-0.735352,-0.253418,0
18690,0.652344,-0.727051,-0.249023,0
18710,0.669922,-0.719727,-0.248047,0
18730,0.679199,-0.733887,-0.258789,0
18750,0.675781,-0.731445,-0.255371,0
18770,0.657227,-0.695312,-0.246582,0
18790,0.687012,-0.67334,-0.254883,0
18810,0.695801,-0.689453,-0.243164,0
18830,0.693848,-0.688477,-0.239746,0
18850,0.731445,-0.652344,-0.289062,0
18870,0.796387,-0.638184,-0.318359,0
18890,0.794434,-0.62207,-0.279785,0
18910,0.758789,-0.600586,-0.265625,0
18930,0.730469,-0.575684,-0.287109,0
18950,0.777344,-0.569824,-0.298828,0
18970,0.807129,-0.54834,-0.26416,0
18990,0.804199,-0.524902,-0.252441,0
19010,0.795898,-0.517578,-0.26416,0
19030,0.825195,-0.500488,-0.249512,0
19050,0.845703,-0.455566,-0.233887,0
19070,0.865234,-0.433105,-0.245117,0
19090,0.862793,-0.43457,-0.238281,0
19110,0.861816,-0.445801,-0.229004,0
19130,0.866699,-0.44873,-0.210449,0
19150,0.87207,-0.408691,-0.227051,0
19170,0.884277,-0.379395,-0.233887,0
19190,0.90332,-0.379883,-0.226562,0
19210,0.911133,-0.396973,-0.205078,0
19230,0.919434,-0.419922,-0.198242,0
19250,0.898926,-0.42334,-0.189453,0
19270,0.891113,-0.396484,-0.163574,0
19290,0.885742,-0.374023,-0.107422,0
19310,0.919922,-0.373047,-0.0952148,0
19330,0.936035,-0.394531,-0.0791016,0
19350,0.935547,-0.407227,-0.0766602,0
19370,0.942871,-0.42334,-0.0683594,0
19390,0.923828,-0.40918,-0.0444336,0
19410,0.924805,-0.402832,-0.0405273,0
19430,0.92627,-0.434082,-0.00976562,0
19450,0.933105,-0.459961,0.0141602,0
19470,0.930176,-0.450195,0.0302734,0
19490,0.932617,-0.437988,0.0117188,0
19510,0.903809,-0.466797,0.0268555,0
19530,0.850586,-0.491699,0.0805664,0
19550,0.849121,-0.481934,0.121582,0
19570,0.876953,-0.436523,0.101562,0
19590,0.851562,-0.422363,0.116211,0
19610,0.836914,-0.469238,0.0981445,0
19640,0.76416,-0.558105,0.124512,0
19660,0.756836,-0.562988,0.147949,0
19680,0.807617,-0.538574,0.11377,0
19700,0.836426,-0.46875,0.117188,0
19720,0.791016,-0.534668,0.116211,0
19740,0.710449,-0.615234,0.146484,0
19760,0.691406,-0.662109,0.192871,0
19780,0.741699,-0.605957,0.197754,0
19800,0.761719,-0.523926,0.18457,0
19820,0.726562,-0.565918,0.169434,0
19840,0.682617,-0.659668,0.174316,0
19860,0.677734,-0.691895,0.177734,0
19880,0.697266,-0.660645,0.187988,0
19900,0.691406,-0.623047,0.166992,0
19930,0.635254,-0.702148,0.140625,0
19960,0.616699,-0.691406,0.143555,0
19980,0.669434,-0.633301,0.151367,0
19980,0.643555,-0.650391,0.161133,0
20000,0.606445,-0.730469,0.155762,0
20020,0.628418,-0.745117,0.159668,0
20040,0.64209,-0.682129,0.16748,0
20060,0.634277,-0.672852,0.174805,0
20070,0.641602,-0.70752,0.164062,0
20090,0.630859,-0.755859,0.150879,0
20110,0.600586,-0.744629,0.158203,0
20130,0.594238,-0.705566,0.154297,0
20150,0.611816,-0.694824,0.14502,0
20170,0.622559,-0.719727,0.14502,0
20190,0.611816,-0.761719,0.138672,0
20210,0.624512,-0.762207,0.143555,0
20230,0.62793,-0.741211,0.134766,0
20250,0.599121,-0.743652,0.129883,0
20270,0.585938,-0.742188,0.124512,0
20290,0.589355,-0.76123,0.110352,0
20310,0.568848,-0.763672,0.0986328,0
20330,0.564453,-0.76416,0.0722656,0
20350,0.555664,-0.771484,0.0585938,0
20370,0.549316,-0.762207,0.0551758,0
20390,0.591309,-0.774902,0.0493164,0
20410,0.623535,-0.782227,0.0390625,0
20430,0.610352,-0.785645,0.0283203,0
20450,0.600098,-0.779297,0.0170898,0
20470,0.579102,-0.770996,0.00488281,0
20490,0.585938,-0.760254,0.0126953,0
20510,0.637207,-0.760254,0.00732422,0
20530,0.637695,-0.772461,-0.0078125,0
20550,0.63623,-0.772949,-0.0405273,0
20570,0.641113,-0.749023,-0.0473633,0
20590,0.656738,-0.742188,-0.0527344,0
20610,0.669922,-0.758301,-0.0800781,0
20630,0.671875,-0.761719,-0.0786133,0
20650,0.656738,-0.745117,-0.0805664,0
20670,0.674805,-0.745117,-0.0732422,0
20690,0.688477,-0.732422,-0.0834961,0
20710,0.66748,-0.722168,-0.0996094,0
20730,0.648926,-0.711914,-0.114746,0
20750,0.630371,-0.687012,-0.124512,0
20770,0.635254,-0.66748,-0.148926,0
20790,0.673828,-0.688477,-0.180176,0
20810,0.702637,-0.713379,-0.206543,0
20830,0.6875,-0.716797,-0.224121,0
20850,0.686523,-0.680664,-0.216797,0
20870,0.708008,-0.67627,-0.239746,0
20890,0.724121,-0.651367,-0.280273,0
20910,0.726562,-0.651367,-0.260254,0
20920,0.706055,-0.624512,-0.261719,0
20940,0.727051,-0.609375,-0.272949,0
20960,0.760254,-0.612305,-0.306641,0
20980,0.762207,-0.580566,-0.276367,0
21000,0.750977,-0.567383,-0.283203,0
21020,0.773926,-0.556641,-0.30127,0
21040,0.78125,-0.546387,-0.320801,0
21060,0.759766,-0.496582,-0.328613,0
21080,0.757324,-0.498047,-0.327148,0
21100,0.757812,-0.5,-0.342285,0
21120,0.765137,-0.466309,-0.359375,0
21140,0.786133,-0.450684,-0.371094,0
21160,0.811035,-0.445312,-0.360352,0
21180,0.825684,-0.450195,-0.34082,2001
21200,0.838379,-0.445312,-0.368652,0
21220,0.86084,-0.462402,-0.354004,0
21240,0.856445,-0.413086,-0.345215,0
21260,0.871094,-0.416504,-0.350586,0
21280,0.894531,-0.463379,-0.346191,0
21300,0.873047,-0.490234,-0.380371,0
21320,0.854004,-0.45752,-0.359863,0
21340,0.860352,-0.431641,-0.337891,0
21360,0.86377,-0.431641,-0.349121,0
21380,0.859863,-0.42627,-0.336914,0
21400,0.821777,-0.434082,-0.328613,0
21420,0.802734,-0.421387,-0.338379,0
21440,0.782227,-0.429688,-0.320312,0
21460,0.759766,-0.436035,-0.333984,0
21480,0.758301,-0.431641,-0.334473,0
21500,0.734375,-0.424316,-0.331055,0
21520,0.698242,-0.429688,-0.336914,0
21540,0.682129,-0.441406,-0.358887,0
21560,0.656738,-0.451172,-0.336426,0
21580,0.615234,-0.447266,-0.337402,0
21600,0.618164,-0.43457,-0.32959,0
21620,0.657227,-0.460938,-0.342285,0
21640,0.648926,-0.445312,-0.333008,0
21660,0.664062,-0.455566,-0.358887,0
21680,0.693848,-0.468262,-0.316406,0
21700,0.645508,-0.458984,-0.274902,0
21720,0.620605,-0.469727,-0.297852,0
21740,0.671875,-0.500488,-0.355469,0
21760,0.691895,-0.546875,-0.267578,0
21780,0.681152,-0.573242,-0.24707,0
21800,0.703125,-0.632324,-0.3125,0
21820,0.721191,-0.703125,-0.29248,0
21840,0.690918,-0.751465,-0.263184,0
21860,0.672852,-0.77002,-0.274902,0
21880,0.644531,-0.825684,-0.257324,0
21900,0.603027,-0.817383,-0.193359,0
21920,0.579102,-0.87207,-0.233887,0
21940,0.588867,-0.910156,-0.233398,0
21960,0.550781,-0.93457,-0.168945,0
21980,0.503906,-0.963867,-0.158691,0
22000,0.523926,-1.04785,-0.185059,0
22020,0.533203,-1.08838,-0.109375,0
22040,0.507812,-1.04541,-0.0664062,0
22060,0.514648,-1.03271,-0.0629883,0
22080,0.521484,-1.07324,-0.0454102,0
22100,0.46582,-1.0625,-0.0151367,0
22120,0.407715,-1.01465,-0.0585938,0
22140,0.446289,-1.00049,-0.0439453,0
22160,0.439453,-0.98291,0.019043,0
22180,0.42041,-0.980957,-0.0244141,0
22200,0.42334,-0.966309,-0.0405273,0
22220,0.380859,-0.935059,-0.0185547,0
22240,0.358398,-0.92334,-0.00878906,0
22260,0.371582,-0.970215,-0.0102539,0
22280,0.359863,-0.986328,-0.00341797,0
22300,0.337891,-0.955566,-0.0297852,0
22320,0.320801,-0.961914,0.00537109,0
22340,0.300293,-0.96582,0.000976562,0
22360,0.297852,-0.945801,-0.000488281,0
22380,0.301758,-0.912109,-0.00830078,0
22400,0.311035,-0.910156,-0.00976562,0
22420,0.319824,-0.928223,-0.00341797,0
22440,0.282715,-0.953613,0.00292969,0
22460,0.270996,-0.955078,-0.0244141,0
22480,0.263184,-0.977051,-0.00390625,0
22500,0.269531,-0.954102,0.00195312,0
22520,0.269531,-0.938477,-0.0151367,0
22540,0.283203,-0.927246,-0.0180664,0
22560,0.256836,-0.969238,-0.0200195,0
22580,0.258789,-0.981934,-0.0239258,0
22600,0.26123,-0.987305,-0.0166016,0
22620,0.273926,-0.989746,-0.0161133,0
22640,0.258301,-0.959473,-0.0200195,0
22660,0.240723,-0.982422,-0.0283203,0
22680,0.237305,-0.97168,-0.00976562,0
22700,0.295898,-0.975586,-0.0151367,0
22720,0.312988,-0.997559,-0.0361328,0
22740,0.311523,-0.99707,-0.0415039,0
22760,0.307617,-0.952637,-0.0317383,0
22780,0.320801,-0.949707,-0.0444336,0
22800,0.3125,-0.961426,-0.0546875,0
22820,0.308105,-0.962891,-0.0664062,0
22840,0.32373,-0.955078,-0.0654297,0
22860,0.354492,-0.942383,-0.0556641,0
22880,0.359863,-0.925293,-0.0742188,0
22900,0.361816,-0.955566,-0.0996094,0
22920,0.369141,-0.939941,-0.0864258,0
22940,0.390625,-0.90625,-0.0756836,0
22960,0.407227,-0.938477,-0.0908203,0
22980,0.403809,-0.955078,-0.109863,0
23000,0.406738,-0.921387,-0.139648,0
23020,0.411133,-0.920898,-0.131348,0
23040,0.394043,-0.932617,-0.134277,0
23060,0.395508,-0.938477,-0.158203,0
23080,0.42041,-0.913086,-0.140625,0
23100,0.433105,-0.927246,-0.185059,0
23120,0.432617,-0.899902,-0.177246,0
23140,0.415527,-0.851562,-0.169922,0
23160,0.427734,-0.873535,-0.193359,0
23180,0.453613,-0.890137,-0.209473,0
23200,0.430176,-0.872559,-0.198242,0
23220,0.414062,-0.852539,-0.197266,0
23240,0.474121,-0.805176,-0.208008,0
23260,0.530762,-0.803711,-0.224121,0
23280,0.561035,-0.77002,-0.238281,0
23300,0.605469,-0.722168,-0.253906,0
23320,0.665527,-0.695801,-0.278809,0
23340,0.679199,-0.686523,-0.279785,0
23360,0.709961,-0.664062,-0.279785,0
23380,0.76123,-0.720703,-0.314453,0
23400,0.723633,-0.760742,-0.291016,0
23420,0.6875,-0.719238,-0.279785,0
23440,0.649414,-0.744141,-0.252441,0
23460,0.641602,-0.841797,-0.262207,0
23480,0.571289,-0.874512,-0.179199,0
23490,0.501953,-0.836914,-0.171387,0
23510,0.475098,-0.848145,-0.144531,0
23530,0.451172,-0.880859,-0.161621,0
23550,0.436523,-0.959473,-0.151855,0
23570,0.353516,-1.01611,-0.112793,0
23590,0.274414,-0.977051,-0.107422,0
23610,0.307129,-0.902832,-0.0708008,0
23630,0.293945,-0.964844,-0.0908203,0
23650,0.26416,-1.03027,-0.0717773,0
23670,0.202148,-1.0498,-0.0727539,0
23690,0.179199,-0.998047,-0.0585938,0
23710,0.205566,-0.970215,-0.065918,0
23730,0.229004,-0.969727,-0.081543,0
23750,0.187012,-0.986816,-0.0844727,0
23770,0.177246,-0.973145,-0.0400391,0
23790,0.206543,-0.950195,-0.043457,0
23810,0.256836,-0.969238,-0.0551758,0
23830,0.265137,-0.977051,-0.0283203,0
23850,0.265625,-0.978027,-0.0600586,0
23870,0.250488,-0.956055,-0.0429688,0
23890,0.238281,-0.964844,-0.0195312,0
23910,0.23877,-0.943848,-0.0385742,0
23930,0.210449,-0.946289,-0.0288086,0
23950,0.209473,-0.942871,-0.0351562,0
23970,0.212891,-0.963379,-0.0405273,0
23990,0.210449,-0.955078,-0.0595703,0
24010,0.250488,-0.934082,-0.0546875,0
24030,0.270508,-0.952637,-0.0522461,0
24050,0.280273,-0.995117,-0.0708008,0
24070,0.286621,-1,-0.074707,0
24090,0.27002,-0.963379,-0.0830078,0
24110,0.25,-0.939453,-0.0820312,0
24130,0.241699,-0.941895,-0.0712891,0
24150,0.268555,-0.972168,-0.0683594,0
24170,0.263184,-0.991699,-0.097168,0
24190,0.257812,-0.958008,-0.097168,0
24210,0.270996,-0.938477,-0.0986328,0
24230,0.315918,-0.970215,-0.0825195,0
24250,0.336426,-0.967773,-0.101074,0
24270,0.366699,-0.965332,-0.117676,0
24290,0.343262,-0.951172,-0.131836,0
24310,0.35791,-0.921875,-0.120117,0
24330,0.377441,-0.923828,-0.130371,0
24350,0.380371,-0.933594,-0.151367,0
24370,0.410156,-0.931152,-0.164062,0
24390,0.44873,-0.937988,-0.173828,0
24410,0.441406,-0.935059,-0.172363,0
24430,0.405762,-0.917969,-0.17627,0
24450,0.355469,-0.878418,-0.16748,0
24470,0.376465,-0.904297,-0.189941,0
24490,0.426758,-0.947754,-0.179199,0
24510,0.41748,-0.938965,-0.181641,0
24530,0.382812,-0.892578,-0.182129,0
24550,0.382812,-0.882324,-0.187988,0
24570,0.434082,-0.868164,-0.166504,0
24590,0.484375,-0.878418,-0.177246,0
24610,0.513184,-0.88623,-0.209961,0
24630,0.497559,-0.859375,-0.220703,0
24650,0.530273,-0.798828,-0.21582,0
24670,0.591797,-0.787109,-0.21582,0
24690,0.624512,-0.764648,-0.224121,0
24710,0.65918,-0.733398,-0.210449,0
24730,0.706543,-0.695312,-0.231934,0
24750,0.723633,-0.682617,-0.29834,0
24750,0.739746,-0.681152,-0.304688,0
24770,0.742188,-0.675293,-0.293945,0
24810,0.667969,-0.791992,-0.272949,0
24830,0.642578,-0.836914,-0.263184,0
24850,0.625,-0.817871,-0.212891,0
24870,0.577637,-0.808105,-0.180176,0
24890,0.549316,-0.890137,-0.146484,0
24910,0.499512,-0.933594,-0.123047,0
24930,0.441895,-0.905762,-0.115723,0
24950,0.442383,-0.903809,-0.0830078,0
24970,0.371582,-0.937012,-0.0498047,0
24990,0.29541,-1.00293,-0.0576172,0
25010,0.300293,-1.01562,-0.0458984,0
25030,0.304199,-0.938965,-0.0117188,0
25050,0.269043,-0.90625,-0.0371094,0
25070,0.233887,-0.983887,-0.0336914,0
25090,0.189941,-1.04834,-0.0244141,0
25110,0.212402,-1.03418,-0.0585938,0
25130,0.242676,-0.98291,-0.0361328,0
25150,0.23877,-0.93457,-0.0546875,0
25170,0.227051,-0.938965,-0.0639648,0
25190,0.228027,-0.990234,-0.0512695,0
25210,0.230469,-0.97998,-0.0258789,0
25230,0.249512,-0.904297,-0.046875,0
25250,0.276855,-0.92334,-0.0424805,2000
25270,0.303711,-0.942871,-0.0449219,0
25290,0.340332,-0.960449,-0.0371094,0
25310,0.300293,-0.978027,-0.0131836,0
25330,0.298828,-0.929688,-0.0268555,0
25350,0.323242,-0.910156,-0.0253906,0
25370,0.305176,-0.942871,-0.0361328,0
25390,0.253418,-0.939453,-0.0136719,0
25410,0.276367,-0.912109,-0.0244141,0
25430,0.296875,-0.949219,-0.0585938,0
25450,0.286133,-0.976562,-0.0654297,0
25460,0.257324,-0.978027,-0.046875,0
25480,0.279297,-0.973145,-0.0488281,0
25500,0.286133,-0.987793,-0.0419922,0
25520,0.255371,-0.96582,-0.0141602,0
25540,0.265625,-1.01416,-0.0395508,0
25560,0.267578,-0.96582,-0.0483398,0
25580,0.255859,-0.916992,-0.0327148,0
25600,0.289551,-0.905762,-0.0205078,0
25620,0.279785,-0.966309,-0.0253906,0
25640,0.273926,-0.97998,-0.0273438,0
25660,0.289062,-0.971191,-0.0419922,0
25680,0.318359,-0.938965,-0.0454102,0
25700,0.335938,-0.934082,-0.0463867,0
25720,0.32959,-0.937012,-0.0532227,0
25740,0.338867,-0.943848,-0.0615234,0
25760,0.333008,-0.944824,-0.0688477,0
25780,0.342773,-0.936523,-0.0717773,0
25800,0.337891,-0.92627,-0.0786133,0
25820,0.349609,-0.922363,-0.0708008,0
25840,0.395508,-0.940918,-0.0756836,0
25860,0.410156,-0.924805,-0.0869141,0
25880,0.431641,-0.891602,-0.0981445,0
25900,0.473633,-0.884766,-0.0830078,0
25920,0.487305,-0.891113,-0.130859,0
25940,0.515625,-0.89502,-0.145508,0
25960,0.520508,-0.885254,-0.134766,0
25980,0.507324,-0.89209,-0.162109,0
26000,0.47168,-0.917969,-0.14502,0
26020,0.442383,-0.928223,-0.125,0
26040,0.382812,-0.913574,-0.102539,0
26060,0.327637,-0.911133,-0.0917969,0
26080,0.253418,-0.935059,-0.0693359,0
26100,0.203125,-0.907227,-0.034668,0
26120,0.206055,-0.918945,-0.0317383,0
26140,0.197266,-0.936523,-0.0283203,0
26160,0.208008,-0.936523,-0.00878906,0
26180,0.250488,-0.964355,0.00537109,0
26200,0.297852,-0.980957,0.00927734,0
26220,0.314941,-0.983887,-0.0126953,0
26240,0.331055,-0.982422,-0.0180664,0
26260,0.342285,-0.977539,-0.03125,0
26280,0.367188,-0.989746,-0.0292969,0
26300,0.384766,-0.986328,-0.0395508,0
26320,0.38623,-0.970703,-0.0561523,0
26340,0.398926,-0.967285,-0.0673828,0
26360,0.370605,-0.969727,-0.046875,0
26380,0.340332,-0.95459,-0.050293,0
26400,0.309082,-0.946289,-0.0507812,0
26420,0.293945,-0.92334,-0.0537109,0
26440,0.288574,-0.904297,-0.0410156,0
26460,0.291992,-0.905273,-0.03125,0
26480,0.283691,-0.91748,-0.0239258,0
26500,0.285156,-0.92334,-0.0263672,0
26520,0.293457,-0.935059,-0.0341797,0
26540,0.307129,-0.929688,-0.0390625,0
26560,0.308594,-0.93457,-0.0449219,0
26580,0.308594,-0.941895,-0.0336914,0
26600,0.306152,-0.952148,-0.0439453,0
26620,0.313965,-0.938965,-0.0517578,0
26640,0.317383,-0.951172,-0.0703125,0
26660,0.336426,-0.973145,-0.0634766,0
26680,0.32666,-0.95752,-0.0581055,0
26700,0.319336,-0.941406,-0.0698242,0
26720,0.330078,-0.953125,-0.0820312,0
26740,0.333984,-0.956055,-0.0761719,0
26760,0.341797,-0.9375,-0.0654297,0
26780,0.338379,-0.943848,-0.0859375,0
26800,0.35498,-0.946777,-0.0908203,0
26820,0.359863,-0.929688,-0.0761719,0
26840,0.36377,-0.908691,-0.0839844,0
26860,0.361816,-0.90332,-0.101074,0
26880,0.376465,-0.933594,-0.100098,0
26900,0.391113,-0.936523,-0.100098,0
26920,0.390625,-0.924316,-0.0986328,0
26940,0.380859,-0.907227,-0.113281,0
26960,0.374512,-0.897461,-0.130859,0
26980,0.392578,-0.881348,-0.12207,0
27000,0.414551,-0.896973,-0.121582,0
27020,0.436035,-0.902832,-0.100586,0
27040,0.439941,-0.895508,-0.10791,0
27060,0.440918,-0.924805,-0.146973,0
27080,0.441895,-0.946289,-0.170898,0
27100,0.446777,-0.928711,-0.150879,0
27120,0.416016,-0.904297,-0.12793,0
27140,0.45752,-0.895996,-0.158203,0
27160,0.44873,-0.908203,-0.145996,0
27180,0.472656,-0.861328,-0.149414,0
27200,0.472656,-0.842285,-0.160645,0
27220,0.47168,-0.833496,-0.175781,0
27240,0.475098,-0.845215,-0.144043,0
27260,0.491699,-0.84668,-0.129883,0
27280,0.495605,-0.838379,-0.157715,0
27300,0.480469,-0.835938,-0.168457,0
27320,0.492188,-0.838379,-0.16748,0
27340,0.474121,-0.858398,-0.15918,0
27360,0.496094,-0.872559,-0.125977,0
27380,0.524902,-0.854492,-0.0766602,0
27400,0.52832,-0.865234,-0.0908203,0
27420,0.519043,-0.865723,-0.102051,0
27440,0.529297,-0.873535,-0.0947266,0
27460,0.510742,-0.85498,-0.109863,0
27480,0.48584,-0.858398,-0.127441,0
27500,0.481934,-0.877441,-0.123047,0
27520,0.497559,-0.861816,-0.112305,0
27540,0.51709,-0.842773,-0.110352,0
27560,0.527344,-0.831055,-0.111816,0
27580,0.535645,-0.847168,-0.111328,0
27600,0.554199,-0.84668,-0.0981445,0
27620,0.56543,-0.829102,-0.104004,0
27640,0.569336,-0.810547,-0.097168,0
27660,0.590332,-0.794434,-0.065918,0
27680,0.60791,-0.784668,-0.0561523,0
27700,0.590332,-0.755371,-0.0654297,0
27720,0.574219,-0.749512,-0.0839844,0
27740,0.571289,-0.769043,-0.108887,0
27760,0.60791,-0.772461,-0.0800781,0
27780,0.641113,-0.763184,-0.074707,0
27800,0.647461,-0.744629,-0.0878906,0
27820,0.634277,-0.756348,-0.0717773,0
27840,0.619141,-0.756836,-0.0678711,0
27860,0.63623,-0.760742,-0.0566406,0
27880,0.661133,-0.753906,-0.0585938,0
27900,0.659668,-0.752441,-0.0605469,0
27920,0.658691,-0.744629,-0.0537109,0
27940,0.663574,-0.755371,-0.034668,0
27960,0.664062,-0.741699,-0.00292969,0
27980,0.669922,-0.725586,-0.0126953,0
28000,0.688477,-0.733398,-0.0317383,0
28020,0.68457,-0.755371,0.00195312,0
28040,0.681641,-0.740234,0.0268555,0
28060,0.67334,-0.724121,0.00878906,0
28080,0.683105,-0.722656,0,0
28100,0.684082,-0.733887,0.034668,0
28120,0.684082,-0.728027,0.0522461,0
28140,0.67627,-0.725586,0.0805664,0
28160,0.681152,-0.73584,0.0776367,0
28180,0.687988,-0.738281,0.0917969,0
28200,0.679688,-0.706055,0.104492,0
28220,0.672363,-0.707031,0.114258,0
28240,0.68457,-0.740234,0.111328,0
28260,0.682617,-0.752441,0.097168,0
28280,0.652832,-0.72998,0.107422,0
28300,0.626465,-0.706055,0.124512,0
28320,0.639648,-0.70166,0.125,0
28340,0.649414,-0.708496,0.125977,0
28360,0.653809,-0.70166,0.121582,0
28380,0.654297,-0.723633,0.137695,0
28400,0.648438,-0.787109,0.120117,0
28420,0.589844,-0.830078,0.131836,0
28440,0.584473,-0.756348,0.207031,0
28460,0.589355,-0.692383,0.222168,0
28480,0.587891,-0.691406,0.197754,0
28500,0.598633,-0.765625,0.202148,0
28520,0.589844,-0.797363,0.186523,0
28540,0.571289,-0.762207,0.199219,0
28560,0.581543,-0.753906,0.201172,0
28580,0.581055,-0.780762,0.199219,0
28600,0.562988,-0.757812,0.203125,0
28620,0.537598,-0.744141,0.206543,0
28640,0.549805,-0.725586,0.220215,0
28660,0.553711,-0.740723,0.23584,0
28680,0.529785,-0.739258,0.223633,0
28700,0.508789,-0.758301,0.200195,0
28720,0.515137,-0.770996,0.205566,0
28740,0.527832,-0.76416,0.208496,0
28760,0.543457,-0.769043,0.206543,0
28780,0.550293,-0.77002,0.211426,0
28800,0.532715,-0.776367,0.213379,0
28820,0.530273,-0.784668,0.1875,0
28840,0.545898,-0.789062,0.22168,0
28850,0.541016,-0.791504,0.224121,0
28870,0.535645,-0.781738,0.22168,0
28890,0.538086,-0.766602,0.224609,0
28910,0.537109,-0.763672,0.212891,0
28930,0.530762,-0.792969,0.215332,0
28950,0.503906,-0.799805,0.208008,0
28970,0.501953,-0.787598,0.189453,0
28990,0.516602,-0.800293,0.169922,0
29010,0.54248,-0.823242,0.185059,0
29030,0.530762,-0.801758,0.217285,0
29050,0.501953,-0.795898,0.217773,0
29070,0.512207,-0.813965,0.208496,0
29090,0.51416,-0.806152,0.220215,0
29110,0.484375,-0.807617,0.221191,0
29130,0.502441,-0.821289,0.206543,0
29150,0.503418,-0.820312,0.210449,0
29170,0.498047,-0.804199,0.193359,0
29190,0.508789,-0.779785,0.199219,0
29210,0.496094,-0.796875,0.213379,0
29230,0.496094,-0.815918,0.206055,0
29250,0.47998,-0.81543,0.209961,0
29270,0.470703,-0.810547,0.196289,0
29290,0.484863,-0.802734,0.182129,0
29310,0.483398,-0.796387,0.208496,0
29330,0.469238,-0.801758,0.217285,0
29350,0.481445,-0.828613,0.224121,0
29370,0.480957,-0.82666,0.212402,0
29390,0.455566,-0.811035,0.205078,0
29410,0.44043,-0.813965,0.207031,0
29430,0.450684,-0.836426,0.212402,0
29450,0.437988,-0.845215,0.206055,0
29470,0.437988,-0.825195,0.20752,0
29490,0.452637,-0.818848,0.20166,0
29510,0.442871,-0.833984,0.208984,0
29530,0.442871,-0.852539,0.195312,0
29550,0.449219,-0.868164,0.177734,0
29570,0.451172,-0.854004,0.177734,0
29590,0.44873,-0.844238,0.171875,0
29610,0.457031,-0.836426,0.175293,0
29630,0.447266,-0.864258,0.179688,0
29650,0.440918,-0.861328,0.165039,0
29670,0.452637,-0.874512,0.175781,0
29690,0.429199,-0.86084,0.17334,0
29710,0.436035,-0.837402,0.166016,0
29730,0.438965,-0.850098,0.162109,0
29750,0.423828,-0.86377,0.155762,0
29770,0.423828,-0.86377,0.154785,0
29790,0.421875,-0.855469,0.15332,0
29810,0.431152,-0.846191,0.152832,0
29830,0.429199,-0.847656,0.145508,0
29850,0.429199,-0.850586,0.146484,0
29870,0.427246,-0.873047,0.141602,0
29890,0.439941,-0.879395,0.123047,0
29910,0.462402,-0.870605,0.106934,0
29930,0.461426,-0.86084,0.112305,0
29950,0.436523,-0.86377,0.112305,0
29970,0.411621,-0.881836,0.103516,0
29990,0.42041,-0.898438,0.0908203,0
30010,0.427734,-0.887695,0.0854492,0
30030,0.418457,-0.850586,0.0849609,0
30050,0.418945,-0.858887,0.074707,0
30070,0.428223,-0.883301,0.0742188,0
30090,0.42041,-0.876953,0.0683594,0
30110,0.431152,-0.867676,0.0654297,0
30130,0.447266,-0.86377,0.0732422,0
30150,0.455078,-0.865234,0.0683594,0
30170,0.473145,-0.865234,0.0786133,0
30190,0.478027,-0.86377,0.0712891,0
30210,0.472168,-0.864746,0.0571289,0
30230,0.503418,-0.861328,0.0795898,0
30250,0.519531,-0.851074,0.078125,0
30270,0.530273,-0.848145,0.0219727,0
30290,0.522949,-0.884277,-0.00683594,0
30310,0.479492,-0.88916,-0.00878906,0
30330,0.460938,-0.869629,-0.00341797,0
30350,0.459473,-0.875,0.0234375,0
30370,0.458496,-0.86377,-0.00146484,0
30390,0.464355,-0.857422,-0.0292969,0
30410,0.470215,-0.848633,-0.0283203,0
30430,0.475586,-0.848633,-0.0161133,0
30450,0.473633,-0.86084,-0.0244141,0
30470,0.485352,-0.86084,-0.00488281,0
30490,0.489746,-0.836426,-0.00585938,0
30510,0.48291,-0.816895,-0.00732422,0
30530,0.499512,-0.832031,-0.0141602,0
30550,0.493652,-0.844238,-0.0317383,0
30570,0.491699,-0.832031,-0.0395508,0
30590,0.496582,-0.830078,-0.0537109,0
30610,0.501953,-0.841797,-0.0483398,0
30630,0.495605,-0.838379,-0.0620117,0
30650,0.50293,-0.844238,-0.0756836,0
30670,0.501465,-0.858398,-0.0732422,0
30690,0.501953,-0.846191,-0.081543,0
30710,0.507324,-0.867188,-0.09375,0
30730,0.490234,-0.848633,-0.0820312,0
30750,0.484375,-0.819336,-0.0620117,0
30770,0.497559,-0.803711,-0.0551758,0
30790,0.518555,-0.803223,-0.0458984,0
30810,0.519043,-0.810059,-0.10498,0
30830,0.526367,-0.809082,-0.138672,0
30840,0.512207,-0.831543,-0.144043,0
30860,0.492188,-0.828125,-0.133301,0
30880,0.510742,-0.828613,-0.132812,0
30900,0.563477,-0.866211,-0.165039,0
30920,0.576172,-0.892578,-0.132812,0
30940,0.538086,-0.875,-0.112793,0
30960,0.516602,-0.849609,-0.127441,0
30980,0.536133,-0.861328,-0.131348,0
31000,0.547363,-0.881836,-0.151367,0
31020,0.564453,-0.867188,-0.146973,0
31040,0.543457,-0.842773,-0.138184,0
31060,0.538574,-0.845703,-0.15625,0
31080,0.556641,-0.84082,-0.147461,0
31100,0.553711,-0.793945,-0.13623,0
31120,0.554688,-0.754883,-0.141602,0
31140,0.565918,-0.751953,-0.169922,0
31160,0.588867,-0.768066,-0.181152,0
31180,0.598633,-0.758301,-0.190918,0
31200,0.587891,-0.709961,-0.179199,0
31220,0.598145,-0.718262,-0.198242,0
31240,0.638672,-0.741211,-0.228027,0
31260,0.685059,-0.745605,-0.21582,0
31280,0.682617,-0.706055,-0.168457,0
31300,0.693359,-0.638184,-0.13916,0
31320,0.714355,-0.622559,-0.155762,0
31340,0.725098,-0.638184,-0.211914,0
31360,0.736816,-0.647461,-0.217285,0
31380,0.729004,-0.622559,-0.185059,0
31400,0.750488,-0.588379,-0.193359,0
31420,0.779297,-0.61084,-0.190918,0
31440,0.812988,-0.613281,-0.179688,0
31460,0.818848,-0.600586,-0.188477,0
31480,0.806152,-0.59668,-0.209961,0
31500,0.811523,-0.590332,-0.175293,0
31520,0.833984,-0.557129,-0.143066,0
31540,0.84375,-0.555664,-0.134277,0
31560,0.842285,-0.557617,-0.115234,0
31580,0.869141,-0.522461,-0.0839844,0
31600,0.887695,-0.489746,-0.0673828,0
31620,0.873535,-0.489746,-0.107422,0
31640,0.845703,-0.506836,-0.128418,0
31660,0.836914,-0.522461,-0.103516,0
31680,0.84082,-0.516113,-0.0629883,0
31700,0.848633,-0.501953,-0.0639648,0
31720,0.852539,-0.472168,-0.0722656,0
31740,0.875,-0.490723,-0.0507812,0
31760,0.88916,-0.489258,-0.0371094,0
31780,0.873047,-0.485352,-0.0302734,0
31800,0.86377,-0.476562,-0.0297852,0
31820,0.874512,-0.46582,-0.00146484,0
31840,0.874512,-0.467773,0.0126953,0
31860,0.866699,-0.464355,0.0136719,0
31880,0.86084,-0.469727,0.03125,0
31900,0.849121,-0.475586,0.0527344,0
31920,0.864258,-0.458008,0.0688477,0
31940,0.85791,-0.458984,0.0825195,0
31960,0.856445,-0.449219,0.0883789,0
31980,0.851562,-0.439941,0.107422,0
32000,0.853516,-0.440918,0.119629,0
32020,0.844238,-0.47168,0.12207,0
32040,0.825684,-0.493652,0.134766,0
32060,0.810547,-0.489746,0.15332,0
32080,0.825195,-0.462402,0.148438,0
32100,0.82959,-0.475098,0.180176,0
32120,0.810547,-0.499512,0.174316,0
32140,0.780762,-0.527344,0.140625,0
32160,0.788086,-0.566406,0.162109,0
32180,0.805176,-0.57666,0.199219,0
32200,0.814941,-0.57373,0.208496,0
32220,0.791016,-0.597656,0.225586,0
32240,0.76709,-0.592285,0.225098,0
32260,0.762695,-0.592285,0.230957,0
32280,0.766602,-0.591797,0.217773,0
32300,0.727051,-0.602539,0.22998,0
32320,0.704102,-0.614746,0.223145,0
32340,0.705078,-0.606445,0.228516,0
32360,0.688965,-0.604492,0.239258,0
32380,0.683105,-0.611328,0.234863,0
32400,0.661621,-0.623047,0.233398,0
32420,0.669922,-0.613281,0.23584,0
32440,0.672852,-0.634277,0.243164,0
32460,0.672852,-0.677246,0.231934,0
32480,0.652344,-0.682129,0.239746,0
32500,0.617676,-0.660156,0.264648,0
32520,0.61084,-0.650879,0.266113,0
32540,0.617676,-0.681641,0.259277,0
32560,0.605469,-0.707031,0.251465,0
32580,0.589355,-0.721191,0.259766,0
32600,0.57373,-0.721191,0.250977,0
32620,0.604004,-0.729492,0.214844,0
32640,0.632812,-0.767578,0.20752,0
32660,0.610352,-0.784668,0.237793,0
32680,0.534668,-0.785645,0.234375,0
32700,0.534668,-0.76709,0.21875,0
32720,0.568359,-0.739746,0.207031,0
32740,0.557617,-0.70752,0.208496,0
32760,0.54248,-0.721191,0.210938,0
32780,0.549805,-0.751465,0.200684,0
32800,0.55127,-0.768555,0.183594,0
32820,0.538574,-0.733887,0.176758,0
32840,0.514648,-0.714844,0.164062,0
32860,0.560547,-0.743164,0.162598,0
32880,0.589844,-0.776855,0.168945,0
32900,0.571777,-0.789551,0.158203,0
32920,0.557617,-0.796875,0.14209,0
32940,0.556152,-0.797852,0.146484,0
32960,0.521484,-0.782715,0.150879,0
32980,0.526367,-0.77002,0.132324,0
33000,0.549316,-0.768555,0.128906,0
33020,0.535156,-0.771484,0.128418,0
33040,0.541992,-0.785156,0.120117,0
33060,0.555664,-0.796387,0.115234,0
33080,0.534668,-0.773926,0.126953,0
33100,0.536133,-0.766113,0.105469,0
33120,0.527832,-0.773926,0.0766602,0
33140,0.509277,-0.819336,0.0532227,0
33160,0.516602,-0.83252,0.0629883,0
33180,0.528809,-0.82959,0.0478516,0
33200,0.537598,-0.832031,0.0625,0
33220,0.51416,-0.820801,0.0473633,0
33240,0.516602,-0.830078,0.0195312,0
33260,0.490723,-0.828613,0.0180664,0
33280,0.459473,-0.812012,0.00292969,0
33300,0.491211,-0.808105,-0.0302734,0
33320,0.542969,-0.83252,-0.0205078,0
33340,0.547363,-0.852051,-0.0317383,0
33360,0.52832,-0.833984,-0.0292969,0
33380,0.522949,-0.8125,-0.0341797,0
33400,0.523438,-0.771973,-0.0219727,0
33420,0.569824,-0.756348,-0.0141602,0
33440,0.632324,-0.763184,-0.050293,0
33460,0.654785,-0.783691,-0.0356445,0
33480,0.640625,-0.754395,-0.0283203,0
33500,0.64209,-0.736328,-0.0244141,0
33520,0.628418,-0.724121,-0.0683594,0
33540,0.620605,-0.717773,-0.0922852,0
33560,0.648438,-0.721191,-0.100098,0
33580,0.665039,-0.729004,-0.0795898,0
33600,0.676758,-0.726562,-0.0952148,0
33620,0.702148,-0.742188,-0.146973,0
33640,0.72168,-0.738281,-0.150879,0
33660,0.710449,-0.726074,-0.138184,0
33680,0.696777,-0.719727,-0.167969,0
33700,0.723633,-0.716309,-0.194336,0
33720,0.734375,-0.711426,-0.175293,0
33740,0.708984,-0.65625,-0.172852,0
33760,0.701172,-0.637695,-0.161133,0
33780,0.727051,-0.638184,-0.15332,0
33800,0.762695,-0.629883,-0.166016,0
33820,0.764648,-0.60791,-0.161133,0
33840,0.732422,-0.573242,-0.17627,0
33860,0.729004,-0.583496,-0.210449,0
33880,0.762695,-0.588379,-0.20752,0
33900,0.768066,-0.583984,-0.226562,0
33920,0.757812,-0.566895,-0.222168,0
33940,0.74707,-0.566406,-0.227051,0
33960,0.764648,-0.560059,-0.228516,0
33980,0.79248,-0.562988,-0.262695,0
34000,0.790039,-0.554688,-0.258301,0
34020,0.765137,-0.52002,-0.25293,0
34040,0.758301,-0.503418,-0.257324,0
34060,0.762207,-0.497559,-0.263672,0
34080,0.768066,-0.500488,-0.256348,0
34100,0.751465,-0.482422,-0.23584,0
34120,0.775391,-0.458984,-0.197266,0
34140,0.866699,-0.462402,-0.185059,0
34160,0.892578,-0.443359,-0.15918,0
34180,0.887207,-0.437012,-0.166992,0
34200,0.875,-0.446289,-0.193848,0
34220,0.886719,-0.474121,-0.167969,0
34240,0.916504,-0.469727,-0.109375,0
34250,0.909668,-0.42334,-0.118652,0
34270,0.900879,-0.427734,-0.14502,0
34290,0.893066,-0.446289,-0.116211,0
34310,0.898438,-0.435547,-0.0957031,0
34330,0.912598,-0.41748,-0.0688477,0
34350,0.915039,-0.412109,-0.065918,0
34370,0.915039,-0.404785,-0.0507812,0
34390,0.939453,-0.395508,-0.0317383,0
34410,0.949219,-0.380859,0.00585938,0
34430,0.946289,-0.361816,-0.00390625,0
34450,0.937988,-0.360352,0.0126953,0
34470,0.930664,-0.374023,0.0131836,0
34490,0.931152,-0.367188,0.0131836,0
34510,0.940918,-0.36084,0.0239258,0
34530,0.938965,-0.35498,0.0361328,0
34550,0.91748,-0.347168,0.0610352,0
34570,0.92627,-0.341309,0.0551758,0
34590,0.922363,-0.363281,0.0639648,0
34610,0.913086,-0.396973,0.0751953,0
34630,0.90918,-0.405762,0.101562,0
34650,0.901367,-0.397461,0.106445,0
34670,0.900879,-0.382812,0.11377,0
34690,0.916504,-0.409668,0.113281,0
34710,0.887207,-0.445312,0.151367,0
34730,0.849121,-0.447754,0.183105,0
34750,0.82959,-0.424805,0.153809,0
34770,0.835449,-0.441406,0.163574,0
34790,0.812012,-0.475098,0.18457,0
34810,0.781738,-0.47168,0.219238,0
34830,0.750488,-0.481934,0.216797,0
34850,0.745117,-0.47998,0.212402,0
34870,0.760742,-0.51123,0.216797,0
34890,0.736816,-0.521484,0.232422,0
34910,0.731445,-0.520996,0.217285,0
34930,0.753906,-0.504883,0.242676,0
34950,0.757324,-0.482422,0.239258,0
34970,0.752441,-0.568359,0.241699,0
34990,0.703613,-0.643066,0.246582,0
35010,0.714355,-0.608887,0.238281,0
35030,0.74707,-0.581055,0.242188,0
35050,0.731445,-0.583984,0.225098,0
35070,0.704102,-0.601074,0.236816,0
35090,0.681641,-0.632812,0.243164,0
35110,0.68457,-0.648926,0.251465,0
35130,0.679199,-0.646484,0.237305,0
35150,0.691895,-0.64502,0.215332,0
35170,0.665527,-0.660156,0.231934,0
35190,0.666504,-0.66748,0.230469,0
35210,0.671387,-0.723633,0.247559,0
35230,0.643066,-0.718262,0.233398,0
35250,0.638672,-0.692383,0.209961,0
35270,0.629395,-0.69873,0.220215,0
35290,0.607422,-0.666992,0.219238,0
35310,0.578125,-0.695801,0.213379,0
35330,0.576172,-0.705078,0.213379,0
35350,0.570801,-0.699707,0.203613,0
35370,0.609863,-0.70752,0.180176,0
35390,0.612793,-0.740234,0.183105,0
35410,0.604492,-0.726562,0.169922,0
35430,0.598633,-0.746582,0.195312,0
35450,0.599121,-0.77832,0.17334,0
35470,0.603516,-0.765625,0.150879,0
35490,0.609375,-0.769043,0.150879,0
35510,0.584961,-0.757812,0.142578,0
35530,0.57959,-0.76709,0.114258,0
35550,0.573242,-0.781738,0.120117,0
35570,0.57666,-0.77832,0.109375,0
35590,0.56543,-0.791504,0.102539,0
35610,0.547363,-0.796875,0.0927734,0
35630,0.54541,-0.795898,0.0825195,0
35650,0.555176,-0.779297,0.0727539,0
35670,0.562012,-0.781738,0.0776367,0
35690,0.564941,-0.791016,0.0615234,0
35710,0.561523,-0.785156,0.0639648,0
35730,0.559082,-0.797852,0.0605469,0
35750,0.578125,-0.785645,0.0385742,0
35770,0.583984,-0.787109,0.0307617,0
35790,0.581543,-0.792969,0.0214844,0
35810,0.600586,-0.794434,-0.00244141,0
35830,0.583984,-0.790527,-0.00244141,0
35850,0.580566,-0.780273,-0.0141602,0
35870,0.602051,-0.782715,-0.0249023,0
35890,0.617676,-0.79248,-0.0205078,0
35910,0.612305,-0.779785,-0.0351562,0
35930,0.620117,-0.770508,-0.0405273,0
35950,0.609375,-0.764648,-0.0527344,0
35970,0.602051,-0.755859,-0.0610352,0
35990,0.592773,-0.746582,-0.0610352,0
36010,0.597168,-0.741699,-0.0698242,0
36030,0.612793,-0.741211,-0.0830078,0
36050,0.625,-0.746582,-0.103027,0
36070,0.62207,-0.742676,-0.105957,0
36090,0.613281,-0.726562,-0.118652,0
36110,0.613281,-0.733398,-0.120605,0
36130,0.620605,-0.714355,-0.133301,0
36150,0.624512,-0.704102,-0.132324,0
36170,0.648438,-0.712891,-0.131836,0
36190,0.675781,-0.72168,-0.144043,0
36210,0.679199,-0.70752,-0.133301,0
36230,0.702148,-0.690918,-0.131836,0
36240,0.728027,-0.706543,-0.151855,0
36260,0.708984,-0.704102,-0.162598,0
36280,0.714844,-0.688965,-0.168945,0
36300,0.728027,-0.687988,-0.182129,0
36320,0.736816,-0.69873,-0.187012,0
36340,0.745117,-0.693359,-0.198242,0
36360,0.737793,-0.680664,-0.208496,0
36380,0.746094,-0.674316,-0.220703,0
36400,0.724609,-0.666504,-0.219727,0
36420,0.714355,-0.65918,-0.221191,0
36440,0.730957,-0.652344,-0.233398,0
36460,0.73291,-0.64209,-0.243652,0
36480,0.718262,-0.637207,-0.256348,0
36500,0.720215,-0.63916,-0.275391,0
36520,0.729492,-0.627441,-0.252441,0
36540,0.72168,-0.603027,-0.237793,0
36560,0.727051,-0.591309,-0.242676,0
36580,0.713379,-0.566406,-0.239258,0
36600,0.6875,-0.541992,-0.239258,0
36620,0.676758,-0.515137,-0.276367,0
36640,0.719238,-0.527832,-0.330566,0
36660,0.776367,-0.567383,-0.316895,0
36680,0.768555,-0.559082,-0.297852,0
36700,0.764648,-0.577637,-0.335938,0
36720,0.789551,-0.595215,-0.34668,0
36740,0.808594,-0.604004,-0.333008,0
36760,0.802246,-0.602051,-0.32373,0
36780,0.803223,-0.57373,-0.314941,0
36800,0.8125,-0.576172,-0.296875,0
36820,0.817383,-0.560059,-0.291504,2001
36840,0.822266,-0.536621,-0.293945,0
36860,0.812012,-0.51416,-0.292969,0
36880,0.813477,-0.514648,-0.273438,0
36900,0.800293,-0.511719,-0.27002,0
36920,0.818359,-0.506836,-0.271484,0
36940,0.805664,-0.515137,-0.273438,0
36960,0.796875,-0.509766,-0.281738,0
36980,0.820312,-0.51123,-0.303223,0
37000,0.821777,-0.518555,-0.286133,0
37020,0.790039,-0.519043,-0.276367,0
37040,0.772461,-0.531738,-0.295898,0
37060,0.769531,-0.525879,-0.289551,0
37080,0.781738,-0.517578,-0.283691,0
37100,0.784668,-0.513672,-0.279297,0
37120,0.766113,-0.506836,-0.283203,0
37140,0.738281,-0.508789,-0.28418,0
37160,0.721191,-0.49707,-0.281738,0
37180,0.698242,-0.489258,-0.288086,0
37200,0.664062,-0.482422,-0.281738,0
37220,0.587402,-0.473633,-0.287109,0
37240,0.493652,-0.454102,-0.266602,0
37260,0.488281,-0.456543,-0.302734,0
37280,0.610352,-0.471191,-0.282715,0
37300,0.594727,-0.468262,-0.226562,0
37320,0.540527,-0.459473,-0.20459,0
37340,0.576172,-0.476074,-0.206055,0
37360,0.651367,-0.53418,-0.189453,0
37380,0.716797,-0.569336,-0.194824,0
37400,0.762207,-0.617188,-0.192871,0
37420,0.814453,-0.688477,-0.172852,0
37440,0.817871,-0.742676,-0.14502,0
37460,0.79541,-0.803223,-0.142578,0
37480,0.787598,-0.84082,-0.138672,0
37500,0.731445,-0.861816,-0.121094,0
37520,0.661133,-0.869141,-0.102051,0
37560,0.531738,-0.878906,-0.0537109,0
37580,0.478516,-0.879883,-0.0625,0
37600,0.475098,-0.922852,-0.0517578,0
37620,0.48291,-0.959473,-0.0117188,0
37640,0.470703,-0.979492,-0.0239258,0
37660,0.471191,-0.996582,-0.043457,0
37680,0.498535,-1.00635,-0.0307617,0
37700,0.474121,-1.01709,-0.00537109,0
37720,0.461426,-1.01074,0.0195312,0
37740,0.45166,-1.02344,0.0410156,0
37760,0.413574,-1.03955,0.0478516,0
37780,0.401855,-1.05957,0.0649414,0
37800,0.364746,-1.04736,0.0541992,0
37820,0.327637,-1.00635,0.0678711,0
37840,0.314453,-0.979004,0.0639648,0
37860,0.289551,-0.973633,0.0766602,0
37880,0.291016,-0.975098,0.0820312,0
37900,0.286133,-0.963867,0.0991211,0
37920,0.275391,-0.96582,0.104004,2000
37940,0.276367,-0.996582,0.0786133,0
37960,0.271484,-0.97998,0.0981445,0
37980,0.237305,-0.935059,0.0932617,0
38000,0.241211,-0.91748,0.0898438,0
38020,0.266113,-0.949707,0.074707,0
38040,0.240723,-0.96875,0.0732422,0
38060,0.250977,-0.935547,0.0688477,0
38080,0.284668,-0.933594,0.0795898,0
38100,0.291504,-0.974609,0.0615234,0
38120,0.268066,-1.00391,0.0395508,0
38140,0.226074,-0.970215,0.0610352,0
38160,0.252441,-0.948242,0.0576172,0
38180,0.270508,-0.936523,0.0371094,0
38200,0.27832,-0.96582,0.00439453,0
38220,0.231934,-0.975586,0.0141602,0
38240,0.210449,-0.985352,0.034668,0
38260,0.239746,-0.962891,0.0200195,0
38280,0.254395,-0.925293,0,0
38300,0.243652,-0.948242,0.0151367,0
38320,0.229004,-0.975098,0.027832,0
38340,0.257324,-0.992676,0.0185547,0
38360,0.290039,-0.98291,0.00537109,0
38380,0.310547,-0.972656,0.0107422,0
38400,0.293945,-0.956543,0.0302734,0
38420,0.287109,-0.921387,0.0185547,0
38440,0.304688,-0.938965,-0.000976562,0
38460,0.308594,-0.953125,0.0131836,0
38480,0.314453,-0.967285,0.00927734,0
38500,0.300293,-0.936523,0.015625,0
38520,0.305176,-0.922363,0.00195312,0
38540,0.318848,-0.92041,0.00927734,0
38560,0.34668,-0.932129,0.0131836,0
38580,0.348633,-0.953125,-0.0161133,0
38600,0.348145,-0.969238,-0.00878906,0
38620,0.347656,-0.95459,-0.00292969,0
38640,0.347168,-0.915039,0.00683594,0
38660,0.372559,-0.922852,-0.00439453,0
38680,0.353516,-0.930664,-0.00195312,0
38700,0.343262,-0.946777,-0.00537109,0
38720,0.339844,-0.930176,-0.00488281,0
38740,0.346191,-0.935059,-0.0180664,0
38760,0.364258,-0.934082,-0.0175781,0
38780,0.368652,-0.91748,-0.00927734,0
38800,0.379395,-0.920898,-0.0131836,0
38820,0.405762,-0.925781,-0.00390625,0
38840,0.427246,-0.952148,0.00683594,0
38860,0.37793,-0.888184,0.0234375,0
38880,0.355469,-0.866211,0.00927734,0
38900,0.370117,-0.868652,-0.019043,0
38920,0.396484,-0.897949,-0.0610352,0
38940,0.402344,-0.90625,-0.0581055,0
38960,0.42334,-0.878418,-0.0361328,0
38980,0.436035,-0.888184,-0.0419922,0
39000,0.446777,-0.891113,-0.0517578,0
39020,0.447754,-0.887207,-0.0488281,0
39040,0.47168,-0.896484,-0.0424805,0
39060,0.483398,-0.898926,-0.0371094,0
39080,0.491211,-0.884277,-0.043457,0
39100,0.491211,-0.861328,-0.0507812,0
39120,0.483398,-0.871582,-0.050293,0
39140,0.503906,-0.872559,-0.0405273,0
39160,0.506836,-0.881836,-0.0473633,0
39180,0.504395,-0.867676,-0.046875,0
39200,0.51123,-0.856934,-0.00439453,0
39220,0.557617,-0.845215,0.027832,0
39240,0.569336,-0.833008,0.0170898,0
39260,0.575684,-0.808594,-0.0249023,0
39280,0.570801,-0.838867,-0.0483398,0
39300,0.539062,-0.825195,-0.0302734,0
39320,0.537598,-0.818848,-0.0429688,0
39340,0.525879,-0.820312,-0.0439453,0
39360,0.544434,-0.800781,-0.015625,0
39380,0.595215,-0.780273,0.00830078,0
39400,0.594727,-0.771973,-0.0141602,0
39420,0.583984,-0.76123,-0.0268555,0
39440,0.596191,-0.777832,-0.0146484,0
39460,0.616211,-0.762207,-0.0136719,0
39480,0.620605,-0.756836,-0.0126953,0
39500,0.627441,-0.748047,-0.0249023,0
39520,0.622559,-0.755859,-0.0151367,0
39540,0.628906,-0.736816,0.00927734,0
39560,0.646973,-0.709473,0.0078125,0
39580,0.720703,-0.714355,-0.00390625,0
39600,0.780762,-0.728516,0.00927734,0
39620,0.736328,-0.791992,0.0307617,0
39640,0.676758,-0.803223,0.0585938,0
39650,0.677246,-0.766113,0.0805664,0
39670,0.696289,-0.714355,0.0703125,0
39690,0.697266,-0.684082,0.0678711,0
39710,0.690918,-0.758301,0.0908203,0
39730,0.631348,-0.822266,0.14502,0
39750,0.611816,-0.805176,0.17334,0
39770,0.631836,-0.760254,0.15332,0
39790,0.640625,-0.711914,0.146484,0
39810,0.625977,-0.745117,0.146973,0
39830,0.561523,-0.806152,0.172363,0
39850,0.534668,-0.845215,0.193848,0
39870,0.560547,-0.806152,0.173828,0
39890,0.579102,-0.729004,0.183594,0
39910,0.589355,-0.711426,0.187988,0
39930,0.569824,-0.774414,0.192383,0
39950,0.524414,-0.852539,0.213867,0
39970,0.513672,-0.836426,0.221191,0
39990,0.552246,-0.78125,0.203613,0
40010,0.563965,-0.73291,0.218262,0
40030,0.544922,-0.750488,0.205566,0
40050,0.538086,-0.801758,0.181641,0
40070,0.540527,-0.820312,0.212891,0
40090,0.512695,-0.813965,0.236328,0
40110,0.514648,-0.79834,0.225586,0
40130,0.523438,-0.79248,0.209961,0
40150,0.500977,-0.785156,0.208984,0
40170,0.481445,-0.806641,0.230957,0
40190,0.47168,-0.807617,0.210449,0
40210,0.494629,-0.794434,0.205078,0
40230,0.509766,-0.811035,0.206055,0
40250,0.512695,-0.836914,0.186035,0
40270,0.475098,-0.85791,0.208008,0
40290,0.456543,-0.842285,0.228027,0
40310,0.463379,-0.79248,0.217285,0
40330,0.460938,-0.770996,0.216797,0
40350,0.45752,-0.808105,0.211426,0
40370,0.437988,-0.850586,0.21582,0
40390,0.43457,-0.834961,0.242188,0
40410,0.440918,-0.791016,0.244141,0
40430,0.439453,-0.776855,0.232422,0
40450,0.414062,-0.813477,0.234375,0
40470,0.403809,-0.855957,0.234375,0
40490,0.40625,-0.851562,0.226074,0
40510,0.400391,-0.832031,0.234375,0
40530,0.390625,-0.82373,0.225586,0
40550,0.388672,-0.848633,0.227539,0
40570,0.37207,-0.866211,0.22168,0
40590,0.368164,-0.874512,0.219238,0
40610,0.373535,-0.850098,0.219727,0
40630,0.348633,-0.846191,0.212891,0
40650,0.342285,-0.85791,0.212891,0
40670,0.350098,-0.879883,0.198242,0
40690,0.35791,-0.878418,0.213867,0
40710,0.35791,-0.871582,0.206543,0
40730,0.344238,-0.874512,0.20459,0
40750,0.355469,-0.875488,0.192383,0
40770,0.354004,-0.883301,0.181152,0
40790,0.356445,-0.897949,0.195312,0
40810,0.350586,-0.904785,0.191895,0
40830,0.345703,-0.904297,0.16748,0
40850,0.345215,-0.899414,0.166992,0
40870,0.340332,-0.89502,0.164062,0
40890,0.326172,-0.899414,0.154297,0
40910,0.311035,-0.898926,0.146484,0
40930,0.312988,-0.911621,0.13916,0
40950,0.314941,-0.908203,0.128906,0
40970,0.33252,-0.900879,0.119141,0
40990,0.347656,-0.916504,0.114746,0
41010,0.337891,-0.924805,0.101074,0
41030,0.342773,-0.913086,0.0854492,0
41050,0.344727,-0.904297,0.0864258,0
41070,0.361328,-0.902344,0.0986328,0
41090,0.361328,-0.902832,0.097168,0
41110,0.359375,-0.907715,0.0595703,0
41130,0.373047,-0.910156,0.0673828,0
41150,0.39502,-0.895996,0.0869141,0
41170,0.424805,-0.899902,0.0683594,0
41190,0.425293,-0.902344,0.0556641,0
41210,0.40918,-0.896484,0.0517578,0
41230,0.393066,-0.893555,0.0351562,0
41250,0.387695,-0.891113,0.015625,0
41270,0.387695,-0.884277,0.0146484,0
41290,0.395996,-0.891602,0.00292969,0
41310,0.412109,-0.911621,-0.0112305,0
41330,0.437012,-0.925781,-0.0102539,0
41350,0.472656,-0.925781,-0.0180664,0
41370,0.474121,-0.913574,-0.0292969,0
41390,0.442871,-0.868164,-0.0170898,0
41410,0.441406,-0.859863,-0.0253906,0
41430,0.470215,-0.889648,-0.0722656,0
41450,0.475098,-0.90332,-0.0942383,0
41470,0.451172,-0.844238,-0.0864258,0
41490,0.436523,-0.841797,-0.0864258,0
41510,0.466309,-0.843262,-0.0966797,0
41530,0.487793,-0.863281,-0.102051,0
41550,0.474609,-0.874023,-0.123535,0
41570,0.479492,-0.825684,-0.146973,0
41590,0.525391,-0.842285,-0.14209,0
41610,0.572266,-0.815918,-0.164062,0
41620,0.561035,-0.808105,-0.166016,0
41640,0.516113,-0.821289,-0.148926,0
41660,0.515625,-0.838379,-0.118652,0
41680,0.540527,-0.852051,-0.154785,0
41700,0.546387,-0.811523,-0.160156,0
41720,0.554199,-0.806641,-0.174805,0
41740,0.558594,-0.779297,-0.193848,0
41760,0.561523,-0.807129,-0.176758,0
41780,0.55957,-0.815918,-0.181641,0
41800,0.555664,-0.809082,-0.17627,0
41820,0.567871,-0.805664,-0.172852,0
41840,0.57666,-0.769043,-0.181641,0
41860,0.594238,-0.781738,-0.187012,0
41880,0.576172,-0.794922,-0.206543,0
41900,0.568848,-0.791016,-0.183105,0
41920,0.614746,-0.796387,-0.171387,0
41940,0.65625,-0.780273,-0.181641,0
41960,0.662598,-0.740723,-0.188477,0
41980,0.650391,-0.734863,-0.182617,0
42000,0.648438,-0.753906,-0.181641,0
42020,0.656738,-0.75293,-0.186523,0
42040,0.649902,-0.728516,-0.174316,0
42060,0.649902,-0.702637,-0.18457,0
42080,0.657715,-0.687988,-0.195801,0
42100,0.685059,-0.688477,-0.182129,0
42120,0.685059,-0.695801,-0.177734,0
42140,0.684082,-0.666016,-0.181641,0
42160,0.692871,-0.665039,-0.167969,0
42180,0.697754,-0.657715,-0.153809,0
42200,0.731445,-0.65332,-0.14209,0
42220,0.766113,-0.645508,-0.13623,0
42240,0.761719,-0.62207,-0.133789,0
42260,0.762695,-0.606934,-0.140137,0
42280,0.783691,-0.619629,-0.111328,0
42300,0.800781,-0.608398,-0.104492,0
42320,0.825195,-0.588379,-0.125977,0
42340,0.833984,-0.586426,-0.104004,0
42360,0.845703,-0.569824,-0.100098,0
42380,0.846191,-0.574219,-0.108398,0
42400,0.847168,-0.549805,-0.0957031,0
42420,0.843262,-0.533203,-0.0830078,0
42440,0.844238,-0.530273,-0.0869141,0
42460,0.855957,-0.531738,-0.0908203,0
42480,0.869629,-0.518066,-0.074707,0
42500,0.856445,-0.517578,-0.065918,0
42520,0.841797,-0.536133,-0.0576172,0
42540,0.865234,-0.537109,-0.0537109,0
42560,0.873535,-0.510742,-0.0253906,0
42580,0.859375,-0.49707,-0.0317383,0
42600,0.864258,-0.516113,-0.0219727,0
42620,0.858398,-0.569824,-0.0166016,0
42640,0.82373,-0.580078,0.0078125,0
42660,0.811523,-0.576172,0.0424805,0
42680,0.82373,-0.556641,0.0253906,0
42700,0.821289,-0.523926,0.0507812,0
42720,0.811035,-0.557617,0.0522461,0
42740,0.75293,-0.576172,0.0610352,0
42760,0.751465,-0.621582,0.0722656,0
42780,0.782227,-0.622559,0.0791016,0
42800,0.782715,-0.579102,0.0771484,0
42820,0.761719,-0.577148,0.0830078,0
42840,0.726562,-0.65918,0.0981445,0
42860,0.686035,-0.717285,0.14502,0
42880,0.704102,-0.699707,0.140625,0
42900,0.73291,-0.628418,0.146973,0
42920,0.72168,-0.603027,0.129395,0
42940,0.680176,-0.682129,0.141113,0
42960,0.643555,-0.744141,0.17334,0
42980,0.664551,-0.71582,0.167969,0
43000,0.687012,-0.658691,0.154297,0
43020,0.661133,-0.638672,0.147949,0
43030,0.631836,-0.711426,0.142578,0
43050,0.635742,-0.76709,0.146973,0
43070,0.632324,-0.754395,0.132324,0
43090,0.612793,-0.720703,0.126465,0
43110,0.604492,-0.699707,0.150879,0
43130,0.619141,-0.726074,0.13623,0
43150,0.602539,-0.737305,0.157715,0
43170,0.59668,-0.760742,0.167969,0
43190,0.601562,-0.743652,0.166504,0
43210,0.581055,-0.726562,0.146484,0
43230,0.585449,-0.723145,0.151855,0
43250,0.586914,-0.728027,0.14502,0
43270,0.600586,-0.749023,0.146973,0
43290,0.600586,-0.759277,0.155762,0
43310,0.584473,-0.75293,0.145996,0
43330,0.577148,-0.75293,0.14502,0
43350,0.547852,-0.766602,0.159668,0
43370,0.520996,-0.756836,0.154785,0
43390,0.518066,-0.757324,0.147461,0
43410,0.498047,-0.745117,0.14209,0
43430,0.541016,-0.759277,0.142578,0
43450,0.550293,-0.800781,0.143555,0
43470,0.521973,-0.810059,0.141113,0
43490,0.537598,-0.823242,0.146484,0
43510,0.524414,-0.80957,0.156738,0
43530,0.515625,-0.798828,0.15625,0
43550,0.516602,-0.816895,0.157715,0
43570,0.510742,-0.816895,0.15918,0
43590,0.504883,-0.834473,0.161133,0
43610,0.520996,-0.844727,0.149902,0
43630,0.514648,-0.842285,0.147461,0
43650,0.503418,-0.832031,0.147461,0
43670,0.526855,-0.837402,0.143066,0
43690,0.51123,-0.854004,0.137207,0
43710,0.508301,-0.838867,0.133301,0
43730,0.509277,-0.840332,0.121582,0
43750,0.508301,-0.825684,0.114258,0
43770,0.503418,-0.827637,0.111328,0
43790,0.497559,-0.842773,0.100098,0
43810,0.495605,-0.840332,0.0986328,0
43830,0.480469,-0.820312,0.0800781,0
43850,0.487305,-0.801758,0.0751953,0
43870,0.494629,-0.822266,0.0522461,0
43890,0.510742,-0.832031,0.0429688,0
43910,0.486816,-0.823242,0.0415039,0
43930,0.511719,-0.805664,0.0219727,0
43950,0.530762,-0.803223,0.00976562,0
43970,0.526855,-0.831055,0.0126953,0
43990,0.523926,-0.82373,0.0341797,0
44010,0.529785,-0.805176,0.0415039,0
44030,0.546875,-0.78418,0.012207,0
44050,0.552246,-0.790527,-0.0131836,0
44070,0.557617,-0.816895,-0.0307617,0
44090,0.57373,-0.822266,-0.0380859,0
44110,0.571289,-0.805664,-0.0356445,0
44130,0.603027,-0.800293,-0.0644531,0
44150,0.612305,-0.795898,-0.0678711,0
44170,0.586426,-0.808594,-0.0688477,0
44190,0.562988,-0.797363,-0.0761719,0
44210,0.599609,-0.778809,-0.0820312,0
44230,0.63623,-0.770996,-0.097168,0
44250,0.619629,-0.784668,-0.104004,0
44270,0.596191,-0.78418,-0.111328,0
44290,0.608887,-0.783203,-0.110352,0
44310,0.618164,-0.760254,-0.125488,0
44330,0.59668,-0.737305,-0.12207,0
44350,0.591309,-0.748535,-0.145508,0
44370,0.611816,-0.757324,-0.180664,0
44390,0.617188,-0.777344,-0.179688,0
44410,0.609863,-0.754883,-0.181641,0
44430,0.63916,-0.755371,-0.191406,0
44450,0.646973,-0.752441,-0.184082,0
44470,0.642578,-0.744141,-0.197754,0
44490,0.624512,-0.744629,-0.207031,0
44510,0.625,-0.743652,-0.211426,0
44530,0.651367,-0.742188,-0.205566,0
44550,0.655273,-0.70752,-0.210938,0
44570,0.659668,-0.693848,-0.226074,0
44590,0.666992,-0.696289,-0.233398,0
44610,0.673828,-0.696777,-0.226074,0
44630,0.638184,-0.670898,-0.217285,0
44650,0.63916,-0.657715,-0.252441,0
44670,0.696777,-0.682617,-0.257324,0
44690,0.705078,-0.683594,-0.243652,0
44710,0.687012,-0.657715,-0.23291,0
44730,0.687012,-0.649414,-0.252441,0
44750,0.718262,-0.65332,-0.25,0
44770,0.739258,-0.64209,-0.234375,0
44790,0.734863,-0.607422,-0.244629,0
44810,0.726562,-0.608887,-0.257812,0
44830,0.730469,-0.604004,-0.244629,0
44850,0.762207,-0.599609,-0.25293,0
44870,0.741211,-0.579102,-0.242188,0
44890,0.719727,-0.557129,-0.237305,0
44910,0.720215,-0.542969,-0.252441,0
44930,0.770508,-0.540039,-0.283203,0
44950,0.827637,-0.584961,-0.247559,0
44970,0.82373,-0.568848,-0.189941,0
44990,0.803223,-0.51123,-0.193848,0
45010,0.819824,-0.489258,-0.239746,0
45020,0.874512,-0.507324,-0.254395,0
45040,0.894043,-0.53125,-0.224609,0
45060,0.878906,-0.498535,-0.206543,0
45080,0.886719,-0.484863,-0.228516,0
45100,0.907715,-0.47168,-0.233887,0
45120,0.90918,-0.45752,-0.230469,0
45140,0.888184,-0.431641,-0.211426,0
45160,0.870605,-0.445312,-0.20459,0
45180,0.861816,-0.461914,-0.214355,0
45200,0.865723,-0.430176,-0.189453,0
45220,0.875977,-0.413574,-0.19043,0
45240,0.876953,-0.406738,-0.196777,0
45260,0.887207,-0.409668,-0.154297,0
45280,0.900391,-0.418945,-0.125977,0
45300,0.919434,-0.407715,-0.135254,0
45320,0.9375,-0.403809,-0.147461,0
45340,0.941406,-0.391602,-0.124023,0
45360,0.923828,-0.386719,-0.108398,0
45380,0.922852,-0.417969,-0.0976562,0
45400,0.90625,-0.405273,-0.0966797,0
45420,0.904297,-0.425293,-0.110352,0
45440,0.910156,-0.432617,-0.0888672,0
45460,0.906738,-0.425293,-0.0766602,0
45480,0.928223,-0.418457,-0.0830078,0
45500,0.911133,-0.436523,-0.0546875,0
45520,0.873047,-0.456543,-0.0444336,0
45540,0.875,-0.488281,-0.0371094,0
45560,0.884766,-0.498535,-0.0209961,0
45580,0.875,-0.447266,-0.00195312,0
45600,0.858887,-0.443359,-0.0107422,0
45620,0.84375,-0.461914,0.0107422,0
45640,0.822266,-0.484863,0.0410156,0
45660,0.829102,-0.496582,0.0170898,0
45680,0.849121,-0.490234,0.0424805,0
45700,0.821289,-0.508789,0.0527344,0
45720,0.783691,-0.54248,0.0551758,0
45740,0.786133,-0.55957,0.0561523,0
45760,0.777344,-0.584961,0.081543,0
45780,0.784668,-0.601562,0.0756836,0
45800,0.782227,-0.586914,0.0913086,0
45820,0.791504,-0.578125,0.101074,0
45840,0.763184,-0.625488,0.100098,0
45860,0.729492,-0.650391,0.115723,0
45880,0.736328,-0.65625,0.133789,0
45900,0.746582,-0.604492,0.135254,0
45920,0.727539,-0.580566,0.134277,0
45940,0.69873,-0.645508,0.141602,0
45960,0.691406,-0.698242,0.133301,0
45980,0.679688,-0.671387,0.150391,0
46000,0.693848,-0.632812,0.151855,0
46020,0.708496,-0.625977,0.142578,0
46040,0.683594,-0.653809,0.154297,0
46060,0.612305,-0.690918,0.160645,0
46080,0.597656,-0.708496,0.148926,0
46100,0.614258,-0.700195,0.157715,0
46120,0.618164,-0.649902,0.115234,0
46140,0.666016,-0.68457,0.12207,0
46160,0.618164,-0.757324,0.137695,0
46180,0.611328,-0.739746,0.133789,0
46200,0.617676,-0.710449,0.149902,0
46220,0.632324,-0.714844,0.143555,0
46240,0.618652,-0.725586,0.148438,0
46260,0.616211,-0.727051,0.151367,0
46280,0.628418,-0.713379,0.163574,0
46300,0.61377,-0.706055,0.158203,0
46320,0.615234,-0.71875,0.138184,0
46340,0.603027,-0.729492,0.146484,0
46360,0.591797,-0.727051,0.138672,0
46380,0.617676,-0.703125,0.143555,0
46400,0.607422,-0.724121,0.13623,0
46420,0.579102,-0.717773,0.125,0
46440,0.595215,-0.743164,0.128906,0
46460,0.600098,-0.762695,0.125,0
46480,0.596191,-0.74707,0.116211,0
46500,0.577637,-0.754883,0.108887,0
46520,0.575195,-0.745605,0.0952148,0
46540,0.588379,-0.769043,0.0839844,0
46560,0.592773,-0.77832,0.0864258,0
46580,0.601562,-0.767578,0.0712891,0
46600,0.595703,-0.766113,0.0683594,0
46620,0.601562,-0.776855,0.0664062,0
46640,0.604004,-0.772461,0.0639648,0
46660,0.617676,-0.766113,0.0551758,0
46680,0.629395,-0.775879,0.0429688,0
46700,0.612793,-0.787109,0.0458984,0
46720,0.601562,-0.776367,0.046875,0
46740,0.621094,-0.768066,0.0439453,0
46760,0.623535,-0.76709,0.0302734,0
46780,0.632324,-0.775879,0.0146484,0
46800,0.625488,-0.772461,0.00195312,0
46820,0.614746,-0.78418,-0.0131836,0
46840,0.632812,-0.788574,-0.0200195,0
46860,0.632324,-0.77832,-0.0292969,0
46880,0.638672,-0.776855,-0.0449219,0
46900,0.616699,-0.766602,-0.059082,0
46920,0.616699,-0.769531,-0.0761719,0
46940,0.64209,-0.781738,-0.0883789,0
46960,0.64209,-0.78418,-0.102539,0
46980,0.625977,-0.769043,-0.109375,0
47000,0.620605,-0.759277,-0.115723,0
47010,0.608887,-0.750488,-0.133789,0
47030,0.608887,-0.736816,-0.15918,0
47050,0.64209,-0.74707,-0.159668,0
47070,0.646973,-0.730957,-0.168457,0
47090,0.64209,-0.707031,-0.195801,0
47110,0.643555,-0.707031,-0.208496,0
47130,0.64502,-0.702637,-0.220215,0
47150,0.633301,-0.717285,-0.207031,0
47170,0.674316,-0.712402,-0.20752,0
47190,0.707031,-0.695312,-0.244629,0
47210,0.700195,-0.647461,-0.26709,0
47230,0.675781,-0.662598,-0.241699,0
47250,0.676758,-0.69043,-0.262695,0
47270,0.703613,-0.671875,-0.269531,0
47290,0.719727,-0.651855,-0.27832,0
47310,0.739746,-0.595215,-0.289551,0
47330,0.729004,-0.606445,-0.289062,0
47350,0.713867,-0.603516,-0.297852,0
47370,0.706055,-0.612793,-0.304688,0
47390,0.72998,-0.578613,-0.316406,0
47410,0.754395,-0.544434,-0.333984,0
47430,0.737305,-0.546875,-0.344238,0
47450,0.737305,-0.54834,-0.357422,0
47470,0.754883,-0.560547,-0.366699,0
47490,0.769531,-0.539062,-0.352539,0
47510,0.803223,-0.529785,-0.35498,0
47530,0.80957,-0.520508,-0.351562,0
47550,0.804688,-0.523926,-0.363281,0
47570,0.805664,-0.527344,-0.350586,0
47590,0.82373,-0.518066,-0.342285,0
47610,0.81543,-0.490234,-0.336426,0
47630,0.819824,-0.460938,-0.347656,0
47650,0.831055,-0.470703,-0.358398,0
47670,0.824219,-0.489258,-0.344238,2001
47690,0.801758,-0.489746,-0.333008,0
47710,0.799316,-0.466797,-0.337402,0
47730,0.811523,-0.437988,-0.345215,0
47750,0.828125,-0.432129,-0.334961,0
47770,0.808594,-0.441895,-0.325195,0
47790,0.793457,-0.462891,-0.318359,0
47810,0.790527,-0.476074,-0.321777,0
47830,0.816895,-0.473633,-0.320801,0
47850,0.82666,-0.427734,-0.344727,0
47870,0.79541,-0.430664,-0.321777,0
47890,0.75,-0.475586,-0.306152,0
47910,0.709473,-0.499512,-0.322266,0
47930,0.644531,-0.475098,-0.290039,0
47950,0.522461,-0.420898,-0.242188,0
47970,0.408691,-0.361328,-0.23877,0
47990,0.302246,-0.327637,-0.217773,0
48010,0.217285,-0.308594,-0.181641,0
48030,0.179199,-0.337891,-0.155273,0
48050,0.192871,-0.367676,-0.148438,0
48070,0.29834,-0.40918,-0.1875,0
48090,0.428223,-0.458008,-0.136719,0
48110,0.60791,-0.501465,-0.0693359,0
48130,0.743652,-0.562012,-0.0336914,0
48150,0.831055,-0.631348,-0.0244141,0
48170,0.954102,-0.665527,0.0214844,0
48190,0.992676,-0.75,0.136719,0
48210,0.969238,-0.771484,0.166016,0
48230,0.872559,-0.843262,0.0893555,0
48260,0.835938,-1.11914,0.078125,0
48280,0.860352,-1.20703,0.14502,0
48300,0.863281,-1.16504,0.0424805,0
48320,0.823242,-1.25879,0.0874023,0
48340,0.703613,-1.27002,0.216309,0
48350,0.473633,-1.13721,0.388184,0
48360,0.395996,-0.724121,0.36377,0
48370,0.429199,-0.728027,0.422852,0
48390,0.471191,-0.802734,0.455566,0
48410,0.475098,-0.834961,0.441895,0
48430,0.523926,-0.833008,0.408691,0
48450,0.570312,-0.834961,0.42627,0
48470,0.562012,-0.849609,0.419434,0
48480,0.571777,-0.847656,0.41748,0
48500,0.542969,-0.848145,0.421875,0
48520,0.494141,-0.815918,0.41748,0
48540,0.449707,-0.811523,0.444824,0
48560,0.399414,-0.82666,0.462402,0
48580,0.304199,-0.817383,0.492676,0
48600,0.304199,-0.780762,0.481934,0
48620,0.241699,-0.748047,0.467773,0
48640,0.158203,-0.754883,0.442871,0
48660,0.0864258,-0.770508,0.478516,0
48680,0.0390625,-0.811035,0.408691,0
48700,0.0878906,-0.817871,0.424805,0
48720,0.158203,-0.752441,0.425781,0
48740,0.187012,-0.648926,0.468262,0
48760,0.257324,-0.69873,0.425293,0
48780,0.32373,-0.810547,0.415527,0
48800,0.329102,-0.791504,0.363281,0
48820,0.308594,-0.754395,0.337891,0
48840,0.3125,-0.752441,0.356445,0
48860,0.290527,-0.799316,0.395508,0
48880,0.287109,-0.80127,0.385254,0
48900,0.365723,-0.790039,0.358887,0
48920,0.40625,-0.76123,0.411621,0
48940,0.428223,-0.774414,0.422363,0
48960,0.435547,-0.804688,0.388184,0
48980,0.436523,-0.701172,0.379395,0
49000,0.45459,-0.724609,0.387695,0
49020,0.457031,-0.811035,0.375,0
49040,0.42041,-0.79541,0.384277,0
49060,0.419434,-0.766602,0.384277,0
49080,0.424316,-0.785156,0.394043,0
49100,0.407227,-0.813965,0.385254,0
49120,0.397461,-0.813477,0.39502,0
49140,0.375977,-0.779297,0.397949,0
49160,0.381836,-0.780762,0.394043,0
49180,0.378418,-0.78418,0.407715,0
49200,0.366211,-0.791992,0.408203,0
49220,0.374512,-0.757812,0.415527,0
49240,0.381348,-0.754883,0.437012,0
49260,0.390137,-0.737793,0.427246,0
49280,0.401367,-0.73877,0.418457,0
49300,0.401855,-0.757812,0.415039,0
49320,0.387207,-0.748047,0.416992,0
49340,0.380371,-0.763672,0.424805,0
49360,0.387207,-0.756348,0.427246,0
49380,0.375977,-0.749023,0.437012,0
49400,0.398926,-0.728027,0.437988,0
49420,0.413086,-0.725098,0.416504,0
49440,0.400879,-0.729492,0.418457,0
49460,0.42041,-0.729004,0.44043,0
49480,0.44043,-0.752441,0.456055,0
49500,0.470703,-0.73584,0.441406,0
49520,0.46582,-0.669434,0.441406,0
49540,0.464355,-0.70752,0.446777,0
49560,0.46875,-0.750488,0.43457,0
49580,0.460938,-0.731934,0.431152,0
49600,0.460449,-0.695312,0.433105,0
49620,0.449219,-0.69873,0.451172,0
49640,0.445801,-0.695801,0.456055,0
49660,0.445801,-0.688965,0.434082,0
49680,0.460938,-0.687988,0.435059,0
49700,0.46582,-0.702637,0.445312,0
49720,0.479492,-0.719238,0.405762,0
49740,0.485352,-0.711914,0.419922,0
49760,0.492188,-0.699219,0.428223,0
49780,0.501953,-0.716309,0.415039,0
49800,0.53418,-0.74707,0.399414,0
49820,0.549316,-0.747559,0.400879,0
49840,0.555664,-0.764648,0.419922,0
49860,0.558594,-0.783203,0.431641,0
49880,0.528809,-0.772461,0.43457,0
49900,0.441406,-0.741699,0.459961,0
49920,0.382324,-0.734863,0.47168,0
49940,0.369141,-0.744629,0.47998,0
49960,0.370117,-0.73877,0.469238,0
49980,0.348145,-0.74707,0.458496,0
50000,0.320312,-0.758789,0.437012,0
50020,0.319336,-0.760254,0.442871,0
50040,0.33252,-0.765137,0.424316,0
50060,0.364258,-0.768555,0.415039,0
50070,0.396484,-0.771484,0.395508,0
50090,0.391602,-0.781738,0.390137,0
50110,0.383789,-0.759277,0.382324,0
50130,0.355957,-0.792969,0.37207,0
50150,0.335938,-0.814453,0.366699,0
50160,0.287109,-0.797852,0.388184,0
50180,0.293945,-0.768066,0.382812,0
50200,0.330566,-0.791504,0.368164,0
50220,0.356934,-0.831543,0.342773,0
50240,0.359863,-0.806641,0.344238,0
50260,0.362305,-0.803711,0.37207,0
50280,0.378418,-0.79541,0.365723,0
50300,0.420898,-0.805176,0.355469,0
50320,0.416016,-0.830566,0.316406,0
50340,0.387207,-0.820312,0.355957,0
50360,0.36377,-0.807129,0.371582,0
50380,0.369141,-0.819824,0.36084,0
50400,0.353027,-0.779297,0.347656,0
50420,0.327148,-0.78418,0.370605,0
50440,0.325195,-0.826172,0.354004,0
50460,0.328125,-0.847168,0.368164,0
50480,0.347656,-0.820801,0.342285,0
50500,0.348633,-0.763184,0.336914,0
50520,0.372559,-0.80957,0.317871,0
50540,0.370605,-0.842285,0.329102,0
50560,0.355957,-0.837402,0.322754,0
50580,0.354492,-0.822266,0.327148,0
50600,0.385742,-0.8125,0.325684,0
50620,0.382324,-0.799805,0.305664,0
50640,0.353027,-0.819336,0.279297,0
50660,0.317383,-0.799805,0.291992,0
50680,0.341797,-0.806641,0.304199,0
50700,0.409668,-0.786621,0.328125,0
50720,0.454102,-0.789062,0.275391,0
50740,0.452148,-0.782715,0.290039,0
50760,0.444336,-0.816406,0.286133,0
50780,0.456055,-0.851562,0.26416,0
50800,0.461914,-0.850586,0.250977,0
50820,0.469727,-0.845215,0.250977,0
50840,0.462891,-0.834961,0.279297,0
50860,0.449219,-0.818848,0.255859,0
50880,0.459961,-0.824219,0.227539,0
50900,0.484375,-0.824707,0.217285,0
50920,0.491699,-0.820312,0.239746,0
50940,0.461914,-0.801758,0.217285,0
50960,0.467285,-0.80127,0.213379,0
50980,0.48877,-0.80957,0.209473,0
51000,0.481445,-0.783203,0.199219,0
51020,0.458984,-0.778809,0.18457,0
51040,0.436035,-0.79834,0.162109,0
51090,0.558594,-0.743652,0.218262,0
51110,0.556641,-0.73877,0.180664,0
51130,0.573242,-0.751953,0.166992,0
51140,0.644531,-0.750488,0.169434,0
51150,0.644043,-0.745605,0.152344,0
51170,0.621582,-0.761719,0.145508,0
51190,0.603516,-0.763184,0.151367,0
51210,0.664551,-0.71875,0.0917969,0
51210,0.695312,-0.708984,0.120117,0
51230,0.660645,-0.699219,0.112793,0
51240,0.66748,-0.705566,0.11084,0
51260,0.699219,-0.699707,0.123535,0
51280,0.71875,-0.655273,0.110352,0
51300,0.717285,-0.650391,0.0883789,0
51320,0.693359,-0.641113,0.0908203,0
51340,0.722168,-0.657227,0.111816,0
51360,0.775391,-0.618652,0.119141,0
51380,0.76416,-0.580078,0.0795898,0
51400,0.793945,-0.564941,0.0585938,0
51420,0.819824,-0.566406,0.0522461,0
51440,0.849121,-0.534668,0.0571289,0
51460,0.883789,-0.493164,0.0415039,0
51480,0.897461,-0.478027,0.0224609,0
51500,0.92334,-0.477539,0.0131836,0
51520,0.949219,-0.476562,0.0170898,0
51540,0.982422,-0.493164,0.0170898,0
51560,0.991699,-0.538574,0.0244141,0
51580,0.935547,-0.575684,0.078125,0
51600,0.844727,-0.588867,0.0859375,0
51620,0.867188,-0.646973,0.129395,0
51640,0.835938,-0.676758,0.200684,0
51660,0.754883,-0.677734,0.222168,0
51680,0.668457,-0.700195,0.236816,0
51700,0.628418,-0.711914,0.271973,0
51720,0.560059,-0.790527,0.268555,0
51740,0.470703,-0.789062,0.289551,0
51760,0.389648,-0.773926,0.282715,0
51780,0.353516,-0.835449,0.285156,0
51800,0.291992,-0.852539,0.278809,0
51820,0.214355,-0.859375,0.273926,0
51840,0.196289,-0.874512,0.26416,0
51860,0.222656,-0.910645,0.262695,0
51880,0.196289,-0.908203,0.239746,0
51900,0.128906,-0.902832,0.256836,0
51920,0.119629,-0.892578,0.280273,0
51940,0.124023,-0.890137,0.283203,0
51960,0.17627,-0.892578,0.261719,0
51980,0.22998,-0.894043,0.25,0
52000,0.23877,-0.901855,0.22998,0
52010,0.255371,-0.883301,0.225586,0
52030,0.245605,-0.89209,0.227051,0
52050,0.248047,-0.927246,0.220703,0
52070,0.27002,-0.900391,0.204102,0
52090,0.268066,-0.851074,0.243652,0
52110,0.288086,-0.888672,0.255859,0
52130,0.260254,-0.90332,0.214844,0
52150,0.237305,-0.911621,0.23584,0
52170,0.250488,-0.881348,0.255371,0
52190,0.279297,-0.852051,0.223633,0
52210,0.26123,-0.882324,0.230469,0
52230,0.252441,-0.891602,0.251953,0
52250,0.288086,-0.893066,0.233887,0
52270,0.340332,-0.892578,0.22168,0
52290,0.326172,-0.894531,0.227051,0
52310,0.296875,-0.894531,0.233398,0
52330,0.294434,-0.891602,0.217773,0
52350,0.307617,-0.885254,0.21875,0
52370,0.307129,-0.885742,0.195312,0
52390,0.290527,-0.870117,0.154785,0
52410,0.282715,-0.881348,0.141602,0
52430,0.302246,-0.921387,0.182617,0
52450,0.326172,-0.912109,0.202637,0
52470,0.346191,-0.901855,0.192383,0
52490,0.351562,-0.885254,0.189941,0
52510,0.350098,-0.89502,0.187012,0
52530,0.378906,-0.914062,0.181641,0
52550,0.382812,-0.930664,0.135742,0
52570,0.369629,-0.92627,0.14209,0
52590,0.380859,-0.92627,0.144531,0
52610,0.399902,-0.910645,0.141113,0
52630,0.388184,-0.884766,0.122559,0
52650,0.379395,-0.872559,0.128418,0
52670,0.377441,-0.89209,0.121094,0
52690,0.376465,-0.901855,0.138672,0
52710,0.407715,-0.881348,0.143066,0
52730,0.410645,-0.863281,0.118164,0
52750,0.416504,-0.882812,0.123047,0
52770,0.449707,-0.865723,0.12793,0
52780,0.478516,-0.862305,0.109375,0
52800,0.477539,-0.84668,0.0961914,0
52820,0.515625,-0.843262,0.0766602,0
52840,0.602539,-0.824219,0.0258789,0
52860,0.641113,-0.82373,0.00195312,0
52880,0.697754,-0.815918,-0.00683594,0
52900,0.70459,-0.813477,-0.0400391,0
52920,0.71875,-0.836914,-0.059082,0
52940,0.698242,-0.88916,-0.0268555,0
52960,0.673828,-0.865234,0.0180664,0
52980,0.637695,-0.850586,0.0449219,0
53000,0.546387,-0.844238,0.0922852,0
53020,0.481934,-0.863281,0.13916,0
53040,0.408691,-0.862305,0.177246,0
53060,0.321289,-0.870117,0.145996,0
53080,0.312012,-0.890137,0.164062,0
53100,0.250977,-0.887695,0.181641,0
53120,0.211426,-0.92334,0.203125,0
53140,0.233887,-0.88916,0.187988,0
53160,0.222168,-0.875977,0.183594,0
53180,0.222656,-0.882812,0.187988,0
53200,0.224609,-0.93457,0.178223,0
53220,0.258789,-0.955078,0.189453,0
53240,0.248535,-0.927246,0.186523,2000
53260,0.248535,-0.899902,0.193848,0
53280,0.263672,-0.90918,0.189453,0
53300,0.266602,-0.907227,0.182617,0
53320,0.30127,-0.895996,0.180176,0
53340,0.29834,-0.896484,0.192871,0
53360,0.276367,-0.939453,0.143066,0
53380,0.297852,-0.913086,0.148438,0
53400,0.296875,-0.912109,0.184082,0
53420,0.291016,-0.916016,0.151855,0
53440,0.277832,-0.876953,0.149902,0
53460,0.250977,-0.884277,0.168945,0
53480,0.270508,-0.936035,0.118652,0
53500,0.274902,-0.949219,0.162598,0
53520,0.267578,-0.913086,0.161133,0
53540,0.287598,-0.896973,0.144531,0
53560,0.270996,-0.941406,0.166016,0
53580,0.279785,-0.952637,0.158691,0
53600,0.302246,-0.915527,0.183594,0
53620,0.302734,-0.908203,0.173828,0
53640,0.328125,-0.922852,0.155273,0
53660,0.318359,-0.931641,0.155273,0
53680,0.321777,-0.935059,0.146973,0
53700,0.323242,-0.914551,0.133789,0
53720,0.334961,-0.908691,0.142578,0
53740,0.333496,-0.893555,0.13623,0
53760,0.338379,-0.893066,0.128418,0
53780,0.345703,-0.880859,0.123535,0
53800,0.381836,-0.887695,0.112305,0
53820,0.409668,-0.881348,0.108398,0
53840,0.418945,-0.885254,0.108398,0
53860,0.453613,-0.881348,0.0849609,0
53880,0.5,-0.874512,0.0703125,0
53900,0.500488,-0.880371,0.0581055,0
53920,0.470215,-0.888672,0.046875,0
53940,0.450195,-0.879395,0.046875,0
53960,0.480469,-0.880859,0.0410156,0
53980,0.498047,-0.891602,0.0385742,0
54000,0.481934,-0.911621,0.0268555,0
54020,0.444824,-0.933105,0.0498047,0
54040,0.414551,-0.9375,0.0454102,0
54060,0.394043,-0.915527,0.0854492,0
54080,0.333496,-0.892578,0.103516,0
54100,0.286621,-0.872559,0.134766,0
54120,0.274414,-0.870605,0.136719,0
54140,0.312012,-0.879883,0.154785,0
54160,0.342285,-0.893555,0.161621,0
54180,0.37793,-0.907715,0.144043,0
54200,0.374023,-0.93457,0.144531,0
54220,0.34375,-0.936035,0.149414,0
54240,0.340332,-0.914551,0.141113,0
54260,0.344727,-0.937988,0.126953,0
54280,0.354492,-0.942383,0.134277,0
54300,0.320801,-0.92627,0.148438,0
54320,0.297363,-0.900879,0.157715,0
54340,0.275879,-0.899902,0.165527,0
54360,0.256348,-0.882324,0.162598,0
54380,0.24707,-0.887207,0.164062,0
54400,0.255859,-0.915039,0.162109,0
54420,0.260254,-0.905273,0.166016,0
54440,0.272461,-0.906738,0.175293,0
54460,0.284668,-0.89502,0.162598,0
54480,0.31543,-0.909668,0.164551,0
54500,0.309082,-0.927734,0.151855,0
54520,0.308594,-0.917969,0.144043,0
54540,0.31543,-0.928711,0.145508,0
54560,0.342285,-0.921387,0.15332,0
54580,0.346191,-0.895508,0.155762,0
54600,0.332031,-0.90332,0.13916,0
54620,0.333496,-0.90625,0.12793,0
54640,0.326172,-0.922363,0.114258,0
54660,0.338867,-0.913574,0.124023,0
54680,0.347168,-0.897461,0.119141,0
54700,0.356445,-0.900391,0.10498,0
54720,0.359375,-0.891113,0.120605,0
54740,0.377441,-0.90918,0.108398,0
54780,0.363281,-0.90625,0.0825195,0
54790,0.346191,-0.899902,0.0800781,0
54810,0.376465,-0.899902,0.0883789,0
54830,0.41748,-0.89502,0.0634766,0
54850,0.377441,-0.902344,0.0410156,0
54870,0.36377,-0.929688,0.046875,0
54890,0.371582,-0.937012,0.0810547,0
54910,0.41748,-0.918457,0.0756836,0
54930,0.470703,-0.940918,0.0283203,0
54950,0.464844,-0.928711,0.0249023,0
54970,0.458008,-0.90918,0.0185547,0
54990,0.463379,-0.910156,0.0341797,0
55010,0.455566,-0.901367,0.0498047,0
55030,0.438477,-0.914062,0.015625,0
55050,0.431641,-0.895996,0.00537109,0
55070,0.467773,-0.867188,0.0175781,0
55090,0.498535,-0.869629,0.00585938,0
55110,0.487793,-0.861328,-0.0317383,0
55130,0.478516,-0.858398,-0.0522461,0
55150,0.501465,-0.85498,-0.0327148,0
55170,0.514648,-0.87207,-0.0180664,0
55190,0.51123,-0.842773,-0.0400391,0
55210,0.531738,-0.837891,-0.0375977,0
55230,0.544434,-0.853516,-0.0327148,0
55250,0.523438,-0.834961,-0.0415039,0
55270,0.51709,-0.825684,-0.0522461,0
55290,0.548828,-0.828125,-0.0439453,0
55310,0.561035,-0.825684,-0.0297852,0
55330,0.560547,-0.796387,-0.0561523,0
55350,0.552734,-0.794922,-0.103027,0
55360,0.549805,-0.796387,-0.10498,0
55380,0.513672,-0.786621,-0.101562,0
55400,0.506836,-0.751953,-0.078125,0
55420,0.595215,-0.73877,-0.0395508,0
55440,0.626465,-0.756348,-0.0595703,0
55460,0.596191,-0.748535,-0.114746,0
55480,0.591309,-0.765137,-0.106445,0
55500,0.578613,-0.791016,-0.100586,0
55520,0.602539,-0.796875,-0.0932617,0
55540,0.631348,-0.815918,-0.0751953,0
55560,0.624023,-0.81543,-0.078125,0
55580,0.617188,-0.804199,-0.0961914,0
55600,0.616211,-0.8125,-0.0839844,0
55620,0.652832,-0.805176,-0.0546875,0
55640,0.650391,-0.806641,-0.0449219,0
55660,0.629395,-0.788086,-0.043457,0
55680,0.621094,-0.783203,-0.0361328,0
55700,0.614746,-0.785156,-0.0219727,0
55720,0.606934,-0.773926,-0.0151367,0
55740,0.638672,-0.774902,0.0107422,0
55760,0.669434,-0.759766,0.00292969,0
55780,0.645508,-0.769043,-0.0117188,0
55800,0.626465,-0.759277,0.00683594,0
55820,0.609863,-0.76416,0.0126953,0
55840,0.62207,-0.750488,0.0112305,0
55860,0.651855,-0.76123,0.00537109,0
55880,0.638672,-0.776855,0.00634766,0
55900,0.605957,-0.773438,0.0078125,0
55920,0.610352,-0.756836,0.015625,0
55940,0.631348,-0.756348,0.0224609,0
55960,0.605957,-0.78418,0.0400391,0
55980,0.580566,-0.769043,0.0478516,0
56000,0.624512,-0.764648,0.0483398,0
56020,0.629883,-0.741211,0.0664062,0
56040,0.620117,-0.731445,0.0522461,0
56060,0.624512,-0.750977,0.043457,0
56080,0.604004,-0.760254,0.0639648,0
56100,0.599121,-0.777832,0.0869141,0
56120,0.597656,-0.772461,0.0966797,0
56140,0.598145,-0.78418,0.0688477,0
56160,0.61084,-0.802246,0.0693359,0
56180,0.618164,-0.798828,0.074707,0
56200,0.622559,-0.781738,0.0917969,0
56220,0.628906,-0.786133,0.0981445,0
56240,0.626953,-0.803223,0.0893555,0
56260,0.621094,-0.805664,0.11377,0
56280,0.618164,-0.796387,0.131836,0
56300,0.618652,-0.785645,0.126953,0
56320,0.633789,-0.775879,0.131836,0
56340,0.633789,-0.776855,0.133789,0
56360,0.637695,-0.78125,0.125977,0
56380,0.616211,-0.788574,0.149902,0
56400,0.57373,-0.756348,0.157715,0
56420,0.571777,-0.75293,0.17041,0
56440,0.579102,-0.756836,0.186035,0
56460,0.598633,-0.746094,0.175293,0
56480,0.597656,-0.708984,0.150391,0
56500,0.572266,-0.705566,0.154785,0
56520,0.555176,-0.737793,0.191895,0
56540,0.544922,-0.766113,0.229492,0
56560,0.552734,-0.748047,0.194824,0
56580,0.560547,-0.709473,0.214844,0
56600,0.572266,-0.746094,0.199707,0
56620,0.523438,-0.794922,0.197266,0
56640,0.473145,-0.843262,0.213379,0
56660,0.529297,-0.809082,0.23584,0
56680,0.547852,-0.768066,0.222168,0
56700,0.522949,-0.773438,0.213379,0
56720,0.473145,-0.854004,0.235352,0
56740,0.446289,-0.873047,0.233887,0
56760,0.453613,-0.843262,0.233887,0
56780,0.457031,-0.839355,0.22998,0
56800,0.428711,-0.853516,0.23291,0
56820,0.408203,-0.85498,0.258301,0
56840,0.40625,-0.836426,0.253418,0
56860,0.421875,-0.822266,0.255859,0
56880,0.402344,-0.834473,0.272949,0
56900,0.378906,-0.852539,0.256348,0
56920,0.383789,-0.871094,0.260254,0
56940,0.393066,-0.854004,0.251465,0
56960,0.371094,-0.821289,0.22998,0
56980,0.352051,-0.827637,0.247559,0
57000,0.34375,-0.848145,0.248047,0
57020,0.35498,-0.851074,0.239746,0
57040,0.378418,-0.841797,0.234863,0
57060,0.382324,-0.831543,0.233887,0
57080,0.374023,-0.836426,0.241211,0
57100,0.366211,-0.859375,0.233887,0
57120,0.36377,-0.859375,0.25,0
57140,0.32959,-0.867676,0.234375,0
57160,0.335938,-0.854004,0.204102,0
57180,0.342773,-0.871094,0.186523,0
57200,0.344727,-0.871094,0.204102,0
57220,0.355469,-0.866699,0.214844,0
57240,0.351562,-0.85498,0.217773,0
57260,0.365234,-0.876465,0.199219,0
57280,0.375,-0.888184,0.207031,0
57290,0.379883,-0.882324,0.207031,0
57320,0.382324,-0.885742,0.208008,0
57330,0.369141,-0.885254,0.188965,0
57350,0.366211,-0.896973,0.174805,0
57370,0.376465,-0.898926,0.181641,0
57390,0.369141,-0.888184,0.184082,0
57410,0.364746,-0.898438,0.166016,0
57430,0.387695,-0.906738,0.155762,0
57450,0.35498,-0.910156,0.142578,0
57470,0.333496,-0.91748,0.151367,0
57490,0.339355,-0.891602,0.14209,0
57510,0.342285,-0.882324,0.130371,0
57530,0.333984,-0.882812,0.135742,0
57550,0.323242,-0.893555,0.112793,0
57570,0.345215,-0.904785,0.0874023,0
57590,0.342285,-0.899902,0.107422,0
57610,0.34375,-0.876465,0.108887,0
57630,0.358887,-0.886719,0.097168,0
57650,0.374023,-0.908691,0.0771484,0
57670,0.372559,-0.921387,0.0717773,0
57690,0.364746,-0.914062,0.0654297,0
57710,0.37793,-0.896973,0.0717773,0
57730,0.380371,-0.899414,0.0629883,0
57750,0.394531,-0.905273,0.0307617,0
57770,0.401367,-0.913086,0.0234375,0
57790,0.393066,-0.914551,0.0258789,0
57810,0.39502,-0.899902,0.0302734,0
57830,0.399902,-0.885742,0.0288086,0
57850,0.415527,-0.891113,-0.000976562,0
57870,0.418457,-0.905273,-0.00488281,0
57890,0.400879,-0.901367,0.00732422,0
57910,0.391602,-0.875977,-0.00439453,0
57930,0.42041,-0.864258,-0.0336914,0
57950,0.457031,-0.869629,-0.043457,0
57970,0.466797,-0.876953,-0.00683594,0
57990,0.473633,-0.864258,-0.0136719,0
58010,0.48584,-0.857422,-0.0327148,0
58030,0.502441,-0.84082,-0.0332031,0
58050,0.488281,-0.826172,-0.012207,0
58070,0.463379,-0.82959,-0.0117188,0
58090,0.463379,-0.852539,-0.0708008,0
58110,0.503906,-0.891602,-0.12207,0
58130,0.53125,-0.878418,-0.126465,0
58150,0.541504,-0.858887,-0.107422,0
58170,0.541016,-0.845215,-0.0727539,0
58190,0.532715,-0.841309,-0.0849609,0
58210,0.521973,-0.838867,-0.118652,0
58230,0.551758,-0.839844,-0.155762,0
58250,0.594238,-0.813477,-0.115723,0
58270,0.612793,-0.785156,-0.0859375,0
58290,0.606934,-0.778809,-0.0888672,0
58310,0.595703,-0.77832,-0.123047,0
58330,0.604492,-0.768066,-0.125977,0
58350,0.629395,-0.738281,-0.0795898,0
58370,0.627441,-0.708984,-0.0791016,0
58390,0.625488,-0.724121,-0.118652,0
58410,0.623535,-0.760254,-0.162598,0
58430,0.617188,-0.785156,-0.152832,0
58450,0.624023,-0.758789,-0.142578,0
58470,0.630859,-0.743652,-0.14502,0
58490,0.655762,-0.770508,-0.175781,0
58510,0.69043,-0.79541,-0.171387,0
58530,0.681641,-0.786621,-0.15625,0
58550,0.67627,-0.760742,-0.140625,0
58570,0.674805,-0.741211,-0.150391,0
58590,0.679688,-0.744629,-0.149414,0
58610,0.698242,-0.749023,-0.160645,0
58630,0.688477,-0.742676,-0.162109,0
58650,0.66748,-0.740723,-0.174316,0
58670,0.658203,-0.726562,-0.174805,0
58690,0.655273,-0.729004,-0.168945,0
58710,0.634766,-0.722656,-0.163574,0
58730,0.661133,-0.702637,-0.168945,0
58750,0.691406,-0.697266,-0.169434,0
58770,0.727539,-0.693848,-0.174805,0
58790,0.716797,-0.700195,-0.160156,0
58810,0.720703,-0.670898,-0.16748,0
58830,0.736328,-0.651855,-0.164062,0
58850,0.756348,-0.63623,-0.166504,0
58870,0.765137,-0.632812,-0.160156,0
58890,0.760742,-0.623535,-0.165039,0
58910,0.741699,-0.610352,-0.173828,0
58930,0.737305,-0.602539,-0.162109,0
58950,0.73584,-0.59082,-0.168945,0
58970,0.762695,-0.577148,-0.169434,0
58990,0.780273,-0.574219,-0.154297,0
59010,0.783203,-0.575195,-0.163086,0
59030,0.780273,-0.554688,-0.164551,0
59050,0.796875,-0.563477,-0.175781,0
59070,0.8125,-0.557129,-0.15625,0
59090,0.821289,-0.552734,-0.158203,0
59110,0.82373,-0.547363,-0.149414,0
59130,0.837402,-0.528809,-0.154785,0
59150,0.858398,-0.521973,-0.15332,0
59170,0.880371,-0.514648,-0.138672,0
59190,0.895996,-0.526855,-0.129883,0
59210,0.897461,-0.541016,-0.103516,0
59230,0.869629,-0.556152,-0.0708008,0
59250,0.842773,-0.557617,-0.0786133,0
59270,0.840332,-0.543945,-0.090332,0
59290,0.842285,-0.546875,-0.0825195,0
59310,0.839844,-0.547363,-0.0600586,0
59330,0.837891,-0.550293,-0.0410156,0
59350,0.824219,-0.577637,-0.0195312,0
59370,0.791504,-0.594238,-0.00488281,0
59390,0.785645,-0.60791,0.00244141,0
59410,0.78418,-0.609375,0.0322266,0
59430,0.782715,-0.621582,0.0458984,0
59450,0.740723,-0.619629,0.0771484,0
59470,0.71582,-0.60791,0.0996094,0
59490,0.729004,-0.591797,0.113281,0
59510,0.740723,-0.599609,0.114258,0
59530,0.741699,-0.619141,0.12793,0
59550,0.721191,-0.634277,0.123047,0
59570,0.739746,-0.668457,0.136719,0
59590,0.773438,-0.708984,0.141113,0
59610,0.759766,-0.729492,0.172852,0
59630,0.725098,-0.682617,0.179688,0
59650,0.730469,-0.662109,0.181641,0
59670,0.69873,-0.686035,0.20166,0
59690,0.644531,-0.724609,0.172852,0
59710,0.612305,-0.73584,0.193359,0
59730,0.603027,-0.709961,0.200195,0
59750,0.609863,-0.684082,0.1875,0
59770,0.611328,-0.683594,0.192383,0
59790,0.59668,-0.725098,0.199219,0
59810,0.576172,-0.771973,0.183594,0
59830,0.579102,-0.76123,0.208008,0
59850,0.585449,-0.728516,0.217773,0
59870,0.568359,-0.730469,0.214355,0
59890,0.521484,-0.784668,0.187988,0
59910,0.509277,-0.830078,0.195312,0
59930,0.50293,-0.831055,0.188965,0
59950,0.502441,-0.764648,0.1875,0
59970,0.491699,-0.751465,0.180176,0
59990,0.462891,-0.794922,0.169434,0
60010,0.456055,-0.853516,0.168457,0
60030,0.469727,-0.854492,0.181152,0
60050,0.466797,-0.816406,0.174316,0
60070,0.478027,-0.799316,0.166504,0
60090,0.434082,-0.840332,0.160645,0
60110,0.408691,-0.884766,0.155273,0
60130,0.426758,-0.872559,0.142578,0
60150,0.401855,-0.836426,0.154297,0
60170,0.405762,-0.836914,0.140625,0
60190,0.390137,-0.853027,0.144531,0
60210,0.35791,-0.907227,0.128418,0
60230,0.361816,-0.910645,0.115234,0
60250,0.337891,-0.868164,0.0888672,0
60270,0.314941,-0.864746,0.074707,0
60290,0.288086,-0.894531,0.0478516,0
60310,0.291016,-0.913086,0.0336914,0
60330,0.302734,-0.89209,0.0205078,0
60350,0.338379,-0.911621,0.00830078,0
60370,0.35498,-0.921387,-0.00976562,0
60390,0.384766,-0.943359,-0.0170898,0
60410,0.391602,-0.9375,-0.00878906,0
60430,0.391113,-0.921387,-0.0195312,0
60450,0.408203,-0.936035,-0.0288086,0
60470,0.472656,-0.958496,-0.0410156,0
60490,0.48584,-0.951172,-0.0380859,0
60510,0.463867,-0.937012,-0.0703125,0
60530,0.477051,-0.915527,-0.081543,0
60550,0.477051,-0.923828,-0.0742188,0
60570,0.499512,-0.896484,-0.0830078,0
60590,0.50293,-0.861328,-0.109863,0
60610,0.503418,-0.85791,-0.12207,0
60630,0.492676,-0.839355,-0.119141,0
60650,0.501465,-0.83252,-0.128418,0
60670,0.525391,-0.835449,-0.16748,0
60690,0.541016,-0.823242,-0.177734,0
60710,0.525391,-0.79834,-0.180664,0
60730,0.51123,-0.774414,-0.194824,0
60750,0.530762,-0.775879,-0.208008,0
60760,0.550781,-0.790039,-0.211914,0
60780,0.533203,-0.773926,-0.221191,0
60800,0.521484,-0.720215,-0.231934,0
60820,0.56543,-0.700195,-0.271484,0
60840,0.620117,-0.723145,-0.289551,0
60860,0.623535,-0.721191,-0.266602,0
60880,0.602051,-0.699707,-0.267578,0
60900,0.603516,-0.689453,-0.29248,0
60920,0.681641,-0.695801,-0.357422,0
60940,0.714355,-0.693359,-0.326172,0
60960,0.669434,-0.648926,-0.336426,0
60980,0.644531,-0.616699,-0.355469,0
61000,0.628418,-0.612305,-0.339355,0
61020,0.63916,-0.623047,-0.316406,0
61040,0.71875,-0.608398,-0.334961,0
61060,0.74707,-0.612793,-0.354004,0
61080,0.728027,-0.603516,-0.368652,0
61100,0.719727,-0.572266,-0.348633,0
61120,0.785645,-0.538086,-0.306641,0
61140,0.804199,-0.487793,-0.296387,0
61160,0.78125,-0.489746,-0.329102,0
61180,0.768555,-0.490723,-0.360352,0
61200,0.798828,-0.490723,-0.344727,0
61220,0.807129,-0.472656,-0.319824,0
61240,0.835449,-0.462891,-0.311035,0
61260,0.887207,-0.466309,-0.262695,0
61280,0.906738,-0.459473,-0.262695,0
61300,0.922852,-0.436035,-0.261719,0
61320,0.958496,-0.402344,-0.213379,0
61340,0.988281,-0.375977,-0.191406,0
61360,0.979492,-0.367676,-0.21875,0
61380,0.953125,-0.391113,-0.227051,0
61400,0.928223,-0.418457,-0.208496,0
61420,0.938965,-0.409668,-0.158203,0
61440,0.934082,-0.363281,-0.125,0
61460,0.935547,-0.335938,-0.146484,0
61480,0.931641,-0.37207,-0.139648,0
61500,0.904297,-0.406738,-0.111328,0
61520,0.887207,-0.425781,-0.100586,0
61540,0.885742,-0.419922,-0.0825195,0
61560,0.894531,-0.405273,-0.0908203,0
61580,0.897461,-0.414062,-0.090332,0
61600,0.89209,-0.425781,-0.0532227,0
61620,0.881348,-0.4375,-0.0141602,0
61640,0.899414,-0.441895,-0.0283203,0
61660,0.917969,-0.448242,-0.0517578,0
61680,0.921387,-0.438965,-0.0258789,0
61700,0.882324,-0.433594,0.00634766,0
61720,0.860352,-0.442871,0.0405273,0
61740,0.880371,-0.451172,0.0571289,0
61760,0.898438,-0.481934,0.0419922,0
61780,0.887695,-0.504883,0.090332,0
61800,0.847656,-0.502441,0.154297,0
61820,0.841309,-0.469727,0.149902,0
61840,0.859863,-0.44043,0.132324,0
61860,0.851562,-0.468262,0.136719,0
61880,0.822754,-0.503906,0.132324,0
61900,0.8125,-0.518555,0.141113,0
61920,0.816406,-0.530273,0.165527,0
61940,0.809082,-0.520508,0.166504,0
61960,0.791992,-0.532715,0.129395,0
61980,0.765137,-0.557617,0.121582,0
62000,0.790527,-0.578125,0.158203,0
62020,0.774414,-0.580078,0.224121,0
62040,0.731934,-0.540039,0.212402,0
62060,0.713379,-0.566406,0.168945,0
62080,0.708984,-0.620605,0.179199,0
62100,0.686035,-0.64502,0.198242,0
62120,0.675781,-0.606934,0.185547,0
62140,0.665039,-0.595215,0.167969,0
62160,0.672363,-0.598633,0.180664,0
62180,0.67334,-0.618652,0.19043,0
62200,0.662598,-0.648926,0.20752,0
62220,0.674316,-0.65625,0.178711,0
62240,0.694336,-0.665527,0.170898,0
62260,0.708008,-0.682129,0.183594,0
62280,0.694824,-0.680176,0.186035,0
62300,0.669922,-0.687988,0.175293,0
62320,0.670898,-0.6875,0.166992,0
62340,0.669434,-0.693359,0.15625,0
62360,0.652832,-0.702637,0.157715,0
62380,0.645508,-0.717285,0.168457,0
62400,0.629883,-0.728516,0.142578,0
62420,0.586914,-0.738281,0.121582,0
62440,0.578125,-0.734375,0.114746,0
62460,0.578125,-0.729492,0.0869141,0
62480,0.599121,-0.76123,0.097168,0
62500,0.578613,-0.772949,0.0976562,0
62520,0.557129,-0.767578,0.0639648,0
62540,0.583008,-0.773438,0.0561523,0
62560,0.591797,-0.806152,0.0649414,0
62580,0.605957,-0.793457,0.0561523,0
62600,0.590332,-0.789551,0.0390625,0
62620,0.549805,-0.808594,0.0214844,0
62640,0.54248,-0.795898,0.00244141,0
62660,0.540527,-0.797852,0.0078125,0
62680,0.536621,-0.793457,-0.00683594,0
62700,0.533691,-0.789062,-0.0390625,0
62720,0.522461,-0.803711,-0.0483398,0
62740,0.520996,-0.809082,-0.0556641,0
62750,0.546875,-0.80957,-0.0712891,0
62770,0.57373,-0.805176,-0.10498,0
62790,0.59375,-0.803223,-0.115723,0
62810,0.589844,-0.796387,-0.112793,0
62830,0.583496,-0.808105,-0.125977,0
62850,0.609375,-0.817871,-0.117676,0
62870,0.609863,-0.799316,-0.146973,0
62890,0.626465,-0.794434,-0.173828,0
62910,0.626953,-0.796875,-0.164551,0
62930,0.610352,-0.783203,-0.163574,0
62950,0.620117,-0.77002,-0.196777,0
62970,0.650879,-0.775879,-0.209961,0
62990,0.66748,-0.769531,-0.217773,0
63010,0.657715,-0.730469,-0.22168,0
63030,0.650879,-0.728027,-0.235352,0
63050,0.652832,-0.72998,-0.229492,0
63070,0.654785,-0.726562,-0.24707,0
63090,0.66748,-0.716797,-0.26416,0
63110,0.663574,-0.695801,-0.277832,0
63130,0.655273,-0.666016,-0.287598,0
63150,0.678223,-0.642578,-0.301758,0
63170,0.69873,-0.662598,-0.322754,0
63190,0.705566,-0.67627,-0.337402,0
63210,0.693359,-0.666504,-0.33252,0
63230,0.684082,-0.646973,-0.354492,0
63250,0.679688,-0.631348,-0.371094,0
63270,0.676758,-0.605957,-0.373047,0
63290,0.683105,-0.603516,-0.38623,0
63310,0.695312,-0.609375,-0.411133,0
63330,0.685547,-0.594727,-0.409668,0
63350,0.689941,-0.57959,-0.412109,0
63370,0.709961,-0.574219,-0.422363,0
63390,0.721191,-0.569824,-0.430664,0
63410,0.706543,-0.564941,-0.433594,0
63430,0.69043,-0.530762,-0.439453,0
63450,0.703613,-0.505859,-0.453125,0
63470,0.718262,-0.506836,-0.459473,0
63490,0.73291,-0.508301,-0.453613,0
63510,0.749023,-0.515137,-0.448242,0
63530,0.768555,-0.519043,-0.450195,0
63550,0.781738,-0.526367,-0.462891,2001
63570,0.789062,-0.499023,-0.468262,0
63590,0.771973,-0.475586,-0.447754,0
63610,0.768066,-0.458008,-0.464844,0
63630,0.774414,-0.488281,-0.458984,0
63650,0.771973,-0.477539,-0.446289,0
63670,0.764648,-0.464355,-0.441895,0
63690,0.772461,-0.452148,-0.449707,0
63710,0.783203,-0.461426,-0.455566,0
63730,0.777344,-0.478027,-0.458984,0
63750,0.757812,-0.483887,-0.449707,0
63770,0.72998,-0.464844,-0.433105,0
63790,0.696777,-0.433594,-0.422852,0
63810,0.650391,-0.41748,-0.411133,0
63830,0.571777,-0.385254,-0.344727,0
63850,0.44873,-0.327637,-0.264648,0
63870,0.353027,-0.312012,-0.313477,0
63890,0.410156,-0.317383,-0.445801,0
63910,0.547363,-0.341797,-0.421387,0
63930,0.566406,-0.36377,-0.301758,0
63950,0.561035,-0.376953,-0.234375,0
63970,0.594727,-0.441895,-0.298828,0
63990,0.703125,-0.497559,-0.311523,0
64010,0.726562,-0.508301,-0.270508,0
64030,0.717773,-0.49707,-0.247559,0
64050,0.750977,-0.535645,-0.304688,0
64070,0.800781,-0.649902,-0.318359,0
64090,0.805664,-0.73291,-0.27002,0
64110,0.814941,-0.777832,-0.286621,0
64130,0.849609,-0.85791,-0.333008,0
64150,0.890137,-0.92041,-0.278809,0
64170,0.863281,-0.908203,-0.204102,0
64190,0.807617,-0.859375,-0.185059,0
64210,0.773926,-0.919434,-0.186035,0
64230,0.734863,-0.970215,-0.119141,0
64250,0.669434,-0.969727,-0.0170898,0
64270,0.616211,-0.913574,-0.0117188,0
64290,0.58252,-0.936035,-0.00341797,0
64310,0.538086,-0.969238,0.012207,0
64330,0.522461,-0.999512,0.0219727,0
64350,0.505859,-0.989746,0.0625,0
64370,0.483887,-0.961914,0.0864258,0
64390,0.46582,-0.964844,0.100098,0
64410,0.42334,-0.967285,0.129883,0
64430,0.397949,-0.967773,0.144043,0
64450,0.378906,-0.95166,0.131836,0
64470,0.319824,-0.929199,0.174805,0
64490,0.27832,-0.920898,0.188477,0
64510,0.302246,-0.924805,0.182617,2000
64530,0.330566,-0.924316,0.1875,0
64550,0.329102,-0.914551,0.198242,0
64570,0.32373,-0.908203,0.195312,0
64590,0.339355,-0.921875,0.175781,0
64610,0.343262,-0.946289,0.177734,0
64630,0.329102,-0.948242,0.196777,0
64650,0.312012,-0.903809,0.182617,0
64670,0.321289,-0.864746,0.174316,0
64690,0.34375,-0.887695,0.219727,0
64710,0.322754,-0.913086,0.229004,0
64730,0.324707,-0.870605,0.229492,0
64750,0.346191,-0.869629,0.216309,0
64770,0.318359,-0.92041,0.202637,0
64790,0.29248,-0.916992,0.210449,0
64810,0.305176,-0.916016,0.203613,0
64830,0.330566,-0.865723,0.183594,0
64850,0.354004,-0.855957,0.18457,0
64870,0.311523,-0.906738,0.172363,0
64890,0.292969,-0.958008,0.17334,0
64910,0.283203,-0.927734,0.207031,0
64930,0.307129,-0.861816,0.205078,0
64950,0.333984,-0.869141,0.166992,0
64970,0.338867,-0.90332,0.152344,0
64990,0.344238,-0.896973,0.162109,0
65010,0.368164,-0.924316,0.17041,0
65030,0.372559,-0.905273,0.169922,0
65050,0.384766,-0.898926,0.158203,0
65070,0.400391,-0.897461,0.127441,0
65090,0.422363,-0.881836,0.119141,0
65110,0.415039,-0.87793,0.137207,0
65130,0.409668,-0.881836,0.132324,0
65150,0.401855,-0.891602,0.12793,0
65170,0.389648,-0.878418,0.114258,0
65190,0.39502,-0.875977,0.117676,0
65210,0.442383,-0.859375,0.126953,0
65230,0.461914,-0.867188,0.110352,0
65250,0.439453,-0.869141,0.10498,0
65270,0.442383,-0.856934,0.110352,0
65290,0.451172,-0.870605,0.125488,0
65310,0.447754,-0.886719,0.117188,0
65330,0.449707,-0.896484,0.0898438,0
65350,0.469727,-0.86084,0.116699,0
65370,0.439941,-0.84375,0.117188,0
65390,0.457031,-0.856934,0.173828,0
65410,0.452637,-0.833984,0.226074,0
65430,0.423828,-0.812988,0.149902,0
65450,0.450684,-0.850586,0.059082,0
65460,0.503418,-0.842773,0.078125,0
65480,0.513672,-0.84668,0.0722656,0
65500,0.536133,-0.852051,0.0883789,0
65520,0.565918,-0.851562,0.0742188,0
65540,0.569824,-0.82373,0.0332031,0
65560,0.595703,-0.8125,0.00830078,0
65580,0.60498,-0.818359,0.00732422,0
65600,0.614746,-0.844727,-0.0180664,0
65620,0.578125,-0.881836,-0.0244141,0
65640,0.560059,-0.851562,0.0195312,0
65660,0.64502,-0.761719,0.0791016,0
65680,0.709961,-0.720703,0.0830078,0
65700,0.706055,-0.682617,0.0219727,0
65720,0.676758,-0.666992,0.0351562,0
65740,0.628906,-0.697266,0.043457,0
65760,0.625,-0.691406,0.0336914,0
65780,0.623535,-0.68457,0.0576172,0
65800,0.63623,-0.666992,0.0546875,0
65820,0.643066,-0.662598,0.0458984,0
65840,0.665527,-0.674805,0.0629883,0
65860,0.666016,-0.666504,0.0625,0
65880,0.680176,-0.662109,0.074707,0
65900,0.69043,-0.661133,0.101562,0
65920,0.711914,-0.647949,0.0888672,0
65940,0.742188,-0.635742,0.0869141,0
65960,0.750488,-0.628418,0.078125,0
65980,0.786621,-0.626953,0.0844727,0
