Timestamp, Acceleration x, Acceleration y, Acceleration z, Marker
20,-0.322754,-0.836914,-0.855469,0
50,-0.318848,-0.661621,-0.792969,0
70,-0.164062,-0.729492,-0.669922,0
90,-0.104004,-0.921875,-0.638184,0
110,-0.186523,-0.68457,-0.625977,0
130,-0.0878906,-0.644043,-0.689453,0
130,-0.100098,-0.72168,-0.630859,0
170,-0.181152,-0.685059,-0.590332,0
190,-0.178711,-0.722168,-0.550293,0
210,-0.140625,-0.81543,-0.486816,0
230,-0.224121,-0.838867,-0.547363,0
250,-0.258301,-0.878906,-0.612793,0
270,-0.236816,-0.915039,-0.594727,0
290,-0.144531,-0.927734,-0.611328,0
310,-0.149414,-0.958496,-0.625488,0
330,-0.15918,-0.945801,-0.633789,0
350,-0.125488,-0.928223,-0.605469,0
370,-0.0649414,-0.956543,-0.585938,0
390,-0.0908203,-0.969238,-0.56543,0
410,-0.0888672,-0.944336,-0.569824,0
430,0.00585938,-0.930176,-0.543945,0
450,0.100098,-0.915039,-0.513672,0
470,0.100586,-0.898926,-0.503418,0
490,0.150391,-0.859863,-0.475098,0
510,0.219238,-0.831543,-0.435059,0
530,0.293945,-0.791992,-0.394043,0
550,0.253418,-0.805176,-0.347168,0
570,0.225586,-0.69873,-0.369629,0
590,0.249512,-0.737305,-0.379395,0
610,0.273438,-0.791992,-0.318359,0
630,0.368164,-0.819824,-0.347656,0
650,0.383301,-0.793457,-0.356934,0
670,0.505371,-0.769531,-0.442383,0
690,0.535645,-0.776855,-0.431641,0
710,0.561035,-0.808105,-0.530273,0
730,0.578613,-0.814453,-0.549805,0
750,0.728516,-0.767578,-0.540527,0
770,0.685059,-0.783691,-0.637695,0
790,0.709961,-0.769043,-0.66748,0
810,0.675293,-0.719238,-0.60791,0
820,0.703613,-0.727051,-0.645508,0
840,0.666504,-0.671387,-0.606934,0
860,0.630371,-0.632324,-0.615723,0
880,0.612793,-0.608398,-0.628906,0
900,0.631836,-0.583496,-0.622559,0
920,0.630859,-0.570312,-0.627441,0
940,0.604492,-0.54248,-0.611816,0
960,0.641113,-0.534668,-0.612793,0
970,0.686523,-0.542969,-0.625488,0
990,0.647949,-0.541504,-0.678223,0
1010,0.638672,-0.514648,-0.730957,0
1030,0.613281,-0.486816,-0.699707,0
1050,0.601074,-0.481934,-0.691406,0
1070,0.578613,-0.455078,-0.699219,0
1090,0.57666,-0.449707,-0.711426,0
1110,0.600586,-0.456055,-0.732422,0
1130,0.586426,-0.455566,-0.735352,0
1150,0.567383,-0.443359,-0.75293,0
1170,0.546387,-0.424805,-0.741699,0
1190,0.466797,-0.430664,-0.753906,0
1210,0.509766,-0.429199,-0.73584,0
1230,0.516602,-0.467285,-0.714844,0
1250,0.491699,-0.446289,-0.748047,0
1270,0.500488,-0.45752,-0.726562,0
1290,0.504395,-0.456543,-0.722168,0
1310,0.512695,-0.449219,-0.725586,0
1320,0.48877,-0.554199,-0.709473,0
1340,0.49707,-0.518555,-0.689941,0
1360,0.465332,-0.529297,-0.684082,0
1380,0.449707,-0.550293,-0.696777,0
1400,0.47168,-0.508789,-0.669434,0
1420,0.421875,-0.598633,-0.645508,0
1440,0.415039,-0.598633,-0.650391,0
1460,0.401855,-0.570801,-0.598633,0
1480,0.400879,-0.588379,-0.578125,0
1500,0.367188,-0.665527,-0.557129,0
1520,0.361816,-0.611328,-0.533203,0
1540,0.36377,-0.658691,-0.485352,0
1560,0.368164,-0.706543,-0.483398,0
1580,0.355957,-0.699219,-0.466309,0
1600,0.353027,-0.744141,-0.414062,0
1620,0.331543,-0.763184,-0.404297,0
1640,0.325195,-0.821289,-0.391113,0
1660,0.352051,-0.839355,-0.356934,0
1680,0.500977,-0.905273,-0.344238,0
1700,0.540039,-1.01172,-0.30127,0
1720,0.355957,-1.03516,-0.272461,0
1740,0.402344,-1.02441,-0.221191,0
1760,0.321777,-1.02344,-0.0649414,0
1780,0.20752,-0.943848,-0.00292969,0
1800,0.167969,-0.962891,0.0419922,0
1820,0.248535,-0.964844,0.109375,0
1840,0.253418,-0.958008,0.116211,0
1860,0.250977,-0.873047,0.13916,0
1880,0.282715,-0.883301,0.138184,0
1900,0.312988,-0.916504,0.166992,0
1920,0.381348,-0.919922,0.222656,0
1940,0.324219,-0.972168,0.230957,0
1960,0.271484,-0.910156,0.200195,0
1980,0.260254,-0.825684,0.217773,0
2020,0.25,-0.864746,0.274902,0
2040,0.257812,-0.850098,0.337402,0
2060,0.242188,-0.948242,0.335449,0
2080,0.10791,-0.902832,0.289551,0
2100,0.0239258,-0.776855,0.40332,0
2120,-0.0268555,-0.771973,0.491699,0
2140,-0.140137,-1.05566,0.544434,0
2160,-0.37793,-1.22461,0.77002,0
2180,-0.253906,-1.0127,0.618164,0
2200,-0.166016,-0.88916,0.567871,0
2220,-0.166992,-0.855469,0.65918,0
2240,-0.0878906,-0.841797,0.602539,0
2260,0.0581055,-0.970215,0.566406,0
2280,-0.111328,-0.824219,0.70166,0
2300,-0.229004,-0.887207,0.684082,0
2320,-0.126465,-0.94873,0.597168,0
2340,-0.0551758,-0.776855,0.64502,0
2360,-0.100098,-0.719727,0.703613,0
2380,-0.183105,-0.806152,0.658691,0
2400,-0.22998,-0.888672,0.564941,0
2420,-0.272461,-0.782715,0.588867,0
2440,-0.15625,-0.856934,0.534668,0
2460,-0.0893555,-0.788086,0.616699,0
2480,-0.0214844,-0.769043,0.586426,0
2500,0.0444336,-0.679199,0.598145,0
2520,0.00390625,-0.73584,0.54541,0
2540,-0.0341797,-0.678223,0.442871,0
2560,-0.0869141,-0.665039,0.55127,0
2580,-0.0341797,-0.693848,0.620117,0
2600,0.0185547,-0.687012,0.643066,0
2620,0.0185547,-0.66748,0.506836,0
2640,-0.20752,-0.594238,0.424316,0
2660,-0.0820312,-0.554688,0.40918,0
2680,0.0527344,-0.654297,0.454102,0
2700,-0.0336914,-0.573242,0.35791,0
2720,-0.242676,-0.451172,0.510254,0
2740,-0.259766,-0.602539,0.652344,0
2760,-0.228516,-0.74707,0.663086,0
2780,-0.270996,-0.782227,0.680176,0
2800,-0.237305,-0.743652,0.756348,0
2820,-0.23584,-0.685547,0.832031,0
2840,-0.260254,-0.725098,0.845703,0
2860,-0.204102,-0.691406,0.795898,0
2880,-0.206055,-0.632812,0.814941,0
2900,-0.214355,-0.700684,0.902832,0
2920,-0.158203,-0.69873,0.848145,0
2940,-0.20166,-0.535156,0.8125,0
2960,-0.21875,-0.496094,0.810547,0
2980,-0.141113,-0.568359,0.743164,0
3000,-0.0566406,-0.541504,0.738281,0
3020,-0.0366211,-0.500488,0.730469,0
3040,-0.0517578,-0.488281,0.698242,0
3060,-0.103516,-0.471191,0.685059,0
3080,-0.23584,-0.376465,0.692871,0
3100,-0.324219,-0.374512,0.670898,0
3120,-0.470215,-0.431152,1.18018,0
3140,-0.697754,-0.546387,1.33008,0
3160,-0.385742,-0.436035,0.861328,0
3200,-0.0795898,-0.609863,0.649902,0
3210,-0.20166,-0.402832,0.557617,0
3240,-0.800293,-0.347656,0.842773,0
3260,-0.744141,-0.502441,0.64502,0
3280,-0.610352,-0.739258,0.579102,0
3300,-0.51709,-0.958984,0.554199,0
3310,-0.549805,-0.841309,0.546387,0
3330,-0.550781,-0.633301,0.578125,0
3350,-0.511719,-0.535645,0.660645,0
3380,-0.410645,-0.428711,0.717773,0
3400,-0.416504,-0.403809,0.756836,0
3420,-0.413086,-0.397949,0.768066,0
3440,-0.403809,-0.41748,0.744629,0
3460,-0.378906,-0.452637,0.726562,0
3480,-0.391602,-0.483887,0.700684,0
3500,-0.412109,-0.509277,0.708496,0
3520,-0.438477,-0.528809,0.710449,0
3540,-0.446777,-0.539551,0.701172,0
3560,-0.44043,-0.529297,0.699219,0
3580,-0.439453,-0.506836,0.700684,0
3600,-0.43457,-0.484375,0.718262,0
3620,-0.425781,-0.480469,0.720215,0
3640,-0.414062,-0.467773,0.723633,0
3660,-0.416992,-0.479492,0.716309,0
3680,-0.424805,-0.495117,0.700195,0
3700,-0.405762,-0.501953,0.707031,0
3720,-0.404297,-0.509766,0.716309,0
3740,-0.418457,-0.525879,0.705078,0
3760,-0.410645,-0.538086,0.697266,0
3780,-0.402344,-0.540527,0.693359,0
3800,-0.397949,-0.535645,0.682617,0
3820,-0.41748,-0.537109,0.703613,0
3840,-0.433594,-0.493652,0.713867,0
3860,-0.43457,-0.52002,0.688477,0
3880,-0.432129,-0.526855,0.686035,0
3900,-0.4375,-0.507324,0.675293,0
3920,-0.444824,-0.500977,0.672852,0
3950,-0.470215,-0.483398,0.701172,0
3970,-0.475586,-0.48291,0.690918,0
3990,-0.45166,-0.509766,0.689941,0
4010,-0.456055,-0.523926,0.666992,0
4030,-0.453613,-0.519531,0.664062,0
4050,-0.452637,-0.521484,0.663086,0
4070,-0.46875,-0.512207,0.67334,0
4090,-0.474121,-0.51416,0.666016,0
4110,-0.454102,-0.510742,0.657227,0
4130,-0.461426,-0.521973,0.657715,0
4150,-0.467773,-0.534668,0.665527,0
4170,-0.46875,-0.525391,0.67334,0
4190,-0.487793,-0.515625,0.666016,0
4210,-0.479004,-0.507324,0.662109,0
4230,-0.456543,-0.51709,0.658691,0
4250,-0.463379,-0.533203,0.666504,0
4270,-0.458984,-0.509766,0.677734,0
4290,-0.455078,-0.522461,0.671387,0
4310,-0.446777,-0.54248,0.672852,0
4330,-0.445312,-0.558105,0.654297,0
4350,-0.442383,-0.540039,0.658691,0
4370,-0.445801,-0.541992,0.661133,0
4390,-0.45459,-0.530762,0.674805,0
4410,-0.445801,-0.53418,0.654785,0
4430,-0.464355,-0.546875,0.678711,0
4450,-0.453125,-0.5,0.676758,0
4470,-0.449219,-0.527344,0.678711,0
4490,-0.464844,-0.52832,0.668457,0
4510,-0.456055,-0.524902,0.677246,0
4530,-0.457031,-0.526855,0.665039,0
4550,-0.455566,-0.541504,0.668945,0
4570,-0.462891,-0.542969,0.676758,0
4590,-0.449707,-0.535645,0.665527,0
4610,-0.449219,-0.522461,0.666992,0
4630,-0.442871,-0.519043,0.66748,0
4650,-0.45166,-0.534668,0.671387,0
4670,-0.449219,-0.543457,0.672852,0
4690,-0.439941,-0.535156,0.665527,0
4710,-0.44043,-0.537598,0.667969,0
4730,-0.443848,-0.545898,0.663574,0
4750,-0.445801,-0.556152,0.663574,0
4770,-0.446777,-0.543457,0.663574,0
4790,-0.460938,-0.526367,0.671387,0
4810,-0.446289,-0.533691,0.663574,0
4830,-0.460449,-0.550781,0.668457,0
4850,-0.456543,-0.543457,0.652344,0
4870,-0.452148,-0.534668,0.665039,0
4890,-0.45752,-0.519531,0.663574,0
4910,-0.472168,-0.534668,0.636719,0
4930,-0.469238,-0.530273,0.652344,0
4950,-0.45752,-0.537598,0.668945,0
4970,-0.45752,-0.547852,0.662598,0
4990,-0.453613,-0.549805,0.653809,0
5010,-0.446777,-0.539551,0.654297,0
5030,-0.442383,-0.539551,0.674805,0
5050,-0.423828,-0.543945,0.686523,0
5070,-0.418457,-0.550293,0.686035,0
5090,-0.436035,-0.554688,0.687012,0
5110,-0.436035,-0.53418,0.674316,0
5130,-0.431641,-0.524414,0.668457,0
5150,-0.438965,-0.535156,0.67041,0
5170,-0.449219,-0.524414,0.65918,0
5190,-0.453125,-0.526855,0.66748,0
5210,-0.451172,-0.536621,0.664551,0
5230,-0.455078,-0.540527,0.65625,0
5250,-0.457031,-0.539062,0.663086,0
5270,-0.435547,-0.554688,0.662598,0
5290,-0.444824,-0.569824,0.660156,0
5310,-0.453613,-0.562012,0.663086,0
5330,-0.438965,-0.543457,0.660156,0
5350,-0.431641,-0.551758,0.66748,0
5370,-0.443848,-0.543945,0.669434,0
5390,-0.438477,-0.540527,0.67041,0
5410,-0.442383,-0.524902,0.678223,0
5430,-0.446289,-0.524414,0.669434,0
5450,-0.450195,-0.525391,0.676758,0
5470,-0.459473,-0.523438,0.668457,0
5490,-0.455566,-0.520508,0.674316,0
5510,-0.46582,-0.540039,0.667969,0
5530,-0.458984,-0.54248,0.659668,0
5550,-0.456543,-0.543457,0.659668,0
5570,-0.453613,-0.540527,0.656738,0
5590,-0.455078,-0.540039,0.658203,0
5610,-0.451172,-0.549805,0.662109,0
5630,-0.444824,-0.542969,0.656738,0
5650,-0.45459,-0.555664,0.658203,0
5670,-0.451172,-0.546875,0.659668,0
5690,-0.449707,-0.541992,0.660156,0
5710,-0.462402,-0.536133,0.654297,0
5730,-0.456055,-0.539551,0.652832,0
5750,-0.458496,-0.547852,0.653809,0
5770,-0.462891,-0.533691,0.65625,0
5790,-0.455078,-0.536621,0.662598,0
5810,-0.459473,-0.54541,0.661621,0
5830,-0.456543,-0.54248,0.658691,0
5850,-0.451172,-0.561035,0.652344,0
5870,-0.45752,-0.560059,0.647949,0
5890,-0.463379,-0.548828,0.640625,0
5910,-0.465332,-0.539551,0.654785,0
5930,-0.466309,-0.538086,0.654297,0
5950,-0.468262,-0.558594,0.645508,0
5970,-0.47998,-0.573242,0.63623,0
5990,-0.471191,-0.559082,0.635742,0
6010,-0.474121,-0.55957,0.644043,0
6030,-0.465332,-0.56543,0.637695,0
6050,-0.454102,-0.567871,0.630371,0
6070,-0.466797,-0.554199,0.635254,0
6090,-0.459961,-0.559082,0.628418,0
6110,-0.464844,-0.565918,0.625488,0
6130,-0.469238,-0.562012,0.632324,0
6150,-0.47168,-0.550293,0.629883,0
6170,-0.467773,-0.563477,0.634766,0
6190,-0.47168,-0.575684,0.641113,0
6210,-0.474609,-0.585449,0.636719,0
6230,-0.458496,-0.578125,0.634766,0
6250,-0.464844,-0.583008,0.630371,0
6270,-0.467285,-0.57666,0.625,0
6290,-0.462402,-0.568848,0.631836,0
6310,-0.464355,-0.56543,0.622559,0
6330,-0.470215,-0.563477,0.625,0
6350,-0.475586,-0.567871,0.635742,0
6370,-0.469727,-0.567383,0.631836,0
6390,-0.463867,-0.571289,0.630371,0
6410,-0.46875,-0.574707,0.628418,0
6430,-0.472168,-0.569824,0.63916,0
6450,-0.478027,-0.570801,0.63623,0
6470,-0.462891,-0.572266,0.622559,0
6490,-0.462891,-0.580566,0.630371,0
6510,-0.458984,-0.570801,0.63623,0
6530,-0.469238,-0.564941,0.636719,0
6550,-0.472656,-0.555176,0.633301,0
6570,-0.472656,-0.570801,0.634277,0
6590,-0.474609,-0.570801,0.635254,0
6610,-0.47168,-0.562988,0.635742,0
6630,-0.474121,-0.565918,0.625977,0
6650,-0.470703,-0.572754,0.626465,0
6670,-0.468262,-0.570801,0.631348,0
6690,-0.46875,-0.567383,0.631836,0
6710,-0.464355,-0.567871,0.637207,0
6730,-0.463867,-0.574219,0.632812,0
6740,-0.464355,-0.574219,0.628906,0
6760,-0.46875,-0.562012,0.634277,0
6780,-0.464844,-0.560547,0.632812,0
6800,-0.472656,-0.564453,0.635742,0
6820,-0.470215,-0.563965,0.633789,0
6840,-0.469727,-0.561035,0.632324,0
6860,-0.464355,-0.564453,0.629395,0
6880,-0.463379,-0.566895,0.63916,0
6900,-0.460449,-0.568359,0.624512,0
6920,-0.512695,-0.563965,0.665039,0
6940,-0.480469,-0.576172,0.636719,0
6960,-0.480957,-0.623535,0.591309,0
6980,-0.481934,-0.599609,0.601562,0
7000,-0.449219,-0.532227,0.622559,0
7020,-0.481445,-0.525879,0.626465,0
7040,-0.490723,-0.544922,0.625488,0
7060,-0.420898,-0.57373,0.629395,0
7080,-0.416016,-0.586914,0.643555,0
7100,-0.436035,-0.583496,0.632324,0
7120,-0.441406,-0.591309,0.638672,0
7140,-0.431641,-0.584473,0.639648,0
7160,-0.453613,-0.547363,0.644043,0
7180,-0.478516,-0.52002,0.657227,0
7200,-0.487305,-0.511719,0.655762,0
7220,-0.486328,-0.53125,0.662598,0
7240,-0.486328,-0.543945,0.654785,0
7260,-0.48291,-0.5625,0.644043,0
7280,-0.472168,-0.581543,0.637207,0
7300,-0.466309,-0.59375,0.631348,0
7320,-0.463867,-0.602539,0.636719,0
7340,-0.465332,-0.593262,0.641113,0
7360,-0.461914,-0.567383,0.648926,0
7380,-0.470703,-0.547363,0.646973,0
7400,-0.466309,-0.548828,0.638672,0
7420,-0.465332,-0.54834,0.632324,0
7440,-0.468262,-0.536133,0.628418,0
7460,-0.466797,-0.544922,0.625977,0
7480,-0.469727,-0.5625,0.630859,0
7500,-0.469727,-0.57666,0.624512,0
7510,-0.462891,-0.585938,0.607422,0
7550,-0.474609,-0.594727,0.619141,0
7570,-0.478027,-0.597168,0.613281,0
7590,-0.481445,-0.600586,0.611328,0
7610,-0.486328,-0.604492,0.605957,0
7630,-0.495605,-0.602051,0.595215,0
7650,-0.513672,-0.584961,0.588867,0
7670,-0.512207,-0.575195,0.585449,0
7690,-0.516113,-0.580078,0.572266,0
7710,-0.512207,-0.584961,0.580078,0
7730,-0.507812,-0.581543,0.591309,0
7750,-0.512695,-0.564453,0.586426,0
7770,-0.507324,-0.57373,0.57666,0
7790,-0.502441,-0.599121,0.59668,0
7810,-0.498535,-0.600098,0.598145,0
7830,-0.494141,-0.606934,0.581055,0
7850,-0.484863,-0.628418,0.587402,0
7870,-0.48877,-0.641602,0.614746,0
7890,-0.499023,-0.668457,0.600098,0
7910,-0.542969,-0.719238,0.556641,0
7930,-0.528809,-0.713379,0.539551,0
7950,-0.557129,-0.71582,0.526855,0
7970,-0.581543,-0.743652,0.466797,0
7990,-0.536621,-0.717773,0.518555,0
8010,-0.503418,-0.672363,0.588379,0
8030,-0.51416,-0.624023,0.585938,0
8050,-0.508301,-0.637695,0.610352,0
8070,-0.447754,-0.671875,0.657715,0
8090,-0.403809,-0.745605,0.637207,0
8110,-0.382812,-0.873535,0.681641,0
8130,-0.411621,-0.943848,0.779297,0
8150,-0.355957,-0.887695,0.770996,0
8170,-0.280762,-0.774414,0.725098,0
8190,-0.280762,-0.672363,0.737305,0
8210,-0.286621,-0.656738,0.718262,0
8230,-0.25,-0.652832,0.737793,0
8250,-0.213379,-0.696289,0.741699,0
8270,-0.195312,-0.706543,0.728516,0
8290,-0.166992,-0.67627,0.727539,0
8310,-0.140625,-0.663574,0.67627,0
8330,-0.0244141,-0.632812,0.65918,0
8350,0.0717773,-0.607422,0.657227,0
8370,0.0751953,-0.585938,0.607422,0
8390,0.172852,-0.583496,0.596191,0
8410,0.291504,-0.612305,0.576172,0
8430,0.368164,-0.588379,0.554199,0
8450,0.40918,-0.557617,0.534668,0
8470,0.51123,-0.571289,0.520996,0
8490,0.600586,-0.63916,0.475098,0
8510,0.570801,-0.616211,0.481934,0
8530,0.611328,-0.558105,0.427246,0
8550,0.686523,-0.630371,0.367188,0
8570,0.668457,-0.599121,0.364746,0
8590,0.671875,-0.553223,0.354004,0
8610,0.788086,-0.534668,0.220703,0
8630,0.754395,-0.546387,0.176758,0
8650,0.759766,-0.481934,0.208008,0
8670,0.767578,-0.518066,0.133789,0
8690,0.77002,-0.535156,0.0366211,0
8710,0.705078,-0.489258,0.0546875,0
8720,0.764648,-0.51416,-0.0195312,0
8740,0.747559,-0.532227,-0.0390625,0
8760,0.748535,-0.514648,-0.0488281,0
8790,0.797363,-0.556152,-0.137207,0
8810,0.737793,-0.579102,-0.172363,0
8830,0.71582,-0.549805,-0.174316,0
8850,0.724121,-0.546387,-0.220215,0
8870,0.799805,-0.59375,-0.276367,0
8890,0.687012,-0.583008,-0.277832,0
8910,0.670898,-0.544434,-0.288086,0
8930,0.687988,-0.543945,-0.26123,0
8950,0.849121,-0.552246,-0.343262,0
8970,0.73291,-0.53418,-0.312012,0
8990,0.60498,-0.599609,-0.333008,0
9010,0.599609,-0.623047,-0.320801,0
9030,0.609375,-0.569824,-0.295898,0
9050,0.641602,-0.54541,-0.314453,0
9070,0.583496,-0.567871,-0.348145,0
9090,0.653809,-0.553223,-0.355469,0
9110,0.701172,-0.605957,-0.409668,0
9130,0.714355,-0.57373,-0.401855,0
9150,0.685059,-0.558105,-0.422852,0
9180,0.667969,-0.570801,-0.463379,0
9200,0.672363,-0.605469,-0.468262,0
9220,0.71582,-0.589844,-0.470215,0
9240,0.744141,-0.57959,-0.47998,0
9260,0.701172,-0.572266,-0.476074,0
9280,0.723145,-0.57666,-0.485352,0
9300,0.711426,-0.564453,-0.46875,0
9320,0.694336,-0.580078,-0.504883,0
9340,0.673828,-0.562988,-0.504395,0
9360,0.727051,-0.571777,-0.512695,0
9380,0.688477,-0.554199,-0.493652,0
9400,0.711914,-0.544434,-0.525391,0
9420,0.743164,-0.555664,-0.537109,0
9440,0.708984,-0.51709,-0.512695,0
9460,0.723145,-0.527344,-0.527832,0
9480,0.750977,-0.529297,-0.534668,0
9500,0.743652,-0.509277,-0.524902,0
9520,0.738281,-0.508301,-0.536133,0
9540,0.739746,-0.501465,-0.542969,0
9560,0.764648,-0.487793,-0.561523,0
9580,0.756836,-0.466797,-0.562988,0
9600,0.783691,-0.46582,-0.539551,0
9620,0.774902,-0.435059,-0.54541,0
9640,0.76123,-0.443848,-0.55957,0
9660,0.730957,-0.432129,-0.550781,0
9680,0.706543,-0.416016,-0.541992,0
9700,0.665527,-0.4375,-0.532227,0
9720,0.649902,-0.452148,-0.533203,0
9740,0.651855,-0.459961,-0.509277,0
9760,0.681641,-0.452148,-0.515625,0
9780,0.692383,-0.456543,-0.527832,0
9800,0.721191,-0.465332,-0.539551,0
9820,0.754883,-0.504883,-0.554199,0
9840,0.722168,-0.521484,-0.544922,0
9860,0.717285,-0.50293,-0.554199,0
9880,0.742676,-0.538086,-0.554688,0
9900,0.73584,-0.534668,-0.526367,0
9920,0.69873,-0.489258,-0.498047,0
9940,0.716797,-0.50293,-0.509277,0
9960,0.705078,-0.489746,-0.504883,0
9980,0.720215,-0.50293,-0.511719,0
10000,0.751465,-0.527832,-0.498047,0
10020,0.744141,-0.543457,-0.5,0
10040,0.720703,-0.540527,-0.496582,0
10060,0.727051,-0.541504,-0.509277,0
10080,0.704102,-0.560547,-0.507812,0
10100,0.691895,-0.548828,-0.506348,0
10120,0.681152,-0.544434,-0.518066,0
10140,0.735352,-0.520996,-0.513184,0
10160,0.712402,-0.519531,-0.517578,0
10180,0.727051,-0.516602,-0.520508,0
10200,0.693848,-0.510254,-0.52002,0
10220,0.725586,-0.527832,-0.511719,0
10240,0.689453,-0.522949,-0.503906,0
10260,0.699707,-0.506836,-0.506836,0
10280,0.687988,-0.532227,-0.503906,0
10300,0.714844,-0.519531,-0.494141,0
10320,0.792969,-0.555664,-0.486328,0
10340,0.696289,-0.54834,-0.460449,0
10360,0.723145,-0.550293,-0.494141,0
10380,0.724121,-0.526855,-0.486328,0
10400,0.692871,-0.560547,-0.499023,0
10420,0.685059,-0.571289,-0.490723,0
10440,0.705566,-0.557129,-0.489746,0
10460,0.716309,-0.568848,-0.498047,0
10480,0.68457,-0.579102,-0.510742,0
10500,0.700684,-0.543945,-0.526855,0
10520,0.672363,-0.52002,-0.547852,0
10540,0.65918,-0.527832,-0.537109,0
10560,0.693359,-0.54248,-0.52832,0
10580,0.700684,-0.530762,-0.509277,0
10600,0.714844,-0.527344,-0.509766,0
10620,0.710938,-0.519531,-0.491699,0
10640,0.712891,-0.531738,-0.493164,0
10660,0.696777,-0.517578,-0.506836,0
10680,0.700684,-0.525879,-0.512695,0
10700,0.718262,-0.541992,-0.528809,0
10720,0.652344,-0.531738,-0.508301,0
10740,0.663086,-0.510254,-0.501953,0
10760,0.693359,-0.537598,-0.47998,0
10780,0.688965,-0.509277,-0.478027,0
10800,0.721191,-0.513672,-0.500977,0
10820,0.785645,-0.522461,-0.506836,0
10840,0.785645,-0.560547,-0.512207,0
10860,0.765625,-0.538574,-0.527832,0
10880,0.724609,-0.549316,-0.521484,0
10900,0.713867,-0.559082,-0.515625,0
10920,0.694336,-0.583984,-0.520996,0
10940,0.677246,-0.579102,-0.520508,0
10960,0.662598,-0.552246,-0.519043,0
10980,0.671387,-0.543457,-0.516602,0
11000,0.677734,-0.549316,-0.530273,0
11020,0.707031,-0.546875,-0.526855,0
11040,0.711914,-0.519043,-0.495117,0
11060,0.713867,-0.518066,-0.507324,0
11080,0.699707,-0.522949,-0.516602,0
11100,0.695312,-0.499512,-0.495117,0
11120,0.685059,-0.516602,-0.520996,0
11140,0.703125,-0.543945,-0.512695,0
11160,0.638184,-0.54248,-0.496582,0
11180,0.646973,-0.515137,-0.510254,0
11200,0.703613,-0.506348,-0.489746,0
11220,0.706543,-0.544922,-0.505371,0
11240,0.748535,-0.57959,-0.526855,0
11260,0.75,-0.540527,-0.498535,0
11280,0.73291,-0.557617,-0.535645,0
11300,0.750488,-0.547363,-0.520508,0
11320,0.705566,-0.570312,-0.526855,0
11340,0.711914,-0.594238,-0.530273,0
11360,0.683594,-0.558105,-0.5,0
11380,0.693359,-0.556641,-0.504395,0
11400,0.674805,-0.550293,-0.502441,0
11420,0.696289,-0.55127,-0.505859,0
11440,0.703125,-0.55127,-0.512695,0
11460,0.691895,-0.542969,-0.501953,0
11480,0.678711,-0.538574,-0.499512,0
11500,0.682617,-0.523926,-0.486328,0
11520,0.680176,-0.530762,-0.503906,0
11540,0.693848,-0.531738,-0.498047,0
11560,0.702148,-0.533691,-0.503418,0
11580,0.686523,-0.53418,-0.50293,0
11600,0.732422,-0.557617,-0.506836,0
11620,0.703613,-0.562988,-0.499512,0
11640,0.693359,-0.547852,-0.516113,0
11660,0.700684,-0.537598,-0.500977,0
11680,0.73584,-0.557129,-0.512207,0
11700,0.721191,-0.561523,-0.515625,0
11720,0.717285,-0.554688,-0.513672,0
11740,0.712891,-0.543945,-0.503418,0
11760,0.702148,-0.545898,-0.5,0
11780,0.71875,-0.561523,-0.491211,0
11800,0.687988,-0.566406,-0.479492,0
11820,0.703613,-0.561523,-0.48584,0
11840,0.683105,-0.564453,-0.479004,0
11860,0.70459,-0.575195,-0.481445,0
11880,0.628418,-0.521484,-0.453125,0
11900,0.586914,-0.506836,-0.456543,0
11920,0.597656,-0.516602,-0.457031,0
11940,0.606934,-0.495117,-0.448242,0
11960,0.583008,-0.447266,-0.432129,0
11980,0.633301,-0.45752,-0.440918,0
12000,0.651367,-0.46582,-0.436523,0
12020,0.692871,-0.516602,-0.451172,0
12040,0.688965,-0.512695,-0.453125,0
12060,0.741211,-0.517578,-0.462402,0
12080,0.758789,-0.527344,-0.472168,0
12100,0.810059,-0.512695,-0.458008,0
12120,0.835938,-0.498047,-0.408203,0
12130,0.906738,-0.542969,-0.408203,0
12150,0.908691,-0.54248,-0.42334,0
12170,0.923828,-0.532227,-0.40918,0
12190,0.942383,-0.550781,-0.397461,0
12210,0.944336,-0.567383,-0.407715,0
12230,0.918945,-0.572754,-0.436035,0
12250,0.906738,-0.550781,-0.417969,0
12260,0.870605,-0.552734,-0.387695,0
12280,0.823242,-0.560059,-0.377441,0
12300,0.78125,-0.568359,-0.360352,0
12310,0.761719,-0.562988,-0.365234,0
12330,0.746094,-0.537109,-0.355469,0
12350,0.738281,-0.529785,-0.348633,0
12370,0.73877,-0.538086,-0.363281,0
12390,0.730957,-0.54834,-0.346191,0
12410,0.72998,-0.538086,-0.357422,0
12430,0.703613,-0.530273,-0.351562,0
12450,0.736328,-0.544922,-0.34082,0
12470,0.73584,-0.541016,-0.370605,0
12490,0.755859,-0.543945,-0.368652,0
12510,0.769531,-0.559082,-0.373535,0
12530,0.752441,-0.541016,-0.378906,0
12550,0.745605,-0.522461,-0.384277,0
12570,0.753906,-0.549316,-0.382812,0
12590,0.748535,-0.55957,-0.392578,0
12610,0.728516,-0.570312,-0.402344,0
12630,0.716797,-0.574219,-0.395996,0
12650,0.723633,-0.579102,-0.394043,0
12670,0.733398,-0.575684,-0.402832,0
12690,0.738281,-0.570801,-0.414062,0
12710,0.733887,-0.546875,-0.401855,0
12720,0.730957,-0.553223,-0.407715,0
12740,0.716309,-0.560059,-0.401367,0
12760,0.731934,-0.55957,-0.40625,0
12780,0.728027,-0.549805,-0.395996,0
12800,0.730957,-0.545898,-0.391113,0
12820,0.72168,-0.553223,-0.396973,0
12840,0.72168,-0.54248,-0.404297,0
12860,0.729492,-0.543457,-0.419434,0
12880,0.745117,-0.545898,-0.414062,0
12900,0.747559,-0.553223,-0.40918,0
12920,0.756836,-0.54834,-0.413574,0
12940,0.743652,-0.541992,-0.422363,0
12960,0.749512,-0.544434,-0.424316,0
12980,0.750977,-0.536133,-0.419922,0
13000,0.733398,-0.541504,-0.43457,0
13020,0.737793,-0.550781,-0.415039,0
13040,0.752441,-0.540527,-0.431641,0
13060,0.739746,-0.53418,-0.419434,0
13080,0.754395,-0.542969,-0.421387,0
13100,0.755371,-0.550293,-0.422852,0
13120,0.770508,-0.558594,-0.409668,0
13140,0.758789,-0.551758,-0.415527,0
13160,0.765625,-0.553223,-0.422852,0
13180,0.762695,-0.566406,-0.418945,0
13200,0.741699,-0.589844,-0.420898,0
13220,0.708496,-0.572266,-0.400391,0
13240,0.692383,-0.556641,-0.414551,0
13260,0.72168,-0.556641,-0.42334,0
13280,0.734863,-0.567383,-0.423828,0
13300,0.743164,-0.568848,-0.415527,0
13320,0.730469,-0.536133,-0.418945,0
13340,0.746094,-0.547852,-0.442383,0
13360,0.756348,-0.559082,-0.443359,0
13380,0.749512,-0.54541,-0.411621,0
13400,0.723145,-0.547363,-0.420898,0
13420,0.743164,-0.556641,-0.422852,0
13440,0.717773,-0.54541,-0.42627,0
13460,0.73291,-0.531738,-0.401855,0
13480,0.720703,-0.529785,-0.400879,0
13500,0.785645,-0.553223,-0.431152,0
13520,0.742188,-0.580566,-0.394531,0
13540,0.730957,-0.566406,-0.401855,0
13560,0.706055,-0.561035,-0.388184,0
13580,0.756348,-0.564941,-0.40625,0
13600,0.718262,-0.555664,-0.378906,0
13620,0.678223,-0.508789,-0.352051,0
13640,0.622559,-0.473145,-0.32373,0
13660,0.5625,-0.441895,-0.308594,0
13680,0.553711,-0.469727,-0.304688,0
13700,0.595703,-0.493652,-0.253418,0
13720,0.569336,-0.444336,-0.253906,0
13740,0.62793,-0.450195,-0.230957,0
13760,0.663574,-0.480469,-0.195312,0
13780,0.685059,-0.405273,-0.168457,0
13800,0.654297,-0.359863,-0.145996,0
13820,0.650879,-0.432129,-0.0834961,0
13840,0.691895,-0.4375,-0.0356445,0
13860,0.682129,-0.406738,-0.00292969,0
13880,0.67334,-0.439941,0.0463867,0
13900,0.705566,-0.387695,0.10791,0
13920,1.04199,-0.418945,0.123047,0
13940,0.827148,-0.481934,0.228516,0
13960,0.875977,-0.483887,0.285645,0
13980,0.946777,-0.540039,0.454102,0
14000,0.94043,-0.567383,0.547852,0
14020,0.94043,-0.784668,0.536133,0
14040,0.87207,-0.772461,0.574707,0
14060,0.974121,-0.823242,0.658203,0
14080,0.89502,-0.842773,0.531738,0
14100,0.882324,-0.803223,0.47168,0
14110,0.892578,-0.789551,0.472656,0
14130,0.876953,-0.707031,0.504395,0
14150,0.805176,-0.694824,0.511719,0
14170,0.766113,-0.644531,0.487793,0
14190,0.777344,-0.625488,0.467285,0
14210,0.811523,-0.621582,0.420898,0
14230,0.813477,-0.620605,0.415039,0
14250,0.852539,-0.62207,0.340332,0
14270,0.864258,-0.573242,0.288086,0
14290,0.898926,-0.561035,0.243164,0
14310,0.90332,-0.520996,0.218262,0
14330,0.897949,-0.48877,0.166016,0
14350,0.833008,-0.487305,0.120605,0
14370,0.817383,-0.467773,0.0703125,0
14390,0.772949,-0.442383,0.0253906,0
14410,0.715332,-0.459961,0.00390625,0
14430,0.69873,-0.445312,-0.0415039,0
14450,0.693848,-0.438965,-0.109375,0
14470,0.69873,-0.403809,-0.09375,0
14490,0.682617,-0.41748,-0.119141,0
14510,0.676758,-0.418457,-0.140625,0
14530,0.624023,-0.388184,-0.177246,0
14550,0.606445,-0.435059,-0.169434,0
14570,0.678711,-0.414551,-0.11084,0
14590,0.708496,-0.537109,-0.168945,0
14610,0.736816,-0.418457,-0.216797,0
14630,0.751953,-0.443848,-0.209961,0
14650,0.746582,-0.488281,-0.245117,0
14670,0.760742,-0.47998,-0.291504,0
14690,0.825684,-0.489746,-0.297852,0
14710,0.859375,-0.510742,-0.317383,0
14730,0.871094,-0.5625,-0.336914,0
14750,0.865723,-0.540527,-0.392578,0
14770,0.892578,-0.54248,-0.422852,0
14790,0.845703,-0.481934,-0.404785,0
14810,0.822266,-0.494141,-0.389648,0
14820,0.804688,-0.48584,-0.407227,0
14840,0.842285,-0.485352,-0.418945,0
14860,0.786621,-0.392578,-0.430176,0
14880,0.778809,-0.389648,-0.379883,0
14900,0.762695,-0.367188,-0.376465,0
14920,0.813477,-0.398438,-0.397461,0
14940,0.78418,-0.399902,-0.399414,0
14960,0.774414,-0.39209,-0.405762,0
14980,0.777344,-0.381836,-0.406738,0
15000,0.797363,-0.416504,-0.402832,0
15020,0.891113,-0.456055,-0.437012,0
15040,0.833008,-0.43457,-0.42334,0
15060,0.870605,-0.45166,-0.436035,0
15080,0.845215,-0.433594,-0.431152,0
15100,0.894531,-0.485352,-0.438477,0
15120,0.84082,-0.464355,-0.400879,0
15140,0.801758,-0.458008,-0.381836,0
15160,0.729492,-0.446289,-0.339844,0
15180,0.729492,-0.461914,-0.339355,0
15200,0.776367,-0.459473,-0.352539,0
15220,0.78125,-0.445312,-0.348145,0
15240,0.794922,-0.447266,-0.350586,0
15260,0.800781,-0.445801,-0.330078,0
15280,0.818359,-0.431641,-0.325684,0
15300,0.812988,-0.432617,-0.321289,0
15320,0.843262,-0.430176,-0.292969,0
15340,0.854492,-0.449219,-0.300293,0
15360,0.833496,-0.463379,-0.30127,0
15380,0.819336,-0.463867,-0.34082,0
15400,0.80957,-0.479004,-0.353516,0
15420,0.762207,-0.478027,-0.370117,0
15440,0.759766,-0.452148,-0.372559,0
15460,0.787598,-0.459961,-0.325195,0
15480,0.885254,-0.461914,-0.317383,0
15500,0.909668,-0.428711,-0.324707,0
15520,0.887695,-0.484863,-0.362793,0
15540,0.821777,-0.470703,-0.351562,0
15560,0.842773,-0.497559,-0.341309,0
15580,0.851074,-0.538086,-0.303711,0
15600,0.879395,-0.472656,-0.320801,0
15620,0.856934,-0.481934,-0.314941,0
15640,0.79834,-0.504395,-0.311523,0
15660,0.800781,-0.495605,-0.347656,0
15680,0.765625,-0.49707,-0.324219,0
15700,0.769531,-0.484863,-0.321777,0
15720,0.76416,-0.490723,-0.306641,0
15740,0.760254,-0.454102,-0.312988,0
15760,0.811523,-0.461914,-0.33252,0
15780,0.805176,-0.475586,-0.33252,0
15800,0.774414,-0.441406,-0.32373,0
15820,0.776367,-0.446289,-0.334473,0
15840,0.81543,-0.455566,-0.344238,0
15860,0.788574,-0.469727,-0.329102,0
15880,0.75293,-0.445312,-0.32666,0
15900,0.727051,-0.423828,-0.29248,0
15920,0.686035,-0.386719,-0.25,0
15940,0.673828,-0.402832,-0.194824,0
15960,0.644531,-0.383789,-0.15625,0
15980,0.599609,-0.318848,-0.137695,0
16000,0.617188,-0.314941,-0.106934,0
16020,0.671387,-0.333496,-0.0600586,0
16040,0.705078,-0.408691,-0.0258789,0
16060,0.658691,-0.407715,-0.0249023,0
16080,0.660156,-0.411621,-0.00488281,0
16100,0.73877,-0.450195,0.0634766,0
16120,0.874023,-0.543945,0.0991211,0
16140,0.837891,-0.594238,0.158203,0
16160,0.809082,-0.59375,0.266602,0
16180,0.749023,-0.554199,0.399414,0
16200,1.01709,-0.599121,0.506348,0
16220,0.742188,-0.61084,0.615234,0
16240,0.691895,-0.69873,0.596191,0
16260,0.760254,-0.75293,0.618164,0
16280,0.768066,-0.744141,0.611328,0
16300,0.710449,-0.669434,0.579102,0
16320,0.658203,-0.545898,0.580566,0
16340,0.630859,-0.559082,0.623047,0
16360,0.465332,-0.543945,0.708496,0
16380,0.45166,-0.628906,0.708008,0
16400,0.491211,-0.685059,0.696777,0
16420,0.390137,-0.537109,0.754395,0
16440,0.337891,-0.320312,0.872559,0
16460,0.379395,-0.351562,0.850098,0
16480,0.421387,-0.346191,0.838379,0
16500,0.385254,-0.412109,0.881836,0
16520,0.365234,-0.673828,0.840332,0
16540,0.491699,-0.641113,0.706543,0
16560,0.617676,-0.586426,0.713867,0
16580,0.538086,-0.501953,0.743164,0
16600,0.393555,-0.445801,0.669434,0
16620,0.382812,-0.540527,0.668457,0
16640,0.322754,-0.676758,0.705566,0
16660,0.17627,-0.678223,0.726074,0
16680,0.0800781,-0.650879,0.73584,0
16700,0.0795898,-0.604492,0.67334,0
16720,0.0610352,-0.541504,0.641602,0
16740,-0.0942383,-0.387695,0.647949,0
16760,-0.260254,-0.380859,0.665527,0
16780,-0.243164,-0.483398,0.597168,0
16800,-0.103027,-0.526855,0.638672,0
16820,0.0483398,-0.507812,0.696777,0
16840,0.179688,-0.556641,0.688477,0
16860,0.401855,-0.678223,0.65918,0
16880,0.582031,-0.807129,0.698242,0
16900,0.643066,-0.682129,0.768555,0
16920,0.727539,-0.66748,0.682617,0
16940,0.699219,-0.618164,0.651855,0
16960,0.553223,-0.492676,0.643066,0
16980,0.480957,-0.468262,0.644043,0
17000,0.393555,-0.415527,0.739258,0
17020,0.331543,-0.375,0.755859,0
17040,0.38623,-0.400391,0.639648,0
17060,0.33252,-0.447754,0.676758,0
17080,0.316406,-0.44873,0.725098,0
17100,0.362793,-0.54541,0.715332,0
17120,0.303223,-0.543457,0.683105,0
17140,0.190918,-0.483887,0.672363,0
17160,0.259277,-0.436523,0.665527,0
17180,0.256836,-0.503418,0.578125,0
17200,0.252441,-0.547852,0.529785,0
17220,0.260254,-0.580566,0.5625,0
17240,0.217773,-0.555176,0.606445,0
17260,0.243164,-0.545898,0.591797,0
17280,0.313965,-0.603516,0.579102,0
17300,0.263184,-0.550781,0.662109,0
17320,0.303711,-0.492188,0.651367,0
17340,0.327148,-0.525391,0.635254,0
17360,0.322754,-0.524414,0.679199,0
17380,0.330566,-0.597656,0.686523,0
17400,0.397949,-0.656738,0.637695,0
17420,0.379883,-0.62207,0.693359,0
17440,0.313965,-0.543945,0.693848,0
17460,0.28418,-0.610352,0.686523,0
17480,0.282715,-0.667969,0.716797,0
17500,0.330566,-0.65625,0.688965,0
17520,0.327148,-0.600586,0.664062,0
17530,0.259277,-0.57666,0.709961,0
17550,0.235352,-0.539551,0.703613,0
17570,0.293457,-0.513672,0.679688,0
17590,0.351074,-0.497559,0.683105,0
17610,0.379883,-0.54248,0.676758,0
17630,0.370605,-0.569824,0.657227,0
17650,0.352539,-0.540039,0.679688,0
17670,0.36377,-0.546875,0.661133,0
17690,0.388184,-0.535645,0.67334,0
17710,0.34668,-0.553223,0.708008,0
17730,0.359375,-0.530273,0.709961,0
17750,0.365723,-0.571289,0.740723,0
17770,0.35498,-0.492676,0.746094,0
17790,0.37793,-0.53125,0.748047,0
17810,0.396484,-0.452148,0.74707,0
17830,0.388672,-0.44873,0.719238,0
17850,0.391602,-0.463379,0.70752,0
17870,0.404297,-0.438477,0.729492,0
17890,0.401367,-0.423828,0.729004,0
17910,0.421387,-0.442871,0.680176,0
17930,0.4375,-0.438965,0.664062,0
17950,0.443848,-0.42041,0.68457,0
17970,0.426758,-0.40625,0.688477,0
17990,0.439941,-0.416016,0.682617,0
18010,0.466309,-0.44043,0.674316,0
18030,0.484375,-0.455566,0.66748,0
18050,0.476562,-0.422363,0.653809,0
18070,0.493164,-0.40332,0.62793,0
18090,0.51416,-0.407715,0.633301,0
18110,0.51709,-0.396484,0.63623,0
18130,0.500488,-0.409668,0.631836,0
18150,0.515625,-0.428223,0.59375,0
18170,0.552734,-0.42334,0.626465,0
18190,0.552734,-0.358398,0.666504,0
18210,0.543457,-0.425781,0.648926,0
18230,0.538086,-0.42041,0.655762,0
18250,0.533691,-0.405762,0.659668,0
18270,0.548828,-0.388672,0.668945,0
18290,0.524414,-0.402344,0.661621,0
18310,0.531738,-0.380859,0.651855,0
18330,0.559082,-0.387207,0.625,0
18350,0.529297,-0.38623,0.617188,0
18370,0.510254,-0.379395,0.639648,0
18390,0.526855,-0.418945,0.601562,0
18410,0.505371,-0.40625,0.603516,0
18430,0.503418,-0.397461,0.641602,0
18450,0.528809,-0.389648,0.645508,0
18470,0.530762,-0.358887,0.658203,0
18490,0.534668,-0.36377,0.65332,0
18510,0.537109,-0.397949,0.669922,0
18530,0.532227,-0.404297,0.648926,0
18550,0.519531,-0.39502,0.651367,0
18570,0.518555,-0.402344,0.649414,0
18590,0.518066,-0.414062,0.641113,0
18610,0.529785,-0.414551,0.654785,0
18630,0.530762,-0.411133,0.666992,0
18650,0.519043,-0.394531,0.65918,0
18670,0.498047,-0.406738,0.65918,0
18690,0.517578,-0.410156,0.663574,0
18710,0.527344,-0.407715,0.66748,0
18730,0.518555,-0.391602,0.656738,0
18750,0.508301,-0.394043,0.666504,0
18770,0.48877,-0.378418,0.666504,0
18790,0.516113,-0.385742,0.659668,0
18810,0.527832,-0.388184,0.657227,0
18830,0.507812,-0.376953,0.646484,0
18850,0.514648,-0.393555,0.662109,0
18870,0.527832,-0.405273,0.666992,0
18890,0.512207,-0.387695,0.63916,0
18910,0.536621,-0.395508,0.651855,0
18930,0.527832,-0.397949,0.645996,0
18950,0.512695,-0.39209,0.631348,0
18970,0.503906,-0.392578,0.624023,0
18990,0.463379,-0.410645,0.645996,0
19010,0.412109,-0.364746,0.656738,0
19030,0.499023,-0.415039,0.669434,0
19050,0.533203,-0.367676,0.674805,0
19070,0.496582,-0.335449,0.685059,0
19090,0.526367,-0.389648,0.663086,0
19110,0.538086,-0.431641,0.655273,0
19130,0.506836,-0.364258,0.658691,0
19150,0.527832,-0.362793,0.657227,0
19170,0.542969,-0.365234,0.676758,0
19190,0.544434,-0.352539,0.672363,0
19210,0.567383,-0.369141,0.663574,0
19230,0.51709,-0.358887,0.660645,0
19250,0.507812,-0.351074,0.678711,0
19270,0.52832,-0.357422,0.696777,0
19290,0.518555,-0.350098,0.698242,0
19310,0.499023,-0.347168,0.685547,0
19330,0.469727,-0.352051,0.660645,0
19350,0.465332,-0.349609,0.672363,0
19370,0.459473,-0.365234,0.682129,0
19390,0.435059,-0.35498,0.669434,0
19410,0.460938,-0.347168,0.658691,0
19430,0.426758,-0.347168,0.664062,0
19450,0.386719,-0.351562,0.658203,0
19470,0.402832,-0.34375,0.672363,0
19490,0.419922,-0.321777,0.69043,0
19510,0.419434,-0.338867,0.704102,0
19520,0.398438,-0.343262,0.708984,0
19540,0.421875,-0.352051,0.716797,0
19560,0.400879,-0.364746,0.724121,0
19580,0.39502,-0.355957,0.739258,0
19600,0.393555,-0.349609,0.753418,0
19620,0.394043,-0.336914,0.755859,0
19640,0.388672,-0.320312,0.742188,0
19660,0.369141,-0.33252,0.770508,0
19680,0.349121,-0.374512,0.806152,0
19700,0.375488,-0.388672,0.822266,0
19720,0.32959,-0.394043,0.802734,0
19740,0.333984,-0.395508,0.784668,0
19760,0.353516,-0.389648,0.808105,0
19780,0.293457,-0.366699,0.807129,0
19800,0.233398,-0.367188,0.792969,0
19820,0.217285,-0.359375,0.790527,0
19840,0.200195,-0.410645,0.818359,0
19860,0.131836,-0.354492,0.821777,0
19880,0.0639648,-0.333984,0.874023,0
19900,0.043457,-0.297852,0.878906,0
19920,0.0478516,-0.333984,0.845703,0
19940,0.0273438,-0.360352,0.787598,0
19960,-0.0668945,-0.385254,0.81543,0
19980,-0.183105,-0.375977,0.811523,0
20000,-0.219727,-0.34668,0.829102,0
20020,-0.319824,-0.459961,0.819824,0
20040,-0.282715,-0.47168,0.783203,0
20060,-0.324707,-0.412598,0.817871,0
20080,-0.35791,-0.387695,0.806152,0
20100,-0.34082,-0.178223,0.805176,0
20120,-0.364746,-0.405273,1.00098,0
20140,-0.365234,-0.521973,0.979492,0
20160,-0.404785,-0.364258,1.0083,0
20180,-0.34375,-0.469238,0.952637,0
20200,-0.32373,-0.458496,0.911133,0
20220,-0.287598,-0.437988,0.814453,0
20240,-0.291504,-0.360352,0.816895,0
20260,-0.361328,-0.305664,0.790527,0
20280,-0.329102,-0.232422,0.787598,0
20300,-0.314941,-0.250488,0.793945,0
20320,-0.288574,-0.249512,0.814941,0
20340,-0.254395,-0.245605,0.837891,0
20360,-0.237793,-0.286621,0.84668,0
20380,-0.26709,-0.300781,0.82373,0
20400,-0.217773,-0.353027,0.839844,0
20420,-0.274902,-0.35498,0.837402,0
20430,-0.195801,-0.336426,0.818359,0
20450,-0.232422,-0.334473,0.832031,0
20470,-0.204102,-0.355469,0.814453,0
20490,-0.210938,-0.339355,0.851074,0
20510,-0.26416,-0.327637,0.874023,0
20530,-0.339355,-0.32373,0.877441,0
20550,-0.363281,-0.313965,0.854004,0
20570,-0.36084,-0.33252,0.824219,0
20590,-0.356445,-0.375488,0.789062,0
20610,-0.373535,-0.393066,0.772461,0
20630,-0.388672,-0.378906,0.778809,0
20650,-0.385254,-0.370117,0.800293,0
20670,-0.374023,-0.370605,0.811523,0
20690,-0.362793,-0.378418,0.814453,0
20710,-0.331543,-0.36084,0.808105,0
20730,-0.323242,-0.354004,0.811523,0
20750,-0.31543,-0.352539,0.814941,0
20770,-0.297852,-0.367676,0.816895,0
20790,-0.304688,-0.380859,0.810547,0
20810,-0.29541,-0.352051,0.811523,0
20830,-0.303711,-0.364746,0.828125,0
20850,-0.303223,-0.362793,0.816895,0
20870,-0.319824,-0.388672,0.789551,0
20890,-0.347168,-0.391602,0.791992,0
20910,-0.354004,-0.346191,0.808594,0
20930,-0.359375,-0.371094,0.810547,0
20950,-0.334961,-0.408203,0.78418,0
20970,-0.345703,-0.394531,0.796875,0
20990,-0.344238,-0.392578,0.824707,0
21010,-0.342285,-0.341797,0.831543,0
21030,-0.344238,-0.336426,0.835449,0
21050,-0.348145,-0.438965,0.817383,0
21070,-0.312012,-0.483398,0.862793,0
21090,-0.314941,-0.40918,0.893066,0
21110,-0.287598,-0.339844,0.910645,0
21130,-0.263184,-0.344727,0.883789,0
21150,-0.277832,-0.389648,0.84082,0
21170,-0.239746,-0.448242,0.876953,0
21190,-0.138672,-0.503906,0.892578,0
21210,-0.128906,-0.538086,0.885254,0
21230,-0.113281,-0.484375,0.925781,0
21250,-0.0913086,-0.342285,0.915039,0
21270,-0.034668,-0.282715,0.882812,0
21290,0.0410156,-0.319824,0.859863,0
21310,0.100098,-0.383789,0.833496,0
21330,0.175293,-0.37793,0.794922,0
21350,0.121582,-0.353027,0.818848,0
21370,0.214844,-0.327637,0.774414,0
21390,0.243652,-0.341797,0.767578,0
21410,0.262695,-0.34082,0.779297,0
21430,0.317383,-0.343262,0.772949,0
21450,0.367188,-0.350098,0.741211,0
21470,0.410156,-0.335938,0.689453,0
21490,0.419434,-0.306641,0.679688,0
21510,0.43457,-0.30957,0.69873,0
21530,0.449707,-0.319336,0.679199,0
21550,0.483887,-0.326172,0.678711,0
21570,0.474121,-0.312988,0.674805,0
21590,0.477539,-0.304199,0.673828,0
21610,0.445312,-0.317871,0.668457,0
21630,0.520996,-0.344727,0.652832,0
21650,0.483887,-0.320312,0.647949,0
21670,0.506348,-0.340332,0.631836,0
21690,0.532715,-0.367188,0.621582,0
21710,0.493164,-0.369141,0.630371,0
21730,0.478027,-0.355957,0.64502,0
21750,0.550781,-0.390625,0.672363,0
21770,0.493164,-0.387207,0.65625,0
21790,0.499512,-0.384277,0.645996,0
21810,0.507324,-0.368164,0.643555,0
21830,0.540039,-0.376953,0.653809,0
21850,0.55127,-0.38623,0.647949,0
21870,0.526367,-0.384766,0.648926,0
21890,0.52832,-0.384766,0.649902,0
21910,0.552246,-0.392578,0.651855,0
21930,0.543457,-0.392578,0.666016,0
21950,0.578125,-0.376953,0.670898,0
21970,0.538574,-0.356445,0.669922,0
21990,0.518066,-0.364746,0.664551,0
22010,0.560547,-0.375488,0.654785,0
22030,0.556152,-0.355957,0.658203,0
22050,0.537109,-0.334473,0.656738,0
22070,0.538574,-0.345703,0.658203,0
22090,0.542969,-0.342773,0.669434,0
22110,0.53418,-0.328613,0.654785,0
22130,0.553223,-0.337891,0.65918,0
22150,0.54541,-0.335938,0.666992,0
22170,0.532715,-0.336426,0.662109,0
22190,0.538574,-0.346191,0.666016,0
22210,0.52002,-0.342285,0.675293,0
22230,0.51123,-0.357422,0.686035,0
22250,0.500977,-0.347168,0.680664,0
22270,0.501465,-0.333984,0.675293,0
22290,0.499023,-0.342285,0.668457,0
22310,0.502441,-0.344238,0.675293,0
22330,0.505859,-0.339355,0.67334,0
22350,0.519531,-0.344727,0.676758,0
22370,0.529297,-0.331055,0.671387,0
22390,0.547363,-0.331055,0.680176,0
22410,0.530273,-0.338379,0.695312,0
22430,0.525391,-0.353516,0.702148,0
22450,0.510742,-0.366211,0.688477,0
22470,0.490723,-0.34668,0.677734,0
22490,0.504395,-0.34375,0.682129,0
22510,0.516113,-0.327637,0.678223,0
22530,0.500488,-0.333008,0.66748,0
22550,0.523926,-0.339844,0.655273,0
22570,0.53418,-0.332031,0.662598,0
22590,0.541016,-0.310059,0.662109,0
22610,0.562012,-0.308105,0.675781,0
22630,0.549805,-0.306641,0.688965,0
22650,0.551758,-0.319824,0.710449,0
22670,0.53418,-0.309082,0.720215,0
22690,0.513184,-0.313965,0.720703,0
22710,0.495605,-0.332031,0.721191,0
22730,0.477051,-0.322266,0.714355,0
22750,0.472656,-0.318359,0.69873,0
22770,0.472168,-0.31543,0.688477,0
22790,0.490723,-0.30957,0.684082,0
22810,0.512695,-0.309082,0.686035,0
22830,0.535156,-0.312012,0.686035,0
22850,0.534668,-0.323242,0.698242,0
22870,0.542969,-0.328613,0.705078,0
22890,0.540527,-0.337891,0.707031,0
22910,0.528809,-0.339844,0.705566,0
22930,0.508789,-0.339355,0.706543,0
22950,0.505371,-0.323242,0.701172,0
22960,0.483887,-0.313965,0.694824,0
22980,0.477539,-0.322754,0.693359,0
23000,0.480957,-0.325684,0.701172,0
23020,0.484863,-0.320312,0.697754,0
23040,0.489258,-0.328125,0.687988,0
23060,0.504395,-0.330566,0.697754,0
23080,0.517578,-0.339355,0.692383,0
23100,0.530273,-0.335938,0.6875,0
23120,0.536621,-0.330078,0.685547,0
23160,0.552246,-0.342773,0.683594,0
23180,0.566895,-0.353027,0.682129,0
23200,0.574707,-0.349609,0.679688,0
23220,0.597168,-0.35498,0.674316,0
23240,0.595703,-0.354492,0.678223,0
23260,0.586914,-0.354004,0.669922,0
23280,0.583984,-0.359863,0.674805,0
23300,0.589355,-0.370605,0.668945,0
23320,0.619141,-0.391602,0.638672,0
23340,0.608398,-0.388672,0.642578,0
23360,0.608398,-0.393066,0.646484,0
23380,0.605957,-0.40332,0.632812,0
23400,0.600586,-0.409668,0.609375,0
23420,0.61084,-0.416016,0.610352,0
23440,0.607422,-0.408203,0.600586,0
23460,0.578125,-0.410645,0.585449,0
23480,0.589844,-0.416016,0.567871,0
23500,0.592285,-0.410156,0.561035,0
23520,0.584473,-0.414062,0.539551,0
23540,0.562988,-0.433105,0.522461,0
23560,0.549316,-0.431641,0.519043,0
23580,0.562012,-0.425293,0.519531,0
23600,0.556152,-0.437012,0.503418,0
23620,0.507324,-0.432129,0.513672,0
23640,0.509766,-0.431152,0.513672,0
23660,0.51416,-0.45459,0.520996,0
23680,0.512207,-0.451172,0.520508,0
23700,0.516113,-0.459473,0.524902,0
23720,0.534668,-0.474121,0.536133,0
23740,0.552734,-0.469238,0.547852,0
23760,0.562988,-0.479004,0.541504,0
23780,0.570312,-0.483398,0.538574,0
23800,0.545898,-0.495117,0.54248,0
23820,0.510742,-0.493652,0.54834,0
23840,0.575195,-0.497559,0.56543,0
23860,0.641602,-0.50293,0.561035,0
23880,0.594238,-0.472168,0.557129,0
23900,0.592285,-0.509766,0.555176,0
23920,0.575684,-0.5,0.56543,0
23940,0.569336,-0.47998,0.572754,0
23960,0.57666,-0.467773,0.57666,0
23980,0.584473,-0.464844,0.579102,0
24000,0.597656,-0.466797,0.571289,0
24020,0.578613,-0.457031,0.581543,0
24040,0.564453,-0.456543,0.57959,0
24060,0.567383,-0.457031,0.583008,0
24080,0.572266,-0.453613,0.581055,0
24100,0.575195,-0.45459,0.580566,0
24120,0.574219,-0.451172,0.581543,0
24140,0.563965,-0.452637,0.583496,0
24160,0.565918,-0.460449,0.586914,0
24180,0.567871,-0.453125,0.576172,0
24200,0.558105,-0.453613,0.583008,0
24220,0.555176,-0.453125,0.575684,0
24240,0.552734,-0.450684,0.580566,0
24260,0.557129,-0.435547,0.578125,0
24280,0.552734,-0.432129,0.591309,0
24300,0.562988,-0.442383,0.589844,0
24320,0.565918,-0.448242,0.587891,0
24340,0.561035,-0.443848,0.555176,0
24360,0.567871,-0.45459,0.561523,0
24380,0.570312,-0.456543,0.569336,0
24400,0.580566,-0.44873,0.575684,0
24420,0.57959,-0.461914,0.556152,0
24440,0.577148,-0.450195,0.567871,0
24460,0.595703,-0.453613,0.583496,0
24480,0.595703,-0.443848,0.575684,0
24500,0.594727,-0.444824,0.571777,0
24520,0.602051,-0.433594,0.581543,0
24540,0.584961,-0.437988,0.580566,0
24560,0.599609,-0.462891,0.561035,0
24580,0.581543,-0.454102,0.570312,0
24600,0.587402,-0.446289,0.569824,0
24620,0.585449,-0.449707,0.564453,0
24640,0.580078,-0.446777,0.562012,0
24660,0.581055,-0.449707,0.55127,0
24680,0.570801,-0.424805,0.566406,0
24700,0.580566,-0.452637,0.568359,0
24720,0.57373,-0.45166,0.567871,0
24740,0.581055,-0.455078,0.55957,0
24760,0.584473,-0.43457,0.55957,0
24780,0.59668,-0.454102,0.557617,0
24800,0.608887,-0.449219,0.554199,0
24820,0.59668,-0.439941,0.558105,0
24840,0.594238,-0.444824,0.550293,0
24860,0.599121,-0.441406,0.55957,0
24880,0.586426,-0.445312,0.553223,0
24900,0.602539,-0.452148,0.5625,0
24920,0.60498,-0.446289,0.558594,0
24940,0.585449,-0.450195,0.559082,0
24960,0.591797,-0.45459,0.559082,0
24970,0.595703,-0.446777,0.563477,0
24990,0.588867,-0.451172,0.551758,0
25010,0.59668,-0.453613,0.550781,0
25030,0.590332,-0.455566,0.560059,0
25050,0.58252,-0.445312,0.55127,0
25070,0.579102,-0.458984,0.557617,0
25090,0.581055,-0.464844,0.559082,0
25110,0.586426,-0.456055,0.557129,0
25130,0.585449,-0.445312,0.555664,0
25150,0.588867,-0.449219,0.553223,0
25170,0.587402,-0.450684,0.549805,0
25190,0.589844,-0.439941,0.557617,0
25210,0.595215,-0.441406,0.561523,0
25230,0.602539,-0.442383,0.549805,0
25250,0.598145,-0.440918,0.557617,0
25270,0.593262,-0.45459,0.556152,0
25290,0.57373,-0.438477,0.564941,0
25310,0.583496,-0.452148,0.564453,0
25330,0.589355,-0.442871,0.567383,0
25350,0.596191,-0.422852,0.561035,0
25370,0.608887,-0.431641,0.572266,0
25390,0.604004,-0.439453,0.550293,0
25410,0.591797,-0.432617,0.541992,0
25430,0.605957,-0.432129,0.558594,0
25450,0.613281,-0.456055,0.561523,0
25470,0.598633,-0.429688,0.559082,0
25490,0.601562,-0.439453,0.569824,0
25510,0.613281,-0.429688,0.569824,0
25530,0.61084,-0.428711,0.558594,0
25550,0.598145,-0.452637,0.561035,0
25570,0.594238,-0.442383,0.571289,0
25590,0.583008,-0.442871,0.5625,0
25610,0.591309,-0.435547,0.557617,0
25630,0.583008,-0.44043,0.571777,0
25650,0.580078,-0.436035,0.57959,0
25670,0.575684,-0.415039,0.577148,0
25690,0.594238,-0.438965,0.572266,0
25710,0.584961,-0.415527,0.576172,0
25730,0.59082,-0.435059,0.59375,0
25750,0.593262,-0.423828,0.588379,0
25770,0.602051,-0.430176,0.576172,0
25790,0.610352,-0.448242,0.566406,0
25810,0.588379,-0.438965,0.572266,0
25830,0.608887,-0.433105,0.584473,0
25850,0.611816,-0.422363,0.59082,0
25870,0.608398,-0.421875,0.57373,0
25890,0.587402,-0.416992,0.57373,0
25910,0.589844,-0.429688,0.572266,0
25930,0.59375,-0.422363,0.575684,0
25950,0.583984,-0.404297,0.59668,0
25970,0.575684,-0.407715,0.586914,0
25990,0.57959,-0.408203,0.587402,0
26010,0.574219,-0.407227,0.586914,0
26030,0.582031,-0.43457,0.578613,0
26050,0.583496,-0.42627,0.595703,0
26070,0.587402,-0.431152,0.580566,0
26090,0.580078,-0.438965,0.57959,0
26110,0.583008,-0.437988,0.580566,0
26130,0.587402,-0.420898,0.556152,0
26150,0.600098,-0.415039,0.554199,0
26170,0.605469,-0.413086,0.562012,0
26190,0.602051,-0.414551,0.562012,0
26210,0.606445,-0.441895,0.561523,0
26230,0.609863,-0.436035,0.561523,0
26250,0.608887,-0.443359,0.556152,0
26270,0.606445,-0.440918,0.577148,0
26290,0.597168,-0.418945,0.592773,0
26310,0.606445,-0.413086,0.602539,0
26330,0.611816,-0.421875,0.594238,0
26350,0.625977,-0.418457,0.580566,0
26370,0.639648,-0.437988,0.572754,0
26390,0.643066,-0.446289,0.576172,0
26410,0.655762,-0.456055,0.562012,0
26430,0.65918,-0.466797,0.564453,0
26450,0.654785,-0.453125,0.570801,0
26470,0.644043,-0.463379,0.550293,0
26490,0.661621,-0.467773,0.533691,0
26510,0.647949,-0.449219,0.520996,0
26530,0.623535,-0.452148,0.508301,0
26550,0.60791,-0.444336,0.47998,0
26570,0.588379,-0.438477,0.481445,0
26590,0.576172,-0.431641,0.462402,0
26610,0.559082,-0.427246,0.434082,0
26630,0.560547,-0.437012,0.405762,0
26650,0.561523,-0.427734,0.410645,0
26670,0.572266,-0.406738,0.420898,0
26690,0.629395,-0.417969,0.401855,0
26710,0.655273,-0.429199,0.390137,0
26730,0.638672,-0.418945,0.42041,0
26750,0.622559,-0.408203,0.467285,0
26770,0.615234,-0.397949,0.506348,0
26790,0.62207,-0.404297,0.512695,0
26810,0.601074,-0.393066,0.553223,0
26830,0.574219,-0.403809,0.583008,0
26850,0.568359,-0.376465,0.623047,0
26870,0.557129,-0.385254,0.648438,0
26890,0.540039,-0.371094,0.635254,0
26910,0.547852,-0.383789,0.630859,0
26930,0.524414,-0.373535,0.702637,0
26950,0.519043,-0.431152,0.76416,0
26970,0.538086,-0.443359,0.757812,0
26990,0.535156,-0.40918,0.786133,0
27010,0.550293,-0.43457,0.778809,0
27030,0.568848,-0.47168,0.751953,0
27050,0.558105,-0.442871,0.750488,0
27070,0.571777,-0.401367,0.745117,0
27090,0.56543,-0.410156,0.718262,0
27110,0.59082,-0.421875,0.66748,0
27130,0.581055,-0.41748,0.663086,0
27150,0.54541,-0.378906,0.663086,0
27170,0.569824,-0.429199,0.604004,0
27190,0.606934,-0.387207,0.598633,0
27210,0.570312,-0.361816,0.656738,0
27230,0.593262,-0.393066,0.605957,0
27250,0.626465,-0.421875,0.559082,0
27270,0.650391,-0.453125,0.551758,0
27290,0.63916,-0.474609,0.516602,0
27310,0.614258,-0.518066,0.485352,0
27330,0.618164,-0.536621,0.438965,0
27350,0.610352,-0.524902,0.409668,0
27370,0.592285,-0.501953,0.410156,0
27390,0.56543,-0.457031,0.398926,0
27410,0.546387,-0.451172,0.383789,0
27430,0.597656,-0.43457,0.366211,0
27450,0.608398,-0.402344,0.365234,0
27470,0.636719,-0.391602,0.372559,0
27490,0.651855,-0.380859,0.36377,0
27510,0.659668,-0.387207,0.366699,0
27530,0.653809,-0.378418,0.372559,0
27550,0.654785,-0.378418,0.401855,0
27570,0.672852,-0.419922,0.442383,0
27590,0.675781,-0.404785,0.480957,0
27610,0.662598,-0.395996,0.534668,0
27630,0.660156,-0.418457,0.55127,0
27650,0.672363,-0.426758,0.574219,0
27670,0.655273,-0.427734,0.581055,0
27690,0.624023,-0.403809,0.575684,0
27710,0.575195,-0.359863,0.591797,0
27730,0.541992,-0.314453,0.624512,0
27750,0.503906,-0.286621,0.679688,0
27770,0.536621,-0.322754,0.713379,0
27790,0.575195,-0.362793,0.709961,0
27810,0.539551,-0.390625,0.746582,0
27830,0.522949,-0.470703,0.775879,0
27850,0.546387,-0.464844,0.780273,0
27870,0.566895,-0.437012,0.744629,0
27890,0.577148,-0.42334,0.723633,0
27910,0.570312,-0.415527,0.72168,0
27930,0.552734,-0.409668,0.70459,0
27950,0.537598,-0.392578,0.694336,0
27970,0.53125,-0.399414,0.67041,0
27990,0.513184,-0.399414,0.665527,0
28010,0.496582,-0.395508,0.670898,0
28030,0.492188,-0.386719,0.659668,0
28050,0.517578,-0.396484,0.641602,0
28070,0.542969,-0.378418,0.624023,0
28090,0.539551,-0.390625,0.601074,0
28110,0.540527,-0.38623,0.59375,0
28130,0.543457,-0.384766,0.604492,0
28150,0.543945,-0.383301,0.595215,0
28170,0.555176,-0.377441,0.587891,0
28190,0.564941,-0.376953,0.565918,0
28210,0.569336,-0.379883,0.55957,0
28230,0.56543,-0.387207,0.568359,0
28250,0.549805,-0.367188,0.581543,0
28270,0.557129,-0.380859,0.577637,0
28290,0.570801,-0.387207,0.591797,0
28310,0.580566,-0.38623,0.595703,0
28330,0.575684,-0.389648,0.595215,0
28350,0.567871,-0.400391,0.586914,0
28370,0.581543,-0.413574,0.59375,0
28390,0.594727,-0.40625,0.604004,0
28410,0.600586,-0.399902,0.61377,0
28420,0.583984,-0.395508,0.608398,0
28440,0.55957,-0.390625,0.628418,0
28460,0.553711,-0.405762,0.634766,0
28480,0.550781,-0.413086,0.645996,0
28500,0.52832,-0.422363,0.653809,0
28520,0.519531,-0.423828,0.640625,0
28540,0.51123,-0.426758,0.635742,0
28560,0.502441,-0.415039,0.651855,0
28580,0.501465,-0.425781,0.648438,0
28600,0.503906,-0.418457,0.650391,0
28620,0.499023,-0.404785,0.648926,0
28640,0.501465,-0.395996,0.645996,0
28660,0.496582,-0.398438,0.658203,0
28680,0.505859,-0.397949,0.657227,0
28700,0.525391,-0.39502,0.666992,0
28720,0.520508,-0.401367,0.660156,0
28740,0.520996,-0.411621,0.651367,0
28760,0.525879,-0.421387,0.651367,0
28780,0.529785,-0.415527,0.646973,0
28800,0.525391,-0.416504,0.654297,0
28820,0.519531,-0.418457,0.660156,0
28840,0.52002,-0.423828,0.650879,0
28860,0.516113,-0.410645,0.640625,0
28880,0.504883,-0.409668,0.645996,0
28900,0.500977,-0.413574,0.650879,0
28920,0.500977,-0.41748,0.64502,0
28940,0.502441,-0.414062,0.634277,0
28960,0.498047,-0.413574,0.629883,0
28980,0.494141,-0.419922,0.637695,0
29000,0.485352,-0.416504,0.651855,0
29020,0.48877,-0.416016,0.644043,0
29040,0.5,-0.428711,0.644043,0
29060,0.494629,-0.419922,0.649414,0
29080,0.472168,-0.416504,0.648926,0
29100,0.48584,-0.424316,0.644531,0
29120,0.486816,-0.435547,0.649902,0
29140,0.490723,-0.439453,0.654785,0
29160,0.472168,-0.43457,0.663086,0
29180,0.45166,-0.441895,0.670898,0
29200,0.460449,-0.441406,0.68457,0
29220,0.468262,-0.450684,0.685059,0
29240,0.472656,-0.449707,0.67041,0
29260,0.474121,-0.444336,0.668945,0
29280,0.456543,-0.434082,0.682129,0
29300,0.461426,-0.439453,0.685547,0
29320,0.463867,-0.435059,0.688477,0
29340,0.453125,-0.427246,0.685059,0
29360,0.448242,-0.434082,0.685059,0
29380,0.445801,-0.431641,0.688477,0
29400,0.442871,-0.429199,0.691406,0
29420,0.446777,-0.416992,0.707031,0
29440,0.440918,-0.433105,0.709473,0
29460,0.447266,-0.44043,0.702637,0
29480,0.453125,-0.430664,0.700195,0
29500,0.444824,-0.430176,0.698242,0
29520,0.443359,-0.425781,0.689453,0
29540,0.44873,-0.434082,0.685059,0
29560,0.44873,-0.425293,0.6875,0
29580,0.448242,-0.419434,0.681641,0
29600,0.442383,-0.431641,0.667969,0
29620,0.443359,-0.42627,0.678223,0
29640,0.439453,-0.429199,0.677734,0
29660,0.427246,-0.433594,0.686035,0
29680,0.429199,-0.437988,0.691895,0
29700,0.433105,-0.436035,0.691406,0
29720,0.431152,-0.444824,0.682617,0
29740,0.428711,-0.435547,0.662598,0
29760,0.424316,-0.433105,0.666504,0
29780,0.424316,-0.422363,0.67041,0
29800,0.425781,-0.415039,0.67334,0
29820,0.416016,-0.427246,0.667969,0
29840,0.415527,-0.437988,0.647461,0
29860,0.403809,-0.437988,0.651367,0
29880,0.419922,-0.441895,0.638672,0
29900,0.427246,-0.442871,0.651367,0
29920,0.444824,-0.451172,0.671387,0
29940,0.430176,-0.453613,0.679199,0
29960,0.436523,-0.444824,0.710449,0
29980,0.459961,-0.444824,0.719727,0
30000,0.454102,-0.43457,0.743652,0
30020,0.461914,-0.430664,0.734375,0
30040,0.479492,-0.435059,0.743164,0
30060,0.503906,-0.440918,0.75,0
30080,0.506836,-0.444336,0.751465,0
30100,0.506836,-0.431641,0.763672,0
30120,0.538574,-0.408691,0.746582,0
30140,0.533691,-0.407715,0.727539,0
30160,0.520996,-0.397949,0.693848,0
30180,0.528809,-0.415527,0.681641,0
30200,0.528809,-0.368652,0.682129,0
30220,0.542969,-0.343262,0.650879,0
30240,0.539551,-0.325195,0.620605,0
30260,0.544434,-0.302734,0.611816,0
30280,0.547363,-0.291504,0.615234,0
30300,0.531738,-0.290039,0.602539,0
30320,0.531738,-0.288574,0.58252,0
30340,0.538574,-0.283203,0.581055,0
30360,0.556152,-0.294434,0.583496,0
30380,0.57373,-0.308105,0.566895,0
30400,0.557129,-0.3125,0.568848,0
30420,0.556641,-0.317383,0.578125,0
30430,0.556152,-0.32373,0.598145,0
30450,0.552734,-0.330566,0.617188,0
30470,0.536621,-0.34375,0.637695,0
30490,0.553223,-0.342285,0.655273,0
30510,0.536621,-0.336426,0.681641,0
30530,0.505859,-0.33252,0.675293,0
30550,0.498535,-0.364258,0.688965,0
30570,0.473145,-0.375,0.719727,0
30590,0.448242,-0.405273,0.739746,0
30610,0.424805,-0.45459,0.770508,0
30630,0.382812,-0.464844,0.796387,0
30650,0.364746,-0.518066,0.813965,0
30670,0.378418,-0.568359,0.786621,0
30690,0.37793,-0.603516,0.753418,0
30710,0.37207,-0.630859,0.730469,0
30730,0.367676,-0.633789,0.719727,0
30750,0.36084,-0.625488,0.692383,0
30770,0.38916,-0.607422,0.677734,0
30790,0.423828,-0.590332,0.672852,0
30810,0.431152,-0.571777,0.658203,0
30830,0.461426,-0.48877,0.655273,0
30850,0.441406,-0.493164,0.640137,0
30870,0.437012,-0.492188,0.622559,0
30890,0.424805,-0.486328,0.602539,0
30910,0.448242,-0.455078,0.569824,0
30930,0.405762,-0.431152,0.566895,0
30950,0.387695,-0.42041,0.550781,0
30970,0.383789,-0.423828,0.544922,0
30990,0.376465,-0.416504,0.553711,0
31010,0.380859,-0.430176,0.564941,0
31030,0.411621,-0.40625,0.570801,0
31050,0.450195,-0.369629,0.594238,0
31070,0.460449,-0.342285,0.639648,0
31090,0.429199,-0.299316,0.636719,0
31110,0.403809,-0.305176,0.620605,0
31130,0.406738,-0.353516,0.719238,0
31150,0.292969,-0.388672,0.772461,0
31170,0.262207,-0.34668,0.793945,0
31190,0.258789,-0.353516,0.862793,0
31210,0.258301,-0.404785,0.914551,0
31230,0.298828,-0.42627,0.929688,0
31250,0.360352,-0.512207,0.957031,0
31270,0.420898,-0.575684,0.956055,0
31290,0.446289,-0.604004,0.913574,0
31310,0.409668,-0.575684,0.936035,0
31330,0.388672,-0.458496,0.926758,0
31350,0.384277,-0.379883,0.892578,0
31370,0.332031,-0.370605,0.845703,0
31390,0.290039,-0.358398,0.815918,0
31410,0.28418,-0.335938,0.808105,0
31430,0.277832,-0.302734,0.785156,0
31450,0.263672,-0.273926,0.758301,0
31470,0.280762,-0.277344,0.719727,0
31490,0.307129,-0.265625,0.686523,0
31510,0.348145,-0.296387,0.666504,0
31530,0.369629,-0.329102,0.630371,0
31550,0.386719,-0.379395,0.620605,0
31570,0.369141,-0.384277,0.629883,0
31590,0.359375,-0.392578,0.661621,0
31610,0.37207,-0.455566,0.607422,0
31630,0.359863,-0.479492,0.651855,0
31650,0.30957,-0.513672,0.691406,0
31670,0.290527,-0.536621,0.656738,0
31690,0.249512,-0.578125,0.67627,0
31710,0.24707,-0.650391,0.699707,0
31730,0.285645,-0.681641,0.737793,0
31750,0.28125,-0.67627,0.749512,0
31770,0.280762,-0.717773,0.743652,0
31790,0.339355,-0.757812,0.694336,0
31810,0.338379,-0.726562,0.668457,0
31830,0.306152,-0.640137,0.631836,0
31850,0.334473,-0.589355,0.59082,0
31870,0.380371,-0.567871,0.623535,0
31890,0.357422,-0.56543,0.610352,0
31910,0.331543,-0.54541,0.558594,0
31930,0.323242,-0.535156,0.554199,0
31950,0.313477,-0.486816,0.616211,0
31970,0.302734,-0.511719,0.651367,0
31990,0.333496,-0.469727,0.668945,0
32010,0.346191,-0.417969,0.663086,0
32030,0.339844,-0.389648,0.686035,0
32050,0.3125,-0.436523,0.646484,0
32070,0.264648,-0.50293,0.651855,0
32090,0.212891,-0.527344,0.73291,0
32110,0.179688,-0.519043,0.772949,0
32130,0.209473,-0.581543,0.763184,0
32150,0.253418,-0.574707,0.771484,0
32170,0.291016,-0.523438,0.778809,0
32190,0.286621,-0.505859,0.777344,0
32210,0.263184,-0.509277,0.767578,0
32230,0.259766,-0.552246,0.750977,0
32250,0.27832,-0.543945,0.742676,0
32270,0.29248,-0.54248,0.763672,0
32290,0.259766,-0.54834,0.748047,0
32310,0.208008,-0.584961,0.686035,0
32330,0.22998,-0.597168,0.728027,0
32350,0.211426,-0.563477,0.750977,0
32370,0.163086,-0.606934,0.733398,0
32390,0.141113,-0.622559,0.714355,0
32410,0.147461,-0.660645,0.712402,0
32430,0.147461,-0.665039,0.693848,0
32450,0.129395,-0.631348,0.69873,0
32470,0.177246,-0.554199,0.738281,0
32490,0.208008,-0.52002,0.740723,0
32510,0.217285,-0.523438,0.719727,0
32530,0.19873,-0.582031,0.700195,0
32550,0.221191,-0.555176,0.681641,0
32570,0.243164,-0.564941,0.715332,0
32590,0.305664,-0.529785,0.759766,0
32610,0.291504,-0.606445,0.720703,0
32630,0.244141,-0.547852,0.714844,0
32650,0.197266,-0.543945,0.735352,0
32670,0.231934,-0.567871,0.698242,0
32690,0.236816,-0.501953,0.711426,0
32710,0.254395,-0.479492,0.71582,0
32730,0.29248,-0.484863,0.708008,0
32750,0.290039,-0.497559,0.710449,0
32770,0.327637,-0.541016,0.71582,0
32790,0.34082,-0.511719,0.723633,0
32810,0.334961,-0.550293,0.686035,0
32830,0.324219,-0.556152,0.67627,0
32850,0.22168,-0.556152,0.69873,0
32870,0.226562,-0.587402,0.702148,0
32890,0.233398,-0.579102,0.711426,0
32910,0.23877,-0.546387,0.703125,0
32930,0.249512,-0.518066,0.709473,0
32950,0.287598,-0.532715,0.697754,0
32970,0.293945,-0.580078,0.675781,0
32990,0.280273,-0.561523,0.680664,0
33010,0.284668,-0.55127,0.674805,0
33030,0.305176,-0.538086,0.691406,0
33050,0.297852,-0.540039,0.669434,0
33070,0.294434,-0.560059,0.666992,0
33090,0.283203,-0.54834,0.696289,0
33110,0.292969,-0.544434,0.70752,0
33130,0.272949,-0.563477,0.697754,0
33150,0.320312,-0.566406,0.719238,0
33170,0.337402,-0.602051,0.706055,0
33190,0.287598,-0.629883,0.69043,0
33210,0.284668,-0.614258,0.651855,0
33230,0.303711,-0.589844,0.678223,0
33250,0.297852,-0.513672,0.719727,0
33270,0.282715,-0.515625,0.697266,0
33290,0.31543,-0.498535,0.685059,0
33310,0.303223,-0.53125,0.713379,0
33330,0.313965,-0.527344,0.713867,0
33350,0.312988,-0.486816,0.719238,0
33370,0.31543,-0.510254,0.681152,0
33390,0.313965,-0.489746,0.678711,0
33410,0.30957,-0.525391,0.668945,0
33430,0.317383,-0.52832,0.69043,0
33450,0.324219,-0.553223,0.695801,0
33470,0.341309,-0.50293,0.681641,0
33490,0.311523,-0.553223,0.663086,0
33510,0.318848,-0.537598,0.676758,0
33530,0.303223,-0.54541,0.6875,0
33550,0.305664,-0.558105,0.67041,0
33570,0.303223,-0.558594,0.677734,0
33590,0.305176,-0.563477,0.677734,0
33610,0.310547,-0.567871,0.690918,0
33630,0.3125,-0.54834,0.680664,0
33650,0.321289,-0.551758,0.683105,0
33670,0.316406,-0.566895,0.678223,0
33690,0.317871,-0.549316,0.674316,0
33710,0.321777,-0.53418,0.672363,0
33730,0.324219,-0.549316,0.686035,0
33750,0.325684,-0.562988,0.68457,0
33770,0.329102,-0.560059,0.673828,0
33790,0.326172,-0.545898,0.681641,0
33810,0.3125,-0.552734,0.67627,0
33830,0.327148,-0.570801,0.664551,0
33850,0.346191,-0.572266,0.666016,0
33860,0.333496,-0.573242,0.677734,0
33880,0.339355,-0.610352,0.669434,0
33900,0.354492,-0.61084,0.665527,0
33920,0.363281,-0.612793,0.667969,0
33940,0.367188,-0.636719,0.643555,0
33960,0.381836,-0.67334,0.63623,0
33980,0.368164,-0.660645,0.639648,0
34000,0.339844,-0.63623,0.657227,0
34020,0.327148,-0.640625,0.659668,0
34040,0.325195,-0.640625,0.658691,0
34060,0.307617,-0.633789,0.658691,0
34080,0.297363,-0.656738,0.63916,0
34100,0.291992,-0.662109,0.647461,0
34120,0.258301,-0.646484,0.647949,0
34140,0.240234,-0.617676,0.639648,0
34160,0.245605,-0.623535,0.620605,0
34180,0.197266,-0.633301,0.625488,0
34200,0.161621,-0.650391,0.630371,0
34220,0.168457,-0.631836,0.617188,0
34240,0.17041,-0.624512,0.612793,0
34260,0.180176,-0.657227,0.603027,0
34280,0.174316,-0.686035,0.587891,0
34300,0.17041,-0.67627,0.578613,0
34320,0.208008,-0.648438,0.589355,0
34340,0.213867,-0.647949,0.581055,0
34360,0.220703,-0.694824,0.578125,0
34380,0.248047,-0.719238,0.585938,0
34400,0.260742,-0.69873,0.586914,0
34420,0.250488,-0.70459,0.580078,0
34440,0.285645,-0.700195,0.592285,0
34460,0.30127,-0.69873,0.589844,0
34480,0.268555,-0.714355,0.583496,0
34500,0.289551,-0.716309,0.584473,0
34520,0.270996,-0.702637,0.56543,0
34540,0.259766,-0.706055,0.559082,0
34560,0.282227,-0.685547,0.577637,0
34580,0.255859,-0.700195,0.578125,0
34600,0.246094,-0.71582,0.568359,0
34620,0.255859,-0.700195,0.583008,0
34640,0.235352,-0.682129,0.583496,0
34660,0.244629,-0.687988,0.561523,0
34680,0.278809,-0.688477,0.578125,0
34700,0.270996,-0.691895,0.588379,0
34720,0.249023,-0.694824,0.566895,0
34740,0.243652,-0.690918,0.568848,0
34760,0.254883,-0.684082,0.5625,0
34780,0.271484,-0.6875,0.567871,0
34800,0.234863,-0.679199,0.568359,0
34820,0.250977,-0.696289,0.568848,0
34840,0.317383,-0.708984,0.580566,0
34860,0.289551,-0.695312,0.581055,0
34880,0.227539,-0.686523,0.5625,0
34900,0.26123,-0.712402,0.565918,0
34920,0.333984,-0.709473,0.563965,0
34940,0.293945,-0.703125,0.567383,0
34960,0.240234,-0.702148,0.554199,0
34980,0.274414,-0.717285,0.557617,0
35000,0.336426,-0.728516,0.570801,0
35020,0.315918,-0.727051,0.562012,0
35040,0.261719,-0.709961,0.558594,0
35060,0.262695,-0.702637,0.543457,0
35080,0.274902,-0.72168,0.557617,0
35100,0.267578,-0.724609,0.541504,0
35120,0.279785,-0.716309,0.54248,0
35140,0.258301,-0.701172,0.549316,0
35160,0.268066,-0.697754,0.56543,0
35180,0.280762,-0.707031,0.563477,0
35200,0.23877,-0.72168,0.550781,0
35220,0.241211,-0.714355,0.569336,0
35240,0.245605,-0.698242,0.563477,0
35260,0.240234,-0.68457,0.550781,0
35280,0.228516,-0.695312,0.563477,0
35300,0.234863,-0.700684,0.558594,0
35320,0.227051,-0.727051,0.550293,0
35340,0.249512,-0.728516,0.549805,0
35360,0.278809,-0.714355,0.541504,0
35380,0.277832,-0.72168,0.550293,0
35400,0.291504,-0.728516,0.554199,0
35420,0.321777,-0.724609,0.555176,0
35440,0.326172,-0.727051,0.55957,0
35460,0.321289,-0.734863,0.55127,0
35480,0.3125,-0.725586,0.538574,0
35500,0.310547,-0.724121,0.550781,0
35520,0.295898,-0.716797,0.543945,0
35540,0.269043,-0.716309,0.544922,0
35560,0.269043,-0.709961,0.553223,0
35580,0.25,-0.697754,0.560059,0
35600,0.225586,-0.700195,0.554688,0
35620,0.247559,-0.706055,0.555176,0
35640,0.265625,-0.710938,0.545898,0
35660,0.265625,-0.708008,0.557617,0
35680,0.270508,-0.713379,0.567871,0
35700,0.299316,-0.733887,0.556641,0
35720,0.295898,-0.723633,0.548828,0
35740,0.288086,-0.720703,0.549805,0
35760,0.282715,-0.71875,0.555176,0
35780,0.276855,-0.731445,0.538086,0
35800,0.273438,-0.718262,0.536621,0
35820,0.261719,-0.700684,0.556641,0
35840,0.248047,-0.706543,0.569336,0
35860,0.256836,-0.722656,0.547363,0
35880,0.262695,-0.711426,0.550781,0
35890,0.247559,-0.710449,0.555664,0
35910,0.237793,-0.730957,0.543457,0
35930,0.257812,-0.743164,0.548828,0
35950,0.268066,-0.728027,0.559082,0
35970,0.270508,-0.726074,0.561523,0
35990,0.256348,-0.741211,0.568848,0
36010,0.243164,-0.72998,0.550293,0
36030,0.272949,-0.714355,0.561523,0
36050,0.288574,-0.723633,0.571777,0
36070,0.257812,-0.72998,0.555176,0
36090,0.254883,-0.73877,0.55127,0
36110,0.30127,-0.711914,0.563477,0
36130,0.271973,-0.711426,0.556152,0
36150,0.244629,-0.726074,0.550293,0
36170,0.259766,-0.727539,0.559082,0
36190,0.282227,-0.73291,0.54834,0
36210,0.270508,-0.733887,0.543945,0
36230,0.255371,-0.713379,0.545898,0
36250,0.260742,-0.716309,0.545898,0
36270,0.269531,-0.728027,0.551758,0
36290,0.26123,-0.711426,0.548828,0
36310,0.252441,-0.712402,0.544922,0
36330,0.280762,-0.719238,0.550781,0
36350,0.282715,-0.716309,0.540527,0
36370,0.259766,-0.726074,0.555664,0
36390,0.270996,-0.725586,0.564453,0
36410,0.26416,-0.717285,0.544922,2000
36430,0.267578,-0.712891,0.554199,0
36450,0.264648,-0.725586,0.544922,0
36470,0.267578,-0.716797,0.557617,0
36490,0.266602,-0.727539,0.555176,0
36510,0.249512,-0.73877,0.541504,0
36530,0.244141,-0.72168,0.555176,0
36550,0.265137,-0.709473,0.551758,0
36570,0.260254,-0.726074,0.549316,0
36590,0.240234,-0.722168,0.546387,0
36610,0.242188,-0.708008,0.546387,0
36630,0.282715,-0.719727,0.54248,0
36650,0.288086,-0.735352,0.551758,0
36670,0.25,-0.733887,0.544922,0
36690,0.256348,-0.71582,0.556641,0
36710,0.26416,-0.71582,0.551758,0
36730,0.263672,-0.729492,0.550781,0
36750,0.253906,-0.729492,0.549316,0
36770,0.23584,-0.719238,0.541504,0
36790,0.253906,-0.735352,0.544922,0
36810,0.282715,-0.714844,0.540527,0
36830,0.25,-0.725098,0.552734,0
36850,0.224121,-0.733887,0.553223,0
36870,0.255859,-0.73877,0.533691,0
36890,0.262695,-0.718262,0.550781,0
36910,0.235352,-0.708496,0.542969,0
36930,0.23584,-0.709961,0.542969,0
36950,0.251953,-0.716797,0.532227,0
36970,0.262207,-0.711426,0.532715,0
36990,0.247559,-0.693848,0.539551,0
37010,0.246582,-0.697266,0.549316,0
37030,0.272949,-0.69873,0.536621,0
37050,0.26123,-0.701172,0.536621,0
37070,0.254883,-0.702637,0.543945,0
37090,0.294922,-0.706543,0.544922,0
37110,0.292969,-0.695801,0.533203,0
37130,0.287598,-0.689941,0.537109,0
37150,0.301758,-0.699707,0.552246,0
37170,0.30957,-0.710449,0.563965,0
37190,0.298828,-0.713867,0.564941,0
37210,0.306152,-0.719238,0.546875,0
37230,0.34375,-0.681641,0.55957,0
37250,0.37793,-0.669922,0.543457,0
37270,0.350586,-0.702148,0.548828,0
37290,0.380371,-0.680664,0.564453,0
37310,0.385254,-0.672363,0.554199,0
37330,0.361816,-0.693359,0.516602,0
37350,0.384766,-0.673828,0.537109,0
37370,0.442383,-0.687012,0.548828,0
37390,0.429688,-0.668457,0.549805,0
37410,0.385742,-0.644043,0.546387,0
37430,0.413574,-0.66748,0.517578,0
37450,0.471191,-0.659668,0.521484,0
37470,0.458984,-0.644043,0.539551,0
37490,0.42334,-0.624023,0.536621,0
37510,0.450195,-0.612305,0.536133,0
37530,0.496582,-0.600098,0.507324,0
37550,0.495605,-0.629883,0.526367,0
37570,0.470703,-0.62793,0.505371,0
37590,0.513184,-0.600586,0.49707,0
37610,0.546875,-0.589355,0.507324,0
37630,0.524902,-0.606445,0.500488,0
37650,0.513184,-0.579102,0.5,0
37670,0.566895,-0.588379,0.517578,0
37690,0.572754,-0.585938,0.489258,0
37710,0.552246,-0.614746,0.44873,0
37730,0.442871,-0.538574,0.458984,0
37750,0.634766,-0.561523,0.475586,0
37770,0.623535,-0.553711,0.466309,0
37790,0.602539,-0.558594,0.447754,0
37810,0.598633,-0.539551,0.445312,0
37830,0.711914,-0.529297,0.452637,0
37850,0.688965,-0.516113,0.412598,0
37870,0.824707,-0.501465,0.359375,0
37890,0.644043,-0.515137,0.404785,0
37910,0.657227,-0.506836,0.379395,0
37930,0.800293,-0.51123,0.353027,0
37950,0.694336,-0.515625,0.378418,0
37970,0.69043,-0.486816,0.382812,0
37990,0.794434,-0.475098,0.39209,0
38010,0.797852,-0.457031,0.370117,0
38030,0.786621,-0.456055,0.350586,0
38050,0.772949,-0.450195,0.319336,0
38070,0.795898,-0.449219,0.329102,0
38090,0.814453,-0.440918,0.333008,0
38110,0.79248,-0.419922,0.312012,0
38130,0.807129,-0.402832,0.306641,0
38150,0.831543,-0.400391,0.314453,0
38170,0.821289,-0.385742,0.316895,0
38190,0.806641,-0.378906,0.340332,0
38210,0.794922,-0.387695,0.345703,0
38230,0.798828,-0.375488,0.346191,0
38250,0.791992,-0.375977,0.373535,0
38270,0.75,-0.383301,0.376953,0
38290,0.773438,-0.379883,0.376953,0
38310,0.787109,-0.420898,0.398438,0
38330,0.771973,-0.405273,0.41748,0
38350,0.776367,-0.410645,0.426758,0
38370,0.786133,-0.395996,0.428223,0
38390,0.776367,-0.390137,0.440918,0
38410,0.773438,-0.407715,0.461914,0
38430,0.774414,-0.42334,0.46582,0
38450,0.711426,-0.39502,0.495117,0
38470,0.742676,-0.400879,0.509766,0
38490,0.707031,-0.405273,0.512207,0
38510,0.688965,-0.412109,0.529297,0
38530,0.687988,-0.42334,0.523926,0
38550,0.680664,-0.410156,0.546875,0
38570,0.633301,-0.412598,0.548828,0
38590,0.638672,-0.397949,0.55957,0
38610,0.643555,-0.398926,0.57666,0
38630,0.629395,-0.411621,0.552734,0
38650,0.600586,-0.426758,0.566406,0
38670,0.593262,-0.42627,0.640137,0
38690,0.629395,-0.378906,0.584473,0
38710,0.627441,-0.416016,0.588379,0
38730,0.625977,-0.398926,0.645508,0
38750,0.583008,-0.447266,0.621582,0
38770,0.556152,-0.414062,0.647461,0
38790,0.541992,-0.423828,0.651855,0
38810,0.541016,-0.424805,0.641602,0
38830,0.563477,-0.398926,0.61377,0
38850,0.591797,-0.37207,0.638672,0
38870,0.532715,-0.349609,0.659668,0
38890,0.478516,-0.387695,0.655762,0
38910,0.463867,-0.452637,0.649414,0
38930,0.468262,-0.459961,0.661621,0
38950,0.487305,-0.419434,0.661133,0
38970,0.484863,-0.437988,0.624512,0
38990,0.458008,-0.441895,0.634766,0
39010,0.395508,-0.472168,0.646973,0
39030,0.39209,-0.495605,0.635742,0
39050,0.441895,-0.471191,0.62207,0
39070,0.450684,-0.454102,0.617676,0
39090,0.425781,-0.498535,0.601562,0
39110,0.404297,-0.510742,0.644043,0
39130,0.393555,-0.52832,0.625,0
39150,0.45459,-0.529297,0.617676,0
39170,0.455078,-0.528809,0.602051,0
39190,0.367676,-0.533203,0.618652,0
39210,0.337891,-0.560059,0.615234,0
39230,0.380371,-0.555664,0.605957,0
39250,0.373535,-0.557617,0.612793,0
39270,0.351074,-0.569336,0.614746,0
39290,0.377441,-0.566895,0.600586,0
39310,0.398926,-0.566406,0.615723,0
39320,0.394043,-0.577148,0.603027,0
39340,0.40918,-0.586914,0.578613,0
39360,0.453613,-0.589355,0.596191,0
39380,0.439941,-0.595215,0.585938,0
39400,0.424805,-0.604492,0.555176,0
39420,0.401367,-0.578613,0.55127,0
39440,0.410645,-0.579102,0.547363,0
39460,0.486328,-0.609375,0.540039,0
39480,0.452637,-0.623047,0.51416,0
39500,0.378418,-0.603027,0.520508,0
39520,0.433105,-0.620117,0.525879,0
39540,0.500488,-0.640137,0.512207,0
39560,0.421875,-0.64209,0.488281,0
39580,0.361816,-0.650391,0.494629,0
39600,0.44043,-0.662109,0.489746,0
39620,0.413086,-0.65332,0.474121,0
39640,0.353027,-0.683105,0.456055,0
39660,0.427734,-0.698242,0.489746,0
39680,0.482422,-0.695312,0.470215,0
39700,0.386719,-0.696289,0.442871,0
39720,0.350098,-0.694824,0.446777,0
39740,0.412598,-0.696289,0.460938,0
39760,0.427246,-0.681152,0.46875,0
39780,0.406738,-0.694336,0.456543,0
39800,0.445801,-0.699707,0.460938,0
39820,0.466797,-0.692871,0.464844,0
39840,0.411621,-0.65918,0.478516,0
39860,0.427246,-0.67041,0.444336,0
39880,0.513672,-0.73584,0.404785,0
39900,0.529297,-0.689941,0.455566,0
39920,0.504395,-0.63623,0.464844,0
39940,0.574707,-0.618164,0.39502,0
39960,0.57373,-0.67041,0.42627,0
39980,0.573242,-0.632812,0.415039,0
40000,0.581055,-0.640625,0.411621,0
40020,0.569336,-0.664551,0.394043,0
40040,0.554688,-0.623047,0.37793,0
40060,0.59375,-0.599121,0.390137,0
40080,0.659668,-0.57373,0.369141,0
40100,0.665527,-0.600098,0.359863,0
40120,0.616699,-0.616211,0.336426,0
40140,0.644531,-0.581543,0.32959,0
40160,0.712402,-0.583008,0.344238,0
40180,0.666992,-0.578613,0.299316,0
40200,0.662109,-0.604004,0.28125,0
40220,0.693848,-0.567383,0.311035,0
40240,0.722656,-0.547363,0.325195,0
40260,0.733887,-0.553223,0.260742,0
40280,0.736328,-0.575195,0.241699,0
40300,0.726074,-0.535156,0.260742,0
40320,0.765137,-0.515137,0.28125,0
40340,0.750488,-0.525391,0.23877,0
40360,0.799316,-0.505371,0.205078,0
40380,0.794922,-0.490723,0.226074,0
40400,0.812988,-0.479492,0.22168,0
40420,0.788574,-0.491699,0.222168,0
40440,0.781738,-0.477539,0.213379,0
40460,0.822754,-0.460449,0.213867,0
40480,0.926758,-0.419922,0.193359,0
40500,0.848145,-0.447266,0.191406,0
40520,0.839844,-0.433105,0.199707,0
40540,0.848633,-0.423828,0.193359,0
40560,0.86377,-0.410156,0.194824,0
40580,0.901367,-0.402344,0.195801,0
40600,0.898926,-0.404785,0.198242,0
40620,0.89209,-0.382812,0.193848,0
40640,0.933105,-0.378906,0.170898,0
40660,0.90918,-0.348145,0.194336,0
40680,0.929199,-0.350586,0.204102,0
40700,0.925293,-0.351562,0.187988,0
40720,0.924316,-0.342773,0.229492,0
40740,0.891602,-0.331543,0.242676,0
40760,0.855957,-0.31543,0.255371,0
40780,0.862305,-0.304688,0.302734,0
40800,0.861328,-0.313965,0.296387,0
40820,0.844238,-0.324707,0.305176,0
40840,0.859863,-0.322266,0.351074,0
40860,0.833496,-0.30957,0.381836,0
40880,0.805176,-0.330566,0.375,0
40900,0.789551,-0.353516,0.391602,0
40920,0.821289,-0.336426,0.407227,0
40940,0.833496,-0.323242,0.419922,0
40960,0.844727,-0.30957,0.422852,0
40980,0.812988,-0.327637,0.455078,0
41000,0.769531,-0.35791,0.459961,0
41020,0.75,-0.324219,0.476562,0
41040,0.78418,-0.259766,0.498047,0
41060,0.785645,-0.324707,0.484863,0
41080,0.665039,-0.384766,0.49707,0
41100,0.704102,-0.297852,0.562012,0
41120,0.713379,-0.265137,0.537598,0
41140,0.757324,-0.234375,0.510742,0
41160,0.746582,-0.231934,0.545898,0
41180,0.705566,-0.239746,0.558594,0
41200,0.696777,-0.286621,0.568359,0
41220,0.712891,-0.314453,0.584961,0
41240,0.69873,-0.333984,0.585938,0
41260,0.651367,-0.303223,0.568359,0
41280,0.645996,-0.315918,0.583008,0
41300,0.624023,-0.345703,0.586914,0
41320,0.607422,-0.337891,0.596191,0
41330,0.597656,-0.343262,0.607422,0
41350,0.591309,-0.359375,0.592285,0
41370,0.586914,-0.37207,0.640625,0
41390,0.55957,-0.412598,0.614746,0
41410,0.549805,-0.405762,0.623535,0
41430,0.513672,-0.418457,0.614746,0
41450,0.502441,-0.423828,0.656738,0
41470,0.470215,-0.459473,0.62793,0
41490,0.501953,-0.454102,0.638184,0
41510,0.470703,-0.461426,0.614258,0
41530,0.42041,-0.478516,0.604492,0
41550,0.452148,-0.494629,0.602051,0
41570,0.47998,-0.483887,0.614746,0
41590,0.408203,-0.50293,0.59668,0
41610,0.367188,-0.556641,0.577148,0
41630,0.435059,-0.516113,0.588379,0
41650,0.394043,-0.496582,0.558105,0
41670,0.339844,-0.550781,0.54834,0
41690,0.402344,-0.587402,0.540527,0
41710,0.402344,-0.58252,0.529297,0
41730,0.368652,-0.569824,0.528809,0
41750,0.407227,-0.570312,0.516113,0
41770,0.365234,-0.582031,0.519531,0
41790,0.359375,-0.614746,0.508789,0
41810,0.440918,-0.585938,0.472656,0
41830,0.376465,-0.595703,0.45459,0
41850,0.373047,-0.64502,0.45459,0
41870,0.503906,-0.628418,0.459961,0
41890,0.475586,-0.652832,0.446289,0
41910,0.39502,-0.704102,0.436523,0
41930,0.433105,-0.713867,0.425293,0
41950,0.499023,-0.69873,0.453125,0
41970,0.460938,-0.692383,0.434082,0
41990,0.428711,-0.739258,0.413086,0
42010,0.458984,-0.754395,0.425781,0
42030,0.481934,-0.731934,0.414062,0
42050,0.462402,-0.724609,0.39209,0
42070,0.414551,-0.739746,0.385254,0
42090,0.480469,-0.728027,0.401367,0
42110,0.522461,-0.71875,0.393066,0
42130,0.484863,-0.703613,0.355469,0
42150,0.475586,-0.748535,0.354004,0
42170,0.555664,-0.723633,0.381348,0
42190,0.535645,-0.673828,0.358398,0
42210,0.517578,-0.702148,0.322754,0
42230,0.59375,-0.739258,0.317871,0
42250,0.602051,-0.665039,0.354004,0
42270,0.544922,-0.656738,0.311523,0
42290,0.649414,-0.661621,0.272461,0
42310,0.692871,-0.660645,0.301758,0
42330,0.583984,-0.632812,0.29248,0
42350,0.604492,-0.67334,0.247559,0
42370,0.730957,-0.66748,0.255371,0
42390,0.710938,-0.634277,0.279297,0
42410,0.60791,-0.591309,0.226074,0
42430,0.698242,-0.632812,0.155762,0
42450,0.71875,-0.581055,0.249512,0
42470,0.737305,-0.59082,0.236328,0
42490,0.708008,-0.611328,0.159668,0
42510,0.697266,-0.630859,0.145508,0
42530,0.754883,-0.580078,0.201172,0
42550,0.781738,-0.566895,0.169434,0
42570,0.782715,-0.544434,0.134766,0
42590,0.783691,-0.550293,0.13623,0
42610,0.8125,-0.532227,0.126953,0
42630,0.816895,-0.51123,0.14502,0
42650,0.783203,-0.483398,0.150391,0
42670,0.809082,-0.513184,0.100586,0
42690,0.848145,-0.50293,0.11084,0
42710,0.813965,-0.459473,0.121582,0
42730,0.818359,-0.452148,0.100098,0
42750,0.871582,-0.471191,0.0869141,0
42770,0.855957,-0.464355,0.0883789,0
42790,0.835938,-0.4375,0.0976562,0
42810,0.868652,-0.43457,0.0976562,0
42830,0.885254,-0.385254,0.0854492,0
42850,0.899902,-0.376465,0.0673828,0
42870,0.924805,-0.373047,0.0620117,0
42890,0.929199,-0.362793,0.0742188,0
42910,0.897949,-0.366699,0.0708008,0
42930,0.904297,-0.306641,0.0610352,0
42950,0.92041,-0.311523,0.078125,0
42970,0.937012,-0.296875,0.0688477,0
42990,0.947266,-0.327148,0.0869141,0
43010,0.92627,-0.273438,0.081543,0
43030,0.929199,-0.255371,0.101074,0
43050,0.947754,-0.243164,0.117188,0
43070,0.93457,-0.249023,0.121582,0
43090,0.932129,-0.258301,0.135254,0
43110,0.952148,-0.237305,0.152832,0
43130,0.988281,-0.206543,0.181152,0
43150,0.992676,-0.214844,0.183105,0
43170,0.927246,-0.228516,0.196289,0
43190,0.910156,-0.220215,0.238281,0
43210,0.943848,-0.253906,0.257324,0
43230,0.942871,-0.243164,0.278809,0
43250,0.931152,-0.242676,0.277832,0
43270,0.922852,-0.265625,0.29248,0
43290,0.839355,-0.239258,0.327148,0
43310,0.88916,-0.178711,0.366211,0
43330,0.93457,-0.172363,0.339844,0
43350,0.842773,-0.276367,0.366699,0
43370,0.829102,-0.194824,0.38623,0
43390,0.82666,-0.162598,0.420898,0
43410,0.847656,-0.191895,0.395508,0
43430,0.850586,-0.298828,0.403809,0
43450,0.824219,-0.288086,0.470215,0
43470,0.797852,-0.259277,0.470215,0
43490,0.806152,-0.241211,0.48877,0
43510,0.772949,-0.286133,0.481445,0
43530,0.769531,-0.383301,0.438477,0
43550,0.740234,-0.389648,0.498047,0
43570,0.748047,-0.30127,0.494141,0
43590,0.69043,-0.319336,0.482422,0
43610,0.666992,-0.399414,0.518555,0
43630,0.680176,-0.412598,0.52832,0
43650,0.665039,-0.364746,0.522461,0
43670,0.684082,-0.343262,0.509277,0
43690,0.645508,-0.42627,0.522461,0
43710,0.600586,-0.48291,0.523438,0
43730,0.650391,-0.459473,0.525879,0
43750,0.672852,-0.40332,0.534668,0
43770,0.611328,-0.408203,0.568848,0
43790,0.590332,-0.51123,0.544434,0
43810,0.620117,-0.51709,0.532227,0
43830,0.566895,-0.537598,0.547852,0
43850,0.556641,-0.504883,0.501953,0
43870,0.524414,-0.492188,0.461914,0
43890,0.511719,-0.540527,0.517578,0
43910,0.466797,-0.537109,0.443359,0
43930,0.418457,-0.555176,0.412109,0
43950,0.484375,-0.533203,0.471191,0
43970,0.427734,-0.543457,0.401855,0
43990,0.380371,-0.59375,0.36377,0
44010,0.40332,-0.601074,0.382812,0
44030,0.477539,-0.582031,0.416504,0
44050,0.507812,-0.59082,0.322266,0
44070,0.461914,-0.592285,0.296387,0
44090,0.450195,-0.670898,0.354492,0
44110,0.525879,-0.674316,0.34668,0
44130,0.570312,-0.648926,0.282227,0
44150,0.516113,-0.649414,0.317383,0
44170,0.536621,-0.702637,0.337402,0
44190,0.576172,-0.699707,0.313965,0
44210,0.530762,-0.687012,0.267578,0
44230,0.574707,-0.725586,0.303711,0
44250,0.621582,-0.74707,0.257812,0
44270,0.585938,-0.733887,0.224609,0
44290,0.549316,-0.70459,0.226562,0
44310,0.58252,-0.75,0.23584,0
44330,0.592773,-0.779785,0.224609,0
44350,0.589355,-0.763184,0.190918,0
44370,0.576172,-0.752441,0.214355,0
44390,0.583496,-0.73877,0.222656,0
44410,0.59668,-0.745605,0.171875,0
44430,0.620605,-0.729004,0.171387,0
44450,0.63916,-0.711426,0.175293,0
44470,0.619629,-0.754883,0.171875,0
44490,0.65918,-0.728027,0.168457,0
44510,0.664551,-0.65918,0.180664,0
44530,0.678711,-0.678711,0.15625,0
44550,0.728516,-0.682129,0.126953,0
44570,0.728027,-0.637207,0.133789,0
44590,0.716797,-0.634277,0.130371,0
44610,0.706543,-0.645508,0.0917969,0
44630,0.662598,-0.601562,0.0927734,0
44650,0.711914,-0.574707,0.112305,0
44670,0.811523,-0.581543,0.0478516,0
44690,0.728516,-0.578613,0.0615234,0
44710,0.619629,-0.57373,0.0463867,0
44730,0.736816,-0.54541,0.0629883,0
44750,0.805176,-0.540527,0.0463867,0
44760,0.785156,-0.536133,0.0380859,0
44780,0.788086,-0.524414,0.00292969,0
44800,0.854004,-0.55957,0.0180664,2001
44820,0.879883,-0.576172,0.0322266,0
44840,0.849121,-0.528809,-0.0107422,0
44860,0.881348,-0.489746,-0.015625,0
44880,0.90332,-0.469238,0.0214844,0
44900,0.902832,-0.494141,0.0263672,0
44920,0.930176,-0.541504,-0.00830078,0
44940,0.936523,-0.533691,0.0458984,0
44960,0.854492,-0.460449,0.0688477,0
44980,0.862305,-0.460938,0.0654297,0
45000,0.876465,-0.499512,0.0766602,0
45020,0.84082,-0.528809,0.0522461,0
45040,0.80127,-0.526855,0.0566406,0
45060,0.801758,-0.487305,0.0683594,0
45080,0.776855,-0.455078,0.0449219,0
45100,0.751953,-0.476074,0.0698242,0
45120,0.772461,-0.513672,0.0473633,0
45140,0.774902,-0.493164,0.0668945,0
45160,0.762207,-0.478516,0.0351562,0
45180,0.808105,-0.489258,0.0200195,0
45200,0.832031,-0.498047,0.0429688,0
45220,0.813965,-0.509277,0.00732422,0
45240,0.83252,-0.522461,0.0380859,0
45260,0.842773,-0.519043,0.0454102,0
45280,0.82373,-0.534668,0.0288086,0
45300,0.847656,-0.523926,0.0483398,0
45320,0.89502,-0.549805,0.0527344,0
45340,0.885254,-0.548828,0.0712891,0
45360,0.875977,-0.526855,0.081543,0
45380,0.863281,-0.552246,0.0922852,0
45400,0.88623,-0.585449,0.0922852,0
45420,0.918457,-0.540039,0.12207,0
45440,0.879883,-0.537598,0.0883789,0
45460,0.908203,-0.567383,0.078125,0
45480,0.891602,-0.571777,0.108887,0
45500,0.884766,-0.566406,0.104004,0
45520,0.894531,-0.567871,0.0908203,0
45540,0.85791,-0.540039,0.0712891,0
45560,0.832031,-0.52832,0.0732422,0
45580,0.815918,-0.503906,0.0712891,0
45600,0.780273,-0.500488,0.0317383,0
45620,0.771973,-0.512695,0,0
45640,0.731934,-0.500488,0.0146484,0
45660,0.724609,-0.479492,-0.00830078,0
45680,0.722168,-0.474609,-0.0288086,0
45700,0.729492,-0.474121,-0.0200195,0
45720,0.732422,-0.476562,-0.0336914,0
45740,0.714844,-0.456055,-0.046875,0
45760,0.727051,-0.458984,-0.0429688,0
45780,0.770996,-0.464844,-0.0717773,0
45800,0.753906,-0.454102,-0.0439453,0
45820,0.718262,-0.456055,-0.0629883,0
45840,0.759766,-0.494141,-0.0698242,0
45860,0.760742,-0.502441,-0.074707,0
45880,0.720215,-0.445312,-0.0512695,0
45900,0.70459,-0.446289,-0.0932617,0
45920,0.770508,-0.457031,-0.0883789,0
45940,0.758789,-0.438477,-0.0292969,0
45960,0.691895,-0.489746,-0.050293,0
45980,0.687988,-0.533691,-0.0786133,0
46000,0.672363,-0.514648,0.0239258,0
46020,0.608887,-0.476074,0.0732422,0
46040,0.602051,-0.492676,0.0761719,0
46060,0.604004,-0.513184,0.074707,0
46080,0.547852,-0.51416,0.163574,0
46100,0.472168,-0.526367,0.242676,0
46120,0.471191,-0.564453,0.256836,0
46140,0.448242,-0.544922,0.313477,0
46160,0.366699,-0.492188,0.365723,0
46180,0.387695,-0.584961,0.414062,0
46200,0.436035,-0.646973,0.492188,0
46220,0.456543,-0.587891,0.491699,0
46240,0.500977,-0.644531,0.55127,0
46260,0.61377,-0.716797,0.604004,0
46280,0.583984,-0.70459,0.643066,0
46300,0.566895,-0.723145,0.687012,0
46320,0.629883,-0.771973,0.726562,0
46340,0.623535,-0.810547,0.705078,0
46360,0.550293,-0.777344,0.716309,0
46380,0.494141,-0.818848,0.706543,0
46400,0.487793,-0.856445,0.669922,0
46420,0.490234,-0.841797,0.703613,0
46440,0.412109,-0.80127,0.751953,0
46460,0.368164,-0.819336,0.685547,0
46480,0.40625,-0.891113,0.660156,0
46500,0.442871,-0.843262,0.696289,0
46520,0.414062,-0.786133,0.708008,0
46540,0.380859,-0.781738,0.674316,0
46560,0.358398,-0.788086,0.649902,0
46580,0.336426,-0.789551,0.618164,0
46600,0.333984,-0.750977,0.593262,0
46620,0.322754,-0.716797,0.56543,0
46640,0.310547,-0.69043,0.571777,0
46660,0.286133,-0.724609,0.547852,0
46680,0.291992,-0.753418,0.505859,0
46700,0.249023,-0.70166,0.540527,0
46720,0.163086,-0.70752,0.514648,0
46740,0.133789,-0.714844,0.522461,0
46760,0.153809,-0.728516,0.550781,0
46780,0.160645,-0.712891,0.586426,0
46790,0.165527,-0.696777,0.608398,0
46810,0.196289,-0.674805,0.602539,0
46830,0.253418,-0.663574,0.60791,0
46850,0.271484,-0.647461,0.616211,0
46870,0.220703,-0.663574,0.599609,0
46890,0.226562,-0.663086,0.614746,0
46910,0.28125,-0.660156,0.597168,0
46930,0.322754,-0.669922,0.557129,0
46950,0.300293,-0.686035,0.569824,0
46970,0.311523,-0.712891,0.563965,0
46990,0.362793,-0.706543,0.578613,0
47010,0.343262,-0.693359,0.562988,0
47030,0.286621,-0.709473,0.553223,0
47050,0.299316,-0.718262,0.557129,2000
47070,0.299316,-0.701172,0.565918,0
47090,0.268555,-0.673828,0.571777,0
47110,0.251953,-0.67627,0.577148,0
47130,0.288086,-0.693359,0.57373,0
47150,0.294922,-0.693359,0.57373,0
47170,0.252441,-0.691406,0.567383,0
47190,0.256836,-0.687988,0.553711,0
47210,0.273926,-0.697754,0.555664,0
47230,0.284668,-0.720215,0.54834,0
47250,0.293457,-0.726562,0.561523,0
47270,0.302246,-0.697754,0.566895,0
47290,0.285156,-0.689453,0.554688,0
47310,0.277832,-0.688477,0.553223,0
47330,0.283691,-0.679199,0.562988,0
47350,0.277344,-0.682617,0.556152,0
47370,0.274414,-0.690918,0.528809,0
47390,0.294434,-0.675293,0.53418,0
47410,0.295898,-0.672852,0.54834,0
47430,0.283203,-0.687988,0.545898,0
47450,0.276855,-0.705566,0.530273,0
47470,0.297852,-0.692871,0.539551,0
47490,0.274414,-0.700684,0.542969,0
47510,0.267578,-0.711914,0.532715,0
47530,0.292969,-0.709961,0.551758,0
47550,0.283203,-0.696777,0.565918,0
47570,0.260254,-0.70166,0.566406,0
47590,0.275391,-0.69873,0.561035,0
47610,0.286133,-0.710449,0.54541,0
47630,0.274902,-0.705078,0.573242,0
47650,0.28418,-0.720703,0.5625,0
47670,0.316895,-0.718262,0.5625,0
47690,0.310547,-0.70166,0.561035,0
47710,0.298828,-0.696777,0.555664,0
47730,0.333984,-0.699707,0.552734,0
47750,0.375,-0.697754,0.558105,0
47770,0.348633,-0.700684,0.542969,0
47790,0.347168,-0.69043,0.542969,0
47810,0.391113,-0.705078,0.543457,0
47830,0.406738,-0.700684,0.533691,0
47850,0.387207,-0.678711,0.521973,0
47870,0.375,-0.679688,0.515137,0
47890,0.398926,-0.683105,0.51416,0
47910,0.414062,-0.658203,0.496094,0
47930,0.417969,-0.671387,0.512695,0
47950,0.403809,-0.687012,0.489258,0
47970,0.434082,-0.683594,0.492188,0
47990,0.45166,-0.662109,0.500488,0
48010,0.42334,-0.655273,0.492676,0
48030,0.431152,-0.674805,0.473633,0
48050,0.480469,-0.664062,0.469727,0
48070,0.511719,-0.651367,0.492188,0
48090,0.473633,-0.651367,0.484375,0
48110,0.478516,-0.662109,0.449707,0
48130,0.527832,-0.684082,0.432129,0
48150,0.552734,-0.664551,0.4375,0
48170,0.56543,-0.657227,0.396973,0
48190,0.587402,-0.625977,0.452637,0
48210,0.541016,-0.630371,0.441406,0
48230,0.521484,-0.626465,0.40918,0
48250,0.559082,-0.626465,0.392578,0
48270,0.604004,-0.626465,0.396973,0
48290,0.646484,-0.612793,0.397461,0
48310,0.597656,-0.616699,0.373535,0
48330,0.579102,-0.631836,0.358887,0
48350,0.616699,-0.625,0.379883,0
48370,0.633789,-0.62207,0.347656,0
48390,0.633789,-0.606445,0.348633,0
48410,0.721191,-0.612305,0.347656,0
48430,0.631836,-0.602051,0.327637,0
48450,0.638184,-0.584473,0.344238,0
48470,0.732422,-0.57666,0.353027,0
48490,0.646973,-0.553711,0.361816,0
48510,0.687988,-0.536621,0.363281,0
48530,0.696289,-0.532715,0.348145,0
48550,0.684082,-0.531738,0.339844,0
48570,0.673828,-0.498535,0.318848,0
48590,0.720215,-0.526855,0.357422,0
48610,0.745117,-0.511719,0.335449,0
48630,0.740234,-0.521484,0.322754,0
48650,0.746582,-0.518066,0.32666,0
48670,0.769043,-0.504883,0.333008,0
48690,0.778809,-0.493164,0.318848,0
48710,0.756836,-0.48584,0.312012,0
48730,0.769043,-0.476074,0.320312,0
48750,0.777832,-0.462891,0.335449,0
48770,0.772461,-0.441895,0.32666,0
48790,0.784668,-0.44873,0.31543,0
48810,0.786621,-0.458008,0.328125,0
48830,0.752441,-0.436523,0.353027,0
48850,0.745605,-0.445312,0.36084,0
48870,0.757324,-0.446289,0.361816,0
48890,0.768066,-0.416504,0.355957,0
48910,0.790039,-0.411621,0.36084,0
48920,0.78125,-0.463867,0.380371,0
48940,0.739258,-0.467285,0.408691,0
48960,0.770508,-0.460449,0.415527,0
48980,0.77002,-0.445312,0.40918,0
49000,0.747559,-0.460938,0.423828,0
49020,0.723145,-0.465332,0.401855,0
49040,0.746582,-0.463867,0.432617,0
49060,0.71582,-0.450684,0.486328,0
49080,0.76123,-0.446289,0.452637,0
49100,0.73584,-0.425781,0.459961,0
49120,0.739746,-0.436523,0.486816,0
49140,0.732422,-0.423828,0.500488,0
49160,0.743164,-0.420898,0.497559,0
49180,0.713867,-0.404785,0.513672,0
49200,0.683105,-0.411621,0.503906,0
49220,0.675781,-0.40918,0.510742,0
49240,0.666992,-0.415039,0.561523,0
49260,0.662598,-0.420898,0.57666,0
49280,0.642578,-0.419434,0.543457,0
49300,0.640137,-0.4375,0.570312,0
49320,0.597656,-0.431152,0.59082,0
49340,0.590332,-0.424805,0.588379,0
49360,0.591797,-0.42627,0.602051,0
49380,0.546387,-0.431152,0.619629,0
49400,0.530762,-0.435059,0.660156,0
49420,0.517578,-0.442383,0.631836,0
49440,0.523438,-0.430176,0.623047,0
49460,0.53418,-0.426758,0.657227,0
49480,0.54541,-0.416992,0.638672,0
49500,0.524902,-0.45752,0.665527,0
49520,0.531738,-0.391602,0.663574,0
49540,0.506348,-0.386719,0.67334,0
49560,0.486328,-0.434082,0.665039,0
49580,0.487305,-0.467773,0.663086,0
49600,0.495117,-0.474121,0.677734,0
49620,0.459961,-0.440918,0.67627,0
49640,0.42627,-0.42041,0.663574,0
49660,0.375977,-0.447266,0.666992,0
49680,0.352539,-0.446289,0.710938,0
49700,0.385254,-0.449707,0.711914,0
49720,0.368164,-0.452148,0.677734,0
49740,0.311523,-0.448242,0.670898,0
49760,0.335938,-0.436523,0.693359,0
49780,0.340332,-0.476074,0.651855,0
49800,0.324707,-0.511719,0.655273,0
49820,0.38623,-0.478516,0.703613,0
49840,0.375977,-0.492676,0.707031,0
49860,0.32666,-0.524902,0.655762,0
49880,0.345215,-0.513672,0.703613,0
49900,0.35791,-0.50293,0.695801,0
49920,0.336426,-0.515625,0.636719,0
49940,0.321289,-0.541504,0.663086,0
49960,0.330078,-0.560059,0.688965,0
49980,0.308105,-0.552734,0.636719,0
50000,0.254883,-0.564453,0.629883,0
50020,0.26416,-0.541016,0.66748,0
50040,0.254883,-0.528809,0.62793,0
50060,0.260742,-0.612305,0.595215,0
50080,0.358887,-0.586914,0.645996,0
50100,0.303223,-0.59082,0.606445,0
50120,0.262695,-0.654785,0.582031,0
50140,0.307617,-0.644043,0.588867,0
50160,0.29248,-0.588867,0.589355,0
50180,0.274414,-0.643066,0.537598,0
50200,0.315918,-0.677734,0.527344,0
50210,0.311035,-0.631836,0.555664,0
50230,0.302734,-0.685547,0.530273,0
50250,0.320801,-0.693359,0.505859,0
50270,0.328613,-0.652832,0.546387,0
50290,0.36377,-0.666016,0.533203,0
50310,0.387207,-0.693359,0.495605,0
50330,0.348633,-0.70752,0.507324,0
50350,0.359863,-0.6875,0.509277,0
50370,0.40332,-0.681152,0.463379,0
50390,0.427734,-0.669922,0.47168,0
50410,0.413086,-0.666016,0.515625,0
50430,0.425781,-0.702148,0.447266,0
50450,0.447754,-0.695312,0.461426,0
50470,0.45166,-0.666992,0.485352,0
50490,0.498535,-0.676758,0.452148,0
50510,0.601074,-0.678711,0.405762,0
50530,0.55127,-0.694336,0.428223,0
50550,0.580078,-0.665527,0.42041,0
50570,0.594238,-0.672852,0.412109,0
50590,0.530762,-0.664551,0.401367,0
50610,0.560059,-0.67627,0.364258,0
50630,0.614746,-0.652832,0.361328,0
50650,0.583496,-0.650391,0.333008,0
50670,0.562012,-0.660156,0.333984,0
50690,0.602539,-0.65332,0.32959,0
50710,0.663086,-0.63623,0.305176,0
50730,0.63623,-0.633301,0.288574,0
50750,0.61377,-0.620605,0.279785,0
50770,0.680664,-0.637207,0.293457,0
50790,0.658203,-0.59668,0.26416,0
50810,0.672852,-0.637695,0.215332,0
50830,0.771484,-0.631836,0.224609,0
50850,0.738281,-0.602539,0.233887,0
50870,0.656738,-0.606934,0.217773,0
50890,0.725098,-0.615723,0.192871,0
50910,0.820801,-0.612305,0.176758,0
50930,0.785645,-0.572754,0.178223,0
50950,0.774414,-0.567383,0.163574,0
50970,0.803711,-0.570312,0.140137,0
50990,0.840332,-0.550293,0.143555,0
51010,0.764648,-0.509766,0.142578,0
51030,0.810059,-0.503418,0.105957,0
51050,0.859863,-0.504395,0.0761719,0
51070,0.82373,-0.484375,0.0834961,0
51090,0.629883,-0.519043,0.133789,0
51110,0.839844,-0.475098,0.0717773,0
51130,0.847656,-0.448242,0.0737305,0
51150,0.844727,-0.442871,0.0478516,0
51170,0.88916,-0.424805,0.0288086,0
51190,0.898438,-0.424805,0.0415039,0
51210,0.907227,-0.405762,0.0527344,0
51230,0.89502,-0.410645,0.0288086,0
51250,0.915527,-0.371582,0.0219727,0
51270,0.9375,-0.374023,0.027832,0
51290,0.912109,-0.365723,0.0410156,0
51310,0.9375,-0.351562,0.0419922,0
51330,0.923828,-0.310547,0.0898438,0
51350,0.939941,-0.304199,0.0761719,0
51370,0.933105,-0.298828,0.0620117,0
51390,0.945801,-0.292969,0.0888672,0
51410,0.919434,-0.249023,0.136719,0
51430,0.927246,-0.266602,0.108887,0
51450,0.935059,-0.28125,0.111816,0
51470,0.903809,-0.270996,0.178223,0
51490,0.908203,-0.291992,0.182129,0
51510,0.957031,-0.31543,0.177246,0
51530,0.95166,-0.282715,0.19873,0
51550,0.848145,-0.256348,0.236816,0
51570,0.86377,-0.252441,0.253906,0
51590,0.908691,-0.233398,0.294922,0
51610,0.876953,-0.20166,0.298828,0
51630,0.875977,-0.194824,0.300781,0
51650,0.891602,-0.193359,0.316895,0
51670,0.875977,-0.21582,0.34668,0
51690,0.879883,-0.20166,0.376465,0
51710,0.837891,-0.195801,0.388184,0
51730,0.840332,-0.213867,0.385742,0
51750,0.828125,-0.250488,0.390137,0
51770,0.83252,-0.240234,0.425293,0
51790,0.804688,-0.250977,0.442383,0
51810,0.804688,-0.22998,0.432129,0
51830,0.829102,-0.228516,0.510254,0
51850,0.781738,-0.242188,0.508301,0
51870,0.697754,-0.296875,0.474121,0
51890,0.753906,-0.298828,0.511719,0
51910,0.771973,-0.261719,0.554199,0
51930,0.76416,-0.208496,0.518066,0
51950,0.702637,-0.172852,0.569824,0
51970,0.673828,-0.228516,0.554199,0
51990,0.682617,-0.307617,0.573242,0
52010,0.663574,-0.327148,0.550781,0
52030,0.630859,-0.338379,0.581055,0
52050,0.609863,-0.328125,0.567383,0
52070,0.628418,-0.333984,0.571777,0
52090,0.569824,-0.380859,0.602539,0
52110,0.558105,-0.402344,0.586914,0
52130,0.62207,-0.364746,0.597168,0
52150,0.60498,-0.378906,0.609375,0
52170,0.522949,-0.419922,0.603516,0
52180,0.534668,-0.47168,0.615723,0
52200,0.581543,-0.438477,0.609863,0
52220,0.509766,-0.439453,0.57373,0
52240,0.413086,-0.449707,0.553223,0
52260,0.381836,-0.482422,0.559082,0
52280,0.485352,-0.474609,0.588379,0
52300,0.485352,-0.468262,0.492188,0
52320,0.474609,-0.482422,0.505371,0
52340,0.474121,-0.568848,0.513672,0
52360,0.444336,-0.574707,0.549805,0
52380,0.466797,-0.569336,0.499023,0
52400,0.512207,-0.582031,0.533691,0
52420,0.467285,-0.604004,0.523438,0
52440,0.419922,-0.641113,0.495605,0
52460,0.46875,-0.628418,0.506348,0
52480,0.483887,-0.630371,0.524414,0
52500,0.40625,-0.640625,0.491699,0
52520,0.470703,-0.662598,0.516113,0
52540,0.525391,-0.658203,0.496094,0
52560,0.496094,-0.644531,0.459961,0
52580,0.459473,-0.664551,0.438477,0
52600,0.507812,-0.680176,0.467773,0
52620,0.538574,-0.660156,0.436523,0
52640,0.521973,-0.666016,0.397461,0
52660,0.541992,-0.70459,0.408203,0
52680,0.572266,-0.722168,0.384766,0
52700,0.546875,-0.719238,0.344238,0
52720,0.526855,-0.725586,0.330566,0
52740,0.558594,-0.709961,0.337402,0
52760,0.585938,-0.710938,0.317383,0
52780,0.571289,-0.717773,0.284668,0
52800,0.548828,-0.744629,0.305176,0
52820,0.540039,-0.750488,0.246094,0
52840,0.523438,-0.737793,0.208008,0
52860,0.503906,-0.728516,0.250977,0
52880,0.562988,-0.704102,0.258301,0
52900,0.612793,-0.709961,0.179199,0
52920,0.57666,-0.707031,0.195801,0
52940,0.600098,-0.719727,0.208496,0
52960,0.614258,-0.700195,0.202637,0
52980,0.591309,-0.690918,0.180176,0
53000,0.672363,-0.658203,0.167969,0
53020,0.701172,-0.623535,0.163086,0
53040,0.625,-0.614258,0.141602,0
53060,0.710938,-0.631348,0.090332,0
53080,0.740723,-0.627441,0.111816,0
53100,0.75,-0.588867,0.112305,0
53120,0.750488,-0.555176,0.0957031,0
53140,0.797852,-0.59082,0.0400391,0
53160,0.787109,-0.532715,0.0571289,0
53180,0.814941,-0.512207,0.0620117,0
53200,0.79541,-0.51416,0.0253906,0
53220,0.795898,-0.517578,0.0102539,0
53240,0.837402,-0.486328,0.0200195,0
53260,0.836426,-0.461426,0.0283203,0
53280,0.824707,-0.460938,-0.0444336,0
53300,0.856445,-0.45752,-0.0571289,0
53320,0.88916,-0.480469,-0.0595703,0
53340,0.86084,-0.432129,-0.043457,0
53360,0.871582,-0.398926,-0.0253906,0
53380,0.879395,-0.381348,-0.050293,0
53400,0.945312,-0.380371,-0.0532227,0
53420,0.966309,-0.348145,-0.0327148,0
53440,0.900391,-0.307129,-0.0400391,0
53460,0.904297,-0.322754,-0.0317383,0
53480,0.971191,-0.293457,-0.0610352,0
53500,0.968262,-0.273438,-0.0410156,0
53520,0.94873,-0.249023,-0.0400391,0
53540,0.936523,-0.26416,-0.0341797,0
53560,0.967773,-0.242676,-0.0356445,0
53580,0.96582,-0.205078,-0.0449219,0
53600,0.97998,-0.216797,-0.00390625,0
53620,0.977051,-0.23877,-0.0195312,0
53640,0.971191,-0.200195,0,0
53660,1.00098,-0.203125,-0.00732422,0
53680,1.04443,-0.225098,0.0400391,0
53700,0.987305,-0.234375,0.0756836,0
53720,0.956055,-0.232422,0.0957031,0
53740,0.988281,-0.201172,0.101562,0
53760,0.97998,-0.212891,0.124512,0
53780,0.949707,-0.159668,0.186035,0
53800,0.894531,-0.191406,0.230469,0
53820,0.92041,-0.187988,0.242676,0
53840,0.946289,-0.197266,0.21875,0
53860,0.891113,-0.159668,0.23877,0
53880,0.919922,-0.169922,0.305176,0
53900,0.922363,-0.133789,0.297852,0
53920,0.953125,-0.120117,0.257324,0
53940,0.943848,-0.132812,0.317383,0
53960,0.886719,-0.184082,0.348145,0
53980,0.930664,-0.257324,0.333496,0
54000,0.957031,-0.217773,0.40332,0
54020,0.853516,-0.185059,0.415039,0
54040,0.800293,-0.195801,0.443848,0
54060,0.808594,-0.254883,0.431641,0
54080,0.864746,-0.317383,0.419434,0
54100,0.760254,-0.35498,0.479004,0
54120,0.775879,-0.297363,0.501953,0
54140,0.776367,-0.272461,0.469727,0
54160,0.709473,-0.299316,0.431152,0
54180,0.652344,-0.419434,0.504883,0
54200,0.663574,-0.44043,0.529785,0
54220,0.713867,-0.255371,0.499512,0
54240,0.60791,-0.328125,0.54248,0
54260,0.658203,-0.483887,0.508789,0
54280,0.651367,-0.449219,0.424316,0
54300,0.555664,-0.395996,0.508789,0
54320,0.570312,-0.441406,0.478027,0
54340,0.57373,-0.447754,0.347656,0
54360,0.513672,-0.528809,0.430176,0
54380,0.563965,-0.53125,0.472168,0
54400,0.530762,-0.491211,0.368652,0
54420,0.466797,-0.472656,0.361328,0
54440,0.451172,-0.614746,0.406738,0
54460,0.609863,-0.640137,0.413574,0
54480,0.64502,-0.525391,0.306152,0
54500,0.536133,-0.480957,0.25293,0
54520,0.492188,-0.710449,0.388672,0
54540,0.598633,-0.717773,0.293945,0
54560,0.59375,-0.628418,0.208008,0
54580,0.536133,-0.616699,0.279785,0
54600,0.53125,-0.772949,0.285156,0
54620,0.61377,-0.765625,0.223145,0
54640,0.589355,-0.673828,0.23291,0
54660,0.579102,-0.744141,0.234375,0
54680,0.572266,-0.79541,0.172363,0
54700,0.577637,-0.761719,0.140137,0
54720,0.62207,-0.743652,0.180664,0
54740,0.596191,-0.730957,0.122559,0
54760,0.544922,-0.801758,0.0561523,0
54780,0.58252,-0.827148,0.0854492,0
54800,0.63623,-0.772949,0.160156,0
54820,0.602051,-0.733398,0.0683594,0
54840,0.583984,-0.755371,0.0483398,0
54860,0.646484,-0.776855,0.0957031,0
54880,0.691895,-0.757324,0.0854492,0
54900,0.638672,-0.765625,0.0180664,0
54920,0.653809,-0.686523,0.0527344,0
54940,0.699219,-0.625,0.0932617,0
54960,0.725586,-0.689941,0.0107422,0
54980,0.733887,-0.680664,-0.034668,0
55000,0.710449,-0.637695,-0.0249023,0
55020,0.658203,-0.638672,-0.00634766,0
55040,0.713867,-0.627441,-0.0195312,0
55060,0.790039,-0.617676,-0.090332,0
55080,0.717285,-0.581543,-0.03125,0
55100,0.700195,-0.606445,-0.0488281,0
55120,0.82373,-0.612793,-0.0898438,0
55140,0.836914,-0.588379,-0.0776367,0
55160,0.762207,-0.570312,-0.0649414,0
55180,0.78125,-0.586914,-0.0947266,0
55200,0.848145,-0.57959,-0.0961914,0
55220,0.855469,-0.569336,-0.0922852,0
55240,0.827148,-0.527832,-0.122559,0
55260,0.831055,-0.514648,-0.124512,0
55280,0.851562,-0.540039,-0.110352,2001
55300,0.856934,-0.520996,-0.125977,0
55320,0.836426,-0.493164,-0.117676,0
55340,0.843262,-0.479004,-0.101562,0
55360,0.889648,-0.48291,-0.141113,0
55380,0.849609,-0.487305,-0.135742,0
55400,0.838867,-0.464355,-0.119141,0
55420,0.870117,-0.462402,-0.126465,0
55440,0.88623,-0.45459,-0.163574,0
55460,0.851074,-0.448242,-0.157715,0
55480,0.813965,-0.431152,-0.125977,0
55500,0.801758,-0.42041,-0.144531,0
55520,0.807617,-0.413086,-0.152344,0
55540,0.814453,-0.4375,-0.141602,0
55560,0.812988,-0.455566,-0.131348,0
55580,0.778809,-0.489258,-0.143555,0
55600,0.749023,-0.466797,-0.114258,0
55620,0.805176,-0.467285,-0.153809,0
55640,0.811035,-0.459961,-0.136719,0
55660,0.774902,-0.493164,-0.155762,0
55670,0.753418,-0.533691,-0.151855,0
55690,0.751953,-0.546387,-0.144043,0
55710,0.731445,-0.530273,-0.128418,0
55730,0.682617,-0.535156,-0.0917969,0
55750,0.637695,-0.479004,-0.0473633,0
55770,0.693848,-0.509277,-0.090332,0
55790,0.770508,-0.533203,-0.0834961,0
55810,0.738281,-0.512207,-0.0200195,0
55830,0.713379,-0.535645,-0.00830078,0
55850,0.791504,-0.543457,-0.0332031,0
55870,0.758301,-0.508301,0.0493164,0
55890,0.736816,-0.521484,0.0366211,0
55910,0.818848,-0.56543,0.0551758,0
55930,0.847168,-0.515137,0.145508,0
55950,0.74707,-0.484375,0.202148,0
55970,0.643066,-0.513184,0.15332,0
55990,0.713379,-0.629883,0.106445,0
56010,0.684082,-0.566895,0.237793,0
56030,0.560547,-0.523926,0.279297,0
56050,0.514648,-0.573242,0.216797,0
56070,0.608398,-0.624512,0.243164,0
56090,0.575195,-0.585938,0.311035,0
56110,0.519043,-0.535156,0.310059,0
56130,0.553711,-0.606445,0.272461,0
56150,0.596191,-0.674316,0.335938,0
56170,0.568848,-0.683594,0.366211,0
56190,0.580566,-0.692383,0.438965,0
56210,0.636719,-0.76416,0.506348,0
56230,0.626953,-0.790039,0.518555,0
56250,0.563477,-0.831055,0.530273,0
56270,0.575195,-0.836914,0.546387,0
56290,0.572754,-0.806152,0.59082,0
56310,0.477539,-0.871582,0.566406,0
56330,0.476074,-0.929688,0.544922,0
56350,0.513184,-0.881348,0.586914,0
56370,0.442383,-0.841797,0.588867,0
56390,0.346191,-0.885254,0.57666,0
56410,0.327148,-0.893555,0.57666,0
56430,0.318359,-0.869141,0.597656,0
56450,0.299316,-0.808105,0.586426,0
56470,0.300781,-0.793945,0.574219,0
56490,0.303223,-0.803223,0.558105,0
56510,0.279785,-0.811035,0.540527,0
56530,0.274902,-0.808594,0.533691,0
56550,0.272461,-0.771484,0.523926,0
56570,0.26123,-0.737793,0.521484,0
56590,0.278809,-0.74707,0.48877,0
56610,0.310059,-0.745117,0.486328,0
56630,0.283203,-0.740234,0.523926,0
56650,0.263672,-0.75,0.521484,0
56670,0.280762,-0.744141,0.500977,0
56690,0.273438,-0.72998,0.505859,0
56710,0.254883,-0.707031,0.548828,0
56730,0.249023,-0.711914,0.538574,2000
56750,0.262695,-0.731934,0.509766,0
56770,0.286133,-0.729492,0.520996,0
56790,0.274902,-0.689453,0.563477,0
56810,0.251953,-0.709473,0.554199,0
56830,0.26709,-0.732422,0.519043,0
56850,0.287109,-0.712891,0.540527,0
56870,0.29541,-0.711914,0.553223,0
56890,0.275391,-0.719238,0.539062,0
56910,0.259766,-0.719238,0.519531,0
56930,0.263672,-0.710938,0.536621,0
56950,0.26123,-0.701172,0.547363,0
56970,0.25,-0.716309,0.539062,0
56990,0.254395,-0.729004,0.528809,0
57010,0.255371,-0.713867,0.551758,0
57030,0.261719,-0.721191,0.555176,0
57050,0.261719,-0.713379,0.535156,0
57070,0.257812,-0.700195,0.540039,0
57090,0.246582,-0.705566,0.550293,0
57110,0.278809,-0.738281,0.54541,0
57130,0.308594,-0.726562,0.54248,0
57150,0.300781,-0.720703,0.540527,0
57170,0.311035,-0.716797,0.540527,0
57190,0.332031,-0.724121,0.535156,0
57210,0.332031,-0.720703,0.53125,0
57230,0.31543,-0.69873,0.505371,0
57250,0.353027,-0.707031,0.519043,0
57270,0.375977,-0.716309,0.533691,0
57290,0.359863,-0.699219,0.508789,0
57310,0.334473,-0.692383,0.493164,0
57330,0.375488,-0.701172,0.492676,0
57350,0.408691,-0.691895,0.496094,0
57370,0.379395,-0.680176,0.480469,0
57390,0.365234,-0.708984,0.489746,0
57410,0.407715,-0.724609,0.470703,0
57430,0.430176,-0.696777,0.478516,0
57450,0.436523,-0.680176,0.480957,0
57470,0.422363,-0.64209,0.44873,0
57490,0.422852,-0.655273,0.448242,0
57510,0.446777,-0.682617,0.438477,0
57530,0.447266,-0.679199,0.452148,0
57550,0.462402,-0.643066,0.435059,0
57570,0.495117,-0.643066,0.444336,0
57590,0.523438,-0.645508,0.440918,0
57610,0.489258,-0.655762,0.412109,0
57630,0.535156,-0.666992,0.377441,0
57650,0.624023,-0.666504,0.365723,0
57670,0.583008,-0.644043,0.359863,0
57680,0.62793,-0.662598,0.353027,0
57700,0.625488,-0.680664,0.348145,0
57720,0.629395,-0.703613,0.307617,0
57740,0.654785,-0.70459,0.263184,0
57760,0.668945,-0.67041,0.308105,0
57780,0.709961,-0.637207,0.308105,0
57800,0.706055,-0.599121,0.297852,0
57820,0.729004,-0.596191,0.299316,0
57840,0.756836,-0.568359,0.312988,0
57860,0.73877,-0.534668,0.284668,0
57880,0.774902,-0.518555,0.25293,0
57900,0.764648,-0.515137,0.237305,0
57920,0.770996,-0.512695,0.229004,0
57940,0.781738,-0.499023,0.233887,0
57960,0.811523,-0.488281,0.228516,0
57980,0.812012,-0.478516,0.231934,0
58000,0.821289,-0.477051,0.226074,0
58020,0.800293,-0.495605,0.234375,0
58040,0.804199,-0.465332,0.261719,0
58060,0.841309,-0.480957,0.280273,0
58080,0.799805,-0.453125,0.292969,0
58100,0.785645,-0.460938,0.303223,0
58120,0.806641,-0.458008,0.324219,0
58140,0.812012,-0.463867,0.336914,0
58160,0.832031,-0.46582,0.335449,0
58180,0.813477,-0.463379,0.356934,0
58200,0.792969,-0.459473,0.404297,0
58220,0.791992,-0.463867,0.405762,0
58240,0.790039,-0.452148,0.439941,0
58260,0.8125,-0.461426,0.473633,0
58280,0.712402,-0.428223,0.482422,0
58300,0.748535,-0.446777,0.529785,0
58320,0.755371,-0.480469,0.571289,0
58340,0.664062,-0.430176,0.586426,0
58360,0.638672,-0.430176,0.604004,0
58380,0.656738,-0.443848,0.59082,0
58400,0.62207,-0.43457,0.661621,0
58420,0.61084,-0.434082,0.614746,0
58440,0.585938,-0.413086,0.669922,0
58460,0.594727,-0.429199,0.664551,0
58480,0.566895,-0.436523,0.687012,0
58500,0.522461,-0.437012,0.632324,0
58520,0.522949,-0.41748,0.653809,0
58540,0.481445,-0.366699,0.722656,0
58560,0.435059,-0.355957,0.697754,0
58580,0.437012,-0.358887,0.647949,0
58600,0.453125,-0.431152,0.643555,0
58620,0.436523,-0.433594,0.72998,0
58640,0.395508,-0.446289,0.715332,0
58660,0.394531,-0.474609,0.671387,0
58680,0.383301,-0.517578,0.662598,0
58700,0.334473,-0.46582,0.708496,0
58720,0.290527,-0.464355,0.697266,0
58740,0.300293,-0.518066,0.638672,0
58760,0.283203,-0.549805,0.659668,0
58780,0.23584,-0.575195,0.625488,0
58800,0.233398,-0.544434,0.63916,0
58820,0.220215,-0.558105,0.616211,0
58840,0.190918,-0.55957,0.566406,0
58860,0.185547,-0.599121,0.583496,0
58880,0.216309,-0.632324,0.607422,0
58900,0.219727,-0.616699,0.585938,0
58920,0.208496,-0.666504,0.533691,0
58940,0.23877,-0.657227,0.560059,0
58960,0.253418,-0.623047,0.553711,0
58980,0.208008,-0.643066,0.522949,0
59000,0.256836,-0.728516,0.496582,0
59020,0.29541,-0.724609,0.516602,0
59040,0.288574,-0.695801,0.496582,0
59060,0.291016,-0.724121,0.46875,0
59080,0.287598,-0.747559,0.473145,0
59100,0.321777,-0.742676,0.456543,0
59120,0.358398,-0.746582,0.476562,0
59140,0.310547,-0.770996,0.442871,0
59160,0.308594,-0.759766,0.45459,0
59180,0.358398,-0.742188,0.475098,0
59200,0.358398,-0.755371,0.439941,0
59220,0.319336,-0.792969,0.420898,0
59240,0.377441,-0.734863,0.4375,0
59260,0.428223,-0.715332,0.44043,0
59280,0.408691,-0.759277,0.39209,0
59300,0.402344,-0.773926,0.396973,0
59320,0.460449,-0.758789,0.398438,0
59340,0.564941,-0.737793,0.367676,0
59360,0.519531,-0.755371,0.313477,0
59380,0.456543,-0.729004,0.399902,0
59400,0.493652,-0.741699,0.385742,0
59420,0.561035,-0.759277,0.344727,0
59440,0.567871,-0.772461,0.291992,0
59460,0.543457,-0.723633,0.312012,0
59480,0.553223,-0.698242,0.333008,0
59500,0.564941,-0.724609,0.265137,0
59520,0.539062,-0.749023,0.243652,0
59540,0.570312,-0.738281,0.277832,0
59560,0.572266,-0.688965,0.261719,0
59580,0.594238,-0.694824,0.219238,0
59600,0.615234,-0.706543,0.189453,0
59620,0.609863,-0.696289,0.208496,0
59640,0.594238,-0.649902,0.226074,0
59660,0.592285,-0.65332,0.18457,0
59680,0.607422,-0.703613,0.132812,0
59700,0.660645,-0.677246,0.157715,0
59720,0.660645,-0.647461,0.161133,0
59740,0.635742,-0.648438,0.141602,0
59760,0.687988,-0.680176,0.10498,0
59780,0.775391,-0.651855,0.119629,0
59800,0.725098,-0.621094,0.112305,0
59820,0.722168,-0.609863,0.0698242,0
59840,0.789551,-0.643066,0.0439453,0
59860,0.792969,-0.630371,0.0483398,0
59870,0.805664,-0.589355,0.0283203,0
59880,0.762207,-0.580078,0.0517578,0
59900,0.773438,-0.572754,0.0341797,0
59920,0.818848,-0.569824,0.0258789,0
59940,0.804199,-0.541504,0.0517578,0
59960,0.589844,-0.566406,0.0820312,0
59980,0.876465,-0.502441,0.0288086,0
60000,0.865723,-0.48877,0.0166016,0
60020,0.887207,-0.470703,-0.00683594,0
60040,0.914551,-0.479004,-0.0297852,0
60060,0.921387,-0.446777,-0.00439453,0
60080,0.90918,-0.435547,0.00292969,0
60100,0.940918,-0.411133,-0.00976562,0
60120,0.941895,-0.369629,0.0185547,0
60140,0.921875,-0.35791,0.0458984,0
60160,0.921387,-0.353027,0.0473633,0
60180,0.932129,-0.317383,0.0766602,0
60200,0.983398,-0.307129,0.0986328,0
60220,0.954102,-0.322754,0.110352,0
60240,0.879883,-0.304688,0.158691,0
60260,0.914062,-0.290527,0.200684,0
60280,0.953125,-0.26416,0.20752,0
60300,0.972656,-0.242676,0.209473,0
60320,0.927246,-0.290527,0.237305,0
60340,0.897461,-0.260742,0.283203,0
60360,0.918457,-0.218262,0.344238,0
60380,0.958496,-0.232422,0.312012,0
60400,0.932129,-0.248047,0.359375,0
60420,0.876465,-0.206543,0.417969,0
60440,0.858887,-0.216797,0.427734,0
60460,0.869141,-0.22998,0.441895,0
60480,0.830078,-0.223145,0.487305,0
60500,0.784668,-0.279297,0.479492,0
60520,0.764648,-0.16748,0.51709,0
60540,0.779297,-0.132812,0.541016,0
60560,0.797852,-0.242676,0.523438,0
60580,0.768555,-0.268066,0.567871,0
60600,0.727539,-0.147461,0.576172,0
60620,0.761719,-0.0800781,0.538086,0
60640,0.747559,-0.143555,0.559082,0
60660,0.686523,-0.304199,0.598633,0
60680,0.621582,-0.293945,0.630859,0
60700,0.642578,-0.265625,0.599121,0
60720,0.625977,-0.28418,0.578125,0
60740,0.571777,-0.402344,0.570801,0
60760,0.556152,-0.333496,0.628906,0
60780,0.498047,-0.317871,0.57959,0
60800,0.521973,-0.385254,0.571289,0
60820,0.532715,-0.500488,0.556152,0
60840,0.505371,-0.446777,0.550781,0
60860,0.492676,-0.431641,0.531738,0
60880,0.462402,-0.482422,0.55127,0
60900,0.431641,-0.562988,0.522461,0
60920,0.445312,-0.530762,0.5,0
60940,0.45166,-0.522461,0.498047,0
60960,0.421875,-0.554688,0.458984,0
60980,0.372559,-0.684082,0.402832,0
61000,0.445801,-0.643066,0.459473,0
61020,0.482422,-0.580566,0.377441,0
61040,0.402832,-0.654785,0.350586,0
61060,0.42627,-0.734375,0.393555,0
61080,0.499023,-0.727539,0.386719,0
61090,0.487305,-0.697754,0.325684,0
61110,0.474609,-0.742676,0.304688,0
61130,0.465332,-0.769043,0.296387,0
61150,0.473145,-0.755371,0.267578,0
61170,0.45459,-0.747559,0.279785,0
61190,0.490723,-0.777832,0.324219,0
61210,0.572266,-0.79541,0.275879,0
61230,0.567871,-0.729004,0.255371,0
61250,0.510254,-0.73584,0.237793,0
61270,0.552246,-0.773926,0.242188,0
61290,0.647949,-0.753418,0.182129,0
61310,0.673828,-0.711914,0.182617,0
61330,0.624512,-0.693848,0.188477,0
61350,0.60791,-0.706055,0.148438,0
61370,0.67041,-0.70166,0.141602,0
61390,0.717773,-0.6875,0.135742,0
61410,0.701172,-0.654297,0.105957,0
61430,0.694824,-0.649902,0.0961914,0
61450,0.641602,-0.644043,0.125977,0
61470,0.73877,-0.643066,0.0673828,0
61490,0.695801,-0.606934,0.0610352,0
61510,0.676758,-0.660645,-0.0112305,0
61530,0.675781,-0.61084,0.0600586,0
61550,0.691406,-0.57373,0.046875,0
61570,0.760742,-0.611816,-0.0317383,0
61590,0.80127,-0.596191,0.00146484,0
61610,0.757324,-0.552246,0.0512695,0
61630,0.756836,-0.543945,0.0239258,0
61650,0.816895,-0.585938,-0.0419922,0
61670,0.902344,-0.54248,-0.0258789,0
61690,0.882324,-0.51123,-0.00390625,0
61710,0.862793,-0.513672,-0.0258789,0
61730,0.88916,-0.510254,-0.065918,0
61750,0.898926,-0.474121,-0.0302734,0
61770,0.89209,-0.45459,-0.0102539,0
61790,0.897949,-0.428223,-0.0205078,0
61810,0.933105,-0.416504,-0.0478516,0
61830,0.90918,-0.402832,-0.0200195,0
61850,0.907715,-0.352539,-0.00830078,0
61870,0.924316,-0.331055,-0.0371094,0
61890,0.950195,-0.357422,-0.0317383,0
61910,0.94873,-0.340332,-0.000488281,0
61930,0.918945,-0.288086,0.0185547,0
61950,0.936523,-0.285645,-0.0332031,0
61970,0.964844,-0.259766,0.0249023,0
61990,0.975098,-0.254883,0.0805664,0
62010,0.935547,-0.240234,0.046875,0
62030,0.945801,-0.262695,0.0332031,0
62050,0.97168,-0.202148,0.103027,0
62070,0.952637,-0.172852,0.131348,0
62090,0.98584,-0.17627,0.0668945,0
62110,0.998535,-0.162109,0.0957031,0
62130,0.949219,-0.199707,0.174805,0
62150,0.915527,-0.250977,0.185059,0
62170,0.956543,-0.194336,0.182129,0
62190,0.992188,-0.17627,0.239258,0
62210,0.928711,-0.158691,0.28418,0
62230,0.95752,-0.179688,0.269043,0
62250,0.919922,-0.177734,0.270996,0
62270,0.942871,-0.154785,0.306152,0
62290,0.894531,-0.11084,0.329102,0
62310,0.87793,-0.137695,0.345215,0
62330,0.88916,-0.223633,0.341309,0
62350,0.87793,-0.289551,0.346191,0
62370,0.90625,-0.1875,0.449219,0
62390,0.895996,-0.161621,0.440918,0
62410,0.852539,-0.236816,0.42041,0
62430,0.901367,-0.351074,0.378418,0
62450,0.875488,-0.283203,0.494629,0
62470,0.743652,-0.201172,0.459473,0
62490,0.722168,-0.252441,0.496094,0
62510,0.793945,-0.319336,0.464844,0
62530,0.717773,-0.292969,0.517578,0
62550,0.655273,-0.265137,0.51123,0
62570,0.6875,-0.372559,0.504883,0
62590,0.675293,-0.436523,0.478027,0
62610,0.640137,-0.429688,0.498047,0
62630,0.644531,-0.372559,0.511719,0
62650,0.629395,-0.416016,0.476562,0
62670,0.525879,-0.480957,0.481934,0
62690,0.601562,-0.477051,0.543945,0
62710,0.566406,-0.491211,0.456543,0
62730,0.487305,-0.483398,0.39502,0
62750,0.518066,-0.525879,0.459961,0
62770,0.547852,-0.51709,0.455566,0
62790,0.516602,-0.523438,0.325195,0
62810,0.439941,-0.643066,0.338867,0
62830,0.439453,-0.567383,0.390625,0
62850,0.512695,-0.571289,0.333008,0
62870,0.543457,-0.561523,0.22168,0
62890,0.511719,-0.70752,0.282227,0
62910,0.512207,-0.68457,0.32959,0
62930,0.57666,-0.631836,0.248047,0
62950,0.61084,-0.655273,0.245117,0
62970,0.617676,-0.755371,0.206055,0
62990,0.577148,-0.754883,0.237305,0
63010,0.62793,-0.720703,0.190918,0
63030,0.644531,-0.69043,0.200195,0
63050,0.618652,-0.750977,0.16748,0
63070,0.59082,-0.763672,0.137207,0
63090,0.62207,-0.708496,0.118652,0
63100,0.692383,-0.681152,0.0986328,0
63120,0.666016,-0.737793,0.0737305,0
63140,0.624512,-0.706543,0.0664062,0
63160,0.685547,-0.660645,0.0830078,0
63180,0.76123,-0.707031,0.0380859,0
63200,0.694336,-0.723633,0,0
63220,0.636719,-0.653809,0.0366211,0
63240,0.724121,-0.613281,0.0385742,0
63260,0.79248,-0.649414,-0.0302734,0
63280,0.702148,-0.631836,-0.0351562,0
63300,0.671875,-0.581055,-0.015625,0
63320,0.707031,-0.564941,-0.0253906,0
63340,0.791504,-0.59375,-0.0507812,0
63360,0.80957,-0.587891,-0.0683594,0
63380,0.731934,-0.527344,-0.0541992,0
63400,0.728516,-0.515625,-0.0605469,0
63420,0.838867,-0.566895,-0.114258,0
63440,0.894531,-0.540039,-0.115234,0
63460,0.787598,-0.44043,-0.0673828,0
63480,0.823242,-0.476562,-0.0986328,0
63500,0.950684,-0.516602,-0.158203,0
63520,0.849121,-0.489258,-0.120605,0
63540,0.792969,-0.429199,-0.126465,0
63560,0.866211,-0.439941,-0.131348,0
63580,0.935547,-0.452637,-0.153809,0
63600,0.868164,-0.462891,-0.170898,0
63620,0.823242,-0.421387,-0.122559,2001
63640,0.878906,-0.447266,-0.151367,0
63660,0.970215,-0.445312,-0.174805,0
63680,0.943848,-0.446289,-0.169434,0
63700,0.847656,-0.446777,-0.146484,0
63720,0.859375,-0.442383,-0.154785,0
63740,0.928711,-0.446777,-0.148438,0
63760,0.914062,-0.425781,-0.155762,0
63780,0.891602,-0.44043,-0.177734,0
63800,0.853027,-0.448242,-0.141113,0
63820,0.878418,-0.440918,-0.158691,0
63840,0.876465,-0.419922,-0.166992,0
63860,0.852539,-0.419434,-0.17041,0
63880,0.819824,-0.436523,-0.160645,0
63900,0.791992,-0.470703,-0.143066,0
63920,0.767578,-0.48291,-0.126465,0
63940,0.771484,-0.443848,-0.141113,0
63960,0.790039,-0.456055,-0.143066,0
63980,0.817383,-0.479004,-0.138184,0
64000,0.830078,-0.511719,-0.146973,0
64020,0.800781,-0.544922,-0.161621,0
64040,0.783691,-0.526855,-0.165039,0
64060,0.814941,-0.54248,-0.125977,0
64080,0.815918,-0.501465,-0.135742,0
64100,0.812988,-0.5,-0.143066,0
64120,0.822754,-0.525391,-0.133301,0
64140,0.80127,-0.537109,-0.0908203,0
64160,0.78125,-0.486816,-0.0634766,0
64180,0.808594,-0.461426,-0.0888672,0
64200,0.8125,-0.477539,-0.0849609,0
64220,0.76123,-0.477539,-0.0639648,0
64240,0.72998,-0.473145,-0.0263672,0
64260,0.655762,-0.417969,-0.0112305,0
64280,0.658203,-0.437988,-0.0239258,0
64300,0.693848,-0.451172,0.00244141,0
64320,0.655273,-0.44043,0.0522461,0
64340,0.589355,-0.449219,0.0722656,0
64360,0.57373,-0.507324,0.0126953,0
64380,0.636719,-0.541992,0.0957031,0
64400,0.621582,-0.48877,0.196777,0
64420,0.573242,-0.5,0.15625,0
64440,0.592285,-0.555176,0.137207,0
64460,0.601074,-0.583984,0.231934,0
64480,0.515625,-0.591309,0.312012,0
64500,0.50293,-0.632812,0.291504,0
64520,0.606934,-0.672363,0.364258,0
64540,0.628418,-0.671875,0.405273,0
64560,0.590332,-0.675781,0.426758,0
64580,0.62793,-0.784668,0.504883,0
64600,0.656738,-0.839355,0.577637,0
64620,0.651855,-0.866211,0.543457,0
64640,0.629883,-0.868164,0.536133,0
64660,0.599121,-0.873047,0.59375,0
64680,0.543945,-0.881348,0.605469,0
64700,0.536621,-0.902344,0.566895,0
64720,0.537598,-0.873535,0.584473,0
64740,0.467285,-0.831055,0.618164,0
64760,0.40625,-0.850586,0.604492,0
64780,0.412598,-0.876953,0.5625,0
64800,0.410156,-0.848145,0.588867,0
64820,0.345215,-0.786133,0.587402,0
64840,0.283203,-0.757812,0.597168,0
64860,0.286621,-0.788574,0.577148,0
64880,0.289551,-0.775391,0.541504,0
64900,0.269531,-0.737305,0.560547,0
64920,0.231934,-0.736328,0.585938,0
64940,0.250488,-0.754883,0.561035,0
64960,0.283691,-0.744629,0.547852,0
64980,0.262207,-0.725586,0.558105,0
65000,0.271484,-0.724121,0.554199,0
65020,0.293945,-0.739746,0.529785,0
65040,0.280273,-0.733398,0.52002,0
65060,0.239258,-0.716309,0.521973,0
65080,0.246094,-0.721191,0.522949,0
65100,0.287109,-0.716797,0.539062,0
65120,0.293945,-0.68457,0.549805,0
65140,0.27002,-0.710938,0.546387,0
65160,0.277344,-0.720703,0.533203,0
65180,0.299805,-0.715332,0.551758,0
65200,0.288574,-0.701172,0.550781,0
65220,0.276367,-0.72168,0.549316,0
65240,0.286133,-0.726562,0.552246,0
65260,0.305176,-0.708008,0.552734,0
65280,0.294922,-0.70459,0.573242,2000
65300,0.272949,-0.716797,0.55957,0
65320,0.277344,-0.715332,0.537598,0
65340,0.288086,-0.709473,0.561035,0
65360,0.285645,-0.709473,0.563965,0
65380,0.255371,-0.699219,0.558594,0
65400,0.243652,-0.717773,0.534668,0
65420,0.272949,-0.715332,0.523438,0
65440,0.265137,-0.711426,0.563965,0
65460,0.255859,-0.706055,0.557129,0
65480,0.252441,-0.695312,0.555176,0
65500,0.265625,-0.689453,0.539551,0
65520,0.277832,-0.70459,0.541992,0
65540,0.282715,-0.702148,0.546875,0
65560,0.286133,-0.696777,0.550293,0
65580,0.279297,-0.720703,0.520508,0
65600,0.302246,-0.721191,0.54834,0
65620,0.327637,-0.705078,0.553223,0
65640,0.327148,-0.698242,0.540527,0
65660,0.30957,-0.721191,0.538574,0
65680,0.323242,-0.723145,0.540527,0
65700,0.345703,-0.719238,0.53125,0
65720,0.369629,-0.700195,0.535156,0
65740,0.358398,-0.680664,0.524902,0
65760,0.349121,-0.681641,0.521484,0
65780,0.36084,-0.683594,0.521484,0
65800,0.376953,-0.681152,0.526367,0
65820,0.373535,-0.666992,0.508301,0
65840,0.355957,-0.676758,0.504883,0
65860,0.373047,-0.695801,0.505371,0
65880,0.424316,-0.694336,0.498535,0
65900,0.40625,-0.666504,0.481445,0
65920,0.403809,-0.65918,0.481934,0
65940,0.47168,-0.686523,0.504395,0
65960,0.465332,-0.677734,0.479004,0
65980,0.458496,-0.664551,0.470703,0
66000,0.46875,-0.67627,0.45166,0
66020,0.468262,-0.678223,0.417969,0
66040,0.532715,-0.699219,0.423828,0
66060,0.531738,-0.65918,0.434082,0
66080,0.525391,-0.657715,0.424316,0
66100,0.525879,-0.668457,0.415039,0
66120,0.526855,-0.661133,0.394043,0
66140,0.610352,-0.67627,0.397949,0
66160,0.526855,-0.654297,0.404297,0
66180,0.617676,-0.643066,0.39502,0
66200,0.583984,-0.634277,0.383301,0
66220,0.661621,-0.587891,0.349609,0
66240,0.592773,-0.634277,0.382324,0
66260,0.564453,-0.613281,0.371094,0
66280,0.675293,-0.631836,0.359863,0
66300,0.633301,-0.619141,0.342285,0
66320,0.620605,-0.60498,0.364746,0
66340,0.781738,-0.62793,0.321777,0
66360,0.649414,-0.624512,0.303223,0
66380,0.683594,-0.632812,0.313965,0
66400,0.716797,-0.60791,0.333008,0
66420,0.72998,-0.583984,0.321289,0
66440,0.726562,-0.584961,0.316895,0
66460,0.724609,-0.571289,0.316406,0
66480,0.699219,-0.559082,0.327637,0
66500,0.710938,-0.530762,0.335938,0
66520,0.702637,-0.520508,0.346191,0
66540,0.694336,-0.517578,0.349121,0
66550,0.719238,-0.509766,0.35498,0
66570,0.702637,-0.491211,0.361816,0
66590,0.706543,-0.489746,0.375,0
66610,0.688965,-0.490234,0.375,0
66630,0.703613,-0.503418,0.378906,0
66650,0.719727,-0.492676,0.380371,0
