Timestamp, Acceleration x, Acceleration y, Acceleration z, Marker
10,-0.369629,-0.794434,0.378418,0
50,-0.37207,-0.79248,0.382324,0
70,-0.376465,-0.805176,0.387695,0
90,-0.380859,-0.825195,0.385254,0
110,-0.370605,-0.822754,0.389648,0
130,-0.378418,-0.824707,0.397949,0
130,-0.395508,-0.822266,0.399902,0
160,-0.390625,-0.815918,0.382324,0
180,-0.381348,-0.802734,0.372559,0
200,-0.390625,-0.797852,0.35791,0
220,-0.394531,-0.786621,0.337402,0
240,-0.382812,-0.785645,0.32666,0
260,-0.383301,-0.794434,0.330566,0
280,-0.391602,-0.811035,0.35498,0
300,-0.379395,-0.832031,0.368652,0
320,-0.365723,-0.838867,0.390625,0
340,-0.366699,-0.831055,0.398926,0
360,-0.36377,-0.810059,0.408203,0
380,-0.365234,-0.791016,0.421875,0
400,-0.376953,-0.787109,0.428223,0
410,-0.387207,-0.789062,0.438477,0
430,-0.385742,-0.791504,0.42334,0
450,-0.39209,-0.806152,0.422363,0
470,-0.385742,-0.834473,0.415527,0
490,-0.383789,-0.825684,0.414062,0
510,-0.382812,-0.825684,0.416016,0
530,-0.456055,-0.819336,0.360352,0
560,-0.43457,-0.903809,0.481934,0
580,-0.467773,-0.826172,0.153809,0
600,-0.379883,-0.862793,0.549805,0
620,-0.428223,-0.833496,0.447266,0
640,-0.40625,-0.847168,0.427734,0
660,-0.367676,-0.812012,0.422852,0
680,-0.386719,-0.808105,0.426758,0
700,-0.393066,-0.788086,0.412598,0
720,-0.38916,-0.780273,0.37793,0
740,-0.378418,-0.748047,0.350586,0
760,-0.411621,-0.748047,0.348633,0
780,-0.430176,-0.76709,0.354004,0
800,-0.432129,-0.771484,0.317871,0
820,-0.426758,-0.800293,0.314941,0
840,-0.424805,-0.847168,0.31543,0
860,-0.396484,-0.873535,0.321777,0
880,-0.385254,-0.882812,0.322266,0
900,-0.382812,-0.870605,0.300293,0
920,-0.394043,-0.869629,0.299316,0
940,-0.396484,-0.880859,0.279785,0
960,-0.411621,-0.873047,0.283691,0
980,-0.433594,-0.858398,0.279297,0
1000,-0.439453,-0.855957,0.261719,0
1020,-0.434082,-0.850586,0.241699,0
1040,-0.422852,-0.859375,0.242188,0
1060,-0.411133,-0.850586,0.249512,0
1080,-0.396973,-0.837891,0.253906,0
1100,-0.415039,-0.819336,0.280762,0
1120,-0.415527,-0.804199,0.290527,0
1140,-0.402344,-0.805176,0.291016,0
1160,-0.409668,-0.805176,0.303711,0
1180,-0.425781,-0.810547,0.303711,0
1200,-0.436523,-0.819336,0.307129,0
1220,-0.44873,-0.830566,0.306152,0
1240,-0.433594,-0.850098,0.275391,0
1260,-0.405273,-0.858887,0.250977,0
1280,-0.384277,-0.842285,0.230957,0
1300,-0.385742,-0.841309,0.241211,0
1320,-0.402832,-0.863281,0.248047,0
1340,-0.413086,-0.881836,0.263672,0
1360,-0.422852,-0.901367,0.283691,0
1380,-0.438965,-0.880371,0.320312,0
1400,-0.451172,-0.847168,0.324219,0
1420,-0.430176,-0.823242,0.320801,0
1440,-0.414062,-0.814941,0.326172,0
1460,-0.416504,-0.809082,0.318359,0
1480,-0.413574,-0.828613,0.317871,0
1500,-0.408203,-0.838379,0.315918,0
1520,-0.394531,-0.841309,0.311035,0
1540,-0.39502,-0.842773,0.30127,0
1560,-0.399414,-0.834473,0.308594,0
1580,-0.405273,-0.832031,0.319336,0
1600,-0.408691,-0.82959,0.306641,0
1620,-0.390625,-0.824219,0.297852,0
1640,-0.410156,-0.83252,0.305176,0
1660,-0.412109,-0.82666,0.319336,0
1680,-0.411621,-0.832031,0.32666,0
1700,-0.42627,-0.853516,0.338867,0
1720,-0.413574,-0.861816,0.334473,0
1740,-0.412109,-0.851074,0.372559,0
1760,-0.421387,-0.851074,0.371094,0
1780,-0.388184,-0.878906,0.352051,0
1800,-0.351074,-0.893066,0.354004,0
1820,-0.421387,-0.86377,0.361816,0
1840,-0.432617,-0.859863,0.330078,0
1860,-0.362793,-0.843262,0.32373,0
1880,-0.362305,-0.826172,0.319824,0
1900,-0.373535,-0.811523,0.330078,0
1920,-0.389648,-0.81543,0.316895,0
1940,-0.380371,-0.763672,0.316406,0
1960,-0.37207,-0.716797,0.304688,0
1980,-0.397949,-0.713379,0.331543,0
2000,-0.44043,-0.788086,0.35791,0
2020,-0.455566,-0.851074,0.391602,0
2040,-0.452637,-0.879883,0.398438,0
2060,-0.436035,-0.889648,0.375977,0
2080,-0.432617,-0.898926,0.346191,0
2100,-0.427734,-0.890137,0.342285,0
2120,-0.42041,-0.85498,0.325195,0
2140,-0.390625,-0.827637,0.286133,0
2160,-0.362305,-0.828125,0.254395,0
2180,-0.33252,-0.814453,0.248535,0
2200,-0.316895,-0.803711,0.272949,0
2220,-0.359863,-0.830078,0.323242,0
2240,-0.388184,-0.839844,0.338379,0
2260,-0.400879,-0.851074,0.364746,0
2280,-0.421387,-0.847656,0.389648,0
2300,-0.449707,-0.838379,0.393066,0
2320,-0.479492,-0.813477,0.379395,0
2340,-0.466309,-0.796387,0.356934,0
2360,-0.472168,-0.763672,0.337402,0
2380,-0.450684,-0.77832,0.297363,0
2400,-0.415527,-0.821289,0.278809,0
2420,-0.381348,-0.85791,0.266113,0
2440,-0.342773,-0.866699,0.268066,0
2460,-0.313477,-0.886719,0.261719,0
2470,-0.30127,-0.877441,0.282227,0
2490,-0.337891,-0.866211,0.332031,0
2510,-0.371094,-0.841797,0.358398,0
2530,-0.387695,-0.83252,0.392578,0
2550,-0.405273,-0.819336,0.421875,0
2570,-0.44043,-0.782715,0.42334,0
2590,-0.443848,-0.752441,0.414551,0
2610,-0.425293,-0.736816,0.407715,0
2630,-0.433105,-0.77832,0.414062,0
2650,-0.421875,-0.830078,0.390625,0
2670,-0.396973,-0.854004,0.374023,0
2690,-0.375488,-0.850098,0.359863,0
2710,-0.370605,-0.85791,0.334473,0
2730,-0.375488,-0.885254,0.334961,0
2750,-0.373535,-0.87207,0.32959,0
2770,-0.378906,-0.82666,0.324707,0
2790,-0.38623,-0.792969,0.324219,0
2810,-0.405762,-0.789062,0.343262,0
2830,-0.414062,-0.813965,0.363281,0
2850,-0.408691,-0.817383,0.364746,0
2870,-0.401367,-0.823242,0.371582,0
2890,-0.398926,-0.827148,0.376953,0
2910,-0.390625,-0.822754,0.373047,0
2930,-0.378418,-0.821289,0.360352,0
2950,-0.383301,-0.817871,0.358887,0
2970,-0.385742,-0.811523,0.352051,0
2990,-0.383789,-0.809082,0.355957,0
3010,-0.388672,-0.810059,0.354492,0
3030,-0.407227,-0.824707,0.356934,0
3050,-0.408203,-0.839355,0.356445,0
3070,-0.392578,-0.835449,0.342285,0
3090,-0.391602,-0.830078,0.352051,0
3110,-0.39209,-0.82666,0.351562,0
3130,-0.388672,-0.823242,0.353027,0
3150,-0.383301,-0.809082,0.348633,0
3170,-0.383789,-0.797852,0.347656,0
3190,-0.386719,-0.810059,0.356445,0
3210,-0.389648,-0.818359,0.366699,0
3230,-0.400391,-0.825684,0.376953,0
3250,-0.397461,-0.841797,0.367188,0
3270,-0.375,-0.823242,0.370117,0
3290,-0.376465,-0.824219,0.383789,0
3310,-0.396973,-0.842285,0.38916,0
3330,-0.384766,-0.826172,0.38623,0
3350,-0.368652,-0.806152,0.395508,0
3370,-0.35791,-0.787598,0.393555,0
3390,-0.354492,-0.790039,0.38623,0
3410,-0.360352,-0.799316,0.399414,0
3430,-0.348633,-0.78418,0.381348,0
3450,-0.333008,-0.773438,0.383301,0
3470,-0.329102,-0.771973,0.407715,0
3470,-0.375,-0.802246,0.449707,0
3490,-0.406738,-0.838867,0.438965,0
3510,-0.391113,-0.878906,0.418457,0
3530,-0.373535,-0.852051,0.395508,0
3570,-0.377441,-0.852051,0.378418,0
3590,-0.419434,-0.810547,0.341797,0
3590,-0.430176,-0.810059,0.337402,0
3610,-0.404785,-0.846191,0.315918,0
3630,-0.401855,-0.826172,0.323242,0
3650,-0.327148,-0.883301,0.47998,0
3680,-0.316895,-0.932129,0.672852,0
3710,-0.537109,-0.892578,0.286621,0
3730,-0.378418,-0.844238,0.658691,0
3750,0.151367,-0.638184,0.10791,0
3770,0.109375,-0.639648,0.012207,0
3790,-0.0942383,-0.686035,0.0820312,0
3810,-0.10791,-0.67041,0.103516,0
3830,0.230469,-0.614258,0.123535,0
3850,0.660156,-0.604492,0.337891,0
3870,0.0727539,-0.836914,0.71875,0
3890,-0.435547,-0.785156,0.339844,0
3890,-0.427246,-0.794922,0.385742,0
3910,-0.373535,-0.818359,0.381348,0
3930,-0.406738,-0.783203,0.33252,0
3950,-0.434082,-0.848633,0.458496,0
3970,-0.526855,-0.866211,0.295898,0
4010,-0.158203,-0.713867,0.303223,0
4030,-0.375,-0.776855,0.12207,0
4050,-0.906738,-0.960449,0.587402,0
4070,-0.980957,-0.984375,0.743164,0
4090,-0.891113,-0.970215,0.744141,0
4090,-0.960449,-0.992188,0.683594,0
4110,-0.53125,-0.820801,0.299805,0
4130,-0.398438,-0.822754,0.395508,0
4150,-0.366699,-0.815918,0.400391,0
4150,-0.375,-0.807129,0.413086,0
4170,-0.365723,-0.804199,0.420898,0
4190,-0.355469,-0.794434,0.410156,0
4210,-0.35791,-0.785645,0.424316,0
4210,-0.359863,-0.802246,0.427246,0
4230,-0.358887,-0.800781,0.429199,0
4250,-0.367676,-0.793945,0.425781,0
4270,-0.364746,-0.800293,0.424316,0
4280,-0.358398,-0.801758,0.41748,0
4290,-0.35791,-0.803223,0.410645,0
4310,-0.365234,-0.814941,0.403809,0
4330,-0.375488,-0.811035,0.410645,0
4350,-0.374512,-0.820801,0.408691,0
4350,-0.382812,-0.814941,0.404785,0
4370,-0.376953,-0.802734,0.400391,0
4390,-0.370605,-0.801758,0.394043,0
4410,-0.374512,-0.803711,0.394531,0
4410,-0.375,-0.797363,0.397461,0
4430,-0.370605,-0.805664,0.40332,0
4450,-0.380371,-0.800293,0.39502,0
4470,-0.376465,-0.802734,0.393066,0
4470,-0.378418,-0.805664,0.397949,0
4490,-0.371094,-0.800781,0.39502,0
4510,-0.373047,-0.809082,0.388672,0
4530,-0.378906,-0.810547,0.389648,0
4550,-0.377441,-0.815918,0.382812,0
4550,-0.380859,-0.81543,0.385742,0
4570,-0.380371,-0.814941,0.381836,0
4590,-0.374512,-0.812012,0.375488,0
4590,-0.371094,-0.808105,0.384766,0
4610,-0.373047,-0.811523,0.387695,0
4630,-0.373047,-0.820312,0.385254,0
4650,-0.380859,-0.819336,0.391602,0
4660,-0.380371,-0.81543,0.389648,0
4670,-0.376465,-0.804199,0.387695,0
4690,-0.380859,-0.806152,0.387207,0
4710,-0.370605,-0.802734,0.391602,0
4730,-0.371094,-0.804199,0.38623,0
4730,-0.373047,-0.811035,0.382324,0
4750,-0.375,-0.818848,0.385742,0
4770,-0.375977,-0.820801,0.385742,0
4790,-0.379883,-0.81543,0.381348,0
4790,-0.37793,-0.823242,0.38623,0
4810,-0.375488,-0.820312,0.386719,0
4830,-0.374512,-0.821289,0.385742,0
4840,-0.370605,-0.817383,0.383301,0
4850,-0.37793,-0.801758,0.387695,0
4870,-0.376465,-0.808594,0.393555,0
4890,-0.378906,-0.811523,0.395996,0
4910,-0.380371,-0.808594,0.397949,0
4910,-0.376465,-0.8125,0.394531,0
4930,-0.371094,-0.803223,0.393555,0
4950,-0.370605,-0.811523,0.390137,0
4970,-0.365234,-0.818359,0.385742,0
4970,-0.378418,-0.812988,0.388184,0
4990,-0.374023,-0.814941,0.400879,0
5010,-0.374512,-0.811523,0.396973,0
5030,-0.377441,-0.808594,0.401367,0
5030,-0.374023,-0.818359,0.399902,0
5050,-0.374512,-0.813965,0.394043,0
5090,-0.377441,-0.806152,0.394043,0
5150,-0.37207,-0.813477,0.390137,0
5210,-0.37207,-0.811523,0.385254,0
5260,-0.375977,-0.813477,0.389648,0
5310,-0.375977,-0.819824,0.38623,0
5370,-0.375,-0.810547,0.394043,0
5420,-0.365234,-0.81543,0.395508,0
5450,-0.373535,-0.808594,0.388184,0
5470,-0.371582,-0.806152,0.394043,0
5470,-0.375488,-0.808594,0.38916,0
5490,-0.373047,-0.811523,0.390137,0
5510,-0.374512,-0.817383,0.393066,0
5530,-0.374512,-0.8125,0.388184,0
5540,-0.370117,-0.808594,0.389648,0
5550,-0.376953,-0.810059,0.387695,0
5570,-0.376465,-0.814453,0.396973,0
5590,-0.374512,-0.810059,0.397461,0
5610,-0.379395,-0.824219,0.388184,0
5610,-0.373535,-0.820312,0.391113,0
5630,-0.379395,-0.81543,0.394043,0
5650,-0.381348,-0.81543,0.391113,0
5670,-0.373047,-0.811035,0.391113,0
5670,-0.37207,-0.805664,0.38916,0
5690,-0.376465,-0.810059,0.396484,0
5710,-0.378906,-0.810547,0.39209,0
5730,-0.371094,-0.812988,0.391113,0
5730,-0.371094,-0.820801,0.39209,0
5750,-0.371582,-0.813477,0.388184,0
5770,-0.368164,-0.817871,0.388184,0
5790,-0.362793,-0.812012,0.388672,0
5810,-0.362793,-0.814453,0.384277,0
5810,-0.369141,-0.806152,0.38916,0
5830,-0.379883,-0.810059,0.395996,0
5850,-0.376953,-0.821777,0.397461,0
5850,-0.371094,-0.814453,0.394043,0
5870,-0.373047,-0.80957,0.388672,0
5890,-0.376465,-0.804688,0.384277,0
5910,-0.384766,-0.812012,0.383789,0
5910,-0.378906,-0.812012,0.383301,0
5930,-0.380859,-0.814941,0.386719,0
5950,-0.373535,-0.811035,0.384277,0
5970,-0.369141,-0.810547,0.390625,0
5970,-0.374512,-0.8125,0.388184,0
5990,-0.376465,-0.819336,0.383789,0
6010,-0.373535,-0.814453,0.383789,0
6030,-0.368652,-0.811523,0.382324,0
6040,-0.376953,-0.817871,0.383301,0
6050,-0.375488,-0.817871,0.386719,0
6070,-0.380859,-0.816406,0.38623,0
6070,-0.376953,-0.812012,0.392578,0
6100,-0.382812,-0.806641,0.379883,0
6130,-0.283203,-0.819824,0.38916,0
6150,-0.32666,-0.696289,0.233887,0
6170,-0.352051,-0.873047,0.73584,0
6190,-0.175293,-0.707031,0.00341797,0
6210,-0.750488,-0.921387,0.447266,0
6230,-0.992676,-0.992188,0.71875,0
6290,-0.95166,-0.973633,0.739746,0
6350,-0.967285,-0.993164,0.719727,0
6410,-0.802734,-0.932617,0.65625,0
6450,-0.382324,-0.849609,0.415527,0
6510,-0.390625,-0.807129,0.387695,0
6560,-0.38623,-0.813477,0.382812,0
6610,-0.384277,-0.811523,0.379883,0
6660,-0.376953,-0.820312,0.382812,0
6680,-0.37793,-0.814453,0.38623,0
6700,-0.375977,-0.819336,0.383789,0
6720,-0.370605,-0.808105,0.384277,0
6740,-0.377441,-0.807129,0.38623,0
6760,-0.38916,-0.819336,0.391602,0
6780,-0.401367,-0.831055,0.400391,0
6800,-0.406738,-0.83252,0.354004,0
6820,-0.381836,-0.832031,0.353516,0
6840,-0.336914,-0.83252,0.333496,0
6860,-0.331055,-0.861816,0.354004,0
6880,-0.331543,-0.857422,0.370605,0
6900,-0.341797,-0.866699,0.408691,0
6920,-0.363281,-0.870117,0.45166,0
6940,-0.361816,-0.846191,0.466797,0
6960,-0.373535,-0.805176,0.449219,0
6980,-0.399902,-0.750977,0.428223,0
7000,-0.418457,-0.717773,0.414551,0
7020,-0.458984,-0.737793,0.403809,0
7040,-0.478027,-0.784668,0.378418,0
7060,-0.44043,-0.836914,0.350098,0
7080,-0.436523,-0.853516,0.350586,0
7100,-0.423828,-0.871582,0.332031,0
7120,-0.388672,-0.867188,0.358887,0
7140,-0.385254,-0.85791,0.358887,0
7160,-0.379883,-0.858398,0.348633,0
7180,-0.382812,-0.831543,0.334473,0
7200,-0.401367,-0.833496,0.321777,0
7220,-0.423828,-0.847168,0.298828,0
7240,-0.446777,-0.875488,0.285156,0
7260,-0.459473,-0.881348,0.258301,0
7280,-0.474121,-0.884766,0.229004,0
7300,-0.456055,-0.893066,0.194336,0
7320,-0.396484,-0.889648,0.174805,0
7340,-0.414062,-0.890137,0.191406,0
7360,-0.422852,-0.834473,0.158203,0
7380,-0.431641,-0.800293,0.172363,0
7400,-0.444824,-0.793945,0.140625,0
7420,-0.42627,-0.772461,0.124512,0
7440,-0.442871,-0.775391,0.113281,0
7460,-0.443359,-0.808594,0.0869141,0
7480,-0.443359,-0.837891,0.118164,0
7500,-0.457031,-0.86377,0.145508,0
7520,-0.493164,-0.915039,0.15625,0
7540,-0.503418,-0.935547,0.148438,0
7560,-0.486328,-0.936035,0.149902,0
7580,-0.46582,-0.922363,0.148438,0
7590,-0.476562,-0.902832,0.155273,0
7610,-0.475586,-0.885254,0.157715,0
7630,-0.459473,-0.849609,0.161133,0
7650,-0.45752,-0.824707,0.162109,0
7670,-0.459473,-0.825684,0.157715,0
7690,-0.446289,-0.825195,0.161133,0
7710,-0.448242,-0.84375,0.172363,0
7730,-0.458984,-0.87793,0.18457,0
7750,-0.46875,-0.893066,0.187988,0
7770,-0.480469,-0.897461,0.189941,0
7790,-0.480957,-0.88916,0.193848,0
7810,-0.48291,-0.875488,0.178223,0
7830,-0.482422,-0.864746,0.171387,0
7850,-0.467773,-0.860352,0.169434,0
7870,-0.455078,-0.870117,0.15918,0
7890,-0.452637,-0.868652,0.157715,0
7910,-0.446289,-0.867188,0.145508,0
7930,-0.450195,-0.865723,0.15625,0
7950,-0.459473,-0.870605,0.159668,0
7970,-0.462891,-0.875977,0.161621,0
7990,-0.463379,-0.877441,0.164551,0
8010,-0.465332,-0.873047,0.166016,0
8030,-0.464355,-0.852539,0.158691,0
8050,-0.464355,-0.836426,0.158203,0
8070,-0.45166,-0.845215,0.166016,0
8090,-0.456543,-0.876953,0.178711,0
8110,-0.460938,-0.908203,0.202148,0
8130,-0.467285,-0.893066,0.211914,0
8150,-0.468262,-0.885742,0.211426,0
8170,-0.46875,-0.888184,0.23584,0
8190,-0.46875,-0.892578,0.229004,0
8210,-0.477051,-0.887207,0.230469,0
8230,-0.463867,-0.875,0.203613,0
8250,-0.464355,-0.833496,0.175293,0
8270,-0.476562,-0.825195,0.15918,0
8290,-0.45459,-0.839355,0.129883,0
8310,-0.437012,-0.843262,0.125977,0
8330,-0.437988,-0.85791,0.135742,0
8350,-0.430176,-0.886719,0.150879,0
8370,-0.44043,-0.906738,0.172363,0
8390,-0.456055,-0.919434,0.175293,0
8410,-0.470215,-0.90918,0.179199,0
8430,-0.479004,-0.875488,0.17334,0
8450,-0.471191,-0.849121,0.159668,0
8470,-0.467773,-0.845215,0.152344,0
8490,-0.470703,-0.855469,0.152832,0
8510,-0.469727,-0.869141,0.147461,0
8530,-0.469238,-0.879883,0.146484,0
8550,-0.467285,-0.870605,0.144531,0
8570,-0.458984,-0.86377,0.148438,0
8590,-0.46582,-0.867676,0.157227,0
8610,-0.453125,-0.869141,0.179688,0
8630,-0.452148,-0.879883,0.189453,0
8650,-0.448242,-0.865723,0.19873,0
8670,-0.45459,-0.866699,0.208496,0
8690,-0.462402,-0.871582,0.20166,0
8710,-0.454102,-0.87207,0.196777,0
8730,-0.454102,-0.873535,0.183105,0
8750,-0.459961,-0.868652,0.185059,0
8770,-0.462402,-0.871094,0.176758,0
8790,-0.45752,-0.864746,0.174805,0
8810,-0.459961,-0.857422,0.175781,0
8830,-0.458496,-0.863281,0.183105,0
8850,-0.458496,-0.871582,0.18457,0
8870,-0.454102,-0.883789,0.185547,0
8890,-0.456055,-0.880859,0.185547,0
8910,-0.449707,-0.877441,0.184082,0
8930,-0.455078,-0.871582,0.187012,0
8950,-0.459473,-0.871094,0.193848,0
8970,-0.45166,-0.872559,0.187012,0
8990,-0.456055,-0.859375,0.188477,0
9010,-0.455566,-0.872559,0.180176,0
9030,-0.452148,-0.866211,0.181641,0
9050,-0.459961,-0.86377,0.187012,0
9070,-0.463867,-0.866211,0.186523,0
9090,-0.462891,-0.869141,0.180664,0
9110,-0.459473,-0.870605,0.178711,0
9130,-0.463379,-0.877441,0.177246,0
9150,-0.461426,-0.878418,0.179199,0
9170,-0.460938,-0.879883,0.168457,0
9190,-0.45166,-0.875488,0.17041,0
9210,-0.459473,-0.873535,0.168945,0
9230,-0.455566,-0.866699,0.171875,0
9250,-0.458496,-0.865234,0.171387,0
9270,-0.457031,-0.868652,0.17627,0
9290,-0.44873,-0.875977,0.173828,0
9310,-0.45752,-0.869629,0.169922,0
9330,-0.459961,-0.865723,0.167969,0
9350,-0.461426,-0.872559,0.164062,0
9370,-0.458984,-0.875,0.167969,0
9390,-0.458496,-0.879883,0.162598,0
9410,-0.459473,-0.874512,0.171387,0
9430,-0.457031,-0.86377,0.16748,0
9450,-0.461426,-0.870117,0.169434,0
9470,-0.45752,-0.870117,0.17334,0
9490,-0.464844,-0.867676,0.171875,0
9510,-0.455566,-0.872559,0.168945,0
9530,-0.456543,-0.873535,0.166016,0
9550,-0.455566,-0.874023,0.167969,0
9570,-0.467773,-0.874023,0.164062,0
9590,-0.466797,-0.881836,0.179688,0
9610,-0.458984,-0.872559,0.167969,0
9630,-0.459961,-0.860352,0.175293,0
9650,-0.456055,-0.866211,0.169922,0
9670,-0.449707,-0.870117,0.157227,0
9690,-0.447754,-0.862305,0.149414,0
9710,-0.435059,-0.838867,0.135742,0
9730,-0.414551,-0.823242,0.146484,0
9750,-0.385254,-0.825684,0.184082,0
9770,-0.37207,-0.836426,0.225586,0
9790,-0.36377,-0.850098,0.200684,0
9810,-0.378906,-0.862305,0.199707,0
9830,-0.40918,-0.855957,0.194336,0
9850,-0.467773,-0.842773,0.219727,0
9870,-0.525391,-0.869629,0.229492,0
9890,-0.523438,-0.892578,0.223145,0
9910,-0.499023,-0.871582,0.240234,0
9930,-0.487793,-0.851074,0.256836,0
9950,-0.500488,-0.845703,0.29248,0
9970,-0.483398,-0.841309,0.312012,0
9990,-0.45459,-0.847656,0.318848,0
10010,-0.448242,-0.824219,0.354492,0
10030,-0.442383,-0.812988,0.348633,0
10050,-0.426758,-0.819824,0.375488,0
10070,-0.42627,-0.838867,0.364258,0
10090,-0.395996,-0.844238,0.338867,0
10110,-0.340332,-0.840332,0.340332,0
10130,-0.30957,-0.815918,0.370605,0
10150,-0.315918,-0.836426,0.395996,0
10160,-0.314941,-0.865234,0.424805,0
10180,-0.312012,-0.865723,0.433594,0
10200,-0.345215,-0.820312,0.473145,0
10220,-0.371582,-0.799805,0.472656,0
10240,-0.402832,-0.771973,0.457031,0
10260,-0.413574,-0.755859,0.429688,0
10280,-0.404297,-0.746094,0.379883,0
10300,-0.411133,-0.740234,0.365234,0
10320,-0.416992,-0.783691,0.35498,0
10340,-0.40918,-0.83252,0.355469,0
10360,-0.390137,-0.853027,0.343262,0
10380,-0.393066,-0.854004,0.362793,0
10400,-0.426758,-0.853516,0.367188,0
10420,-0.387207,-0.868652,0.377441,0
10440,-0.333008,-0.883789,0.36377,0
10460,-0.313477,-0.899902,0.345703,0
10480,-0.352051,-0.89502,0.368652,0
10500,-0.407715,-0.856445,0.386719,0
10520,-0.43457,-0.810547,0.37793,0
10540,-0.437012,-0.785156,0.343262,0
10560,-0.416504,-0.788086,0.318848,0
10580,-0.399414,-0.812012,0.322754,0
10600,-0.390137,-0.820801,0.331055,0
10620,-0.38916,-0.82373,0.333984,0
10640,-0.383789,-0.803223,0.31543,0
10660,-0.391602,-0.788574,0.315918,0
10680,-0.397461,-0.793945,0.334473,0
10700,-0.416504,-0.821777,0.354004,0
10720,-0.422363,-0.861816,0.358398,0
10740,-0.408691,-0.872559,0.351562,0
10760,-0.391602,-0.864746,0.341309,0
10780,-0.391602,-0.836426,0.351562,0
10800,-0.397949,-0.825684,0.358887,0
10820,-0.38916,-0.821777,0.360352,0
10840,-0.386719,-0.806152,0.344727,0
10860,-0.408691,-0.800293,0.349609,0
10880,-0.417969,-0.807129,0.342285,0
10900,-0.41748,-0.836426,0.331543,0
10920,-0.411621,-0.834473,0.31543,0
10940,-0.410645,-0.830078,0.314941,0
10960,-0.415527,-0.828613,0.322754,0
10980,-0.414062,-0.824707,0.32959,0
11000,-0.403809,-0.831543,0.324219,0
11020,-0.401855,-0.835938,0.331543,0
11040,-0.407227,-0.82373,0.34668,0
11060,-0.40332,-0.827148,0.350586,0
11080,-0.402344,-0.821289,0.346191,0
11100,-0.398926,-0.821289,0.34668,0
11120,-0.399414,-0.827637,0.345215,0
11140,-0.401855,-0.828125,0.341797,0
11160,-0.401855,-0.82959,0.342285,0
11180,-0.405273,-0.833496,0.336914,0
11200,-0.401367,-0.82666,0.332031,0
11220,-0.403809,-0.825684,0.330078,0
11240,-0.412598,-0.824707,0.32959,0
11260,-0.407715,-0.829102,0.333984,0
11280,-0.414062,-0.828613,0.338867,0
11300,-0.411621,-0.827148,0.337891,0
11320,-0.407715,-0.819824,0.34082,0
11340,-0.405273,-0.827637,0.34082,0
11360,-0.401855,-0.825684,0.343262,0
11380,-0.399414,-0.825684,0.338867,0
11400,-0.402344,-0.827637,0.349121,0
11420,-0.40625,-0.834961,0.350098,0
11440,-0.399414,-0.825684,0.349609,0
11460,-0.405273,-0.820801,0.354492,0
11480,-0.405273,-0.826172,0.352051,0
11500,-0.409668,-0.826172,0.350586,0
11520,-0.405762,-0.822754,0.345215,0
11540,-0.40332,-0.819336,0.335938,0
11560,-0.413574,-0.827148,0.349121,0
11580,-0.413574,-0.83252,0.342773,0
11600,-0.407227,-0.838379,0.335938,0
11620,-0.402832,-0.831055,0.339355,0
11640,-0.398926,-0.833496,0.329102,0
11660,-0.407715,-0.837402,0.344238,0
11680,-0.397949,-0.827148,0.338379,0
11700,-0.379395,-0.819824,0.340332,0
11720,-0.393555,-0.821777,0.348633,0
11740,-0.402832,-0.820312,0.345215,0
11760,-0.40332,-0.825684,0.35498,0
11780,-0.40332,-0.831055,0.349121,0
11800,-0.400391,-0.833008,0.341797,0
11820,-0.407227,-0.830566,0.351074,0
11840,-0.414062,-0.823242,0.350586,0
11860,-0.412598,-0.825195,0.339844,0
11880,-0.411621,-0.820801,0.33252,0
11900,-0.405273,-0.822754,0.331055,0
11920,-0.409668,-0.819824,0.339844,0
11940,-0.406738,-0.839355,0.339355,0
11960,-0.40332,-0.825195,0.337891,0
11980,-0.400391,-0.824707,0.337402,0
12000,-0.407227,-0.835449,0.349609,0
12020,-0.407227,-0.83252,0.355469,0
12040,-0.394043,-0.832031,0.354492,0
12060,-0.400879,-0.821777,0.350586,0
12080,-0.394043,-0.820801,0.348145,0
12100,-0.400391,-0.826172,0.349609,0
12120,-0.399902,-0.82373,0.351074,0
12140,-0.398926,-0.823242,0.339355,0
12160,-0.406738,-0.834961,0.335938,0
12180,-0.402344,-0.83252,0.334473,0
12200,-0.401367,-0.825195,0.335449,0
12220,-0.401855,-0.815918,0.34082,0
12240,-0.412598,-0.824219,0.337402,0
12260,-0.40332,-0.838867,0.339355,0
12280,-0.404785,-0.833984,0.339844,0
12300,-0.405273,-0.828613,0.342285,0
12320,-0.405762,-0.82666,0.339844,0
12340,-0.399902,-0.824707,0.337402,0
12360,-0.401367,-0.827637,0.347656,0
12380,-0.403809,-0.82666,0.344727,0
12400,-0.402344,-0.817383,0.344238,0
12420,-0.400879,-0.813477,0.347656,0
12440,-0.403809,-0.82666,0.341309,0
12460,-0.399414,-0.832031,0.341797,0
12480,-0.395508,-0.835938,0.344727,0
12500,-0.408691,-0.829102,0.349609,0
12520,-0.40918,-0.82373,0.341309,0
12540,-0.411621,-0.828125,0.333496,0
12560,-0.412109,-0.817383,0.349121,0
12580,-0.404297,-0.827637,0.347168,0
12600,-0.399414,-0.82666,0.347168,0
12620,-0.408203,-0.82373,0.350098,0
12640,-0.401367,-0.826172,0.348145,0
12660,-0.404785,-0.828613,0.341309,0
12680,-0.398926,-0.828125,0.343262,0
12700,-0.398438,-0.821289,0.340332,0
12720,-0.396484,-0.833008,0.349121,0
12730,-0.397461,-0.825195,0.34082,0
12750,-0.402832,-0.824707,0.348145,0
12770,-0.399902,-0.819824,0.341797,0
12790,-0.402832,-0.822266,0.339844,0
12810,-0.40332,-0.830566,0.348145,0
12830,-0.404785,-0.830078,0.342285,0
12850,-0.401367,-0.82959,0.343262,0
12870,-0.404297,-0.825195,0.341309,0
12890,-0.402832,-0.82373,0.343262,0
12910,-0.400879,-0.834473,0.34082,0
12930,-0.396973,-0.82959,0.342773,0
12950,-0.39502,-0.822754,0.342285,0
12970,-0.39209,-0.822754,0.339355,0
12990,-0.40918,-0.821289,0.351562,0
13010,-0.415527,-0.833984,0.352539,0
13030,-0.40625,-0.831543,0.34668,0
13050,-0.402344,-0.830566,0.348145,0
13070,-0.398926,-0.833008,0.350098,0
13090,-0.404297,-0.833984,0.350586,0
13110,-0.399414,-0.820801,0.339355,0
13130,-0.401855,-0.818359,0.342773,0
13150,-0.398926,-0.816406,0.342285,0
13170,-0.402344,-0.827637,0.337891,0
13190,-0.400391,-0.835449,0.345215,0
13210,-0.402832,-0.826172,0.350586,0
13230,-0.39502,-0.830566,0.345703,0
13250,-0.401367,-0.82959,0.346191,0
13270,-0.407227,-0.829102,0.348145,0
13290,-0.40918,-0.835938,0.350098,0
13310,-0.407227,-0.811523,0.34375,0
13330,-0.406738,-0.817871,0.344238,0
13350,-0.399414,-0.828613,0.348633,0
13370,-0.400879,-0.825195,0.34082,0
13390,-0.398438,-0.821777,0.341797,0
13410,-0.404785,-0.825684,0.337402,0
13430,-0.40625,-0.828613,0.341309,0
13450,-0.404785,-0.836914,0.344238,0
13470,-0.400391,-0.827148,0.339844,0
13490,-0.396484,-0.822754,0.344238,0
13510,-0.396484,-0.82373,0.345703,0
13530,-0.39502,-0.825684,0.34668,0
13550,-0.403809,-0.82666,0.344727,0
13570,-0.407715,-0.822266,0.342773,0
13590,-0.400879,-0.820312,0.34375,0
13610,-0.40918,-0.822266,0.345703,0
13630,-0.40332,-0.836426,0.34082,0
13650,-0.404785,-0.826172,0.34082,0
13670,-0.402832,-0.834473,0.34375,0
13690,-0.397949,-0.821289,0.342285,0
13710,-0.402832,-0.820312,0.344727,0
13730,-0.399902,-0.828125,0.34082,0
13750,-0.399414,-0.828613,0.337891,0
13770,-0.393066,-0.82666,0.345215,0
13790,-0.399414,-0.824219,0.356934,0
13810,-0.40332,-0.828613,0.348633,0
13830,-0.405273,-0.829102,0.340332,0
13850,-0.40625,-0.82666,0.347656,0
13870,-0.404297,-0.830566,0.347168,0
13890,-0.403809,-0.833008,0.346191,0
13910,-0.406738,-0.818848,0.34082,0
13930,-0.401367,-0.828125,0.333984,0
13950,-0.397461,-0.831543,0.341797,0
13970,-0.400391,-0.822266,0.348145,0
13990,-0.402832,-0.822266,0.350098,0
14010,-0.407715,-0.821777,0.34668,0
14030,-0.395996,-0.828613,0.327637,0
14050,-0.395508,-0.831055,0.336914,0
14070,-0.386719,-0.832031,0.338379,0
14090,-0.384277,-0.828125,0.338379,0
14110,-0.381348,-0.828613,0.341309,0
14130,-0.39209,-0.824707,0.354492,0
14150,-0.40332,-0.836914,0.366211,0
14170,-0.419434,-0.835938,0.370605,0
14190,-0.428711,-0.829102,0.363281,0
14210,-0.432129,-0.8125,0.346191,0
14230,-0.40918,-0.819336,0.336914,0
14250,-0.396973,-0.816406,0.32959,0
14270,-0.388672,-0.82373,0.324707,0
14290,-0.38916,-0.818848,0.339844,0
14310,-0.386719,-0.831543,0.34375,0
14330,-0.387207,-0.850586,0.345215,0
14350,-0.382324,-0.84375,0.349121,0
14370,-0.384766,-0.834473,0.349121,0
14390,-0.387207,-0.83252,0.347656,0
14410,-0.385254,-0.82666,0.337891,0
14430,-0.39209,-0.825684,0.343262,0
14450,-0.404297,-0.829102,0.337891,0
14470,-0.413086,-0.827148,0.348633,0
14490,-0.420898,-0.830566,0.347656,0
14510,-0.415527,-0.827148,0.342773,0
14530,-0.40918,-0.825684,0.338379,0
14550,-0.403809,-0.816895,0.338379,0
14570,-0.401367,-0.825684,0.340332,0
14590,-0.395508,-0.824707,0.342285,0
14610,-0.396973,-0.828613,0.338867,0
14630,-0.407715,-0.821777,0.352539,0
14650,-0.415039,-0.836914,0.347168,0
14670,-0.398438,-0.84082,0.342773,0
14690,-0.390625,-0.837402,0.342285,0
14710,-0.394531,-0.837402,0.327637,0
14730,-0.394531,-0.833984,0.33252,0
14750,-0.396973,-0.825684,0.341797,0
14770,-0.401367,-0.82666,0.34375,0
14790,-0.393066,-0.821777,0.341797,0
14810,-0.390625,-0.831055,0.348145,0
14830,-0.39209,-0.831055,0.352539,0
14850,-0.392578,-0.82666,0.344727,0
14870,-0.402832,-0.831543,0.34375,0
14890,-0.413086,-0.829102,0.34375,0
14910,-0.410645,-0.83252,0.339844,0
14930,-0.408691,-0.829102,0.347168,0
14950,-0.400879,-0.836426,0.344238,0
14970,-0.393066,-0.834473,0.345215,0
14990,-0.393555,-0.832031,0.339844,0
15010,-0.393066,-0.82666,0.342285,0
15030,-0.397949,-0.833008,0.343262,0
15050,-0.400391,-0.837402,0.346191,0
15070,-0.405762,-0.845703,0.346191,0
15090,-0.41748,-0.873047,0.334961,0
15110,-0.416992,-0.962402,0.290527,0
15130,-0.39502,-1.03125,0.246094,0
15150,-0.469238,-0.987305,0.350586,0
15170,-0.530273,-0.875,0.323242,0
15190,-0.545898,-0.824707,0.412598,0
15210,-0.553711,-0.831543,0.355469,0
15230,-0.499512,-0.888184,0.350586,0
15250,-0.458496,-0.934082,0.467773,0
15270,-0.419434,-1.01221,0.579102,0
15280,-0.366211,-1.07959,0.589355,0
15300,-0.343262,-1.02002,0.613281,0
15320,-0.314941,-0.931152,0.643066,0
15340,-0.222656,-0.901367,0.635254,0
15360,-0.116699,-0.848633,0.624023,0
15380,-0.0415039,-0.797363,0.67334,0
15400,0.0410156,-0.739746,0.708008,0
15420,0.17334,-0.736816,0.660156,0
15440,0.279785,-0.70459,0.637695,0
15460,0.305664,-0.655273,0.628906,0
15470,0.348633,-0.621582,0.59082,0
15490,0.478516,-0.564453,0.579102,0
15520,0.540527,-0.525391,0.53125,0
15540,0.515625,-0.472656,0.435059,0
15560,0.54248,-0.432617,0.402832,0
15580,0.631348,-0.418457,0.363281,0
15600,0.653809,-0.382324,0.284668,0
15620,0.670898,-0.350098,0.192383,0
15640,0.715332,-0.34375,0.159668,0
15660,0.78418,-0.295898,0.129883,0
15680,0.810547,-0.306152,-0.0234375,0
15700,0.900391,-0.267578,-0.103027,0
15720,0.89209,-0.240723,-0.104004,0
15740,0.95459,-0.231445,-0.111328,0
15760,0.921387,-0.229004,-0.195312,0
15780,0.959961,-0.186035,-0.251465,0
15800,0.989746,-0.165039,-0.293457,0
15820,0.980957,-0.166992,-0.29541,0
15840,0.91748,-0.168457,-0.307617,0
15860,0.814941,-0.108398,-0.332031,0
15880,0.787598,-0.081543,-0.334473,0
15900,0.803711,-0.0917969,-0.363281,0
15920,0.783203,-0.0961914,-0.386719,0
15940,0.791504,-0.130859,-0.411621,0
15960,0.797852,-0.120117,-0.385254,0
15980,0.768555,-0.100586,-0.420898,0
16000,0.758301,-0.118164,-0.442383,0
16020,0.796387,-0.119141,-0.463379,0
16040,0.782227,-0.135254,-0.538574,0
16060,0.644531,-0.147461,-0.50293,0
16080,0.853516,-0.259766,-0.512207,0
16100,0.750488,-0.221191,-0.513184,0
16120,0.751465,-0.172852,-0.535156,0
16140,0.885254,-0.207031,-0.552246,0
16160,0.846191,-0.153809,-0.581055,0
16180,0.853516,-0.21582,-0.499512,0
16200,0.833496,-0.21582,-0.490234,0
16220,0.776367,-0.191406,-0.52002,0
16240,0.744629,-0.165039,-0.54248,0
16260,0.781738,-0.195312,-0.460938,0
16280,0.760742,-0.121094,-0.499512,0
16300,0.760254,-0.151855,-0.477051,0
16320,0.791016,-0.172852,-0.427734,0
16340,0.818359,-0.137207,-0.422852,0
16360,0.870605,-0.209473,-0.45459,0
16380,0.855957,-0.202637,-0.540039,0
16400,0.887695,-0.243652,-0.499023,0
16420,0.87207,-0.248047,-0.540039,0
16440,0.90332,-0.270508,-0.548828,0
16460,0.901855,-0.264648,-0.523926,0
16480,0.893066,-0.285645,-0.508789,0
16500,0.906738,-0.308594,-0.542969,0
16520,0.862793,-0.277832,-0.554199,0
16540,0.845703,-0.306152,-0.57373,0
16560,0.858887,-0.320312,-0.534668,0
16580,0.838379,-0.320312,-0.508789,0
16600,0.828613,-0.326172,-0.493164,0
16620,0.755371,-0.314453,-0.527832,0
16640,0.763184,-0.322266,-0.5,0
16660,0.78125,-0.327637,-0.483887,0
16680,0.789062,-0.312012,-0.462402,0
16700,0.80957,-0.341797,-0.458008,0
16720,0.841797,-0.335938,-0.463379,0
16740,0.835938,-0.33252,-0.400391,0
16760,0.841309,-0.338379,-0.409668,0
16780,0.856445,-0.363281,-0.459961,0
16800,0.875977,-0.359863,-0.487793,0
16820,0.946289,-0.385742,-0.486816,0
16840,0.919922,-0.40332,-0.478027,0
16860,0.907715,-0.43457,-0.45459,0
16880,0.853027,-0.430176,-0.458984,0
16900,0.843262,-0.412109,-0.473633,0
16920,0.812988,-0.401855,-0.445312,0
16940,0.812012,-0.382324,-0.424805,0
16960,0.838379,-0.373535,-0.388184,0
16980,0.820801,-0.364746,-0.402832,0
17000,0.855469,-0.377441,-0.401367,0
17020,0.862305,-0.354004,-0.379395,0
17040,0.884766,-0.372559,-0.384766,0
17060,0.902344,-0.382324,-0.401855,0
17080,0.844727,-0.351562,-0.369629,0
17100,0.846191,-0.341309,-0.379883,0
17120,0.858887,-0.341797,-0.421387,0
17140,0.852539,-0.354492,-0.39209,0
17160,0.828125,-0.318848,-0.38916,0
17180,0.851562,-0.308594,-0.408691,0
17200,0.833496,-0.321289,-0.394043,0
17220,0.866211,-0.318848,-0.370117,0
17240,0.890137,-0.32959,-0.371094,0
17260,0.866699,-0.33252,-0.367676,0
17280,0.887695,-0.353516,-0.405273,0
17300,0.885742,-0.32666,-0.408203,0
17320,0.873535,-0.316895,-0.417969,0
17340,0.868164,-0.316406,-0.443848,0
17360,0.895508,-0.338379,-0.46875,0
17380,0.897461,-0.318359,-0.413574,0
17400,0.914551,-0.315918,-0.373047,0
17420,0.901367,-0.328613,-0.380859,0
17440,0.875,-0.344238,-0.379883,0
17460,0.850098,-0.376465,-0.34668,0
17480,0.785156,-0.377441,-0.355957,0
17500,0.763672,-0.404785,-0.341797,0
17520,0.745117,-0.403809,-0.347168,0
17540,0.733887,-0.399414,-0.361816,0
17560,0.755859,-0.399902,-0.354004,0
17580,0.776367,-0.395996,-0.351074,0
17600,0.837402,-0.385742,-0.32373,0
17620,0.876953,-0.386719,-0.319824,0
17640,0.937012,-0.395508,-0.351074,0
17660,1.02734,-0.411621,-0.347168,0
17680,1.09912,-0.473633,-0.312012,0
17700,1.06641,-0.486328,-0.337402,0
17720,1.01318,-0.487305,-0.359863,0
17740,0.941895,-0.488281,-0.346191,0
17760,0.868164,-0.465332,-0.288086,0
17780,0.790039,-0.415527,-0.303223,0
17800,0.81543,-0.400879,-0.285645,0
17820,0.874023,-0.382812,-0.220215,0
17830,0.733887,-0.352051,-0.230957,0
17850,0.727539,-0.331055,-0.22998,0
17870,0.754395,-0.351074,-0.320801,0
17890,0.787598,-0.395508,-0.374023,0
17910,0.80127,-0.373535,-0.28418,0
17930,0.828125,-0.380371,-0.288574,0
17950,0.884766,-0.39502,-0.317871,0
17970,0.905762,-0.376953,-0.319336,0
17990,0.926758,-0.398438,-0.283691,0
18010,0.914551,-0.404785,-0.250977,0
18030,0.89209,-0.382324,-0.248047,0
18050,0.878418,-0.38916,-0.276855,0
18070,0.881836,-0.39502,-0.268555,0
18090,0.867188,-0.412109,-0.229492,0
18110,0.85498,-0.419922,-0.243652,0
18130,0.833008,-0.397949,-0.293457,0
18150,0.856934,-0.406738,-0.28125,0
18170,0.90332,-0.397461,-0.263672,0
18190,0.879883,-0.39209,-0.289551,0
18210,0.897461,-0.380859,-0.289551,0
18230,0.914551,-0.348633,-0.259766,0
18250,0.90918,-0.35498,-0.295898,0
18270,0.903809,-0.365723,-0.30957,0
18290,0.896973,-0.357422,-0.251953,0
18310,0.881836,-0.347168,-0.256836,0
18330,0.891602,-0.354492,-0.321289,0
18350,0.882324,-0.351562,-0.296875,0
18370,0.86377,-0.336914,-0.27832,0
18390,0.850586,-0.331543,-0.283691,0
18410,0.845215,-0.323242,-0.269531,0
18430,0.84082,-0.333008,-0.27832,0
18450,0.863281,-0.32959,-0.274902,0
18470,0.913086,-0.320312,-0.259277,0
18490,0.935059,-0.32373,-0.27002,0
18510,0.932617,-0.323242,-0.292969,0
18530,0.916992,-0.321289,-0.286621,0
18550,0.935059,-0.332031,-0.277832,0
18570,0.930664,-0.348633,-0.294922,0
18590,0.898438,-0.318848,-0.29541,0
18610,0.934082,-0.311035,-0.271973,0
18630,0.929688,-0.304199,-0.26123,0
18650,0.887695,-0.296875,-0.269043,0
18670,0.903809,-0.310059,-0.273926,0
18690,0.907227,-0.30127,-0.275391,0
18710,0.89502,-0.304199,-0.27002,0
18730,0.877441,-0.304199,-0.270508,0
18750,0.852539,-0.314941,-0.27832,0
18770,0.843262,-0.297852,-0.265625,0
18790,0.84375,-0.280762,-0.263672,0
18810,0.866699,-0.295898,-0.270996,0
18830,0.876465,-0.282715,-0.293945,0
18850,0.889648,-0.285645,-0.296875,0
18870,0.896484,-0.280273,-0.300293,0
18890,0.888672,-0.283203,-0.294434,0
18910,0.921387,-0.300781,-0.29834,0
18930,0.92627,-0.29248,-0.302734,0
18950,0.93457,-0.275879,-0.330566,0
18970,0.916992,-0.285156,-0.318848,0
18990,0.91748,-0.313477,-0.314941,0
19010,0.921875,-0.308594,-0.304688,0
19030,0.94043,-0.308105,-0.292969,0
19050,0.932129,-0.320801,-0.283691,0
19070,0.900879,-0.32959,-0.288574,0
19090,0.890625,-0.341797,-0.281738,0
19110,0.893066,-0.350098,-0.27002,0
19130,0.858887,-0.34668,-0.261719,0
19150,0.878418,-0.350098,-0.240723,0
19170,0.887207,-0.343262,-0.236816,0
19190,0.894531,-0.356445,-0.23877,0
19210,0.902832,-0.356445,-0.241211,0
19230,0.903809,-0.337891,-0.206543,0
19250,0.910645,-0.338379,-0.220703,0
19270,0.924316,-0.365234,-0.279297,0
19290,0.943359,-0.385254,-0.307129,0
19310,0.867188,-0.337402,-0.288574,0
19330,0.832031,-0.330078,-0.267578,0
19350,0.919434,-0.324707,-0.266113,0
19370,0.919434,-0.327637,-0.266602,0
19390,0.920898,-0.325195,-0.283691,0
19410,0.953613,-0.342285,-0.272461,0
19430,0.976562,-0.360352,-0.280762,0
19450,0.964844,-0.379395,-0.305664,0
19470,0.942383,-0.376465,-0.35498,0
19490,0.918945,-0.376465,-0.294434,0
19510,0.917969,-0.379395,-0.215332,0
19530,0.865234,-0.363281,-0.236816,0
19550,0.830566,-0.362793,-0.236816,0
19570,0.800293,-0.350586,-0.252441,0
19590,0.796875,-0.327637,-0.228027,0
19610,0.790527,-0.324707,-0.241211,0
19630,0.804688,-0.299316,-0.297852,0
19650,0.823242,-0.279297,-0.303711,0
19670,0.853516,-0.282227,-0.296387,0
19690,0.879883,-0.294922,-0.307129,0
19710,0.911133,-0.287109,-0.332031,0
19730,0.918945,-0.28418,-0.353516,0
19750,0.946777,-0.297363,-0.351562,0
19770,0.964844,-0.299316,-0.338867,0
19790,0.925781,-0.296387,-0.348633,0
19810,0.891602,-0.291016,-0.32666,0
19830,0.84082,-0.307617,-0.310547,0
19850,0.833496,-0.32666,-0.318359,0
19870,0.830078,-0.319824,-0.305176,0
19890,0.834473,-0.32373,-0.308594,0
19910,0.854492,-0.311035,-0.317383,0
19930,0.918945,-0.314453,-0.264648,0
19950,0.963867,-0.299805,-0.284668,0
19970,0.966797,-0.338867,-0.316895,0
19990,0.934082,-0.338379,-0.355957,0
20010,0.894043,-0.33252,-0.318359,0
20030,0.88916,-0.297852,-0.32373,0
20050,0.905762,-0.29541,-0.342285,0
20070,0.90625,-0.291992,-0.321289,0
20090,0.915527,-0.299316,-0.305664,0
20110,0.92627,-0.319824,-0.269531,0
20130,0.912109,-0.330566,-0.266113,0
20150,0.872559,-0.343262,-0.273438,0
20170,0.85498,-0.359863,-0.287598,0
20190,0.837402,-0.327637,-0.321289,0
20210,0.875,-0.307617,-0.301758,0
20230,0.885742,-0.308594,-0.312012,0
20250,0.899414,-0.324707,-0.308105,0
20270,0.888184,-0.333984,-0.313477,0
20290,0.863281,-0.331543,-0.31543,0
20310,0.842285,-0.30957,-0.318359,0
20330,0.843262,-0.293945,-0.303711,0
20350,0.853027,-0.279785,-0.328125,0
20370,0.878418,-0.27832,-0.360352,0
20390,0.897949,-0.280762,-0.332031,0
20410,0.907227,-0.271973,-0.365234,0
20420,0.921387,-0.302246,-0.334473,0
20440,0.929688,-0.333008,-0.307129,0
20460,0.918945,-0.367188,-0.285156,0
20480,0.887207,-0.374023,-0.271973,0
20500,0.887695,-0.384766,-0.205078,0
20520,0.892578,-0.355957,-0.175781,0
20540,0.875488,-0.35791,-0.209473,0
20560,0.856934,-0.345215,-0.213379,0
20580,0.879883,-0.361816,-0.257324,0
20600,0.886719,-0.338867,-0.269043,0
20620,0.884277,-0.345215,-0.286621,0
20640,0.910645,-0.352051,-0.263184,0
20660,0.899902,-0.342773,-0.250977,0
20680,0.895996,-0.330566,-0.231934,0
20700,0.892578,-0.34668,-0.233398,0
20720,0.871582,-0.350586,-0.260742,0
20740,0.872559,-0.348633,-0.223145,0
20760,0.882812,-0.330566,-0.216797,0
20780,0.905273,-0.333984,-0.232422,0
20800,0.92041,-0.374512,-0.241211,0
20820,0.921875,-0.377441,-0.199219,0
20840,0.915527,-0.392578,-0.21875,0
20860,0.893066,-0.410645,-0.254395,0
20880,0.867188,-0.406738,-0.23584,0
20900,0.874023,-0.407227,-0.214355,0
20920,0.90918,-0.413574,-0.260742,0
20940,0.930664,-0.415039,-0.241699,0
20960,0.911133,-0.428711,-0.219727,0
20980,0.869629,-0.421387,-0.243652,0
21000,0.908691,-0.419922,-0.240723,0
21020,0.907227,-0.418457,-0.199219,0
21040,0.85791,-0.399414,-0.212891,0
21060,0.87207,-0.394531,-0.250488,0
21080,0.888184,-0.413086,-0.236328,0
21100,0.853027,-0.364258,-0.203125,0
21120,0.885254,-0.363281,-0.214844,0
21140,0.902832,-0.361328,-0.23877,0
21160,0.85791,-0.349121,-0.242676,0
21180,0.872559,-0.355469,-0.238281,0
21200,0.862793,-0.345215,-0.23584,0
21220,0.852539,-0.339844,-0.219727,0
21240,0.850098,-0.338379,-0.228027,0
21260,0.838867,-0.33252,-0.227539,0
21280,0.800293,-0.328125,-0.22168,0
21300,0.802734,-0.34375,-0.234863,0
21320,0.775391,-0.344238,-0.219727,0
21340,0.739746,-0.347168,-0.239746,0
21360,0.687988,-0.356445,-0.245605,0
21380,0.658203,-0.352051,-0.234863,0
21400,0.63623,-0.379395,-0.201172,0
21420,0.619141,-0.406738,-0.157227,0
21440,0.601074,-0.417969,-0.143066,0
21460,0.663086,-0.435059,-0.0917969,0
21480,0.73584,-0.411621,0.0219727,0
21500,0.771973,-0.381348,0.101562,0
21520,0.766602,-0.418945,0.135742,0
21540,0.798828,-0.413574,0.214355,0
21560,0.868652,-0.434082,0.302246,0
21580,0.857422,-0.419922,0.375977,0
21600,0.786621,-0.416016,0.356934,0
21620,0.791992,-0.527832,0.348633,0
21640,0.755371,-0.511719,0.385254,0
21660,0.68457,-0.564941,0.479004,0
21680,0.673828,-0.692383,0.517578,0
21700,0.697266,-0.744629,0.514648,0
21720,0.520996,-0.713867,0.545898,0
21740,0.240723,-0.63623,0.606934,0
21760,0.195312,-0.639648,0.616699,0
21780,0.123535,-0.739746,0.657227,0
21800,-0.00634766,-0.823242,0.681641,0
21820,-0.0976562,-0.786133,0.691895,0
21840,-0.159668,-0.755859,0.709473,0
21860,-0.17334,-0.745605,0.671875,0
21880,-0.209473,-0.744141,0.584473,0
21900,-0.226562,-0.740723,0.648926,0
21920,-0.284668,-0.711426,0.686523,0
21940,-0.35791,-0.733887,0.591797,0
21960,-0.359375,-0.737793,0.50293,0
21980,-0.380371,-0.677246,0.559082,0
22000,-0.468262,-0.619629,0.585938,0
22020,-0.574707,-0.57666,0.566895,0
22040,-0.700684,-0.984375,0.546875,0
22060,-0.757324,-1.23926,0.557129,0
22080,-0.57959,-1.31885,0.482422,0
22100,-0.429688,-1.08838,0.545898,0
22120,-0.376953,-0.824707,0.520508,0
22140,-0.361328,-0.572266,0.399902,0
22160,-0.379883,-0.449219,0.468262,0
22180,-0.386719,-0.508301,0.506348,0
22200,-0.388184,-0.632812,0.527344,0
22220,-0.394531,-0.731445,0.555664,0
22240,-0.412109,-0.736328,0.563477,0
22260,-0.42627,-0.697754,0.540527,0
22280,-0.442871,-0.644531,0.51416,0
22300,-0.461426,-0.629395,0.499512,0
22320,-0.475586,-0.663086,0.503418,0
22340,-0.464844,-0.695801,0.491699,0
22360,-0.445312,-0.706543,0.503418,0
22380,-0.443848,-0.694336,0.514648,0
22400,-0.446289,-0.686523,0.523926,0
22420,-0.437012,-0.679688,0.52002,0
22440,-0.436035,-0.6875,0.518555,0
22460,-0.442383,-0.688965,0.509277,0
22480,-0.442383,-0.691406,0.507324,0
22500,-0.447266,-0.700684,0.509766,0
22520,-0.452148,-0.69873,0.507324,0
22540,-0.448242,-0.689453,0.518066,0
22560,-0.44873,-0.681641,0.523926,0
22580,-0.454102,-0.666992,0.518555,0
22600,-0.463867,-0.663574,0.521484,0
22620,-0.459961,-0.666016,0.520996,0
22640,-0.453613,-0.673828,0.517578,0
22660,-0.455566,-0.672363,0.530762,0
22680,-0.443848,-0.667969,0.541992,0
22700,-0.439453,-0.677246,0.540039,0
22720,-0.447266,-0.696289,0.529297,0
22740,-0.443848,-0.693359,0.528809,0
22760,-0.438965,-0.684082,0.505371,0
22780,-0.438965,-0.678223,0.492188,0
22800,-0.440918,-0.675293,0.480469,0
22820,-0.442383,-0.669434,0.478027,0
22840,-0.450195,-0.668457,0.48584,0
22860,-0.463379,-0.665527,0.50293,0
22880,-0.484863,-0.666016,0.51123,0
22900,-0.488281,-0.676758,0.511719,0
22920,-0.480469,-0.688965,0.512695,0
22940,-0.473633,-0.689453,0.535645,0
22960,-0.465332,-0.679688,0.529297,0
22980,-0.45752,-0.674805,0.541016,0
22990,-0.452637,-0.666504,0.55957,0
23010,-0.455566,-0.677734,0.573242,0
23030,-0.444824,-0.679688,0.560547,0
23050,-0.458008,-0.675293,0.564453,0
23070,-0.476074,-0.699219,0.562988,0
23090,-0.523438,-0.75293,0.543457,0
23110,-0.429688,-0.831543,0.447754,0
23130,-0.314453,-0.802246,0.472168,0
23150,-0.290039,-1.04102,0.648926,0
23170,-0.115723,-1.20068,0.862305,0
23190,0.0981445,-1.31348,1.06641,0
23210,0.251953,-1.42432,1.16113,0
23230,0.296387,-1.34766,0.986816,0
23250,0.177734,-1.18164,0.913086,0
23270,-0.0913086,-0.77002,0.729004,0
23290,-0.37793,-0.509277,0.640625,0
23310,-0.460449,-0.249512,0.581543,0
23330,-0.651367,-0.216797,0.462402,0
23350,-0.743164,-0.224121,0.364258,0
23370,-0.760254,-0.277344,0.344727,0
23390,-0.657227,-0.250488,0.353516,0
23410,-0.503906,-0.221191,0.366699,0
23430,-0.144043,-0.305664,0.521484,0
23450,-0.236328,-0.428711,0.465332,0
23470,-0.220703,-0.638672,0.458008,0
23490,-0.109863,-0.924316,0.48877,0
23510,0.0756836,-1.27295,0.540527,0
23530,0.0947266,-1.31934,0.270508,0
23550,0.0585938,-1.77148,0.0800781,0
23570,0.0849609,-1.63135,0.0966797,0
23590,-0.102051,-1.64014,0.86084,0
23610,0.0629883,-1.39014,2.05811,0
23630,0.667969,-0.674805,2.92529,0
23650,1.48438,-0.566895,2.05469,0
23670,0.351562,-1.01465,0.547852,0
23690,-1.00195,-1.58691,-0.136719,0
23710,-0.302734,-1.05957,-0.137695,0
23730,-0.158691,-0.716797,-0.338867,0
23750,-0.0537109,-1.33545,-0.60791,0
23770,0.145508,-1.5376,-0.133789,0
23790,-0.0102539,-1.24121,-0.17627,0
23810,0.306152,-1.09326,0.244629,0
23830,-0.00878906,-0.352539,1.7251,0
23850,-0.748047,0.0556641,1.57812,0
23870,-0.693359,0.249512,0.73291,0
23890,-0.458008,0.00390625,0.540039,0
23910,-0.245605,-0.275391,0.49707,0
23930,-0.187012,-0.866211,0.366699,0
23950,-0.13623,-1.53564,-0.0444336,0
23970,0.118652,-2.47754,-0.534668,0
23990,0.227051,-2.79004,-0.82666,0
24010,0.0517578,-2.24707,-0.831543,0
24030,-0.300293,-1.53271,-0.830078,0
24050,-0.31543,-0.882324,-0.177734,0
24070,-0.413574,-0.334473,0.157715,0
24090,-0.334473,0.226562,0.914062,0
24110,-0.371582,0.195312,0.971191,0
24130,-0.108398,-0.145508,0.624023,0
24150,0.177246,-0.0356445,0.381348,0
24170,0.365234,0.0180664,0.363281,0
24190,0.53418,0.043457,0.429199,0
24210,0.532715,-0.09375,0.25,0
24230,0.514648,-0.319824,0.0712891,0
24250,0.678711,-0.585938,0.0498047,0
24270,0.741211,-0.69043,0.260742,0
24290,0.628418,-0.731445,0.291992,0
24310,0.401367,-0.878418,0.381836,0
24330,0.42041,-1.09229,0.459473,0
24350,0.608398,-1.16602,0.474121,0
24370,0.728027,-1.06885,0.399902,0
24390,0.871582,-0.959473,0.373047,0
24410,0.94043,-0.913086,0.330566,0
24430,0.74707,-0.816895,0.439453,0
24450,0.745117,-0.764648,0.441406,0
24470,0.677246,-0.830078,0.461914,0
24490,0.526367,-0.713867,0.449219,0
24510,0.391113,-0.501953,0.304199,0
24530,0.582031,-0.46582,0.200684,0
24550,0.655273,-0.492676,0.375,0
24570,0.749512,-0.493164,0.426758,0
24590,0.847168,-0.538574,0.578125,0
24610,0.871582,-0.615234,0.580566,0
24630,0.829102,-0.60791,0.588379,0
24650,0.702637,-0.637207,0.701172,0
24670,0.508789,-0.663086,0.736816,0
24690,0.319336,-0.645508,0.738281,0
24710,0.139648,-0.597656,0.677734,0
24730,-0.0634766,-0.574219,0.703613,0
24750,-0.196777,-0.662109,0.623047,0
24770,-0.115723,-0.766602,0.528809,0
24790,-0.0102539,-0.727051,0.439453,0
24810,-0.046875,-0.630371,0.459473,0
24830,-0.0976562,-0.616699,0.468262,0
24850,-0.0620117,-0.631836,0.5,0
24870,-0.0654297,-0.70166,0.617188,0
24890,-0.158691,-0.792969,0.649902,0
24910,-0.216797,-0.820801,0.612305,0
24930,-0.219727,-0.891113,0.619141,0
24950,-0.244629,-0.991211,0.585938,0
24970,-0.22998,-0.992676,0.496582,0
24990,-0.198242,-0.811035,0.53418,0
25010,-0.281738,-0.599121,0.572266,0
25030,-0.404297,-0.496094,0.535156,0
25050,-0.546387,-0.556641,0.48584,0
25070,-0.838379,-1.98145,0.750977,0
25090,-0.900879,-1.53027,0.511719,0
25110,-0.159668,-1.48926,-0.00927734,0
25130,-0.0610352,-0.754883,0.336426,0
25150,-0.730469,-0.651855,0.366211,0
25170,-0.415527,-0.65625,-0.0175781,0
25190,-0.112793,-0.591309,0.377441,0
25210,0.102539,-0.681152,0.149414,0
25230,0.131836,-0.675293,0.231934,0
25250,0.0332031,-0.737305,0.365234,0
25270,-0.0473633,-0.899902,0.36377,0
25290,-0.0966797,-0.929199,0.404785,0
25310,-0.100586,-0.984375,0.345703,0
25330,-0.0922852,-1.06592,0.349609,0
25350,-0.0864258,-1.02295,0.351074,0
25370,-0.165039,-0.935547,0.397461,0
25390,-0.266602,-0.926758,0.349121,0
25410,-0.407227,-0.936035,0.287598,0
25430,-0.544922,-0.943848,0.207031,0
25450,-0.596191,-0.851562,0.215332,0
25470,-0.608887,-0.793945,0.236816,0
25490,-0.608887,-0.791504,0.267578,0
25510,-0.675781,-0.833008,0.263184,0
25530,-0.652832,-0.817383,0.233887,0
25550,-0.605469,-0.772949,0.294922,0
25560,-0.615234,-0.766113,0.37207,0
25580,-0.609863,-0.755371,0.411133,0
25600,-0.575684,-0.73877,0.430176,0
25620,-0.502441,-0.72168,0.399414,0
25640,-0.431641,-0.69873,0.414062,0
25660,-0.429199,-0.742676,0.481934,0
25680,-0.439453,-0.863281,0.455078,0
25700,-0.385742,-0.883301,0.401855,0
25720,-0.362793,-0.830078,0.412109,0
25740,-0.400391,-0.84082,0.435547,0
25760,-0.45166,-0.854004,0.42041,0
25780,-0.501465,-0.818848,0.399902,0
25800,-0.519531,-0.73877,0.362305,0
25820,-0.508789,-0.661621,0.332031,0
25840,-0.477051,-0.653809,0.321289,0
25860,-0.464844,-0.680176,0.339355,0
25880,-0.528809,-0.78418,0.363281,0
25900,-0.465332,-0.798828,0.327148,0
25920,-0.462891,-0.80127,0.347656,0
25940,-0.519531,-0.800293,0.352051,0
25960,-0.564453,-0.816406,0.350586,0
25980,-0.562988,-0.827637,0.335449,0
26000,-0.541504,-0.779785,0.311035,0
26020,-0.513184,-0.723145,0.28125,0
26040,-0.442383,-0.677734,0.292969,0
26060,-0.470215,-0.745605,0.356445,0
26080,-0.421875,-0.797852,0.351562,0
26100,-0.400879,-0.782715,0.388672,0
26120,-0.452637,-0.791992,0.411621,0
26140,-0.498047,-0.8125,0.40625,0
26160,-0.501465,-0.836914,0.393555,0
26180,-0.479004,-0.811035,0.378418,0
26200,-0.483887,-0.765625,0.352539,0
26220,-0.475098,-0.716797,0.338867,0
26240,-0.466309,-0.724121,0.361328,0
26260,-0.442871,-0.737305,0.385254,0
26280,-0.467773,-0.76416,0.412109,0
26300,-0.480469,-0.770508,0.421875,0
26320,-0.499512,-0.77002,0.436035,0
26340,-0.51123,-0.779785,0.41748,0
26360,-0.491699,-0.788086,0.407227,0
26380,-0.477539,-0.766113,0.411133,0
26400,-0.483398,-0.765625,0.398438,0
26420,-0.483887,-0.747559,0.383789,0
26440,-0.492188,-0.733887,0.412598,0
26460,-0.496094,-0.784668,0.432129,0
26480,-0.452148,-0.785645,0.415039,0
26500,-0.451172,-0.768066,0.42334,0
26520,-0.508301,-0.776855,0.429688,0
26540,-0.510254,-0.784668,0.422852,0
26560,-0.489746,-0.789062,0.429199,0
26580,-0.488281,-0.787109,0.433594,0
26600,-0.484375,-0.76416,0.433105,0
26620,-0.476562,-0.744141,0.426758,0
26640,-0.491211,-0.763184,0.430664,0
26660,-0.491211,-0.809082,0.410645,0
26680,-0.429199,-0.787598,0.367188,0
26700,-0.425293,-0.737305,0.350098,0
26720,-0.441406,-0.73584,0.352539,0
26740,-0.453125,-0.751953,0.325684,0
26760,-0.471191,-0.779785,0.341309,0
26780,-0.465332,-0.793457,0.330566,0
26800,-0.461426,-0.755371,0.326172,0
26820,-0.457031,-0.743164,0.321289,0
26840,-0.45459,-0.78125,0.322266,0
26860,-0.477051,-0.827148,0.312988,0
26880,-0.454102,-0.839355,0.298828,0
26900,-0.466797,-0.808594,0.310059,0
26920,-0.518066,-0.797852,0.320312,0
26940,-0.536621,-0.825684,0.307617,0
26960,-0.521973,-0.85498,0.294434,0
26980,-0.504395,-0.811523,0.285645,0
27000,-0.507812,-0.791992,0.30127,0
27020,-0.494629,-0.802734,0.279785,0
27040,-0.444824,-0.79248,0.254395,0
27060,-0.429688,-0.779785,0.254883,0
27080,-0.463867,-0.767578,0.28418,0
27100,-0.506348,-0.77832,0.297852,0
27120,-0.525391,-0.789062,0.323242,0
27140,-0.521484,-0.773438,0.324219,0
27160,-0.486328,-0.772949,0.333496,0
27180,-0.455566,-0.788086,0.345703,0
27200,-0.455078,-0.815918,0.345703,0
27220,-0.474609,-0.841309,0.325195,0
27240,-0.471191,-0.824707,0.316895,0
27260,-0.482422,-0.800293,0.305664,0
27280,-0.463867,-0.804688,0.292969,0
27300,-0.455566,-0.812988,0.306641,0
27320,-0.473145,-0.807617,0.324219,0
27340,-0.490234,-0.799805,0.32666,0
27360,-0.497559,-0.776855,0.331543,0
27380,-0.478027,-0.755371,0.323242,0
27400,-0.452637,-0.75293,0.339355,0
27420,-0.465332,-0.728027,0.344238,0
27440,-0.513184,-0.727539,0.365234,0
27460,-0.555176,-0.764648,0.393555,0
27480,-0.562988,-0.815918,0.390625,0
27500,-0.497559,-0.8125,0.384277,0
27520,-0.477051,-0.813965,0.396973,0
27540,-0.490723,-0.85791,0.393066,0
27560,-0.496582,-0.879883,0.366699,0
27580,-0.490234,-0.837402,0.335449,0
27600,-0.464844,-0.761719,0.297852,0
27620,-0.433594,-0.703125,0.272949,0
27640,-0.394531,-0.680176,0.268555,0
27660,-0.375488,-0.703125,0.28418,0
27680,-0.424316,-0.75293,0.288086,0
27700,-0.455566,-0.777344,0.302734,0
27720,-0.468262,-0.779785,0.356934,0
27740,-0.466797,-0.764648,0.391602,0
27760,-0.510254,-0.786133,0.42041,0
27780,-0.525879,-0.849609,0.42334,0
27800,-0.523438,-0.864258,0.422363,0
27820,-0.512207,-0.810547,0.381348,0
27840,-0.483398,-0.732422,0.351074,0
27860,-0.460938,-0.679199,0.355957,0
27880,-0.47168,-0.683594,0.382324,0
27900,-0.503418,-0.706055,0.425293,0
27920,-0.54248,-0.724609,0.445312,0
27940,-0.538574,-0.730469,0.452148,0
27960,-0.505371,-0.719238,0.47168,0
27980,-0.46582,-0.758789,0.489258,0
28000,-0.450684,-0.768066,0.474609,0
28020,-0.445801,-0.774902,0.503418,0
28040,-0.452637,-0.780762,0.504883,0
28060,-0.441895,-0.78418,0.510742,0
28080,-0.431641,-0.762695,0.516602,0
28100,-0.44873,-0.734863,0.52832,0
28120,-0.441895,-0.714355,0.508789,0
28130,-0.416016,-0.696289,0.495605,0
28150,-0.442383,-0.674316,0.526855,0
28170,-0.46875,-0.658691,0.506836,0
28190,-0.472168,-0.666992,0.489746,0
28210,-0.460938,-0.685059,0.491211,0
28230,-0.457031,-0.728516,0.491699,0
28250,-0.46875,-0.763184,0.484863,0
28270,-0.490723,-0.803223,0.472656,0
28290,-0.470703,-0.846191,0.455566,0
28310,-0.445801,-0.839355,0.424316,0
28330,-0.452148,-0.817383,0.404297,0
28350,-0.45459,-0.787109,0.38916,0
28370,-0.439453,-0.768555,0.365234,0
28390,-0.45459,-0.737305,0.352051,0
28410,-0.439941,-0.714844,0.336426,0
28430,-0.417969,-0.717773,0.337891,0
28450,-0.402832,-0.689941,0.329102,0
28470,-0.402832,-0.656738,0.342285,0
28490,-0.421387,-0.65625,0.375488,0
28510,-0.436035,-0.673828,0.424805,0
28530,-0.439453,-0.684082,0.455566,0
28550,-0.430664,-0.708496,0.478027,0
28570,-0.432617,-0.733887,0.500977,0
28590,-0.452637,-0.768555,0.499512,0
28610,-0.470215,-0.767578,0.489746,0
28630,-0.487305,-0.761719,0.476562,0
28650,-0.499512,-0.733887,0.462402,0
28670,-0.484863,-0.744141,0.46875,0
28690,-0.483398,-0.754883,0.45459,0
28710,-0.51416,-0.758301,0.457031,0
28730,-0.516113,-0.763672,0.45166,0
28750,-0.507812,-0.770996,0.461914,0
28770,-0.51416,-0.774414,0.44043,0
28790,-0.480469,-0.763184,0.409668,0
28810,-0.454102,-0.756836,0.417969,0
28830,-0.461914,-0.747559,0.436035,0
28850,-0.471191,-0.749023,0.427734,0
28870,-0.459961,-0.743652,0.42041,0
28890,-0.461914,-0.724121,0.416504,0
28910,-0.452148,-0.717773,0.411133,0
28930,-0.458008,-0.711426,0.408691,0
28950,-0.474609,-0.717285,0.409668,0
28970,-0.470703,-0.728027,0.415039,0
28990,-0.47168,-0.729004,0.415039,0
29010,-0.478027,-0.730957,0.428711,0
29030,-0.488281,-0.751465,0.435547,0
29050,-0.481445,-0.76709,0.43457,0
29070,-0.479492,-0.769043,0.432129,0
29090,-0.475586,-0.760742,0.425293,0
29110,-0.480957,-0.744629,0.424805,0
29130,-0.491211,-0.748047,0.433105,0
29150,-0.5,-0.749023,0.431641,0
29170,-0.493164,-0.765137,0.421387,0
29190,-0.481934,-0.761719,0.423828,0
29210,-0.5,-0.755859,0.457031,0
29230,-0.512207,-0.772949,0.429688,0
29250,-0.519043,-0.79834,0.430664,0
29270,-0.51416,-0.789551,0.431152,0
29290,-0.487305,-0.77832,0.401855,0
29310,-0.444824,-0.759766,0.396973,0
29330,-0.414551,-0.742676,0.382812,0
29350,-0.405273,-0.724609,0.373535,0
29370,-0.40625,-0.709961,0.384277,0
29390,-0.414551,-0.706055,0.413574,0
29410,-0.413574,-0.708984,0.41748,0
29430,-0.417969,-0.710938,0.430176,0
29450,-0.439941,-0.717285,0.443848,0
29470,-0.441895,-0.73877,0.455078,0
29490,-0.440918,-0.753418,0.454102,0
29510,-0.448242,-0.775391,0.436035,0
29530,-0.463379,-0.826172,0.428711,0
29550,-0.475586,-0.864258,0.414062,0
29570,-0.476562,-0.882812,0.369629,0
29590,-0.501953,-0.890137,0.375,0
29610,-0.500488,-0.879883,0.349121,0
29630,-0.472656,-0.844238,0.323242,0
29650,-0.444336,-0.793945,0.32959,0
29670,-0.437012,-0.763672,0.342285,0
29690,-0.442871,-0.737305,0.35791,0
29710,-0.444824,-0.714844,0.342773,0
29730,-0.452148,-0.708008,0.351074,0
29750,-0.446777,-0.718262,0.353516,0
29770,-0.44043,-0.708984,0.352539,0
29790,-0.433105,-0.727051,0.35498,0
29810,-0.42041,-0.732422,0.330566,0
29830,-0.41748,-0.741699,0.327637,0
29850,-0.41748,-0.76123,0.347656,0
29870,-0.421875,-0.78418,0.362793,0
29890,-0.445801,-0.818359,0.39209,0
29910,-0.472168,-0.835449,0.398926,0
29930,-0.485352,-0.828125,0.391602,0
29950,-0.463379,-0.827637,0.384766,0
29970,-0.447266,-0.820312,0.379395,0
29990,-0.440918,-0.815918,0.38623,0
30010,-0.443848,-0.794434,0.374023,0
30030,-0.470703,-0.784668,0.381348,0
30050,-0.477051,-0.782715,0.381348,0
30070,-0.477051,-0.782715,0.378418,0
30090,-0.471191,-0.756348,0.372559,0
30110,-0.468262,-0.74707,0.376465,0
30130,-0.460449,-0.755859,0.380859,0
30150,-0.438477,-0.759277,0.358398,0
30170,-0.43457,-0.754395,0.370605,0
30190,-0.467773,-0.779785,0.412109,0
30210,-0.455566,-0.824219,0.390625,0
30230,-0.45459,-0.822266,0.38916,0
30250,-0.441895,-0.822754,0.355957,0
30270,-0.440918,-0.775879,0.361328,0
30290,-0.45459,-0.766602,0.356934,0
30310,-0.465332,-0.763672,0.370117,0
30330,-0.47998,-0.777832,0.387207,0
30350,-0.478027,-0.76709,0.37793,0
30370,-0.476074,-0.76416,0.384277,0
30390,-0.482422,-0.775391,0.385254,0
30410,-0.48877,-0.785645,0.390137,0
30430,-0.489746,-0.794922,0.37793,0
30450,-0.493164,-0.775391,0.370605,0
30470,-0.486328,-0.788086,0.375,0
30490,-0.458496,-0.800293,0.371094,0
30510,-0.469238,-0.805664,0.370605,0
30530,-0.466309,-0.802246,0.367188,0
30550,-0.458496,-0.782227,0.36084,0
30570,-0.442383,-0.790527,0.350586,0
30590,-0.437012,-0.79541,0.35498,0
30610,-0.439941,-0.787109,0.366211,0
30630,-0.458008,-0.768066,0.365234,0
30650,-0.461914,-0.770508,0.375,0
30670,-0.46582,-0.770996,0.378418,0
30690,-0.467285,-0.780273,0.369629,0
30710,-0.460449,-0.771973,0.370605,0
30720,-0.441406,-0.782227,0.364258,0
30740,-0.438477,-0.777344,0.37207,0
30760,-0.454102,-0.784668,0.371582,0
30780,-0.475098,-0.802734,0.37793,0
30800,-0.484863,-0.796875,0.377441,0
30820,-0.478027,-0.799805,0.371094,0
30840,-0.47998,-0.797852,0.373535,0
30860,-0.486816,-0.800781,0.366211,0
30880,-0.470215,-0.799316,0.359375,0
30900,-0.463867,-0.789551,0.350586,0
30920,-0.452637,-0.772461,0.337891,0
30940,-0.455078,-0.771484,0.335938,0
30960,-0.455566,-0.784668,0.339844,0
30980,-0.443359,-0.79248,0.344238,0
31000,-0.441406,-0.785645,0.342773,0
31020,-0.456055,-0.782715,0.348633,0
31040,-0.461426,-0.790039,0.362793,0
31060,-0.462402,-0.790527,0.361328,0
31080,-0.47168,-0.79541,0.359375,0
31100,-0.474609,-0.798828,0.347656,0
31120,-0.46875,-0.791992,0.35498,0
31140,-0.472168,-0.79248,0.352539,0
31160,-0.476074,-0.794922,0.348633,0
31180,-0.458984,-0.792969,0.337402,0
31200,-0.449219,-0.79248,0.347168,0
31220,-0.442383,-0.788574,0.35498,0
31240,-0.451172,-0.787109,0.350098,0
31260,-0.452148,-0.779785,0.358398,0
31280,-0.462402,-0.782715,0.370117,0
31300,-0.459473,-0.780762,0.373047,0
31320,-0.462402,-0.788574,0.36377,0
31340,-0.468262,-0.789551,0.35791,0
31360,-0.466797,-0.791504,0.355469,0
31380,-0.458496,-0.79248,0.361816,0
31400,-0.455078,-0.776855,0.349121,0
31420,-0.460449,-0.776367,0.34668,0
31440,-0.466797,-0.78418,0.356934,0
31460,-0.459473,-0.784668,0.370117,0
31480,-0.455078,-0.791504,0.381348,0
31500,-0.454102,-0.796875,0.382812,0
31520,-0.458984,-0.790527,0.38916,0
31540,-0.462402,-0.78125,0.385742,0
31560,-0.465332,-0.766113,0.380371,0
31580,-0.465332,-0.763184,0.390137,0
31600,-0.460449,-0.764648,0.381836,0
31620,-0.453613,-0.765625,0.381836,0
31640,-0.450684,-0.771484,0.378418,0
31660,-0.450684,-0.772461,0.385742,0
31680,-0.446777,-0.783691,0.388184,0
31700,-0.456543,-0.782227,0.390625,0
31720,-0.455078,-0.790039,0.387207,0
31740,-0.447266,-0.796387,0.387695,0
31760,-0.452148,-0.800293,0.394531,0
31780,-0.467285,-0.80957,0.40625,0
31800,-0.478027,-0.798828,0.403809,0
31820,-0.481934,-0.774414,0.40625,0
31840,-0.481445,-0.759277,0.400391,0
31860,-0.47168,-0.763672,0.40918,0
31880,-0.466309,-0.758789,0.408203,0
31900,-0.468262,-0.750977,0.397949,0
31920,-0.462891,-0.751953,0.406738,0
31940,-0.463867,-0.748535,0.405762,0
31960,-0.460938,-0.76416,0.397949,0
31980,-0.457031,-0.776855,0.397461,0
32000,-0.462402,-0.771973,0.393555,0
32020,-0.461426,-0.786133,0.38623,0
32040,-0.453125,-0.791016,0.389648,0
32060,-0.447754,-0.784668,0.378906,0
32080,-0.452637,-0.782227,0.385742,0
32100,-0.456543,-0.782227,0.376953,0
32120,-0.462891,-0.772949,0.377441,0
32140,-0.467773,-0.784668,0.374023,0
32160,-0.456055,-0.790527,0.367676,0
32180,-0.445801,-0.790039,0.370605,0
32200,-0.461426,-0.791992,0.373535,0
32220,-0.472656,-0.793457,0.373535,0
32240,-0.468262,-0.793457,0.375,0
32260,-0.460449,-0.776855,0.375,0
32280,-0.458496,-0.769531,0.36084,0
32300,-0.469727,-0.767578,0.362793,0
32320,-0.470703,-0.771973,0.358887,0
32340,-0.46875,-0.771973,0.357422,0
32360,-0.461426,-0.77002,0.354492,0
32380,-0.473145,-0.770508,0.354492,0
32400,-0.474609,-0.781738,0.356445,0
32420,-0.471191,-0.787598,0.356445,0
32440,-0.46582,-0.791016,0.362305,0
32460,-0.46582,-0.79541,0.35791,0
32480,-0.463867,-0.791992,0.361328,0
32500,-0.466797,-0.788574,0.364746,0
32520,-0.459961,-0.796387,0.361816,0
32540,-0.457031,-0.791016,0.359375,0
32560,-0.468262,-0.79248,0.362793,0
32580,-0.459961,-0.801758,0.35791,0
32600,-0.446289,-0.796387,0.360352,0
32620,-0.449219,-0.779785,0.367188,0
32640,-0.460449,-0.779785,0.37793,0
32660,-0.463867,-0.773926,0.382812,0
32680,-0.460938,-0.77832,0.381348,0
32700,-0.465332,-0.776855,0.379395,0
32720,-0.464844,-0.772949,0.368652,0
32740,-0.458008,-0.77832,0.375,0
32760,-0.468262,-0.785645,0.381836,0
32780,-0.481934,-0.790039,0.384277,0
32800,-0.477539,-0.788574,0.381836,0
32820,-0.460938,-0.776855,0.372559,0
32840,-0.46875,-0.776855,0.373047,0
32860,-0.467773,-0.786621,0.376953,0
32880,-0.470703,-0.779297,0.375,0
32900,-0.461426,-0.776855,0.369629,0
32920,-0.459473,-0.772949,0.372559,0
32940,-0.458008,-0.773926,0.377441,0
32960,-0.45166,-0.776367,0.374512,0
32980,-0.45459,-0.769043,0.377441,0
33000,-0.463379,-0.773438,0.384277,0
33020,-0.467285,-0.786133,0.383789,0
33040,-0.458496,-0.780273,0.368652,0
33060,-0.461914,-0.778809,0.376953,0
33080,-0.46875,-0.78125,0.37793,0
33100,-0.473633,-0.78418,0.383789,0
33120,-0.467773,-0.783203,0.377441,0
33140,-0.463379,-0.778809,0.375977,0
33160,-0.46875,-0.776855,0.38623,0
33180,-0.46582,-0.77832,0.377441,0
33200,-0.464844,-0.771973,0.386719,0
33220,-0.462891,-0.77002,0.379883,0
33240,-0.459473,-0.775879,0.377441,0
33260,-0.461914,-0.776367,0.386719,0
33280,-0.463379,-0.778809,0.380371,0
33290,-0.466797,-0.780762,0.377441,0
33310,-0.47168,-0.771484,0.375488,0
33330,-0.471191,-0.779297,0.379883,0
33350,-0.472168,-0.784668,0.379395,0
33370,-0.472168,-0.78125,0.377441,0
33390,-0.473145,-0.773926,0.375488,0
33410,-0.47168,-0.763672,0.359863,0
33430,-0.470215,-0.774414,0.371582,0
33450,-0.477051,-0.777832,0.378418,0
33470,-0.478027,-0.771973,0.37793,0
33490,-0.461426,-0.77002,0.376465,0
33510,-0.460938,-0.777344,0.382812,0
33530,-0.470703,-0.783203,0.393066,0
33550,-0.464844,-0.784668,0.391113,0
33570,-0.472168,-0.776855,0.394531,0
33590,-0.473145,-0.785156,0.392578,0
33610,-0.463379,-0.790527,0.381348,0
33630,-0.464355,-0.786133,0.389648,0
33650,-0.466309,-0.787109,0.384277,0
33670,-0.463867,-0.784668,0.382812,0
33690,-0.457031,-0.768066,0.382812,0
33710,-0.463867,-0.765137,0.386719,0
33730,-0.466797,-0.76123,0.39502,0
33750,-0.457031,-0.76123,0.382324,0
33770,-0.45752,-0.763184,0.381348,0
33790,-0.45166,-0.765137,0.387695,0
33810,-0.450195,-0.765137,0.384766,0
33830,-0.465332,-0.767578,0.380859,0
33850,-0.474121,-0.770996,0.382812,0
33870,-0.464355,-0.788086,0.379395,0
33890,-0.462891,-0.791016,0.378418,0
33910,-0.47168,-0.791016,0.384766,0
33930,-0.478027,-0.79248,0.371094,0
33950,-0.463379,-0.795898,0.363281,0
33970,-0.461914,-0.776855,0.373047,0
33990,-0.469238,-0.780762,0.380859,0
34010,-0.468262,-0.774414,0.383301,0
34030,-0.47168,-0.77002,0.390625,0
34050,-0.467285,-0.770996,0.392578,0
34070,-0.46875,-0.762695,0.38623,0
34090,-0.471191,-0.762207,0.379395,0
34110,-0.468262,-0.769531,0.367188,0
34130,-0.45459,-0.765625,0.355957,0
34150,-0.452148,-0.761719,0.362305,0
34170,-0.476562,-0.775391,0.367676,0
34190,-0.47998,-0.786621,0.375488,0
34210,-0.474609,-0.787598,0.385254,0
34230,-0.472168,-0.78418,0.386719,0
34250,-0.46582,-0.772949,0.381836,0
34270,-0.471191,-0.779297,0.382324,0
34290,-0.474121,-0.771973,0.378906,0
34310,-0.468262,-0.777832,0.373047,0
34330,-0.467285,-0.771973,0.379883,0
34350,-0.462402,-0.773926,0.380859,0
34370,-0.463379,-0.775391,0.383301,0
34390,-0.46875,-0.772461,0.378906,0
34410,-0.459961,-0.760742,0.375977,0
34430,-0.467285,-0.763184,0.378418,0
34450,-0.475098,-0.770996,0.378906,0
34470,-0.479004,-0.779297,0.380859,0
34490,-0.485352,-0.790039,0.382812,0
34510,-0.478027,-0.787598,0.387695,0
34530,-0.470215,-0.790039,0.380859,0
34550,-0.47168,-0.775391,0.380371,0
34570,-0.474609,-0.771973,0.378418,0
34590,-0.473633,-0.765625,0.39502,0
34610,-0.467285,-0.762207,0.390137,0
34630,-0.464355,-0.76123,0.384766,0
34650,-0.46582,-0.762695,0.391602,0
34670,-0.459473,-0.77002,0.38623,0
34690,-0.467773,-0.77832,0.388672,0
34710,-0.462402,-0.774414,0.369629,0
34730,-0.450684,-0.76416,0.358398,0
34750,-0.467285,-0.772461,0.369141,0
34770,-0.47168,-0.792969,0.368652,0
34790,-0.461426,-0.811035,0.361816,0
34810,-0.461914,-0.797363,0.361328,0
34830,-0.470215,-0.783203,0.35498,0
34850,-0.468262,-0.769531,0.353516,0
34870,-0.476074,-0.769531,0.369629,0
34890,-0.480957,-0.761719,0.37207,0
34910,-0.482422,-0.755859,0.368652,0
34930,-0.472656,-0.762207,0.374023,0
34950,-0.472168,-0.782715,0.369629,0
34970,-0.469727,-0.791992,0.375977,0
34990,-0.468262,-0.789062,0.37207,0
35010,-0.466797,-0.780762,0.375488,0
35030,-0.472168,-0.791504,0.379883,0
35050,-0.466797,-0.79248,0.372559,0
35070,-0.463379,-0.778809,0.374023,0
35090,-0.466797,-0.780762,0.382324,0
35110,-0.465332,-0.79541,0.37207,0
35130,-0.45166,-0.791504,0.362305,0
35150,-0.461914,-0.774902,0.358398,0
35170,-0.476074,-0.771484,0.371582,0
35190,-0.470703,-0.799805,0.362793,0
35210,-0.461426,-0.792969,0.368164,0
35230,-0.46582,-0.787598,0.37207,0
35250,-0.462402,-0.785156,0.387695,0
35270,-0.458984,-0.791504,0.389648,0
35290,-0.453125,-0.780762,0.376953,0
35310,-0.446289,-0.76416,0.370117,0
35330,-0.452637,-0.75,0.371582,0
35350,-0.455566,-0.762695,0.381836,0
35370,-0.46875,-0.771973,0.388184,0
35390,-0.48584,-0.774902,0.375977,0
35410,-0.489746,-0.781738,0.382324,0
35430,-0.476074,-0.78125,0.369141,0
35450,-0.474121,-0.771973,0.359863,0
35470,-0.481445,-0.777344,0.356934,0
35490,-0.475586,-0.780273,0.36084,0
35510,-0.456543,-0.779785,0.364258,0
35530,-0.456543,-0.779785,0.371094,0
35550,-0.463379,-0.773438,0.383301,0
35570,-0.465332,-0.774902,0.402344,0
35590,-0.45459,-0.777832,0.409668,0
35610,-0.450195,-0.767578,0.401367,0
35630,-0.444824,-0.762207,0.411621,0
35650,-0.458984,-0.762695,0.421875,0
35670,-0.470215,-0.760742,0.420898,0
35690,-0.463379,-0.756836,0.416992,0
35710,-0.452148,-0.752441,0.414062,0
35730,-0.45459,-0.75293,0.410156,0
35750,-0.464844,-0.76123,0.410156,0
35770,-0.474121,-0.763184,0.408691,0
35790,-0.470215,-0.763184,0.406738,0
35810,-0.46875,-0.762207,0.403809,0
35830,-0.464355,-0.76709,0.404297,0
35850,-0.468262,-0.76416,0.400391,0
35860,-0.468262,-0.766602,0.391602,0
35880,-0.462402,-0.766113,0.395508,0
35900,-0.465332,-0.770508,0.407227,0
35920,-0.46582,-0.769531,0.405273,0
35940,-0.467285,-0.773438,0.411133,0
35960,-0.46875,-0.765625,0.408203,0
35980,-0.459473,-0.758789,0.413086,0
36000,-0.452148,-0.757324,0.408203,0
36020,-0.450684,-0.763184,0.407227,0
36040,-0.45459,-0.758301,0.405762,0
36060,-0.455078,-0.762695,0.404297,0
36080,-0.462891,-0.761719,0.409668,0
36100,-0.462402,-0.760742,0.403809,0
36120,-0.46582,-0.766602,0.404785,0
36140,-0.467285,-0.773926,0.397461,0
36160,-0.465332,-0.764648,0.395508,0
36180,-0.464844,-0.76709,0.395508,0
36200,-0.465332,-0.769043,0.385742,0
36220,-0.466797,-0.769531,0.391602,0
36240,-0.464355,-0.776367,0.394043,0
36260,-0.466797,-0.771973,0.397461,0
36280,-0.463379,-0.77002,0.39209,0
36300,-0.466797,-0.764648,0.390137,0
36320,-0.467773,-0.768066,0.391602,0
36340,-0.466309,-0.779297,0.39502,0
36360,-0.458008,-0.778809,0.387695,0
36380,-0.467285,-0.782715,0.390625,0
36400,-0.491699,-0.816406,0.397949,0
36420,-0.460938,-0.84668,0.388184,0
36440,-0.440918,-0.806641,0.374023,0
36460,-0.443359,-0.794434,0.360352,0
36480,-0.40625,-0.751953,0.340332,0
36500,-0.423828,-0.705078,0.353027,0
36520,-0.47168,-0.682129,0.361816,0
36540,-0.476562,-0.685059,0.36084,0
36560,-0.456543,-0.697754,0.356445,0
36580,-0.474121,-0.699707,0.392578,0
36600,-0.506348,-0.716797,0.419922,0
36620,-0.541016,-0.733887,0.427734,0
36640,-0.56543,-0.748535,0.430664,0
36660,-0.576172,-0.790039,0.442383,0
36680,-0.543457,-0.805176,0.431152,0
36700,-0.44873,-0.791016,0.394531,0
36720,-0.420898,-0.82373,0.42334,0
36740,-0.455078,-0.872559,0.419434,0
36760,-0.492676,-0.833008,0.384766,0
36780,-0.476562,-0.758789,0.386719,0
36800,-0.448242,-0.687012,0.390625,0
36820,-0.444824,-0.668457,0.412109,0
36840,-0.486816,-0.72168,0.443359,0
36860,-0.444824,-0.70752,0.441406,0
36880,-0.472168,-0.710449,0.454102,0
36900,-0.525879,-0.730469,0.435547,0
36920,-0.540527,-0.740234,0.428711,0
36940,-0.531738,-0.747559,0.402832,0
36960,-0.499512,-0.715332,0.383301,0
36980,-0.481445,-0.693848,0.398926,0
37000,-0.473633,-0.681152,0.39209,0
37020,-0.477539,-0.682617,0.401855,0
37040,-0.489746,-0.743652,0.432617,0
37060,-0.554688,-0.822266,0.468262,0
37080,-0.538574,-0.880859,0.483398,0
37100,-0.446289,-0.863281,0.452637,0
37120,-0.399414,-0.855469,0.471191,0
37140,-0.464355,-0.839355,0.442383,0
37160,-0.516113,-0.860352,0.401367,0
37180,-0.482422,-0.904785,0.357422,0
37200,-0.46582,-0.902344,0.288574,0
37220,-0.410156,-0.834473,0.21875,0
37240,-0.330566,-0.791992,0.214355,0
37260,-0.330566,-0.788574,0.311035,0
37280,-0.40918,-0.750977,0.385254,0
37300,-0.40625,-0.666504,0.365234,0
37320,-0.374023,-0.621094,0.368652,0
37340,-0.380859,-0.599609,0.413086,0
37360,-0.410156,-0.567383,0.44873,0
37380,-0.427246,-0.567383,0.483398,0
37400,-0.428223,-0.574219,0.523926,0
37420,-0.444336,-0.637207,0.572754,0
37440,-0.446777,-0.690918,0.57373,0
37460,-0.455566,-0.719727,0.535156,0
37480,-0.438965,-0.753418,0.51123,0
37500,-0.430176,-0.772461,0.48291,0
37520,-0.44043,-0.784668,0.473145,0
37540,-0.436523,-0.812012,0.45166,0
37560,-0.433105,-0.82666,0.433105,0
37580,-0.438965,-0.837402,0.431152,0
37600,-0.45459,-0.841309,0.433594,0
37620,-0.460449,-0.835449,0.429688,0
37640,-0.461426,-0.820312,0.416016,0
37660,-0.474121,-0.792969,0.415039,0
37680,-0.473633,-0.76709,0.405273,0
37700,-0.463867,-0.756348,0.397461,0
37720,-0.453613,-0.751953,0.394043,0
37740,-0.458008,-0.744141,0.398438,0
37760,-0.464844,-0.752441,0.413574,0
37780,-0.459473,-0.768555,0.405273,0
37800,-0.442383,-0.766602,0.404297,0
37820,-0.438965,-0.773926,0.423828,0
37840,-0.429688,-0.78418,0.428711,0
37860,-0.414062,-0.775391,0.412598,0
37880,-0.423828,-0.763672,0.408203,0
37900,-0.445312,-0.753418,0.409668,0
37920,-0.461914,-0.759277,0.421387,0
37940,-0.467773,-0.765137,0.407227,0
37960,-0.466797,-0.760742,0.400391,0
37980,-0.459961,-0.758789,0.39209,0
38000,-0.465332,-0.76416,0.378906,0
38020,-0.472168,-0.774414,0.375488,0
38040,-0.47168,-0.785645,0.370605,0
38060,-0.492676,-0.791016,0.373535,0
38080,-0.484863,-0.792969,0.375977,0
38100,-0.509766,-0.811035,0.375,0
38120,-0.512695,-0.777832,0.347656,0
38140,-0.497559,-0.755371,0.361328,0
38160,-0.437988,-0.732422,0.383301,0
38180,-0.404785,-0.76416,0.40918,0
38200,-0.378418,-0.788574,0.447266,0
38220,-0.351562,-0.779785,0.455566,0
38240,-0.329102,-0.755371,0.475098,0
38260,-0.338867,-0.756836,0.464355,0
38280,-0.342285,-0.758789,0.460938,0
38300,-0.347168,-0.771973,0.473145,0
38320,-0.367676,-0.773926,0.46875,0
38340,-0.396973,-0.748535,0.443848,0
38360,-0.42334,-0.735352,0.435059,0
38380,-0.422363,-0.750488,0.414551,0
38400,-0.426758,-0.762207,0.413574,0
38420,-0.436523,-0.773438,0.400879,0
38430,-0.423828,-0.773438,0.397461,0
38450,-0.422852,-0.768066,0.401367,0
38470,-0.441895,-0.760742,0.40918,0
38490,-0.466797,-0.758789,0.430664,0
38510,-0.467773,-0.764648,0.424316,0
38530,-0.453125,-0.776855,0.428711,0
38550,-0.448242,-0.78418,0.427246,0
38570,-0.464844,-0.785156,0.425293,0
38590,-0.472656,-0.788086,0.427246,0
38610,-0.470215,-0.794922,0.42334,0
38630,-0.470215,-0.797852,0.429688,0
38650,-0.463379,-0.787598,0.420898,0
38670,-0.442871,-0.775391,0.415039,0
38690,-0.415039,-0.768066,0.422363,0
38710,-0.401367,-0.758789,0.435547,0
38730,-0.395508,-0.749512,0.441895,0
38750,-0.396484,-0.742188,0.446777,0
38770,-0.387207,-0.741211,0.453125,0
38790,-0.387207,-0.749512,0.442871,0
38810,-0.411133,-0.767578,0.453125,0
38830,-0.429199,-0.773438,0.453125,0
38850,-0.424316,-0.789551,0.432129,0
38870,-0.416992,-0.792969,0.416504,0
38890,-0.413574,-0.791016,0.393555,0
38910,-0.428711,-0.802734,0.381836,0
38930,-0.444824,-0.794922,0.379395,0
38950,-0.45752,-0.794922,0.359863,0
38970,-0.467285,-0.790039,0.341797,0
38990,-0.471191,-0.786133,0.335938,0
39010,-0.464355,-0.791016,0.328125,0
39030,-0.449219,-0.799805,0.321777,0
39050,-0.447754,-0.79541,0.322266,0
39070,-0.453613,-0.791504,0.318359,0
39090,-0.45166,-0.798828,0.326172,0
39110,-0.445801,-0.801758,0.322754,0
39130,-0.438965,-0.811523,0.329102,0
39150,-0.437012,-0.813965,0.348633,0
39170,-0.434082,-0.804199,0.362305,0
39190,-0.446777,-0.789062,0.356445,0
39210,-0.442871,-0.783203,0.369629,0
39230,-0.432617,-0.778809,0.376953,0
39250,-0.440918,-0.808594,0.388184,0
39270,-0.433594,-0.825195,0.404785,0
39290,-0.438477,-0.782227,0.382324,0
39310,-0.436523,-0.798828,0.380371,0
39330,-0.447754,-0.814941,0.381836,0
39350,-0.490723,-0.797363,0.366699,0
39370,-0.506836,-0.777344,0.354492,0
39390,-0.494629,-0.77832,0.330566,0
39410,-0.474609,-0.788574,0.322754,0
39430,-0.452148,-0.779785,0.332031,0
39450,-0.426758,-0.780273,0.338867,0
39470,-0.425781,-0.795898,0.337891,0
39490,-0.436035,-0.783203,0.325195,0
39510,-0.430664,-0.807617,0.359375,0
39530,-0.432617,-0.822266,0.362793,0
39550,-0.469238,-0.808105,0.352051,0
39570,-0.47168,-0.813477,0.375,0
39590,-0.435059,-0.812012,0.375488,0
39610,-0.426758,-0.798828,0.383301,0
39630,-0.441406,-0.807617,0.388184,0
39650,-0.43457,-0.805176,0.369629,0
39670,-0.44043,-0.790039,0.381836,0
39690,-0.444336,-0.782227,0.385254,0
39710,-0.437988,-0.786133,0.384766,0
39730,-0.437988,-0.794434,0.369629,0
39750,-0.427734,-0.79248,0.363281,0
39770,-0.442383,-0.783691,0.373535,0
39790,-0.446777,-0.788574,0.36084,0
39810,-0.463867,-0.787109,0.374023,0
39830,-0.463379,-0.797363,0.371582,0
39850,-0.469727,-0.797852,0.366211,0
39870,-0.456543,-0.807617,0.365723,0
39890,-0.455566,-0.805664,0.372559,0
39910,-0.446289,-0.801758,0.371582,0
39930,-0.43457,-0.802246,0.367188,0
39950,-0.440918,-0.804199,0.369141,0
39970,-0.443359,-0.801758,0.364746,0
39990,-0.445801,-0.791504,0.364258,0
40010,-0.443359,-0.790527,0.365234,0
40030,-0.455566,-0.779297,0.35791,0
40050,-0.444336,-0.786133,0.352539,0
40070,-0.432129,-0.803223,0.346191,0
40090,-0.429688,-0.804688,0.350098,0
40110,-0.45459,-0.80127,0.36084,0
40130,-0.454102,-0.814453,0.35791,0
40150,-0.45166,-0.791992,0.36084,0
40170,-0.456543,-0.806641,0.345215,0
40190,-0.473145,-0.800781,0.350586,0
40210,-0.483887,-0.783691,0.347656,0
40230,-0.504883,-0.777832,0.343262,0
40250,-0.481445,-0.781738,0.326172,0
40270,-0.510254,-0.739746,0.387695,0
40290,-0.5,-0.747559,0.407227,0
40310,-0.409668,-0.768555,0.406738,0
40330,-0.382324,-0.79834,0.42334,0
40350,-0.378418,-0.799805,0.390625,0
40370,-0.356445,-0.785645,0.407227,0
40390,-0.42041,-0.853027,0.419434,0
40410,-0.468262,-0.817383,0.366211,0
40430,-0.513672,-0.818848,0.479004,0
40450,-0.513672,-0.877441,0.624023,0
40470,-0.43457,-0.938965,0.592285,0
40490,-0.288086,-0.932129,0.731445,0
40510,-0.150879,-0.882324,0.799805,0
40530,-0.0136719,-0.853027,0.67627,0
40550,0.090332,-0.878906,0.628418,0
40570,0.178223,-0.836914,0.625977,0
40590,0.210449,-0.864258,0.541016,0
40610,0.231934,-0.899902,0.51123,0
40630,0.181641,-0.912598,0.524902,0
40650,0.0908203,-0.854492,0.448242,0
40670,0.0571289,-0.870605,0.390137,0
40690,0.0439453,-0.878906,0.412598,0
40710,-0.0175781,-0.824219,0.449219,0
40730,-0.0439453,-0.831543,0.400391,0
40750,0.0180664,-0.812012,0.374512,0
40770,0.0317383,-0.809082,0.384766,0
40790,-0.012207,-0.786133,0.39502,0
40810,-0.0244141,-0.819824,0.332031,0
40830,-0.0136719,-0.885742,0.263672,0
40850,-0.0405273,-0.881348,0.286621,0
40850,-0.0522461,-0.904785,0.314941,0
40870,0.0556641,-0.916992,0.297852,0
40890,0.065918,-0.882324,0.269531,0
40910,0.142578,-0.852051,0.391602,0
40930,0.0317383,-0.916504,0.508301,0
40950,-0.23584,-1.00146,0.299316,0
40970,-0.328125,-0.953613,0.630859,0
40990,0.358887,-0.789062,0.196289,0
41010,0.620605,-0.740234,0.0258789,0
41040,0.509766,-0.570801,-0.147949,0
41060,0.494141,-0.757812,-0.191895,0
41070,0.100586,-1.05225,0.358398,0
41090,-0.217285,-0.669922,0.404785,0
41120,-0.0424805,-0.758301,0.567383,0
41140,0.244629,-0.936523,0.393555,0
41160,0.37793,-0.960449,0.501953,0
41180,0.319824,-0.821777,0.649414,0
41200,0.34668,-0.670898,0.526855,0
41220,0.403809,-0.776855,0.455078,0
41240,0.458496,-0.790527,0.461426,0
41260,0.454102,-0.708496,0.324707,0
41280,0.214355,-0.602539,0.345703,0
41300,0.0483398,-0.678223,0.34375,0
41320,0.0585938,-0.825195,0.346191,0
41340,0.0336914,-0.791504,0.370605,0
41360,0.0166016,-0.741211,0.26709,0
41380,-0.0239258,-0.751465,0.287109,0
41390,0.0400391,-0.652832,0.32373,0
41410,0.0336914,-0.775391,0.317383,0
41430,0.0224609,-0.835938,0.39209,0
41430,0.019043,-0.848633,0.464355,0
41480,0.0976562,-0.813477,0.425781,0
41490,0.14209,-0.73877,0.322266,0
41510,0.0908203,-0.675781,0.421875,0
41530,0.184082,-0.754883,0.503906,0
41530,0.375488,-0.779785,0.590332,0
41550,0.40918,-0.75,0.439941,0
41570,0.260742,-0.699707,0.439941,0
41590,0.264648,-0.686035,0.53418,0
41610,0.379395,-0.678223,0.585449,0
41610,0.335938,-0.666504,0.51416,0
41630,0.311523,-0.739258,0.517578,0
41650,0.42334,-0.829102,0.541016,0
41650,0.481934,-0.869141,0.581543,0
41700,0.408691,-0.825195,0.656738,0
41750,0.349609,-0.777344,0.570801,0
41780,0.397949,-0.820312,0.492188,0
41800,0.333984,-0.728516,0.55957,0
41820,0.243652,-0.665039,0.620605,0
41840,0.371582,-0.753906,0.590332,0
41860,0.340332,-0.77832,0.578613,0
41880,0.286133,-0.780273,0.521484,0
41900,0.178223,-0.715332,0.586426,0
41920,0.190918,-0.739258,0.608887,0
41940,0.225098,-0.725586,0.622559,0
41960,0.192383,-0.716309,0.596191,0
41980,0.137695,-0.730957,0.642578,0
42000,0.131836,-0.730469,0.649902,0
42010,0.13623,-0.72998,0.671875,0
42030,0.12793,-0.705078,0.683105,0
42050,0.110352,-0.68457,0.681641,0
42050,0.130371,-0.687012,0.685547,0
42070,0.131348,-0.665527,0.648926,0
42090,0.127441,-0.619629,0.67627,0
42110,0.164062,-0.648926,0.641602,0
42110,0.170898,-0.637207,0.63623,0
42130,0.183105,-0.647461,0.657715,0
42150,0.233887,-0.650879,0.649414,0
42150,0.216797,-0.662598,0.608398,0
42210,0.290527,-0.632812,0.537109,0
42250,0.209961,-0.682129,0.516602,0
42280,0.213867,-0.630859,0.658691,0
42300,0.200195,-0.646973,0.602539,0
42320,0.158691,-0.59668,0.584473,0
42340,0.134766,-0.61377,0.634277,0
42360,0.119629,-0.657227,0.657715,0
42380,0.0849609,-0.611816,0.621582,0
42400,0.123047,-0.617676,0.663086,0
42410,0.188477,-0.655762,0.687988,0
42430,0.203613,-0.669434,0.680176,0
42450,0.179688,-0.669434,0.662598,0
42450,0.213867,-0.67334,0.682617,0
42490,0.253418,-0.660156,0.686035,0
42520,0.222656,-0.64502,0.666992,0
42550,0.215332,-0.622559,0.670898,0
42570,0.266602,-0.606934,0.664551,0
42590,0.276855,-0.61377,0.673828,0
42610,0.248047,-0.611816,0.666992,0
42630,0.293945,-0.611328,0.629883,0
42650,0.275879,-0.620605,0.625,0
42670,0.270508,-0.643555,0.603027,0
42690,0.272949,-0.624023,0.605957,0
42710,0.325684,-0.613281,0.584961,0
42730,0.349121,-0.629883,0.582031,0
42750,0.304688,-0.612305,0.587891,0
42770,0.347168,-0.638672,0.583008,0
42790,0.32959,-0.648438,0.578125,0
42810,0.306641,-0.645508,0.581543,0
42830,0.307129,-0.642578,0.586426,0
42850,0.32373,-0.636719,0.591309,0
42870,0.283203,-0.631836,0.57959,0
42890,0.247559,-0.643066,0.597656,0
42910,0.239746,-0.633789,0.617676,0
42930,0.235352,-0.620117,0.614746,0
42950,0.239258,-0.625977,0.616211,0
42970,0.237305,-0.618652,0.662598,0
42990,0.257324,-0.608398,0.683594,0
43010,0.28418,-0.589844,0.675781,0
43030,0.28125,-0.605957,0.661133,0
43050,0.293457,-0.611816,0.672852,0
43070,0.312012,-0.615723,0.643555,0
43090,0.308594,-0.609375,0.608398,0
43110,0.315918,-0.616211,0.620117,0
43130,0.319824,-0.605469,0.655762,0
43150,0.359375,-0.62793,0.648438,0
43170,0.391602,-0.627441,0.615723,0
43190,0.399414,-0.633301,0.579102,0
43210,0.391602,-0.628906,0.583496,0
43220,0.399414,-0.64502,0.61084,0
43240,0.399902,-0.661133,0.59082,0
43240,0.382812,-0.680176,0.568359,0
43260,0.421387,-0.674805,0.578613,0
43280,0.382812,-0.669434,0.611816,0
43300,0.311035,-0.627441,0.503418,0
43320,0.475586,-0.70459,0.603027,0
43340,0.111328,-0.605469,0.660645,0
43370,0.399414,-0.854004,0.863281,0
43400,0.63916,-0.688965,0.587891,0
43420,0.684082,-0.577637,0.458008,0
43440,0.737793,-0.568359,0.452637,0
43460,0.825684,-0.61084,0.594238,0
43480,0.616211,-0.753906,0.836914,0
43500,-0.393066,-0.92041,0.689453,0
43520,-0.187012,-0.645996,0.36377,0
43540,0.893066,-0.647461,0.820801,0
43560,-0.708496,-0.87207,0.40625,0
43580,0.907227,-0.683105,0.893555,0
43600,-0.364258,-0.716309,0.287598,0
43620,-0.213867,-0.895996,0.603516,0
43640,0.839355,-0.665527,0.963867,0
43660,0.632812,-0.555176,0.711914,0
43680,-0.0625,-0.62793,0.33252,0
43700,-0.462891,-0.749512,0.105957,0
43720,-0.569824,-0.820801,0.0356445,0
43740,-0.590332,-0.816406,0.0366211,0
43760,-0.53418,-0.754883,0.0566406,0
43780,-0.177734,-0.666016,0.160156,0
43800,0.464844,-0.532227,0.611328,0
43820,0.825684,-0.576172,1.14062,0
43840,0.105469,-0.879395,0.770996,0
43860,-0.579102,-0.916992,-0.123047,0
43880,0.469727,-0.528809,0.619629,0
43900,0.388672,-0.803711,1.01514,0
43920,-0.434082,-0.878418,-0.204102,0
43940,0.798828,-0.563965,1.27783,0
43960,-0.54541,-0.988281,-0.220215,0
43980,0.806152,-0.557617,1.30615,0
44000,-0.38916,-0.888184,-0.283691,0
44020,0.381836,-0.771973,1.15723,0
44040,0.474609,-0.582031,0.50293,0
44060,-0.481445,-1.0293,-0.285156,0
44080,0.307129,-0.780273,1.16846,0
44100,0.736328,-0.510254,1.01709,0
44120,-0.236328,-0.885254,-0.362305,0
44140,-0.275391,-1.00049,0.345215,0
44160,0.682617,-0.579102,1.44092,0
44180,0.449707,-0.577148,0.452148,0
44200,-0.440918,-1.00293,-0.378906,0
44220,0.0629883,-0.891113,0.845215,0
44220,0.808105,-0.51416,1.32129,0
44260,0.148438,-0.719238,0.012207,0
44280,-0.437988,-1.03467,-0.200195,0
44300,0.625977,-0.780762,0.505859,0
44320,0.187012,-0.781738,0.525391,0
44340,0.187012,-0.769043,0.536621,0
44360,0.177734,-0.765625,0.534668,0
44380,0.172852,-0.770996,0.525391,0
44400,0.152832,-0.762695,0.508301,0
44420,-0.097168,-0.719727,0.338379,0
44440,0.841797,-0.490234,0.804688,0
44460,-0.220215,-0.981934,0.440918,0
44480,0.723633,-0.566406,1.41943,0
44500,0.45752,-0.612305,0.439453,0
44520,-0.308594,-0.934082,-0.395508,0
44540,-0.392578,-1.03516,0.126465,0
44560,0.288086,-0.771973,1.22021,0
44580,0.75,-0.513672,1.31934,0
44600,0.373535,-0.613281,0.333984,0
44620,0.566406,-0.836426,0.759766,0
44640,0.0727539,-0.756836,0.400879,0
44660,0.141113,-0.770508,0.478516,0
44680,0.133789,-0.764648,0.516113,0
44700,0.126465,-0.781738,0.491211,0
44720,0.140137,-0.78125,0.484863,0
44740,0.135742,-0.761719,0.521484,0
44760,0.125488,-0.789062,0.519531,0
44780,0.139648,-0.795898,0.505371,0
44800,0.124023,-0.795898,0.504883,0
44820,0.126953,-0.793945,0.508789,0
44840,0.145508,-0.779297,0.515625,0
44860,0.132324,-0.789551,0.508301,0
44880,0.115234,-0.789062,0.505859,0
44900,0.115234,-0.795898,0.508301,0
44920,0.120117,-0.799316,0.512695,0
44940,0.108398,-0.791504,0.506348,0
44960,0.105957,-0.793457,0.503906,0
44980,0.114258,-0.794922,0.497559,0
45000,0.115723,-0.780762,0.500488,0
45020,0.102051,-0.788086,0.503906,0
45040,0.106934,-0.797852,0.498535,0
45060,0.10498,-0.786133,0.496094,0
45080,0.111816,-0.79834,0.489746,0
45100,0.125,-0.788086,0.502441,2000
45120,0.117676,-0.793945,0.508789,0
45140,0.117676,-0.796387,0.498047,0
45160,0.132324,-0.793945,0.504883,0
45180,0.129883,-0.80127,0.505371,0
45200,0.124512,-0.791504,0.506836,0
45220,0.117188,-0.791504,0.496094,0
45240,0.13623,-0.791016,0.514648,0
45260,0.135254,-0.79834,0.515625,0
45280,0.136719,-0.794922,0.513184,0
45300,0.133301,-0.785645,0.509766,0
45320,0.131836,-0.789551,0.508301,0
45340,0.120605,-0.785156,0.501465,0
45360,0.133301,-0.782715,0.503906,0
45380,0.130371,-0.774414,0.509277,0
45400,0.115723,-0.77002,0.497559,0
45420,0.117676,-0.784668,0.491699,0
45440,0.115723,-0.785156,0.505859,0
45460,0.102539,-0.791016,0.492676,0
45480,0.105957,-0.797363,0.482422,0
45500,0.126953,-0.80127,0.487305,0
45520,0.114258,-0.811035,0.500488,0
45540,0.111328,-0.805176,0.508301,0
45560,0.120117,-0.791992,0.506348,0
45580,0.124023,-0.803711,0.507324,0
45600,0.129883,-0.789062,0.505859,0
45620,0.126953,-0.792969,0.508301,0
45640,0.130371,-0.795898,0.498047,0
45660,0.126953,-0.791016,0.494629,0
45680,0.12207,-0.781738,0.503418,0
45700,0.121094,-0.797363,0.499512,0
45720,0.129395,-0.790039,0.502441,0
45740,0.118164,-0.791504,0.505859,0
45760,0.106445,-0.791016,0.500977,0
45780,0.124512,-0.787598,0.494629,0
45800,0.128418,-0.796387,0.498535,0
45820,0.120605,-0.785156,0.49707,0
45840,0.118164,-0.796875,0.498535,0
45860,0.123535,-0.804199,0.489746,0
45880,0.135254,-0.80127,0.487793,0
45900,0.134277,-0.802734,0.503906,0
45920,0.131348,-0.807129,0.506836,0
45940,0.137695,-0.806641,0.506348,0
45960,0.14209,-0.792969,0.494629,0
45980,0.150879,-0.806152,0.483398,0
46000,0.156738,-0.800781,0.477051,0
46020,0.144531,-0.800293,0.487793,0
46040,0.13916,-0.791504,0.496582,0
46060,0.129883,-0.781738,0.501953,0
46080,0.120117,-0.784668,0.492188,0
46100,0.122559,-0.777832,0.484863,0
46120,0.120117,-0.78125,0.502441,0
46140,0.114746,-0.773926,0.503418,0
46150,0.100586,-0.770996,0.501465,0
46170,0.0810547,-0.787109,0.506836,0
46190,0.0864258,-0.806641,0.523438,0
46210,0.136719,-0.811035,0.491699,0
46230,0.104004,-0.799805,0.484863,0
46250,0.114258,-0.805176,0.484863,0
46270,0.128906,-0.822754,0.501953,0
46290,0.122559,-0.811523,0.5,0
46310,0.13916,-0.797852,0.492188,0
46330,0.145996,-0.801758,0.492188,0
46350,0.138184,-0.808105,0.491211,0
46370,0.134766,-0.812012,0.501465,0
46390,0.129883,-0.796875,0.496582,0
46410,0.125488,-0.791504,0.486816,0
46430,0.134277,-0.789551,0.496582,0
46450,0.122559,-0.796387,0.504395,0
46470,0.130859,-0.797363,0.485352,0
46490,0.130859,-0.789551,0.503906,0
46510,0.121582,-0.793945,0.488281,0
46530,0.112793,-0.787109,0.492188,0
46550,0.126465,-0.796875,0.47998,0
46570,0.134766,-0.79834,0.489258,0
46590,0.112305,-0.794922,0.491699,0
46610,0.118652,-0.783203,0.478027,0
46630,0.119141,-0.78125,0.492676,0
46650,0.120117,-0.791016,0.487793,0
46670,0.119629,-0.796875,0.489258,0
46690,0.11084,-0.799805,0.500488,0
46710,0.122559,-0.807617,0.492676,0
46730,0.135742,-0.803223,0.491211,0
46750,0.12207,-0.802734,0.497559,0
46770,0.119141,-0.803223,0.490234,0
46790,0.137207,-0.793457,0.484863,0
46810,0.119141,-0.784668,0.50293,0
46830,0.116211,-0.79248,0.494141,0
46850,0.129883,-0.809082,0.478516,0
46870,0.142578,-0.804688,0.495605,0
46890,0.143555,-0.799805,0.494141,0
46910,0.133301,-0.795898,0.496094,0
46930,0.143555,-0.794922,0.494141,0
46950,0.138672,-0.796875,0.491699,0
46970,0.147461,-0.794922,0.489258,0
46990,0.150879,-0.789551,0.493164,0
47010,0.142578,-0.80127,0.491699,0
47030,0.134277,-0.803223,0.482422,0
47050,0.13916,-0.79248,0.495605,0
47070,0.144043,-0.796875,0.487305,0
47090,0.15918,-0.790039,0.48584,0
47110,0.140625,-0.807129,0.483887,0
47130,0.145508,-0.802246,0.482422,0
47150,0.153809,-0.793945,0.491211,0
47170,0.14502,-0.791992,0.490234,0
47190,0.143555,-0.804199,0.466797,0
47210,0.143066,-0.803223,0.478516,0
47230,0.151367,-0.791016,0.490234,0
47250,0.151367,-0.782227,0.474121,0
47270,0.147461,-0.797363,0.490234,0
47290,0.145508,-0.801758,0.495605,0
47310,0.136719,-0.819336,0.483887,0
47330,0.13916,-0.802246,0.491211,0
47350,0.160645,-0.797852,0.496094,0
47370,0.157715,-0.80127,0.486816,0
47390,0.151855,-0.804688,0.475098,0
47410,0.172852,-0.794922,0.487793,0
47430,0.163574,-0.79834,0.50293,0
47450,0.175781,-0.799805,0.484375,0
47470,0.174805,-0.789551,0.48291,0
47490,0.175293,-0.795898,0.483887,0
47510,0.171387,-0.795898,0.48584,0
47530,0.171875,-0.800781,0.48291,0
47550,0.173828,-0.803711,0.478516,0
47570,0.184082,-0.788574,0.48291,0
47590,0.168945,-0.804199,0.490723,0
47610,0.162598,-0.805664,0.478516,0
47630,0.187988,-0.79541,0.473145,0
47650,0.192383,-0.788086,0.487305,0
47670,0.17627,-0.788086,0.496094,0
47690,0.177246,-0.791992,0.469727,0
47710,0.180664,-0.790527,0.467773,0
47730,0.185547,-0.782227,0.483887,0
47750,0.187988,-0.775391,0.483887,0
47770,0.194336,-0.79248,0.473633,0
47790,0.192383,-0.79541,0.475586,0
47810,0.206543,-0.79541,0.492676,0
47830,0.200195,-0.793457,0.489258,0
47850,0.211426,-0.788086,0.479004,0
47870,0.224121,-0.790039,0.472656,0
47890,0.208984,-0.785645,0.487305,0
47910,0.20459,-0.783203,0.486816,0
47930,0.211914,-0.78418,0.480957,0
47950,0.222168,-0.78125,0.481445,0
47970,0.217285,-0.787109,0.479004,0
47990,0.214355,-0.791016,0.478027,0
48010,0.224609,-0.787109,0.48584,0
48030,0.209473,-0.772949,0.46875,0
48050,0.220703,-0.77832,0.475098,0
48060,0.241699,-0.79248,0.48877,0
48080,0.217773,-0.786133,0.486816,0
48100,0.208496,-0.777832,0.475098,0
48120,0.23291,-0.786133,0.472168,0
48140,0.233887,-0.786133,0.480469,0
48160,0.230469,-0.780273,0.482422,0
48180,0.234375,-0.777344,0.476562,0
48200,0.223633,-0.787109,0.473633,0
48220,0.240723,-0.782715,0.481934,0
48240,0.235352,-0.771973,0.475098,0
48260,0.233398,-0.769043,0.489746,0
48280,0.249512,-0.77832,0.480469,0
48300,0.237305,-0.776367,0.470215,0
48320,0.238281,-0.775391,0.469727,0
48340,0.247559,-0.761719,0.483887,0
48360,0.243652,-0.771484,0.486816,0
48380,0.246094,-0.775391,0.477539,0
48400,0.236816,-0.768066,0.474609,0
48420,0.243652,-0.776855,0.48584,0
48440,0.250977,-0.76709,0.477539,0
48460,0.257812,-0.785156,0.484863,0
48480,0.271973,-0.790039,0.472656,0
48500,0.263672,-0.791016,0.483887,0
48520,0.254883,-0.781738,0.492188,0
48540,0.254883,-0.762207,0.481934,0
48560,0.256836,-0.760254,0.475098,0
48580,0.254395,-0.763184,0.472656,0
48600,0.25293,-0.762695,0.48584,0
48620,0.243652,-0.75293,0.496094,0
48640,0.254883,-0.745605,0.478516,0
48660,0.26123,-0.753906,0.487305,0
48680,0.253906,-0.751465,0.490234,0
48700,0.262695,-0.770508,0.486328,0
48720,0.270508,-0.770508,0.481934,0
48740,0.283691,-0.772461,0.499512,0
48760,0.287598,-0.775879,0.482422,0
48780,0.286621,-0.768066,0.484375,0
48800,0.291016,-0.780273,0.488281,0
48820,0.288574,-0.769043,0.484375,0
48840,0.288086,-0.76123,0.478516,0
48860,0.294922,-0.754395,0.48291,0
48880,0.290527,-0.751953,0.486328,0
48900,0.294434,-0.755859,0.467285,0
48920,0.266113,-0.756836,0.48584,0
48940,0.275391,-0.756348,0.493164,0
48950,0.276855,-0.74707,0.481445,0
48970,0.28125,-0.740234,0.473145,0
48990,0.287598,-0.744629,0.487305,0
49010,0.274414,-0.757812,0.47998,0
49030,0.282227,-0.759277,0.476562,0
49050,0.291016,-0.761719,0.477539,0
49070,0.297852,-0.770996,0.485352,0
49090,0.291992,-0.765137,0.486816,0
49110,0.287598,-0.753906,0.483887,0
49130,0.297852,-0.760254,0.494629,0
49150,0.290039,-0.741211,0.500977,0
49170,0.291992,-0.743652,0.493652,0
49190,0.295898,-0.733887,0.484375,0
49210,0.311523,-0.730957,0.475586,0
49230,0.315918,-0.736816,0.480469,0
49250,0.313477,-0.734863,0.475098,0
49270,0.310059,-0.742188,0.480957,0
49290,0.300293,-0.73877,0.487793,0
49310,0.294434,-0.728027,0.494629,0
49330,0.304199,-0.730469,0.498047,0
49350,0.311035,-0.740234,0.491211,0
49370,0.302734,-0.742676,0.499512,0
49390,0.293945,-0.749023,0.490234,0
49410,0.29248,-0.741211,0.490723,0
49430,0.314941,-0.750977,0.486816,0
49450,0.31543,-0.750977,0.495605,0
49470,0.303711,-0.746094,0.495605,0
49490,0.322266,-0.741699,0.494629,0
49510,0.324707,-0.733887,0.487305,0
49530,0.321777,-0.735352,0.491699,0
49550,0.321777,-0.740234,0.484863,0
49570,0.320312,-0.731934,0.491211,0
49590,0.316406,-0.723633,0.497559,0
49610,0.327637,-0.731934,0.493164,0
49630,0.332031,-0.740234,0.483887,0
49650,0.320312,-0.724609,0.488281,0
49670,0.312988,-0.721191,0.499512,0
49690,0.320801,-0.717285,0.495605,0
49710,0.334473,-0.717773,0.499512,0
49730,0.318359,-0.719238,0.503906,0
49750,0.319336,-0.716309,0.515137,0
49770,0.316895,-0.720215,0.512695,0
49790,0.326172,-0.720703,0.515625,0
49810,0.331543,-0.71582,0.518066,0
49830,0.332031,-0.715332,0.524902,0
49850,0.334473,-0.722168,0.512207,0
49870,0.323242,-0.711426,0.501953,0
49890,0.330566,-0.71875,0.519531,0
49910,0.327637,-0.713379,0.526367,0
49930,0.330078,-0.707031,0.520508,0
49950,0.33252,-0.705078,0.526367,0
49970,0.323242,-0.698242,0.517578,0
49990,0.333496,-0.696289,0.529297,0
50010,0.331055,-0.690918,0.526367,0
50030,0.333496,-0.684082,0.529785,0
50050,0.319336,-0.68457,0.527832,0
50070,0.325684,-0.687012,0.521973,0
50090,0.324219,-0.683594,0.530762,0
50110,0.322266,-0.687012,0.538086,0
50130,0.330078,-0.692383,0.536133,0
50150,0.34668,-0.693848,0.539062,0
50170,0.346191,-0.692383,0.542969,0
50190,0.337891,-0.691406,0.540527,0
50210,0.334473,-0.687012,0.536133,0
50230,0.342285,-0.685059,0.535156,0
50250,0.342285,-0.683594,0.542969,0
50270,0.345215,-0.678711,0.541016,0
50290,0.353516,-0.675781,0.537109,0
50310,0.347168,-0.673828,0.54248,0
50330,0.350098,-0.678711,0.55127,0
50350,0.352539,-0.675781,0.551758,0
50370,0.355469,-0.665527,0.546387,0
50390,0.354492,-0.667969,0.540527,0
50410,0.355469,-0.673828,0.552734,0
50430,0.356934,-0.661133,0.560547,0
50450,0.351562,-0.655762,0.564941,0
50470,0.355957,-0.659668,0.554688,0
50490,0.353027,-0.658691,0.555664,0
50510,0.365234,-0.657227,0.563965,0
50530,0.365723,-0.65918,0.569824,0
50550,0.370117,-0.65918,0.570801,0
50570,0.366211,-0.655273,0.559082,0
50590,0.365723,-0.646484,0.563477,0
50610,0.358398,-0.648926,0.571777,0
50630,0.35791,-0.642578,0.571289,0
50650,0.356934,-0.634766,0.567871,0
50670,0.361816,-0.626953,0.578125,0
50690,0.365723,-0.63623,0.580078,0
50710,0.357422,-0.635254,0.579102,0
50730,0.365723,-0.637695,0.57666,0
50750,0.370117,-0.625488,0.574219,0
50770,0.356934,-0.632324,0.583496,0
50790,0.35791,-0.626953,0.586426,0
50810,0.366699,-0.619141,0.58252,0
50830,0.369629,-0.627441,0.589355,0
50850,0.381348,-0.626953,0.581055,0
50870,0.370117,-0.629883,0.596191,0
50890,0.361328,-0.621582,0.588379,0
50910,0.366211,-0.615723,0.58252,0
50930,0.36377,-0.609375,0.584473,0
50950,0.362305,-0.616211,0.601074,0
50970,0.359863,-0.614258,0.597168,0
50990,0.359863,-0.600098,0.587402,0
51010,0.360352,-0.604492,0.59082,0
51030,0.358398,-0.600098,0.58252,0
51050,0.362793,-0.616699,0.596191,0
51070,0.378906,-0.612305,0.59668,0
51090,0.373047,-0.606445,0.605957,0
51110,0.369141,-0.607422,0.588867,0
51130,0.375488,-0.612305,0.602539,0
51150,0.366699,-0.614746,0.594727,0
51170,0.374023,-0.617188,0.592285,0
51190,0.390137,-0.608398,0.604492,0
51210,0.391113,-0.619629,0.604492,0
51230,0.38916,-0.618164,0.599121,0
51250,0.374512,-0.600098,0.591797,0
51270,0.392578,-0.602539,0.609375,0
51290,0.397949,-0.609375,0.612305,0
51300,0.375488,-0.603027,0.598633,0
51320,0.373047,-0.594238,0.595703,0
51340,0.385254,-0.574707,0.600098,0
51360,0.377441,-0.586426,0.60791,0
51380,0.357422,-0.586914,0.603516,0
51400,0.337891,-0.576172,0.606445,0
51420,0.355957,-0.581055,0.606445,0
51440,0.35791,-0.585449,0.61084,0
51460,0.365234,-0.59375,0.603516,0
51480,0.374512,-0.595703,0.602539,0
51500,0.381836,-0.588379,0.603516,0
51520,0.375,-0.593262,0.609863,0
51540,0.365234,-0.605957,0.60498,0
51560,0.363281,-0.595703,0.612793,0
51580,0.354492,-0.598145,0.613281,0
51600,0.363281,-0.591309,0.611328,0
51620,0.373535,-0.584961,0.602539,0
51640,0.368164,-0.592773,0.615234,0
51660,0.354492,-0.587402,0.617676,0
51680,0.366211,-0.580566,0.612793,0
51700,0.377441,-0.57666,0.594238,0
51720,0.393555,-0.57666,0.624512,0
51740,0.373047,-0.580078,0.630859,0
51760,0.356934,-0.586914,0.633789,0
51780,0.374512,-0.574219,0.613281,0
51800,0.396484,-0.574219,0.611328,0
51820,0.382812,-0.565918,0.62207,0
51840,0.398926,-0.579102,0.608887,0
51860,0.398926,-0.584961,0.626953,0
51880,0.39209,-0.581543,0.620117,0
51900,0.392578,-0.570312,0.617188,0
51920,0.375977,-0.572266,0.631836,0
51940,0.356445,-0.57373,0.615723,0
51960,0.345703,-0.56543,0.612305,0
51980,0.327637,-0.564453,0.62207,0
52000,0.337402,-0.548828,0.630859,0
52020,0.342285,-0.539062,0.619141,0
52040,0.354004,-0.546387,0.62793,0
52060,0.364258,-0.557129,0.633789,0
52080,0.366211,-0.583008,0.620605,0
52100,0.387695,-0.585449,0.619141,0
52120,0.401367,-0.575195,0.615723,0
52140,0.394043,-0.576172,0.623047,0
52160,0.394043,-0.579102,0.629883,0
52180,0.37793,-0.58252,0.62793,0
52200,0.373047,-0.576172,0.621582,0
52220,0.372559,-0.563477,0.627441,0
52240,0.358887,-0.560547,0.642578,0
52260,0.372559,-0.563965,0.640137,0
52280,0.358887,-0.565918,0.657715,0
52300,0.329102,-0.558105,0.651367,0
52320,0.346191,-0.552246,0.655273,0
52340,0.354004,-0.548828,0.643555,0
52360,0.34668,-0.554688,0.62793,0
52380,0.343262,-0.551758,0.645508,0
52400,0.354004,-0.546387,0.650879,0
52420,0.378418,-0.553223,0.651855,0
52440,0.358398,-0.557617,0.666016,0
52460,0.34082,-0.575195,0.657715,0
52480,0.355957,-0.567383,0.655273,0
52500,0.348633,-0.562988,0.649902,0
52520,0.355469,-0.575684,0.639648,0
52540,0.358398,-0.573242,0.654785,0
52560,0.325195,-0.587891,0.663574,0
52580,0.335938,-0.583008,0.637207,0
52600,0.356445,-0.567383,0.63623,0
52620,0.335449,-0.5625,0.618652,0
52640,0.32959,-0.5625,0.597656,0
52660,0.353516,-0.561523,0.620605,0
52680,0.344727,-0.564453,0.630371,0
52700,0.340332,-0.566895,0.607422,0
52720,0.345703,-0.559082,0.623535,0
52740,0.344727,-0.543457,0.63623,0
52760,0.345215,-0.552734,0.63916,0
52780,0.367188,-0.558594,0.635254,0
52800,0.353027,-0.556152,0.635742,0
52820,0.365723,-0.554688,0.625,0
52840,0.362793,-0.554688,0.65625,0
52860,0.337402,-0.560059,0.671875,0
52880,0.343262,-0.567871,0.659668,0
52900,0.341309,-0.570312,0.654785,0
52920,0.333984,-0.581055,0.645508,0
52940,0.334961,-0.568359,0.652832,0
52960,0.341797,-0.569824,0.674316,0
52980,0.331543,-0.574707,0.67627,0
53000,0.352539,-0.581543,0.650391,0
53020,0.384277,-0.57666,0.645508,0
53040,0.395996,-0.568848,0.665039,0
53060,0.365234,-0.570312,0.675781,0
53080,0.371094,-0.582031,0.67041,0
53100,0.37793,-0.566406,0.67627,0
53120,0.360352,-0.555176,0.665527,0
53140,0.349121,-0.546875,0.652832,0
53160,0.366211,-0.537109,0.655762,0
53170,0.339355,-0.535645,0.665039,0
53190,0.320312,-0.543945,0.631348,0
53210,0.344727,-0.529297,0.632812,0
53230,0.353516,-0.525879,0.61377,0
53250,0.356934,-0.515137,0.620117,0
53270,0.348633,-0.495117,0.630859,0
53290,0.366699,-0.522949,0.636719,0
53310,0.372559,-0.544434,0.644043,0
53330,0.375488,-0.549316,0.662598,0
53350,0.353516,-0.547363,0.65918,0
53370,0.344238,-0.535156,0.613281,0
53390,0.325684,-0.534668,0.623047,0
53410,0.332031,-0.533203,0.62207,0
53430,0.339844,-0.561523,0.624512,0
53450,0.359375,-0.562988,0.601562,0
53470,0.405273,-0.554688,0.617676,0
53490,0.405273,-0.544922,0.625,0
53510,0.398926,-0.554688,0.639648,0
53530,0.382812,-0.56543,0.662109,0
53550,0.36377,-0.570801,0.684082,0
53570,0.334961,-0.571289,0.67334,0
53590,0.339844,-0.566895,0.649902,0
53610,0.329102,-0.563477,0.655762,0
53630,0.3125,-0.571289,0.644531,0
53650,0.335938,-0.570801,0.65625,0
53670,0.372559,-0.560059,0.67041,0
53690,0.362793,-0.552246,0.668945,0
53710,0.374023,-0.530273,0.646484,0
53730,0.391113,-0.528809,0.679199,0
53750,0.360352,-0.528809,0.69043,0
53770,0.34375,-0.541016,0.681641,0
53790,0.335938,-0.546387,0.683594,0
53810,0.327148,-0.529785,0.677734,0
53830,0.321289,-0.520996,0.673828,0
53850,0.331543,-0.541016,0.655762,0
53870,0.310059,-0.531738,0.681152,0
53890,0.294922,-0.539551,0.669922,0
53910,0.333008,-0.544434,0.643066,0
53930,0.361328,-0.535645,0.646973,0
53950,0.344238,-0.555664,0.649414,0
53970,0.338867,-0.538086,0.668945,0
53990,0.320801,-0.544434,0.675781,0
54010,0.321777,-0.554688,0.666016,0
54030,0.297852,-0.556641,0.67627,0
54050,0.303223,-0.556152,0.643066,0
54070,0.31543,-0.557617,0.663086,0
54090,0.294922,-0.570801,0.673828,0
54110,0.293945,-0.578125,0.651855,0
54130,0.332031,-0.567871,0.632324,0
54150,0.336426,-0.561035,0.646484,0
54170,0.341309,-0.570801,0.651855,0
54190,0.34375,-0.565918,0.65625,0
54210,0.328125,-0.563477,0.655273,0
54230,0.345703,-0.578125,0.638672,0
54250,0.341309,-0.580566,0.676758,0
54270,0.308594,-0.583496,0.661621,0
54290,0.299805,-0.586426,0.64502,0
54310,0.317871,-0.577637,0.652832,0
54330,0.317871,-0.58252,0.660156,0
54350,0.308105,-0.581055,0.661621,0
54370,0.296387,-0.577637,0.656738,0
54390,0.295898,-0.571289,0.631836,0
54410,0.324219,-0.578613,0.628418,0
54430,0.331543,-0.576172,0.644531,0
54450,0.318359,-0.574707,0.652832,0
54470,0.306641,-0.588867,0.649902,0
54490,0.308105,-0.588867,0.637695,0
54510,0.286621,-0.588867,0.65332,0
54530,0.274902,-0.598633,0.637207,0
54550,0.293945,-0.596191,0.624023,0
54570,0.291016,-0.597168,0.638672,0
54590,0.285645,-0.602539,0.638672,0
54610,0.29834,-0.618652,0.65625,0
54630,0.290039,-0.615723,0.624512,0
54650,0.29541,-0.611816,0.626953,0
54670,0.307617,-0.613281,0.632812,0
54690,0.308105,-0.623535,0.630859,0
54710,0.303223,-0.622559,0.628418,0
54730,0.299805,-0.629883,0.626953,0
54750,0.289551,-0.616211,0.613281,0
54770,0.3125,-0.620605,0.614746,0
54790,0.310059,-0.617188,0.619141,0
54810,0.303711,-0.620117,0.606445,0
54830,0.307617,-0.622559,0.609375,0
54850,0.288086,-0.632812,0.604492,0
54870,0.319824,-0.627441,0.603027,0
54890,0.306641,-0.630371,0.608887,0
54910,0.291504,-0.640137,0.605469,0
54930,0.311035,-0.64502,0.59375,0
54950,0.302246,-0.638184,0.599121,0
54970,0.282715,-0.641602,0.581543,0
54990,0.303223,-0.655762,0.570312,0
55010,0.290527,-0.664551,0.58252,0
55030,0.274414,-0.661621,0.571777,0
55050,0.286621,-0.664551,0.568848,0
55070,0.312988,-0.673828,0.575684,0
55090,0.29248,-0.674805,0.554688,0
55110,0.296875,-0.681152,0.560059,0
55130,0.300781,-0.685059,0.559082,0
55150,0.297363,-0.686523,0.558594,0
55170,0.302246,-0.685059,0.554199,0
55190,0.296387,-0.689453,0.549316,0
55210,0.287109,-0.695312,0.545898,0
55230,0.281738,-0.700195,0.538574,0
55250,0.283203,-0.70166,0.527344,0
55270,0.304688,-0.712402,0.534668,0
55290,0.303711,-0.713867,0.536133,0
55310,0.299805,-0.729492,0.521973,0
55330,0.305176,-0.72998,0.532715,0
55350,0.29248,-0.716309,0.530762,0
55370,0.302246,-0.733398,0.516113,0
55390,0.314941,-0.741699,0.511719,0
55410,0.303223,-0.736328,0.522461,0
55430,0.288574,-0.740234,0.505371,0
55450,0.306152,-0.75,0.49707,0
55470,0.294434,-0.744629,0.500488,0
55490,0.272461,-0.75,0.491211,0
55510,0.284668,-0.756348,0.478516,0
55530,0.300293,-0.753418,0.487305,0
55550,0.29834,-0.75,0.492676,0
55570,0.290527,-0.759766,0.475586,0
55590,0.307129,-0.76416,0.463867,0
55610,0.30127,-0.751953,0.476074,0
55630,0.283203,-0.757324,0.456055,0
55650,0.28418,-0.770508,0.451172,0
55670,0.313965,-0.773926,0.436523,0
55690,0.300781,-0.765137,0.44043,0
55710,0.276855,-0.764648,0.433594,0
55730,0.293457,-0.782227,0.41748,0
55750,0.302246,-0.788086,0.425293,0
55770,0.289551,-0.786621,0.418457,0
55790,0.293945,-0.771973,0.40332,0
55810,0.324707,-0.781738,0.410156,0
55830,0.333496,-0.797852,0.410645,0
55850,0.324707,-0.806641,0.407715,0
55870,0.337402,-0.791504,0.401855,0
55890,0.366211,-0.79248,0.396973,0
55910,0.35791,-0.790527,0.396484,0
55930,0.32373,-0.791992,0.379395,0
55950,0.34375,-0.804688,0.378418,0
55970,0.359863,-0.80127,0.394043,0
55990,0.357422,-0.783203,0.381836,0
56010,0.362305,-0.797852,0.377441,0
56030,0.374512,-0.806641,0.372559,0
56050,0.383789,-0.799805,0.382324,0
56070,0.379883,-0.781738,0.378418,0
56090,0.38623,-0.779297,0.354492,0
56110,0.385254,-0.793457,0.366699,0
56130,0.394043,-0.796387,0.352539,0
56150,0.422363,-0.80127,0.341797,0
56170,0.414551,-0.800781,0.335449,0
56190,0.422363,-0.799316,0.34082,0
56210,0.412109,-0.799316,0.343262,0
56230,0.41748,-0.797363,0.328613,0
56250,0.442871,-0.798828,0.318848,0
56270,0.42041,-0.786133,0.319336,0
56290,0.398438,-0.770996,0.3125,0
56310,0.416016,-0.776855,0.315918,0
56330,0.430664,-0.790039,0.297852,0
56350,0.435059,-0.784668,0.287109,0
56370,0.431641,-0.785156,0.282227,0
56390,0.422852,-0.789062,0.294922,0
56410,0.401367,-0.785645,0.280273,0
56430,0.420898,-0.793457,0.262695,0
56450,0.433594,-0.793457,0.279297,0
56460,0.435059,-0.789062,0.285156,0
56480,0.436523,-0.786133,0.28125,0
56500,0.443848,-0.799316,0.267578,0
56520,0.45459,-0.802734,0.274902,0
56540,0.443848,-0.785645,0.275879,0
56560,0.469238,-0.780762,0.271973,0
56580,0.47998,-0.779297,0.285156,0
56600,0.466797,-0.775879,0.276367,0
56620,0.466797,-0.766602,0.266113,0
56640,0.48291,-0.769531,0.255371,0
56660,0.486328,-0.794434,0.265625,0
56680,0.484375,-0.777344,0.251465,0
56700,0.46875,-0.753418,0.261719,0
56720,0.490723,-0.769043,0.24707,0
56740,0.535156,-0.780762,0.266113,0
56760,0.503418,-0.75293,0.283691,0
56780,0.532715,-0.756348,0.280273,0
56800,0.553223,-0.747559,0.246094,0
56820,0.536621,-0.739746,0.263184,0
56840,0.531738,-0.728027,0.272461,0
56860,0.536133,-0.728516,0.270508,0
56880,0.54541,-0.710938,0.253906,0
56900,0.572266,-0.714844,0.259766,0
56920,0.589844,-0.722168,0.282227,0
56940,0.560547,-0.70166,0.282227,0
56960,0.578613,-0.695801,0.24707,0
56980,0.614258,-0.694336,0.271484,0
57000,0.591797,-0.696289,0.299316,0
57020,0.585449,-0.687988,0.297852,0
57040,0.581055,-0.663574,0.272461,0
57060,0.617676,-0.661621,0.289062,0
57080,0.61377,-0.661621,0.302734,0
57100,0.59375,-0.652832,0.302734,0
57120,0.621582,-0.649902,0.291992,0
57140,0.633301,-0.634766,0.308594,0
57160,0.631348,-0.626953,0.327148,0
57180,0.617188,-0.616699,0.314941,0
57200,0.62793,-0.605957,0.312988,0
57220,0.652832,-0.611816,0.313965,0
57240,0.632812,-0.598145,0.345703,0
57260,0.618652,-0.585449,0.341797,0
57280,0.658203,-0.589355,0.308105,0
57300,0.695801,-0.592285,0.328125,0
57320,0.677734,-0.59375,0.358887,0
57340,0.666016,-0.589844,0.349609,0
57360,0.694336,-0.585938,0.341309,0
57380,0.699707,-0.571777,0.344238,0
57400,0.708984,-0.566895,0.368652,0
57420,0.708496,-0.57666,0.370117,0
57440,0.720703,-0.559082,0.360352,0
57460,0.70459,-0.552246,0.376953,0
57480,0.681152,-0.530762,0.380371,0
57500,0.695312,-0.524414,0.374023,0
57520,0.705566,-0.539062,0.381836,0
57540,0.710938,-0.526367,0.392578,0
57560,0.666016,-0.487793,0.391113,0
57580,0.671875,-0.494141,0.40332,0
57600,0.688477,-0.481445,0.415039,0
57620,0.701172,-0.476074,0.416992,0
57640,0.71875,-0.477051,0.435059,0
57660,0.69043,-0.470215,0.44043,0
57680,0.696777,-0.459961,0.429199,0
57700,0.708984,-0.463867,0.410156,0
57720,0.739746,-0.478027,0.444824,0
57740,0.713379,-0.471191,0.484863,0
57760,0.668945,-0.448242,0.452637,0
57780,0.699219,-0.438965,0.456543,0
57800,0.680176,-0.432617,0.471191,0
57820,0.665527,-0.456055,0.474609,0
57840,0.697754,-0.458008,0.480957,0
57860,0.673828,-0.423828,0.5,0
57880,0.650879,-0.427246,0.46875,0
57900,0.662598,-0.432617,0.490723,0
57920,0.656738,-0.471191,0.510254,0
57940,0.640137,-0.437012,0.513672,0
57960,0.62207,-0.441406,0.515137,0
57980,0.647949,-0.438477,0.494629,0
58000,0.65918,-0.45752,0.510742,0
58020,0.624512,-0.480957,0.522461,0
58040,0.593262,-0.469727,0.519043,0
58060,0.632324,-0.452148,0.513672,0
58080,0.619629,-0.461914,0.520996,0
58100,0.568848,-0.487305,0.523438,0
58120,0.557617,-0.487305,0.528809,0
58140,0.605469,-0.491211,0.542969,0
58160,0.61377,-0.490723,0.543945,0
58180,0.570801,-0.480957,0.54541,0
58200,0.564941,-0.480957,0.567383,0
58220,0.567871,-0.48291,0.558105,0
58240,0.570801,-0.5,0.555176,0
58260,0.569336,-0.469727,0.566895,0
58280,0.516113,-0.450684,0.551758,0
58290,0.503418,-0.452148,0.559082,0
58320,0.52832,-0.472168,0.554688,0
58340,0.518066,-0.482422,0.563477,0
58350,0.484863,-0.475098,0.558105,0
58370,0.486328,-0.476562,0.564453,0
58390,0.495117,-0.49707,0.562988,0
58410,0.487793,-0.493164,0.57959,0
58430,0.487305,-0.495605,0.59375,0
58450,0.495605,-0.515137,0.593262,0
58470,0.510254,-0.515137,0.572754,0
58490,0.51123,-0.526855,0.596191,0
58510,0.506348,-0.536621,0.591797,0
58530,0.48291,-0.55957,0.574707,0
58550,0.470215,-0.563477,0.554688,0
58570,0.463867,-0.57666,0.573242,0
58590,0.450195,-0.579102,0.582031,0
58610,0.428711,-0.607422,0.56543,0
58630,0.43457,-0.611328,0.568848,0
58650,0.415527,-0.607422,0.574219,0
58670,0.429199,-0.625,0.567871,0
58690,0.443848,-0.644043,0.569336,0
58710,0.444336,-0.629395,0.578125,0
58730,0.429688,-0.648926,0.555664,0
58750,0.445801,-0.651855,0.544922,0
58770,0.433105,-0.639648,0.54541,0
58790,0.413574,-0.639648,0.527832,0
58810,0.420898,-0.666992,0.502441,0
58830,0.435059,-0.64502,0.49707,0
58850,0.430664,-0.637207,0.494629,0
58870,0.417969,-0.644043,0.471191,0
58890,0.388184,-0.66748,0.445312,0
58910,0.413574,-0.678711,0.42627,0
58930,0.418945,-0.660645,0.444336,0
58950,0.430176,-0.677246,0.445801,0
58970,0.456055,-0.692871,0.45459,0
58990,0.424805,-0.709961,0.439941,0
59010,0.408691,-0.717285,0.405762,0
59030,0.439941,-0.716797,0.432129,0
59050,0.44043,-0.720703,0.424316,0
59070,0.414062,-0.734863,0.394043,0
59090,0.398438,-0.745605,0.363281,0
59110,0.421875,-0.778809,0.361328,0
59130,0.437012,-0.797852,0.378418,0
59150,0.389648,-0.794434,0.358887,0
59170,0.387207,-0.774902,0.345215,0
59190,0.407227,-0.78418,0.319336,0
59210,0.394043,-0.79248,0.311523,0
59230,0.376465,-0.787598,0.294922,0
59250,0.391602,-0.786133,0.29248,0
59270,0.411133,-0.801758,0.292969,0
59290,0.382812,-0.793945,0.269531,0
59310,0.353027,-0.807617,0.243652,0
59330,0.400879,-0.790527,0.285156,0
59350,0.521973,-0.791504,0.307617,0
59370,0.512695,-0.804199,0.285645,0
59390,0.520508,-0.805664,0.261719,0
59410,0.504883,-0.784668,0.257324,0
59430,0.514648,-0.760254,0.246582,0
59450,0.561523,-0.757324,0.224609,0
59470,0.54834,-0.764648,0.219727,0
59490,0.508301,-0.770508,0.195312,0
59510,0.557129,-0.774414,0.196777,0
59530,0.634766,-0.754883,0.209961,0
59550,0.589844,-0.742676,0.175781,0
59570,0.54248,-0.741211,0.141602,0
59590,0.602539,-0.725586,0.135742,0
59610,0.655762,-0.70166,0.144043,0
59630,0.615234,-0.692871,0.138672,0
59650,0.592285,-0.680176,0.105469,0
59670,0.62793,-0.660645,0.0893555,0
59690,0.661133,-0.669922,0.0732422,0
59710,0.678223,-0.660645,0.0883789,0
59730,0.673828,-0.640625,0.0791016,0
59750,0.682617,-0.610352,0.0678711,0
59770,0.752441,-0.596191,0.065918,0
59790,0.749512,-0.598633,0.0922852,0
59810,0.725098,-0.59668,0.0908203,0
59830,0.756348,-0.552734,0.0776367,0
59850,0.766113,-0.55957,0.0849609,0
59870,0.797852,-0.588379,0.0639648,0
59890,0.813965,-0.530762,0.102051,0
59910,0.793457,-0.504395,0.111816,0
59930,0.814453,-0.509766,0.123047,0
59950,0.834473,-0.499512,0.144043,0
59970,0.780762,-0.512207,0.141113,0
59990,0.802734,-0.458496,0.135742,0
60010,0.830566,-0.447754,0.160645,0
60030,0.855469,-0.463379,0.172363,0
60050,0.837891,-0.464844,0.17041,0
60070,0.825195,-0.442871,0.171875,0
60090,0.834473,-0.425293,0.204102,0
60110,0.853516,-0.409668,0.227051,0
60120,0.860352,-0.396484,0.224609,0
60140,0.854004,-0.390137,0.214844,0
60160,0.836426,-0.368164,0.222656,0
60180,0.849121,-0.356445,0.242676,0
60200,0.856445,-0.347656,0.241699,0
60220,0.856934,-0.341797,0.244141,0
60240,0.847656,-0.325684,0.257324,0
60260,0.844727,-0.30957,0.253418,0
60280,0.862305,-0.314453,0.281738,0
60300,0.863281,-0.305664,0.298828,0
60320,0.854492,-0.306152,0.311035,0
60340,0.836426,-0.323242,0.297852,0
60360,0.799316,-0.336914,0.292969,0
60380,0.813477,-0.330078,0.328613,0
60400,0.861816,-0.307617,0.349121,0
60420,0.848633,-0.277344,0.37207,0
60440,0.853516,-0.290039,0.348633,0
60460,0.805176,-0.313477,0.379883,0
60480,0.813477,-0.311523,0.365234,0
60500,0.854004,-0.312012,0.378906,0
60520,0.848633,-0.30127,0.401855,0
60540,0.807129,-0.296875,0.393555,0
60560,0.794922,-0.29834,0.408691,0
60580,0.804199,-0.280273,0.434082,0
60600,0.812988,-0.294434,0.456543,0
60620,0.768066,-0.3125,0.465332,0
60640,0.715332,-0.292969,0.464844,0
60660,0.726074,-0.304688,0.47998,0
60680,0.750977,-0.323242,0.482422,0
60700,0.753906,-0.324707,0.486816,0
60720,0.723633,-0.319336,0.494141,0
60740,0.705078,-0.331055,0.489258,0
60760,0.721191,-0.385254,0.508301,0
60780,0.691895,-0.445312,0.507324,0
60800,0.660156,-0.352051,0.511719,0
60820,0.655273,-0.322266,0.544922,0
60840,0.666016,-0.393555,0.527344,0
60860,0.626953,-0.431641,0.544922,0
60880,0.606445,-0.418945,0.544434,0
60900,0.593262,-0.39209,0.562988,0
60920,0.583984,-0.421387,0.568848,0
60940,0.604004,-0.452637,0.578125,0
60960,0.583008,-0.454102,0.563965,0
60980,0.55127,-0.418457,0.565918,0
61000,0.557129,-0.467285,0.584473,0
61020,0.571777,-0.483887,0.582031,0
61040,0.547852,-0.491699,0.571777,0
61060,0.533691,-0.443848,0.564453,0
61080,0.52832,-0.47998,0.56543,0
61100,0.533203,-0.519043,0.568848,0
61120,0.511719,-0.524414,0.55127,0
61140,0.47998,-0.495605,0.54834,0
61160,0.49707,-0.531738,0.54248,0
61180,0.509766,-0.553711,0.532715,0
61200,0.504883,-0.550781,0.528809,0
61220,0.447754,-0.540527,0.543457,0
61240,0.474609,-0.568359,0.547852,0
61260,0.503906,-0.583984,0.527344,0
61280,0.515137,-0.585449,0.520508,0
61300,0.436035,-0.591309,0.500977,0
61320,0.47168,-0.619141,0.514648,0
61340,0.489746,-0.62207,0.504395,0
61360,0.471191,-0.628418,0.484375,0
61380,0.460938,-0.652832,0.476074,0
61400,0.482422,-0.67334,0.479004,0
61420,0.47998,-0.686035,0.478027,0
61440,0.471191,-0.678711,0.466797,0
61460,0.445312,-0.687012,0.44043,0
61480,0.443848,-0.696289,0.426758,0
61500,0.453125,-0.706055,0.416992,0
61520,0.463379,-0.69873,0.408203,0
61540,0.448242,-0.707031,0.39209,0
61560,0.486328,-0.740234,0.373047,0
61580,0.501953,-0.726074,0.383789,0
61600,0.492676,-0.711914,0.389648,0
61620,0.480469,-0.706543,0.366699,0
61630,0.508301,-0.734375,0.338379,0
61650,0.51709,-0.729004,0.320312,0
61670,0.495605,-0.727051,0.323242,0
61690,0.483398,-0.722168,0.293945,0
61710,0.479004,-0.743164,0.265137,0
61730,0.491699,-0.759277,0.267578,0
61750,0.487305,-0.745605,0.277832,0
61770,0.468262,-0.733887,0.274902,0
61790,0.47998,-0.759766,0.239258,0
61810,0.518555,-0.768555,0.240234,0
61830,0.502441,-0.788574,0.233398,0
61850,0.495605,-0.762207,0.236816,0
61870,0.501465,-0.748047,0.214844,0
61890,0.516113,-0.75293,0.201172,0
61910,0.508789,-0.783203,0.199707,0
61930,0.526367,-0.759277,0.211426,0
61950,0.522949,-0.75293,0.214355,0
61970,0.527832,-0.763672,0.206055,0
61990,0.535645,-0.761719,0.194824,0
62010,0.555664,-0.766113,0.189453,0
62030,0.544922,-0.753418,0.20166,0
62050,0.540039,-0.765137,0.167969,0
62070,0.552734,-0.743164,0.162598,0
62090,0.535645,-0.728516,0.178223,0
62110,0.561035,-0.760254,0.182617,0
62130,0.578613,-0.777832,0.168457,0
62150,0.568359,-0.767578,0.168457,0
62170,0.562988,-0.743652,0.150391,0
62190,0.60791,-0.751953,0.164551,0
62210,0.626465,-0.756348,0.146973,0
62230,0.561035,-0.768066,0.128906,0
62250,0.594238,-0.748535,0.125,0
62270,0.637695,-0.73877,0.157715,0
62290,0.632812,-0.737793,0.120117,0
62310,0.609375,-0.737793,0.115234,0
62330,0.640137,-0.736328,0.116699,0
62350,0.661621,-0.720703,0.116699,0
62370,0.642578,-0.716309,0.110352,0
62390,0.632812,-0.701172,0.0932617,0
62410,0.659668,-0.711426,0.109375,0
62430,0.668457,-0.699219,0.11084,0
62450,0.668457,-0.699219,0.0991211,0
62470,0.662598,-0.685547,0.0932617,0
62490,0.660156,-0.679688,0.0805664,0
62510,0.68457,-0.682129,0.0805664,0
62530,0.702637,-0.684082,0.0649414,0
62550,0.683594,-0.675293,0.0649414,0
62570,0.705566,-0.67041,0.0761719,0
62590,0.72998,-0.66748,0.0556641,0
62610,0.710938,-0.65918,0.0532227,0
62630,0.69043,-0.640137,0.0385742,0
62650,0.727051,-0.64209,0.0463867,0
62670,0.720703,-0.647949,0.0458984,0
62690,0.708984,-0.644043,0.0283203,0
62710,0.73584,-0.628906,0.0214844,0
62730,0.740234,-0.624512,0.0229492,0
62750,0.73291,-0.62207,0.0332031,0
62770,0.733887,-0.619629,0.0351562,0
62790,0.72168,-0.61377,0.0209961,0
62810,0.724609,-0.597656,0.00390625,0
62830,0.725586,-0.596191,0.00732422,0
62850,0.731934,-0.591309,0.0151367,0
62870,0.742676,-0.591797,0.00195312,0
62890,0.737793,-0.584473,-0.000976562,0
62910,0.727539,-0.577637,0.00927734,0
62930,0.789062,-0.564941,0.0332031,0
62950,0.78125,-0.585938,0.0395508,2001
62970,0.787109,-0.584961,0.0180664,0
62990,0.785645,-0.575195,0.0151367,0
63010,0.77832,-0.594727,0.0258789,0
63030,0.793945,-0.57373,0.0449219,0
63050,0.786133,-0.57959,0.0463867,0
63070,0.803711,-0.57959,0.0112305,0
63090,0.79834,-0.57373,0.0390625,0
63110,0.793457,-0.567383,0.0405273,0
63130,0.812012,-0.55127,0.0498047,0
63150,0.783203,-0.549316,0.0551758,0
63170,0.799316,-0.570801,0.0332031,0
63190,0.799805,-0.5625,0.0483398,0
63210,0.790527,-0.537598,0.0400391,0
63230,0.798828,-0.547852,0.0498047,0
63250,0.783203,-0.549805,0.0473633,0
63270,0.777344,-0.54541,0.0507812,0
63290,0.782715,-0.538086,0.0385742,0
63310,0.770996,-0.532715,0.0395508,0
63330,0.75293,-0.555176,0.0307617,0
63350,0.761719,-0.546875,0.0400391,0
63370,0.786621,-0.552246,0.0498047,0
63390,0.748535,-0.61084,0.0410156,0
63410,0.726562,-0.57373,0.0131836,0
63430,0.731445,-0.550781,0.0537109,0
63450,0.737793,-0.564453,0.00830078,0
63470,0.731934,-0.567383,0.0219727,0
63490,0.72998,-0.558594,0.0249023,0
63510,0.712402,-0.576172,0.0195312,0
63520,0.710938,-0.577637,0.0214844,0
63540,0.700684,-0.580078,0.0561523,0
63560,0.635742,-0.557129,0.0600586,0
63580,0.628418,-0.542969,0.046875,0
63600,0.677734,-0.565918,0.0410156,0
63620,0.724121,-0.57959,0.0693359,0
63640,0.686035,-0.567383,0.121582,0
63660,0.634277,-0.563477,0.123047,0
63680,0.59668,-0.546387,0.0864258,0
63700,0.612305,-0.570801,0.0844727,0
63720,0.619141,-0.5625,0.125,0
63740,0.542969,-0.530273,0.154297,0
63760,0.50293,-0.554688,0.135742,0
63780,0.516602,-0.589844,0.130859,0
63800,0.548828,-0.608887,0.18457,0
63820,0.540039,-0.594727,0.233887,0
63840,0.523926,-0.586426,0.231934,0
63860,0.533203,-0.589844,0.247559,0
63880,0.465332,-0.60498,0.276367,0
63900,0.521973,-0.661133,0.385742,0
63920,0.601562,-0.627441,0.408203,0
63940,0.555176,-0.57373,0.422363,0
63960,0.519531,-0.634277,0.391113,0
63980,0.719727,-0.775391,0.378906,0
64000,0.732422,-0.724121,0.583984,0
64020,0.548828,-0.628906,0.597656,0
64040,0.557129,-0.695312,0.531738,0
64060,0.726074,-0.790527,0.478516,0
64080,0.670898,-0.709961,0.690918,0
64100,0.464844,-0.70459,0.667969,0
64120,0.428223,-0.720215,0.620605,0
64140,0.486328,-0.740234,0.685059,0
64160,0.431641,-0.727051,0.777344,0
64180,0.411621,-0.728027,0.727051,0
64200,0.424805,-0.775879,0.723633,0
64220,0.422363,-0.838379,0.691895,0
64240,0.395508,-0.851562,0.687012,0
64260,0.39209,-0.816895,0.667969,0
64280,0.375977,-0.816406,0.656738,0
64300,0.303711,-0.832031,0.607422,0
64320,0.259277,-0.83252,0.581543,0
64340,0.261719,-0.796387,0.586426,0
64360,0.26416,-0.76123,0.546387,0
64380,0.188965,-0.751953,0.51123,0
64400,0.142578,-0.74707,0.475098,0
64420,0.141113,-0.731934,0.457031,0
64440,0.106445,-0.715332,0.477539,0
64460,0.120605,-0.733887,0.46875,0
64480,0.131348,-0.753906,0.453613,0
64500,0.141602,-0.759766,0.482422,0
64520,0.148438,-0.750977,0.51416,0
64540,0.169922,-0.777344,0.495605,0
64560,0.195312,-0.773926,0.484375,0
64580,0.221191,-0.768555,0.503906,0
64600,0.234375,-0.800293,0.528809,0
64620,0.263184,-0.793457,0.513184,0
64640,0.263672,-0.771973,0.52832,0
64660,0.277344,-0.764648,0.529297,0
64680,0.27002,-0.743652,0.533203,0
64700,0.280273,-0.741211,0.524902,0
64720,0.294922,-0.722656,0.520508,0
64740,0.273926,-0.71875,0.522461,0
64760,0.293457,-0.737305,0.509277,0
64780,0.293945,-0.726074,0.515625,0
64800,0.262207,-0.722656,0.518555,0
64820,0.254883,-0.720703,0.517578,0
64840,0.26123,-0.759766,0.500488,0
64860,0.260254,-0.758301,0.495605,0
64880,0.23877,-0.743164,0.506348,0
64900,0.23291,-0.749512,0.483887,0
64920,0.259277,-0.76709,0.506836,0
64940,0.25293,-0.745117,0.518555,0
64960,0.230469,-0.734375,0.521484,0
64980,0.245605,-0.737793,0.514648,0
65000,0.262695,-0.745605,0.501465,0
65020,0.256348,-0.75,0.506348,0
65040,0.233887,-0.750488,0.51123,0
65060,0.21582,-0.759277,0.49707,0
65080,0.239258,-0.751953,0.490723,0
65100,0.220215,-0.739258,0.517578,0
65120,0.173828,-0.740234,0.521484,0
65140,0.164551,-0.754395,0.496094,0
65160,0.208008,-0.757324,0.492676,0
65180,0.205078,-0.757812,0.511719,0
65200,0.163574,-0.769043,0.507324,0
65220,0.168457,-0.762695,0.498535,0
65240,0.195801,-0.763672,0.523926,0
65260,0.211914,-0.779297,0.528809,0
65280,0.213379,-0.77002,0.505859,0
65300,0.224609,-0.762207,0.514648,0
65320,0.235352,-0.769531,0.524902,0
65340,0.246582,-0.779297,0.503418,0
65360,0.250488,-0.777832,0.515137,0
65380,0.257812,-0.777344,0.502441,0
65400,0.237793,-0.751953,0.50293,0
65420,0.225586,-0.760742,0.499023,0
65440,0.244141,-0.767578,0.47998,0
65460,0.236816,-0.772461,0.484375,0
65480,0.228516,-0.765625,0.484375,0
65500,0.201172,-0.76416,0.483398,0
65520,0.219238,-0.790039,0.463379,0
65540,0.241699,-0.788086,0.461426,0
65560,0.230469,-0.77002,0.484863,0
65580,0.236328,-0.763672,0.48877,0
65600,0.234863,-0.76416,0.461426,0
65620,0.243652,-0.759277,0.475586,0
65640,0.271484,-0.760742,0.489746,0
65660,0.295898,-0.743652,0.479004,0
65680,0.266602,-0.746582,0.480469,0
65700,0.268066,-0.74707,0.467773,0
65720,0.288086,-0.75293,0.473633,0
65740,0.291016,-0.739746,0.481934,0
65760,0.305176,-0.746582,0.495117,0
65780,0.317871,-0.779297,0.48584,0
65800,0.3125,-0.775879,0.47168,0
65820,0.302734,-0.762695,0.472656,0
65840,0.303711,-0.762207,0.475586,0
65860,0.294922,-0.762207,0.458984,0
65880,0.290527,-0.777832,0.470215,0
65900,0.313477,-0.76709,0.483887,0
65920,0.289551,-0.753906,0.481445,0
65940,0.281738,-0.748047,0.478516,0
65960,0.319824,-0.763184,0.467773,0
65980,0.341309,-0.775879,0.493652,0
66000,0.319336,-0.762207,0.477051,0
66020,0.313477,-0.739258,0.467285,0
66040,0.356934,-0.758789,0.458008,0
66060,0.359863,-0.747559,0.467773,0
66080,0.390625,-0.747559,0.441406,0
66100,0.411133,-0.750977,0.449707,0
66120,0.412598,-0.751465,0.436523,0
66140,0.443848,-0.764648,0.415527,0
66160,0.45752,-0.756348,0.4375,0
66180,0.462402,-0.765137,0.439941,0
