Timestamp, Acceleration x, Acceleration y, Acceleration z, Marker
40,-0.441406,-0.29541,0.781738,0
60,-0.444824,-0.296387,0.804688,0
80,-0.437988,-0.293457,0.816895,0
100,-0.428223,-0.281738,0.847656,0
120,-0.393555,-0.276367,0.861816,0
140,-0.385742,-0.280273,0.867188,0
140,-0.382812,-0.290527,0.840332,0
160,-0.361816,-0.307129,0.805664,0
190,-0.349609,-0.336914,0.781738,0
210,-0.39502,-0.364258,0.755371,0
230,-0.398926,-0.42627,0.759277,0
250,-0.373047,-0.413086,0.788574,0
270,-0.384766,-0.412109,0.766602,0
290,-0.406738,-0.452637,0.783203,0
310,-0.375,-0.48291,0.791992,0
330,-0.35498,-0.50293,0.781738,0
350,-0.359375,-0.51123,0.786133,0
370,-0.359375,-0.48877,0.797363,0
390,-0.355957,-0.452148,0.794434,0
410,-0.358398,-0.428223,0.796875,0
430,-0.362793,-0.387207,0.800293,0
450,-0.374512,-0.373535,0.76709,0
470,-0.375,-0.38623,0.763184,0
490,-0.388184,-0.376953,0.755859,0
510,-0.387207,-0.401855,0.745605,0
530,-0.381348,-0.404785,0.768555,0
550,-0.383301,-0.408203,0.762207,0
570,-0.379883,-0.415039,0.755371,0
590,-0.369141,-0.416992,0.762207,0
610,-0.361328,-0.411621,0.757324,0
630,-0.362305,-0.416992,0.762207,0
650,-0.354004,-0.419922,0.766602,0
670,-0.347168,-0.421875,0.780762,0
690,-0.353516,-0.436523,0.775879,0
710,-0.351562,-0.437012,0.775391,0
730,-0.352051,-0.442383,0.780762,0
750,-0.349121,-0.440918,0.772949,0
770,-0.348145,-0.449707,0.767578,0
790,-0.340332,-0.444824,0.764648,0
810,-0.345703,-0.442871,0.767578,0
830,-0.354492,-0.428223,0.763184,0
850,-0.359375,-0.431641,0.765625,0
870,-0.362793,-0.423828,0.763672,0
890,-0.367188,-0.413574,0.771973,0
910,-0.347656,-0.411621,0.769043,0
930,-0.348633,-0.409668,0.78418,0
950,-0.351562,-0.411621,0.78125,0
970,-0.349609,-0.415039,0.782227,0
990,-0.352051,-0.421387,0.774902,0
1010,-0.35791,-0.443848,0.772949,0
1030,-0.364258,-0.429688,0.775391,0
1050,-0.362305,-0.427734,0.760742,0
1070,-0.362793,-0.442383,0.76123,0
1090,-0.366699,-0.42627,0.774414,0
1110,-0.362793,-0.422852,0.772461,0
1130,-0.353516,-0.427734,0.764648,0
1150,-0.364258,-0.423828,0.766602,0
1170,-0.362305,-0.434082,0.762695,0
1190,-0.364258,-0.429688,0.761719,0
1210,-0.365723,-0.433105,0.759277,0
1230,-0.364746,-0.437988,0.756836,0
1250,-0.363281,-0.430664,0.76123,0
1270,-0.363281,-0.417969,0.76416,0
1290,-0.355957,-0.412109,0.770508,0
1310,-0.358887,-0.416504,0.780762,0
1330,-0.351074,-0.407227,0.788086,0
1350,-0.351562,-0.413574,0.782227,0
1370,-0.355957,-0.416504,0.781738,0
1390,-0.355957,-0.415527,0.777832,0
1410,-0.354004,-0.410645,0.773438,0
1430,-0.356934,-0.419434,0.77002,0
1450,-0.364746,-0.407227,0.785645,0
1470,-0.371094,-0.40625,0.788574,0
1490,-0.367188,-0.415039,0.778809,0
1510,-0.376465,-0.417969,0.770996,0
1530,-0.377441,-0.428223,0.764648,0
1550,-0.375977,-0.432617,0.776367,0
1570,-0.378418,-0.430664,0.775391,0
1580,-0.375977,-0.422852,0.78125,0
1600,-0.370117,-0.418945,0.776367,0
1620,-0.362305,-0.413574,0.777344,0
1640,-0.358398,-0.410645,0.766602,0
1660,-0.359375,-0.407715,0.766602,0
1680,-0.353027,-0.407715,0.762207,0
1700,-0.353027,-0.418457,0.770508,0
1720,-0.353027,-0.422363,0.773438,0
1740,-0.349609,-0.421387,0.780273,0
1760,-0.351074,-0.418945,0.78125,0
1780,-0.356445,-0.42334,0.779785,0
1800,-0.359863,-0.427246,0.772949,0
1820,-0.361328,-0.425293,0.768066,0
1840,-0.362305,-0.416504,0.777344,0
1860,-0.368652,-0.413574,0.767578,0
1880,-0.367676,-0.413574,0.773926,0
1900,-0.372559,-0.410156,0.777832,0
1920,-0.369141,-0.415527,0.771484,0
1940,-0.369629,-0.424805,0.775879,0
1960,-0.370605,-0.419434,0.772461,0
1980,-0.371582,-0.412109,0.777832,0
2000,-0.370117,-0.412598,0.76709,0
2020,-0.364746,-0.421387,0.772461,0
2040,-0.35791,-0.418945,0.774902,0
2060,-0.362305,-0.415039,0.770996,0
2080,-0.358887,-0.416016,0.773438,0
2100,-0.359863,-0.419434,0.772461,0
2120,-0.359375,-0.414551,0.773438,0
2140,-0.364258,-0.413574,0.773438,0
2160,-0.364746,-0.424805,0.762207,0
2180,-0.368652,-0.415527,0.762207,0
2200,-0.365234,-0.416016,0.768555,0
2220,-0.370605,-0.415527,0.78125,0
2240,-0.371094,-0.416504,0.77832,0
2260,-0.367676,-0.414551,0.773926,0
2280,-0.36377,-0.421387,0.772461,0
2300,-0.368652,-0.419434,0.77832,0
2320,-0.371094,-0.415039,0.774902,0
2340,-0.371094,-0.412109,0.771484,0
2360,-0.368164,-0.410645,0.770996,0
2380,-0.371094,-0.416016,0.772461,0
2400,-0.367188,-0.415527,0.768555,0
2420,-0.367188,-0.415039,0.775879,0
2440,-0.367188,-0.412109,0.774414,0
2460,-0.362793,-0.418945,0.766602,0
2480,-0.365723,-0.416992,0.769531,0
2500,-0.369141,-0.408691,0.776855,0
2520,-0.364746,-0.412109,0.769531,0
2540,-0.368652,-0.413574,0.772949,0
2560,-0.368652,-0.40625,0.769531,0
2580,-0.367676,-0.416992,0.765137,0
2600,-0.369141,-0.418945,0.771973,0
2620,-0.370117,-0.413574,0.778809,0
2640,-0.368652,-0.414062,0.775391,0
2660,-0.367676,-0.419434,0.776855,0
2680,-0.369141,-0.417969,0.774902,0
2700,-0.365723,-0.416016,0.778809,0
2720,-0.367676,-0.417969,0.770508,0
2740,-0.365723,-0.421387,0.770508,0
2760,-0.36377,-0.416992,0.770508,0
2780,-0.367188,-0.413086,0.773438,0
2800,-0.369141,-0.414062,0.776855,0
2820,-0.369629,-0.419434,0.775391,0
2840,-0.371582,-0.408203,0.769043,0
2860,-0.37207,-0.416992,0.768555,0
2880,-0.369629,-0.416016,0.76709,0
2900,-0.371094,-0.414062,0.768555,0
2920,-0.369141,-0.413086,0.773438,0
2940,-0.370117,-0.418945,0.774414,0
2960,-0.37207,-0.42041,0.78125,0
2980,-0.376953,-0.412109,0.778809,0
3000,-0.369629,-0.418945,0.766602,0
3020,-0.371094,-0.420898,0.771484,0
3040,-0.373047,-0.420898,0.773438,0
3060,-0.37793,-0.415527,0.762695,0
3080,-0.370605,-0.416016,0.769531,0
3100,-0.37207,-0.418457,0.769043,0
3120,-0.373047,-0.412109,0.768555,0
3140,-0.370117,-0.414062,0.766602,0
3160,-0.375,-0.422852,0.77002,0
3180,-0.374512,-0.42041,0.769043,0
3200,-0.371582,-0.42041,0.765137,0
3220,-0.373535,-0.421387,0.767578,0
3240,-0.374023,-0.41748,0.773438,0
3260,-0.374512,-0.418457,0.771484,0
3280,-0.371094,-0.41748,0.767578,0
3300,-0.371094,-0.42041,0.760254,0
3320,-0.371094,-0.424316,0.763672,0
3340,-0.373535,-0.413086,0.764648,0
3360,-0.374512,-0.410156,0.769531,0
3380,-0.37793,-0.414551,0.772949,0
3400,-0.375,-0.415039,0.765137,0
3420,-0.379395,-0.411133,0.76416,0
3440,-0.377441,-0.416992,0.760742,0
3460,-0.375977,-0.422852,0.765625,0
3480,-0.37207,-0.415527,0.770508,0
3500,-0.373535,-0.417969,0.769531,0
3520,-0.371582,-0.426758,0.763672,0
3540,-0.373047,-0.424805,0.768555,0
3560,-0.37207,-0.416016,0.773438,0
3580,-0.377441,-0.418457,0.768066,0
3600,-0.374023,-0.419922,0.769043,0
3620,-0.370117,-0.420898,0.763672,0
3640,-0.371582,-0.416504,0.76416,0
3660,-0.375488,-0.416504,0.768555,0
3680,-0.371582,-0.414551,0.769043,0
3700,-0.376953,-0.413086,0.777344,0
3720,-0.371094,-0.416504,0.762695,0
3740,-0.370605,-0.422852,0.761719,0
3760,-0.373047,-0.41748,0.76709,0
3780,-0.375488,-0.414551,0.770996,0
3800,-0.374512,-0.425781,0.774902,0
3820,-0.37793,-0.422363,0.772461,0
3840,-0.375488,-0.419434,0.77002,0
3860,-0.374512,-0.416992,0.768555,0
3880,-0.370605,-0.418457,0.771973,0
3900,-0.374023,-0.418945,0.776855,0
3920,-0.372559,-0.419434,0.766602,0
3940,-0.366699,-0.423828,0.762207,0
3960,-0.373535,-0.432129,0.768066,0
3980,-0.371582,-0.417969,0.767578,0
4000,-0.369629,-0.417969,0.773926,0
4020,-0.37207,-0.418457,0.768555,0
4040,-0.374512,-0.42627,0.769043,0
4060,-0.369141,-0.416504,0.772461,0
4080,-0.367676,-0.41748,0.769531,0
4100,-0.374023,-0.419922,0.76709,0
4120,-0.372559,-0.424316,0.770996,0
4140,-0.371582,-0.419434,0.771484,0
4160,-0.37207,-0.422363,0.771484,0
4180,-0.372559,-0.428223,0.774902,0
4200,-0.370605,-0.422363,0.76416,0
4220,-0.371094,-0.42334,0.766113,0
4240,-0.369141,-0.421387,0.766113,0
4260,-0.370605,-0.422852,0.764648,0
4280,-0.366211,-0.426758,0.769531,0
4300,-0.368652,-0.422852,0.768555,0
4320,-0.364746,-0.424805,0.772461,0
4340,-0.368164,-0.425781,0.768555,0
4360,-0.371094,-0.428223,0.76416,0
4380,-0.370117,-0.420898,0.765137,0
4400,-0.373535,-0.430664,0.76709,0
4420,-0.370117,-0.429199,0.762207,0
4440,-0.365723,-0.427246,0.754395,0
4460,-0.371094,-0.426758,0.765137,0
4480,-0.37207,-0.425293,0.769043,0
4500,-0.371094,-0.427734,0.767578,0
4520,-0.367188,-0.427246,0.76709,0
4540,-0.369629,-0.430664,0.766602,0
4560,-0.370605,-0.430176,0.756348,0
4580,-0.373047,-0.424316,0.759277,0
4600,-0.372559,-0.424805,0.759277,0
4620,-0.375977,-0.423828,0.768066,0
4640,-0.372559,-0.422852,0.768066,0
4660,-0.368164,-0.425293,0.761719,0
4680,-0.365234,-0.433594,0.767578,0
4700,-0.369629,-0.429688,0.768555,0
4720,-0.367188,-0.42627,0.770996,0
4740,-0.371582,-0.431641,0.756348,0
4760,-0.367188,-0.433105,0.761719,0
4780,-0.371582,-0.427734,0.769043,0
4800,-0.373047,-0.421387,0.760254,0
4820,-0.372559,-0.423828,0.769043,0
4840,-0.371582,-0.429199,0.768066,0
4860,-0.368652,-0.432129,0.757324,0
4880,-0.371094,-0.429199,0.763672,0
4900,-0.372559,-0.428223,0.765137,0
4920,-0.375,-0.427246,0.765625,0
4940,-0.372559,-0.422363,0.764648,0
4960,-0.374512,-0.425781,0.766113,0
4980,-0.370117,-0.426758,0.763184,0
5000,-0.371582,-0.426758,0.768066,0
5010,-0.369629,-0.430176,0.76416,0
5030,-0.369141,-0.423828,0.767578,0
5050,-0.369141,-0.426758,0.76416,0
5070,-0.364746,-0.424805,0.772949,0
5090,-0.369141,-0.425293,0.77002,0
5110,-0.368652,-0.42627,0.772949,0
5130,-0.371582,-0.422363,0.76709,0
5150,-0.373047,-0.418945,0.770996,0
5170,-0.367188,-0.430176,0.77002,0
5190,-0.372559,-0.424316,0.764648,0
5210,-0.368652,-0.424316,0.774902,0
5230,-0.368164,-0.42041,0.769531,0
5250,-0.367188,-0.420898,0.768066,0
5270,-0.367676,-0.426758,0.768066,0
5290,-0.369141,-0.416504,0.767578,0
5310,-0.362793,-0.425781,0.768066,0
5330,-0.37207,-0.420898,0.773926,0
5350,-0.375488,-0.415039,0.783691,0
5370,-0.365234,-0.419922,0.772461,0
5390,-0.366699,-0.431641,0.766602,0
5410,-0.366211,-0.429199,0.766113,0
5430,-0.369141,-0.418945,0.766113,0
5450,-0.366699,-0.416016,0.77832,0
5470,-0.365234,-0.419434,0.772949,0
5490,-0.365234,-0.421875,0.766113,0
5510,-0.36377,-0.430176,0.770508,0
5530,-0.370605,-0.422363,0.769043,0
5550,-0.370605,-0.429199,0.770996,0
5570,-0.367188,-0.422363,0.771484,0
5590,-0.371094,-0.424316,0.771973,0
5610,-0.364746,-0.427246,0.76709,0
5630,-0.37207,-0.423828,0.769043,0
5650,-0.368652,-0.414551,0.771484,0
5670,-0.370117,-0.422852,0.771484,0
5690,-0.365234,-0.424805,0.764648,0
5710,-0.365234,-0.42334,0.768555,0
5730,-0.370605,-0.42334,0.768555,0
5750,-0.37207,-0.42334,0.76709,0
5770,-0.369141,-0.417969,0.767578,0
5790,-0.367676,-0.418457,0.775879,0
5810,-0.364746,-0.419922,0.771484,0
5830,-0.369141,-0.424805,0.766602,0
5850,-0.368652,-0.429199,0.766113,0
5870,-0.364746,-0.427734,0.76709,0
5890,-0.364746,-0.429688,0.768066,0
5910,-0.365234,-0.425293,0.769531,0
5930,-0.364746,-0.423828,0.766602,0
5950,-0.364746,-0.418457,0.766602,0
5970,-0.366699,-0.423828,0.766602,0
5990,-0.371582,-0.423828,0.772461,0
6010,-0.368164,-0.416992,0.76709,0
6030,-0.367188,-0.428223,0.763672,0
6050,-0.370117,-0.425781,0.76709,0
6070,-0.368652,-0.41748,0.771973,0
6090,-0.367676,-0.418945,0.769531,0
6110,-0.367676,-0.424316,0.773926,0
6130,-0.370605,-0.424805,0.770508,0
6150,-0.368652,-0.422852,0.778809,0
6170,-0.367188,-0.422852,0.768066,0
6190,-0.370117,-0.429688,0.768066,0
6210,-0.365723,-0.425293,0.763672,0
6230,-0.367188,-0.422852,0.766602,0
6250,-0.368652,-0.419922,0.767578,0
6270,-0.364258,-0.424805,0.768555,0
6290,-0.367676,-0.422363,0.778809,0
6310,-0.37207,-0.421387,0.774414,0
6330,-0.374023,-0.430664,0.766113,0
6350,-0.363281,-0.42627,0.762695,0
6370,-0.365234,-0.424805,0.763184,0
6390,-0.371094,-0.418457,0.76416,0
6410,-0.375488,-0.417969,0.766113,0
6430,-0.366211,-0.416504,0.769043,0
6450,-0.369629,-0.416504,0.766602,0
6470,-0.36377,-0.424805,0.766113,0
6490,-0.365723,-0.427246,0.766602,0
6510,-0.368652,-0.418945,0.772949,0
6530,-0.365234,-0.424316,0.771973,0
6550,-0.362793,-0.425293,0.771484,0
6570,-0.365234,-0.423828,0.763184,0
6590,-0.367188,-0.411621,0.773438,0
6610,-0.369141,-0.414551,0.771484,0
6630,-0.367188,-0.421875,0.769043,0
6650,-0.364746,-0.414551,0.771973,0
6670,-0.36377,-0.416504,0.767578,0
6690,-0.367188,-0.416992,0.760254,0
6710,-0.365723,-0.419922,0.758789,0
6730,-0.367676,-0.408691,0.77002,0
6750,-0.371094,-0.414062,0.77832,0
6770,-0.360352,-0.421875,0.787109,0
6790,-0.364258,-0.420898,0.783203,0
6810,-0.358887,-0.418457,0.776855,0
6830,-0.36377,-0.416504,0.786133,0
6850,-0.370605,-0.414062,0.780273,0
6870,-0.369141,-0.416504,0.770996,0
6890,-0.365234,-0.422363,0.771484,0
6910,-0.365234,-0.417969,0.772949,0
6930,-0.368652,-0.411621,0.774902,0
6950,-0.366699,-0.407715,0.77002,0
6970,-0.368164,-0.413574,0.770508,0
6990,-0.368652,-0.415527,0.775879,0
7000,-0.367676,-0.41748,0.767578,0
7020,-0.368652,-0.421387,0.771973,0
7040,-0.371094,-0.426758,0.772949,0
7060,-0.371094,-0.422363,0.770996,0
7080,-0.369141,-0.414551,0.765625,0
7100,-0.368164,-0.417969,0.767578,0
7120,-0.369141,-0.422363,0.76709,0
7140,-0.369629,-0.42334,0.769043,0
7160,-0.368164,-0.42041,0.768066,0
7180,-0.369629,-0.424316,0.773438,0
7200,-0.367188,-0.424316,0.770508,0
7220,-0.368652,-0.42041,0.768555,0
7240,-0.369141,-0.421387,0.766602,0
7260,-0.370605,-0.421387,0.771973,0
7280,-0.368652,-0.425781,0.768555,0
7300,-0.367188,-0.423828,0.761719,0
7320,-0.368652,-0.432617,0.770508,0
7340,-0.369141,-0.427246,0.766602,0
7360,-0.372559,-0.417969,0.77002,0
7380,-0.37207,-0.421387,0.766113,0
7400,-0.368164,-0.425781,0.767578,0
7420,-0.370605,-0.425781,0.765137,0
7440,-0.367188,-0.425293,0.768555,0
7460,-0.369141,-0.425781,0.768555,0
7480,-0.365234,-0.428223,0.772461,0
7500,-0.366699,-0.419922,0.76416,0
7520,-0.367188,-0.425781,0.765137,0
7540,-0.371582,-0.425293,0.769531,0
7560,-0.373535,-0.423828,0.768066,0
7580,-0.370117,-0.425293,0.771973,0
7600,-0.370117,-0.421875,0.766113,0
7620,-0.366211,-0.427246,0.766602,0
7640,-0.366699,-0.423828,0.769043,0
7660,-0.370117,-0.418457,0.767578,0
7680,-0.372559,-0.429688,0.765137,0
7700,-0.371094,-0.427246,0.768555,0
7720,-0.367188,-0.425781,0.768066,0
7740,-0.369141,-0.421875,0.768066,0
7760,-0.367676,-0.422852,0.769531,0
7780,-0.368164,-0.42627,0.76416,0
7800,-0.369629,-0.42627,0.769531,0
7820,-0.369629,-0.427734,0.760742,0
7840,-0.371094,-0.433105,0.763672,0
7860,-0.365234,-0.430664,0.760742,0
7880,-0.361816,-0.42334,0.768066,0
7900,-0.359863,-0.423828,0.763672,0
7920,-0.362793,-0.427734,0.76709,0
7940,-0.366211,-0.424316,0.76709,0
7960,-0.376465,-0.426758,0.762695,0
7980,-0.373047,-0.427734,0.76416,0
8000,-0.370605,-0.432129,0.763184,0
8020,-0.368652,-0.435547,0.767578,0
8040,-0.368164,-0.427734,0.76709,0
8060,-0.371094,-0.428711,0.763672,0
8080,-0.374512,-0.427246,0.77002,0
8100,-0.373535,-0.430176,0.760254,0
8120,-0.375977,-0.436523,0.759766,0
8140,-0.374023,-0.434082,0.75,0
8160,-0.374023,-0.433594,0.755859,0
8180,-0.366211,-0.430176,0.768066,0
8200,-0.368164,-0.419922,0.783203,0
8220,-0.366211,-0.415527,0.782227,0
8240,-0.354492,-0.418457,0.779785,0
8260,-0.348633,-0.431641,0.769043,0
8280,-0.354004,-0.430176,0.765625,0
8300,-0.368164,-0.42334,0.767578,0
8320,-0.375977,-0.415527,0.77002,0
8340,-0.376465,-0.423828,0.770508,0
8360,-0.372559,-0.423828,0.769043,0
8380,-0.371582,-0.424316,0.769043,0
8400,-0.376465,-0.433594,0.770996,0
8420,-0.377441,-0.432129,0.76709,0
8440,-0.375977,-0.436523,0.76416,0
8460,-0.370117,-0.429199,0.757324,0
8480,-0.374512,-0.430664,0.766113,0
8500,-0.370605,-0.42041,0.767578,0
8520,-0.370117,-0.417969,0.772461,0
8540,-0.36377,-0.42334,0.773926,0
8560,-0.362305,-0.428711,0.764648,0
8580,-0.358398,-0.426758,0.765137,0
8600,-0.359863,-0.415039,0.775879,0
8620,-0.359863,-0.42041,0.769531,0
8640,-0.360352,-0.41748,0.771484,0
8660,-0.365234,-0.419922,0.771484,0
8680,-0.36377,-0.421875,0.773926,0
8700,-0.375488,-0.422852,0.77002,0
8720,-0.373535,-0.426758,0.768066,0
8740,-0.375488,-0.42627,0.757324,0
8760,-0.376953,-0.428711,0.765137,0
8780,-0.370117,-0.43457,0.762207,0
8800,-0.37207,-0.431152,0.764648,0
8820,-0.364258,-0.422363,0.776367,0
8840,-0.363281,-0.419434,0.773438,0
8860,-0.363281,-0.419434,0.773438,0
8880,-0.357422,-0.416016,0.776855,0
8900,-0.354004,-0.41748,0.770996,0
8920,-0.35498,-0.428223,0.769531,0
8940,-0.354004,-0.422852,0.768555,0
8960,-0.360352,-0.41748,0.772949,0
8980,-0.360352,-0.41748,0.778809,0
9000,-0.375,-0.417969,0.773926,0
9020,-0.376465,-0.416504,0.764648,0
9040,-0.380859,-0.422852,0.756348,0
9060,-0.379883,-0.444824,0.751953,0
9080,-0.391113,-0.4375,0.765625,0
9100,-0.392578,-0.433594,0.763672,0
9120,-0.383301,-0.433594,0.768066,0
9140,-0.375488,-0.435059,0.764648,0
9160,-0.363281,-0.428711,0.764648,0
9180,-0.362793,-0.417969,0.759277,0
9200,-0.362305,-0.415039,0.769531,0
9220,-0.358398,-0.416016,0.773926,0
9240,-0.350586,-0.426758,0.765625,0
9260,-0.353516,-0.422852,0.774414,0
9280,-0.355469,-0.432129,0.777344,0
9300,-0.366211,-0.423828,0.779297,0
9320,-0.365723,-0.424316,0.771484,0
9340,-0.371094,-0.424316,0.767578,0
9360,-0.37793,-0.417969,0.76123,0
9380,-0.372559,-0.421387,0.766602,0
9400,-0.376953,-0.422852,0.76123,0
9420,-0.375,-0.432129,0.768555,0
9440,-0.37207,-0.432617,0.761719,0
9460,-0.370605,-0.432617,0.758789,0
9480,-0.372559,-0.436035,0.766113,0
9500,-0.371582,-0.427246,0.767578,0
9520,-0.366699,-0.429688,0.769043,0
9540,-0.366211,-0.431152,0.766113,0
9560,-0.364258,-0.429688,0.768066,0
9580,-0.359863,-0.429688,0.760742,0
9600,-0.356934,-0.430664,0.760742,0
9620,-0.360352,-0.419922,0.772461,0
9640,-0.363281,-0.420898,0.771484,0
9660,-0.361816,-0.421387,0.770508,0
9680,-0.368164,-0.423828,0.773926,0
9700,-0.366699,-0.430664,0.763184,0
9720,-0.369629,-0.435059,0.757812,0
9740,-0.376953,-0.428223,0.765137,0
9760,-0.372559,-0.42627,0.765137,0
9780,-0.37207,-0.428711,0.760742,0
9800,-0.371094,-0.428711,0.766602,0
9820,-0.370117,-0.424316,0.762695,0
9840,-0.370117,-0.426758,0.76709,0
9860,-0.371582,-0.429199,0.766602,0
9880,-0.365723,-0.428711,0.764648,0
9900,-0.369141,-0.437988,0.761719,0
9920,-0.364746,-0.431152,0.762207,0
9940,-0.368164,-0.434082,0.767578,0
9960,-0.366211,-0.425781,0.762207,0
9980,-0.370605,-0.428223,0.769043,0
10000,-0.373535,-0.4375,0.761719,0
10020,-0.365723,-0.432129,0.765625,0
10040,-0.365234,-0.425781,0.760254,0
10060,-0.373535,-0.435059,0.76416,0
10080,-0.375488,-0.429688,0.762695,0
10100,-0.374512,-0.424805,0.765137,0
10120,-0.371094,-0.425293,0.763184,0
10140,-0.366211,-0.43457,0.760254,0
10160,-0.367676,-0.429199,0.763672,0
10180,-0.364746,-0.42627,0.758789,0
10200,-0.370117,-0.430664,0.775879,0
10220,-0.374023,-0.429688,0.774414,0
10240,-0.369629,-0.433594,0.760742,0
10260,-0.358887,-0.423828,0.751953,0
10280,-0.364258,-0.435059,0.765625,0
10300,-0.370605,-0.429688,0.76709,0
10320,-0.372559,-0.419922,0.773438,0
10340,-0.368652,-0.421875,0.769043,0
10360,-0.369629,-0.439941,0.768555,0
10380,-0.362305,-0.437988,0.765625,0
10400,-0.365723,-0.433105,0.760254,0
10420,-0.366699,-0.442383,0.761719,0
10430,-0.367188,-0.4375,0.760742,0
10450,-0.368652,-0.426758,0.759277,0
10470,-0.363281,-0.430664,0.764648,0
10490,-0.370117,-0.430176,0.768066,0
10510,-0.370117,-0.431641,0.768066,0
10530,-0.365723,-0.426758,0.76709,0
10550,-0.369629,-0.437988,0.759766,0
10570,-0.376953,-0.441406,0.759277,0
10590,-0.364258,-0.430176,0.762207,0
10610,-0.374023,-0.42334,0.762695,0
10630,-0.366699,-0.436523,0.770508,0
10650,-0.367676,-0.426758,0.768066,0
10670,-0.369629,-0.431641,0.767578,0
10690,-0.369141,-0.439453,0.757324,0
10710,-0.367188,-0.441406,0.766113,0
10730,-0.365723,-0.434082,0.760742,0
10750,-0.368164,-0.441406,0.762695,0
10770,-0.362793,-0.433105,0.755859,0
10790,-0.376465,-0.437988,0.76416,0
10810,-0.369141,-0.428711,0.765625,0
10830,-0.366211,-0.421387,0.769531,0
10850,-0.361816,-0.437012,0.769531,0
10870,-0.364258,-0.4375,0.769531,0
10890,-0.374023,-0.425781,0.769531,0
10910,-0.371582,-0.428711,0.768066,0
10930,-0.370605,-0.427246,0.76709,0
10950,-0.371094,-0.42334,0.759766,0
10970,-0.369629,-0.430176,0.765625,0
10990,-0.369141,-0.422852,0.769043,0
11010,-0.37207,-0.427734,0.770996,0
11030,-0.375977,-0.425293,0.766602,0
11050,-0.374512,-0.427246,0.768066,0
11070,-0.370117,-0.424805,0.772461,0
11090,-0.372559,-0.420898,0.769531,0
11110,-0.370605,-0.422852,0.764648,0
11130,-0.372559,-0.422363,0.768066,0
11150,-0.375,-0.426758,0.763184,0
11170,-0.372559,-0.42334,0.763672,0
11190,-0.373047,-0.421875,0.765625,0
11210,-0.37207,-0.424316,0.773926,0
11230,-0.373535,-0.422363,0.774902,0
11250,-0.370117,-0.419434,0.766602,0
11270,-0.368164,-0.423828,0.763184,0
11290,-0.373047,-0.422363,0.769043,0
11310,-0.37207,-0.419434,0.766602,0
11330,-0.373535,-0.419434,0.769043,0
11350,-0.37793,-0.421387,0.770996,0
11370,-0.374512,-0.425781,0.762207,0
11390,-0.372559,-0.419434,0.767578,0
11410,-0.371582,-0.422852,0.766602,0
11430,-0.370605,-0.423828,0.769531,0
11450,-0.375488,-0.416016,0.76416,0
11470,-0.367676,-0.42041,0.760742,0
11490,-0.368652,-0.422852,0.766602,0
11510,-0.373535,-0.421387,0.776855,0
11530,-0.376953,-0.418457,0.772949,0
11550,-0.369141,-0.424316,0.768555,0
11570,-0.372559,-0.431641,0.762695,0
11590,-0.370117,-0.434082,0.762207,0
11610,-0.371094,-0.417969,0.770996,0
11630,-0.372559,-0.416016,0.769043,0
11650,-0.369141,-0.415039,0.769043,0
11670,-0.369629,-0.418945,0.770996,0
11690,-0.371094,-0.42041,0.771484,0
11710,-0.37207,-0.422852,0.76416,0
11730,-0.372559,-0.436523,0.764648,0
11750,-0.369629,-0.427246,0.764648,0
11770,-0.368164,-0.435059,0.76709,0
11790,-0.37207,-0.429688,0.759766,0
11810,-0.371582,-0.424805,0.768555,0
11830,-0.371582,-0.42334,0.765625,0
11850,-0.368652,-0.427246,0.760254,0
11870,-0.375488,-0.429688,0.768066,0
11890,-0.369629,-0.425293,0.771973,0
11910,-0.372559,-0.433594,0.76416,0
11930,-0.374023,-0.432129,0.760742,0
11950,-0.373047,-0.427734,0.768066,0
11970,-0.369141,-0.422852,0.763184,0
11990,-0.371094,-0.427246,0.766113,0
12010,-0.373535,-0.435547,0.76709,0
12030,-0.371582,-0.429199,0.766113,0
12050,-0.375977,-0.427734,0.764648,0
12070,-0.368652,-0.426758,0.765625,0
12090,-0.374023,-0.426758,0.76709,0
12110,-0.373535,-0.425293,0.767578,0
12130,-0.364746,-0.427246,0.767578,0
12150,-0.370605,-0.429688,0.764648,0
12170,-0.373047,-0.430176,0.769043,0
12190,-0.377441,-0.42041,0.767578,0
12210,-0.375,-0.426758,0.76416,0
12230,-0.368652,-0.436035,0.756348,0
12250,-0.370117,-0.430664,0.76416,0
12270,-0.37207,-0.430176,0.762695,0
12290,-0.374512,-0.427246,0.766113,0
12310,-0.376953,-0.424316,0.768555,0
12330,-0.364746,-0.425781,0.762207,0
12350,-0.369141,-0.428711,0.767578,0
12370,-0.374023,-0.428711,0.766113,0
12390,-0.373535,-0.431152,0.763184,0
12410,-0.373047,-0.433105,0.769043,0
12420,-0.367676,-0.431641,0.763184,0
12440,-0.370117,-0.432129,0.768066,0
12460,-0.370605,-0.417969,0.768066,0
12480,-0.373535,-0.426758,0.772461,0
12500,-0.376465,-0.428711,0.765137,0
12520,-0.371582,-0.428223,0.763184,0
12540,-0.375488,-0.423828,0.762207,0
12560,-0.37207,-0.429199,0.756348,0
12580,-0.367676,-0.430664,0.755859,0
12600,-0.366211,-0.432617,0.762695,0
12620,-0.361816,-0.432129,0.76416,0
12640,-0.362305,-0.437012,0.765625,0
12660,-0.365723,-0.433105,0.762695,0
12680,-0.366211,-0.428223,0.763672,0
12700,-0.366211,-0.438477,0.769531,0
12720,-0.370605,-0.436523,0.762207,0
12740,-0.371582,-0.426758,0.762695,0
12760,-0.372559,-0.423828,0.76416,0
12780,-0.368652,-0.428711,0.766113,0
12800,-0.368652,-0.431152,0.767578,0
12820,-0.368164,-0.430664,0.76709,0
12840,-0.37207,-0.431641,0.768066,0
12860,-0.372559,-0.439941,0.76709,0
12880,-0.371582,-0.4375,0.771484,0
12900,-0.374023,-0.426758,0.769043,0
12920,-0.374512,-0.430176,0.766602,0
12940,-0.369629,-0.430176,0.766602,0
12960,-0.373047,-0.424805,0.76709,0
12980,-0.365723,-0.423828,0.762207,0
13000,-0.374023,-0.427734,0.758301,0
13020,-0.371582,-0.425293,0.762207,0
13040,-0.374512,-0.42627,0.768066,0
13060,-0.373535,-0.429688,0.760254,0
13080,-0.376465,-0.430664,0.762695,0
13100,-0.375,-0.435059,0.756836,0
13120,-0.376465,-0.429199,0.754883,0
13140,-0.377441,-0.430176,0.756836,0
13160,-0.371094,-0.427734,0.758789,0
13180,-0.374023,-0.424316,0.770996,0
13200,-0.369629,-0.431641,0.766113,0
13220,-0.364258,-0.434082,0.76123,0
13240,-0.364258,-0.430664,0.769043,0
13260,-0.370605,-0.428223,0.769043,0
13280,-0.376465,-0.422363,0.767578,0
13300,-0.378418,-0.417969,0.772461,0
13320,-0.369629,-0.419434,0.762695,0
13340,-0.375488,-0.418945,0.770508,0
13360,-0.375,-0.41748,0.768555,0
13380,-0.37207,-0.42334,0.765625,0
13400,-0.366699,-0.42041,0.770508,0
13420,-0.365723,-0.427734,0.765137,0
13440,-0.365723,-0.431641,0.766113,0
13460,-0.370117,-0.424805,0.771484,0
13480,-0.374023,-0.419922,0.771973,0
13500,-0.368164,-0.422363,0.767578,0
13520,-0.367676,-0.42041,0.76709,0
13540,-0.373047,-0.413574,0.767578,0
13560,-0.365723,-0.411621,0.77002,0
13580,-0.366211,-0.414551,0.765137,0
13600,-0.365723,-0.414062,0.776367,0
13620,-0.366211,-0.418945,0.775879,0
13640,-0.369141,-0.424316,0.786621,0
13660,-0.364746,-0.425781,0.780762,0
13680,-0.366211,-0.421875,0.776367,0
13700,-0.361816,-0.423828,0.773438,0
13720,-0.366211,-0.417969,0.774414,0
13740,-0.364258,-0.417969,0.779297,0
13760,-0.363281,-0.409668,0.774414,0
13780,-0.360352,-0.415039,0.775391,0
13800,-0.368652,-0.416992,0.770508,0
13820,-0.358887,-0.415039,0.77002,0
13840,-0.366211,-0.41748,0.764648,0
13860,-0.400391,-0.457031,0.791992,0
13880,-0.416992,-0.554199,0.76123,0
13900,-0.543457,-0.362793,0.710938,0
13920,-0.492188,-0.538086,0.730469,0
13940,-0.501953,-0.509766,0.794434,0
13960,-0.568359,-0.551758,0.853027,0
13980,-0.563477,-0.493164,0.907715,0
14000,-0.355957,-0.500977,0.993164,0
14020,-0.0952148,-0.368652,1.02441,0
14040,0.0361328,-0.437988,1.03857,0
14060,0.176758,-0.474609,1.00684,0
14080,0.258789,-0.456055,1.03857,0
14100,0.324707,-0.383301,0.940918,0
14120,0.39502,-0.335449,0.899902,0
14140,0.45752,-0.393555,0.833984,0
14160,0.433594,-0.442383,0.820801,0
14180,0.525879,-0.46875,0.739258,0
14200,0.611816,-0.428711,0.704102,0
14220,0.646973,-0.316406,0.676758,0
14240,0.710938,-0.299316,0.627441,0
14270,0.738281,-0.249023,0.495605,0
14290,0.70752,-0.261719,0.448242,0
14310,0.703613,-0.230469,0.377441,0
14330,0.697754,-0.208008,0.322754,0
14350,0.738281,-0.208496,0.262207,0
14370,0.715332,-0.17627,0.208496,0
14390,0.760254,-0.162598,0.144043,0
14410,0.743652,-0.183105,0.0849609,0
14430,0.749023,-0.171387,0.0454102,0
14450,0.793945,-0.172852,0.0273438,0
14470,0.806152,-0.179688,0.00683594,0
14490,0.804688,-0.172852,-0.0332031,0
14510,0.797852,-0.171875,-0.0615234,0
14530,0.886719,-0.183594,-0.0800781,0
14550,0.918457,-0.186523,-0.0854492,0
14570,0.880859,-0.194824,-0.105469,0
14590,0.885742,-0.22998,-0.112305,0
14610,0.908203,-0.236328,-0.121094,0
14630,0.932129,-0.240723,-0.112793,0
14650,0.912598,-0.245117,-0.121094,0
14670,0.926758,-0.24707,-0.132812,0
14690,0.927734,-0.244141,-0.132812,0
14710,0.927246,-0.23584,-0.127441,0
14730,0.958984,-0.243652,-0.135742,0
14750,0.943848,-0.227051,-0.13623,0
14770,0.929688,-0.23584,-0.137695,0
14790,0.911133,-0.248535,-0.145996,0
14810,0.947754,-0.262207,-0.138672,0
14830,0.91748,-0.23877,-0.147949,0
14850,0.929199,-0.243652,-0.140625,0
14870,0.947754,-0.22998,-0.124512,0
14890,0.95166,-0.224121,-0.114746,0
14910,0.950195,-0.219727,-0.116699,0
14930,0.936035,-0.223145,-0.129395,0
14950,0.931152,-0.22168,-0.129883,0
14970,0.944336,-0.218262,-0.130371,0
14990,0.924805,-0.222656,-0.129395,0
15010,0.928711,-0.23584,-0.130371,0
15030,0.923828,-0.226562,-0.125488,0
15050,0.924316,-0.224121,-0.138184,0
15070,0.92041,-0.229004,-0.147949,0
15090,0.925293,-0.231445,-0.155762,0
15110,0.951172,-0.23584,-0.160645,0
15130,0.927246,-0.233887,-0.159668,0
15150,0.954102,-0.256348,-0.155273,0
15170,0.939941,-0.249023,-0.143066,0
15190,0.951172,-0.236328,-0.152832,0
15210,0.922363,-0.241699,-0.158203,0
15230,0.923828,-0.245605,-0.182617,0
15250,0.967285,-0.246094,-0.175293,0
15270,0.912598,-0.237793,-0.15918,0
15290,0.891602,-0.220703,-0.182617,0
15310,0.90625,-0.224609,-0.181641,0
15330,0.919922,-0.219238,-0.181641,0
15350,0.92627,-0.231445,-0.183594,0
15370,0.944336,-0.221191,-0.18457,0
15390,0.95752,-0.222168,-0.180176,0
15410,0.950684,-0.226562,-0.178223,0
15430,0.961914,-0.236328,-0.173828,0
15450,0.933105,-0.241211,-0.174805,0
15470,0.909668,-0.254883,-0.169922,0
15490,0.881348,-0.262695,-0.175293,0
15510,0.898438,-0.249512,-0.158691,0
15530,0.90625,-0.241211,-0.155762,0
15550,0.916016,-0.239746,-0.155273,0
15570,0.918457,-0.242188,-0.162598,0
15590,0.92627,-0.243652,-0.165039,0
15610,0.90918,-0.246094,-0.170898,0
15630,0.910156,-0.257812,-0.168945,0
15650,0.892578,-0.265625,-0.168457,0
15670,0.891113,-0.272461,-0.155273,0
15690,0.869141,-0.251465,-0.167969,0
15710,0.861816,-0.239258,-0.177734,0
15730,0.873047,-0.240234,-0.162598,0
15750,0.882812,-0.217773,-0.151367,0
15770,0.88916,-0.229492,-0.144043,0
15790,0.865723,-0.242188,-0.152344,0
15810,0.831543,-0.255859,-0.140137,0
15830,0.811523,-0.241699,-0.0961914,0
15850,0.790039,-0.21582,-0.0512695,0
15860,0.790039,-0.183105,-0.0297852,0
15880,0.802734,-0.173828,-0.0136719,0
15900,0.78125,-0.192871,0.00146484,0
15920,0.856445,-0.226074,0.059082,0
15940,0.875488,-0.199707,0.161621,0
15960,0.808594,-0.161133,0.168457,0
15980,0.797852,-0.209473,0.143066,0
16000,0.86084,-0.270996,0.22168,0
16020,0.840332,-0.232422,0.342285,0
16040,0.887695,-0.241211,0.401367,0
16060,0.944824,-0.280762,0.40918,0
16080,0.787598,-0.339355,0.446777,0
16100,0.596191,-0.308594,0.513672,0
16120,0.596191,-0.32959,0.607422,0
16140,0.639648,-0.364258,0.686523,0
16160,0.521484,-0.354004,0.676758,0
16180,0.416504,-0.324707,0.723633,0
16200,0.384277,-0.314453,0.868164,0
16220,0.343262,-0.371582,0.907227,0
16240,0.312012,-0.433594,0.875488,0
16260,0.270508,-0.474121,0.888672,0
16280,0.213867,-0.456543,0.910156,0
16300,0.234863,-0.473633,0.947754,0
16320,0.20752,-0.466309,0.903809,0
16340,0.186523,-0.478027,0.867676,0
16360,0.165527,-0.434082,0.901367,0
16380,0.0976562,-0.401367,0.907227,0
16400,-0.0415039,-0.418457,0.874023,0
16420,-0.0600586,-0.441895,0.84082,0
16440,-0.0927734,-0.457031,0.836426,0
16460,-0.15332,-0.445312,0.838379,0
16480,-0.19043,-0.419922,0.86377,0
16500,-0.177246,-0.419434,0.885254,0
16520,-0.162109,-0.416992,0.870117,0
16540,-0.154785,-0.431152,0.868652,0
16560,-0.133301,-0.412598,0.852539,0
16580,-0.135254,-0.416992,0.858398,0
16600,-0.145508,-0.390137,0.842285,0
16620,-0.150879,-0.388184,0.827148,0
16640,-0.190918,-0.394531,0.806641,0
16660,-0.25293,-0.370117,0.775391,0
16680,-0.328613,-0.375488,0.772949,0
16700,-0.356934,-0.368164,0.775391,0
16720,-0.333496,-0.321289,0.772461,0
16740,-0.29248,-0.279785,0.757324,0
16760,-0.227051,-0.275391,0.775879,0
16780,-0.225586,-0.322754,0.79834,0
16800,-0.223145,-0.351074,0.775391,0
16820,-0.244141,-0.392578,0.777832,0
16840,-0.270508,-0.410645,0.835938,0
16860,-0.361328,-0.390137,0.928223,0
16880,-0.441895,-0.400391,0.929688,0
16900,-0.373047,-0.565918,0.876465,0
16920,-0.266602,-0.67041,0.818359,0
16940,-0.265625,-0.583496,0.76709,0
16960,-0.336914,-0.421387,0.761719,0
16980,-0.375977,-0.306641,0.776855,0
17000,-0.385742,-0.294922,0.801758,0
17020,-0.384766,-0.340332,0.816895,0
17040,-0.373535,-0.399414,0.815918,0
17060,-0.354492,-0.424805,0.808105,0
17080,-0.34375,-0.407227,0.811035,0
17100,-0.346191,-0.374512,0.811523,0
17120,-0.345215,-0.369141,0.802246,0
17140,-0.337891,-0.381836,0.802246,0
17160,-0.325195,-0.389648,0.795898,0
17180,-0.323242,-0.399414,0.793945,0
17200,-0.335938,-0.415039,0.786133,0
17220,-0.349121,-0.418945,0.786133,0
17240,-0.359375,-0.432129,0.772461,0
17260,-0.37207,-0.452637,0.773438,0
17280,-0.375488,-0.45752,0.774902,0
17300,-0.379883,-0.453613,0.774902,0
17320,-0.375488,-0.434082,0.78418,0
17340,-0.374512,-0.421875,0.781738,0
17360,-0.361816,-0.407715,0.782715,0
17380,-0.355469,-0.396484,0.780273,0
17400,-0.35498,-0.39502,0.776855,0
17420,-0.361816,-0.392578,0.779785,0
17440,-0.368652,-0.390137,0.780273,0
17460,-0.365234,-0.39502,0.78418,0
17480,-0.359863,-0.410645,0.791992,0
17500,-0.361816,-0.411621,0.791016,0
17520,-0.362305,-0.401855,0.781738,0
17540,-0.362305,-0.410156,0.777832,0
17560,-0.358887,-0.415039,0.776367,0
17580,-0.359863,-0.411133,0.78418,0
17600,-0.356934,-0.407227,0.773438,0
17620,-0.354004,-0.402344,0.776855,0
17640,-0.355469,-0.410645,0.777832,0
17660,-0.361328,-0.408691,0.77832,0
17680,-0.365234,-0.408691,0.776367,0
17700,-0.365234,-0.413086,0.774902,0
17720,-0.371582,-0.410156,0.784668,0
17740,-0.367676,-0.405762,0.779297,0
17760,-0.359863,-0.40625,0.777344,0
17780,-0.36377,-0.414551,0.773438,0
17800,-0.369629,-0.415039,0.775391,0
17820,-0.369141,-0.400879,0.780273,0
17840,-0.372559,-0.408691,0.774414,0
17850,-0.368164,-0.408691,0.770996,0
17870,-0.368164,-0.402832,0.777344,0
17890,-0.369141,-0.407227,0.773438,0
17910,-0.371582,-0.413086,0.77832,0
17930,-0.367676,-0.40918,0.776855,0
17950,-0.370117,-0.40918,0.771973,0
17970,-0.362305,-0.409668,0.774902,0
17990,-0.362793,-0.413574,0.777344,0
18010,-0.36377,-0.416992,0.785156,0
18030,-0.365234,-0.410645,0.783691,0
18050,-0.361328,-0.40918,0.78125,0
18070,-0.363281,-0.412598,0.774902,0
18090,-0.361816,-0.413086,0.772949,0
18110,-0.363281,-0.405273,0.771484,0
18130,-0.365234,-0.403809,0.773926,0
18150,-0.370605,-0.411133,0.773438,0
18170,-0.368652,-0.399902,0.780273,0
18190,-0.369629,-0.405762,0.77002,0
18210,-0.370605,-0.413086,0.776367,0
18230,-0.369141,-0.414551,0.770508,0
18250,-0.370605,-0.414062,0.766602,0
18270,-0.371094,-0.421875,0.769531,0
18290,-0.37207,-0.41748,0.773926,0
18310,-0.373535,-0.409668,0.768066,0
18330,-0.372559,-0.406738,0.779785,0
18350,-0.368164,-0.410156,0.775879,0
18370,-0.375488,-0.405273,0.775391,0
18390,-0.369141,-0.406738,0.778809,0
18410,-0.37207,-0.407227,0.785156,0
18430,-0.378906,-0.408691,0.77002,0
18450,-0.366699,-0.399902,0.776855,0
18470,-0.370117,-0.404297,0.777832,0
18490,-0.369141,-0.411133,0.778809,0
18510,-0.366699,-0.415039,0.783691,0
18530,-0.373047,-0.416504,0.769043,0
18550,-0.376465,-0.408203,0.776367,0
18570,-0.377441,-0.407227,0.775391,0
18590,-0.368652,-0.410156,0.767578,0
18610,-0.369629,-0.407715,0.772949,0
18630,-0.367188,-0.410156,0.772461,0
18650,-0.366211,-0.401367,0.770508,0
18670,-0.371582,-0.404297,0.77832,0
18690,-0.374023,-0.403809,0.784668,0
18710,-0.371094,-0.416992,0.775391,0
18730,-0.367676,-0.412598,0.776367,0
18750,-0.37207,-0.408203,0.77832,0
18770,-0.375977,-0.405273,0.773926,0
18790,-0.374512,-0.405762,0.77832,0
18810,-0.369629,-0.401367,0.773438,0
18830,-0.368164,-0.401855,0.772949,0
18850,-0.374023,-0.411133,0.779785,0
18870,-0.37207,-0.412109,0.776855,0
18890,-0.370117,-0.404297,0.780273,0
18910,-0.375488,-0.409668,0.777344,0
18930,-0.373047,-0.411621,0.770996,0
18950,-0.371582,-0.410156,0.765625,0
18970,-0.371094,-0.401855,0.779785,0
18990,-0.373535,-0.405273,0.773438,0
19010,-0.370605,-0.405273,0.775391,0
19030,-0.373047,-0.399902,0.770996,0
19050,-0.373047,-0.408691,0.772461,0
19070,-0.374023,-0.407715,0.770996,0
19090,-0.375977,-0.405762,0.776367,0
19110,-0.37207,-0.403809,0.769531,0
19130,-0.375488,-0.404785,0.777344,0
19150,-0.37207,-0.40625,0.775879,0
19170,-0.374023,-0.409668,0.776855,0
19190,-0.366211,-0.406738,0.779297,0
19210,-0.371582,-0.411621,0.775391,0
19230,-0.373047,-0.412109,0.775879,0
19250,-0.371582,-0.410156,0.774902,0
19270,-0.375,-0.415527,0.772949,0
19290,-0.370117,-0.411133,0.773926,0
19310,-0.374512,-0.408691,0.777344,0
19330,-0.37207,-0.407715,0.777344,0
19350,-0.371094,-0.40918,0.771484,0
19370,-0.371094,-0.412598,0.777832,0
19390,-0.368164,-0.415527,0.771973,0
19410,-0.370605,-0.413086,0.773926,0
19430,-0.37207,-0.415527,0.773926,0
19450,-0.374023,-0.416016,0.769043,0
19470,-0.370117,-0.414062,0.770996,0
19490,-0.374512,-0.411133,0.775879,0
19510,-0.374512,-0.416504,0.774414,0
19530,-0.377441,-0.40918,0.763184,0
19550,-0.369629,-0.40918,0.77002,0
19570,-0.370117,-0.416016,0.768555,0
19590,-0.371582,-0.416016,0.770508,0
19610,-0.375,-0.415527,0.773438,0
19630,-0.378418,-0.40918,0.775391,0
19650,-0.375488,-0.416992,0.769043,0
19670,-0.374512,-0.42041,0.766602,0
19690,-0.373535,-0.419922,0.771484,0
19710,-0.374512,-0.418945,0.773926,0
19730,-0.374512,-0.415527,0.771484,0
19750,-0.369629,-0.413574,0.767578,0
19770,-0.37207,-0.412598,0.770996,0
19790,-0.375977,-0.417969,0.773926,0
19810,-0.380371,-0.42041,0.771484,0
19830,-0.373047,-0.414551,0.766602,0
19850,-0.372559,-0.418945,0.770996,0
19870,-0.367188,-0.42041,0.76709,0
19890,-0.367188,-0.418457,0.77002,0
19910,-0.378418,-0.412598,0.76416,0
19930,-0.382324,-0.415039,0.765137,0
19950,-0.382812,-0.422852,0.770508,0
19970,-0.377441,-0.424805,0.765137,0
19990,-0.381348,-0.41748,0.766113,0
20010,-0.370117,-0.411133,0.770508,0
20030,-0.375,-0.402832,0.770996,0
20050,-0.377441,-0.415527,0.766602,0
20070,-0.367188,-0.428223,0.77002,0
20090,-0.376953,-0.416992,0.774902,0
20110,-0.371582,-0.40918,0.766602,0
20130,-0.373535,-0.410645,0.773926,0
20150,-0.384766,-0.429199,0.773926,0
20170,-0.368164,-0.417969,0.770996,0
20190,-0.371094,-0.414551,0.764648,0
20210,-0.378418,-0.41748,0.772949,0
20230,-0.37207,-0.414062,0.772461,0
20250,-0.378906,-0.40918,0.770996,0
20270,-0.374023,-0.415527,0.770508,0
20290,-0.375,-0.421875,0.768555,0
20310,-0.374512,-0.420898,0.766602,0
20330,-0.374023,-0.422363,0.768066,0
20350,-0.374023,-0.410156,0.769043,0
20370,-0.376465,-0.418457,0.765137,0
20390,-0.375977,-0.413574,0.773438,0
20410,-0.375488,-0.408691,0.76416,0
20430,-0.376953,-0.414062,0.765625,0
20450,-0.379395,-0.423828,0.769531,0
20470,-0.379395,-0.416504,0.77002,0
20490,-0.382812,-0.416016,0.768066,0
20510,-0.377441,-0.425293,0.762207,0
20530,-0.377441,-0.422363,0.774414,0
20550,-0.375,-0.40918,0.772949,0
20570,-0.37207,-0.414062,0.766113,0
20590,-0.371582,-0.415039,0.762695,0
20610,-0.374512,-0.411133,0.76416,0
20630,-0.375,-0.410645,0.766602,0
20650,-0.378906,-0.415527,0.771973,0
20670,-0.374023,-0.424316,0.768066,0
20690,-0.373047,-0.426758,0.765137,0
20710,-0.370117,-0.430664,0.768555,0
20730,-0.367188,-0.427246,0.766602,0
20750,-0.368652,-0.419922,0.766113,0
20770,-0.370605,-0.411133,0.768066,0
20790,-0.374023,-0.408691,0.76416,0
20810,-0.37793,-0.408691,0.768066,0
20830,-0.375488,-0.410156,0.772461,0
20850,-0.375977,-0.411133,0.768555,0
20870,-0.374512,-0.413086,0.774414,0
20890,-0.374023,-0.41748,0.77002,0
20910,-0.368652,-0.416016,0.763184,0
20930,-0.370117,-0.41748,0.775879,0
20950,-0.37207,-0.414551,0.777832,0
20970,-0.378418,-0.414551,0.775879,0
20990,-0.378906,-0.418457,0.773438,0
21010,-0.37793,-0.421875,0.774414,0
21030,-0.375488,-0.422852,0.768066,0
21050,-0.373047,-0.417969,0.767578,0
21070,-0.374512,-0.407715,0.771484,0
21090,-0.37793,-0.413086,0.776367,0
21110,-0.376465,-0.414062,0.775391,0
21130,-0.373535,-0.414551,0.775391,0
21150,-0.376953,-0.419434,0.782715,0
21170,-0.373047,-0.422363,0.770996,0
21190,-0.374512,-0.416504,0.773438,0
21210,-0.376465,-0.410645,0.76709,0
21230,-0.37793,-0.418945,0.776855,0
21250,-0.375977,-0.420898,0.777344,0
21270,-0.37793,-0.412598,0.769043,0
21280,-0.375,-0.412109,0.776367,0
21300,-0.371094,-0.412109,0.769531,0
21320,-0.373047,-0.414062,0.763184,0
21340,-0.380371,-0.411621,0.760254,0
21360,-0.376953,-0.414062,0.762695,0
21380,-0.381836,-0.412598,0.761719,0
21400,-0.376953,-0.420898,0.763184,0
21420,-0.374512,-0.416992,0.770996,0
21440,-0.367188,-0.415527,0.783203,0
21460,-0.362793,-0.424316,0.77002,0
21480,-0.365234,-0.416016,0.773438,0
21500,-0.37207,-0.415527,0.774902,0
21520,-0.382324,-0.415039,0.769043,0
21540,-0.38623,-0.411133,0.771484,0
21560,-0.377441,-0.415527,0.771973,0
21580,-0.377441,-0.417969,0.766113,0
21600,-0.376465,-0.412598,0.768555,0
21620,-0.378418,-0.409668,0.771973,0
21640,-0.376953,-0.413574,0.763672,0
21660,-0.369629,-0.410645,0.765625,0
21680,-0.374512,-0.429688,0.761719,0
21700,-0.370117,-0.427734,0.781738,0
21720,-0.372559,-0.422363,0.77002,0
21740,-0.375488,-0.420898,0.768555,0
21760,-0.375488,-0.410645,0.766113,0
21780,-0.374023,-0.408691,0.774414,0
21800,-0.374512,-0.40332,0.760742,0
21820,-0.376465,-0.40625,0.77002,0
21840,-0.378906,-0.404785,0.770996,0
21860,-0.37793,-0.414062,0.776367,0
21880,-0.372559,-0.429199,0.777832,0
21900,-0.375977,-0.424805,0.77832,0
21920,-0.371094,-0.429199,0.769531,0
21940,-0.373535,-0.426758,0.774902,0
21960,-0.378418,-0.425781,0.769531,0
21980,-0.374023,-0.404297,0.76709,0
22000,-0.375977,-0.405273,0.768555,0
22020,-0.376465,-0.405273,0.773926,0
22040,-0.378906,-0.411621,0.775391,0
22060,-0.370117,-0.413086,0.77002,0
22080,-0.371094,-0.416992,0.765137,0
22100,-0.370117,-0.421387,0.765137,0
22120,-0.375,-0.41748,0.768555,0
22140,-0.37207,-0.416016,0.774414,0
22160,-0.371094,-0.411621,0.770508,0
22180,-0.377441,-0.408691,0.76709,0
22200,-0.371094,-0.416016,0.771484,0
22220,-0.374512,-0.415039,0.771973,0
22240,-0.376465,-0.416504,0.765625,0
22260,-0.373535,-0.416504,0.771484,0
22280,-0.367188,-0.409668,0.763184,0
22300,-0.38916,-0.432129,0.763672,0
22320,-0.382812,-0.410645,0.776855,0
22340,-0.37207,-0.401367,0.771973,0
22360,-0.367676,-0.421875,0.774414,0
22380,-0.375488,-0.419434,0.774902,0
22400,-0.375977,-0.412109,0.771484,0
22420,-0.374023,-0.412598,0.769531,0
22440,-0.379883,-0.419434,0.770508,0
22460,-0.378906,-0.412598,0.769531,0
22480,-0.380859,-0.410156,0.770508,0
22500,-0.375488,-0.412598,0.766602,0
22520,-0.378418,-0.416016,0.77002,0
22540,-0.373535,-0.412109,0.772949,0
22560,-0.380371,-0.413574,0.767578,0
22580,-0.383301,-0.412109,0.76709,0
22600,-0.387207,-0.413086,0.770508,0
22620,-0.374023,-0.408203,0.770508,0
22640,-0.374023,-0.425293,0.768555,0
22660,-0.379883,-0.427734,0.769043,0
22680,-0.382812,-0.417969,0.771973,0
22700,-0.373535,-0.411133,0.768066,0
22720,-0.378906,-0.405762,0.772461,0
22740,-0.376465,-0.408691,0.770508,0
22760,-0.383789,-0.406738,0.779785,0
22780,-0.383789,-0.404297,0.770996,0
22800,-0.383301,-0.420898,0.764648,0
22820,-0.379395,-0.418945,0.768066,0
22840,-0.383301,-0.416992,0.76709,0
22860,-0.378418,-0.407715,0.769531,0
22880,-0.38623,-0.412109,0.765625,0
22900,-0.375,-0.416016,0.774414,0
22920,-0.374023,-0.40918,0.767578,0
22940,-0.37793,-0.40625,0.771484,0
22960,-0.379883,-0.418457,0.769531,0
22980,-0.375977,-0.402832,0.776367,0
23000,-0.373047,-0.40918,0.772461,0
23020,-0.379395,-0.418457,0.771973,0
23040,-0.378906,-0.413086,0.769043,0
23060,-0.375488,-0.405762,0.779785,0
23080,-0.370605,-0.40332,0.773926,0
23100,-0.383789,-0.419922,0.770508,0
23120,-0.381836,-0.418945,0.778809,0
23140,-0.36377,-0.395508,0.773926,0
23160,-0.381348,-0.42041,0.766602,0
23180,-0.381348,-0.414551,0.774902,0
23200,-0.377441,-0.396484,0.774902,0
23220,-0.375977,-0.407227,0.773926,0
23240,-0.372559,-0.416016,0.773438,0
23260,-0.381348,-0.416504,0.770996,0
23280,-0.37207,-0.414551,0.779297,0
23290,-0.362305,-0.40625,0.774414,0
23310,-0.38623,-0.429688,0.766113,0
23330,-0.384766,-0.408203,0.773926,0
23350,-0.368164,-0.401367,0.773438,0
23370,-0.370605,-0.409668,0.770508,0
23390,-0.379883,-0.413574,0.775391,0
23410,-0.378906,-0.408691,0.774414,0
23430,-0.374023,-0.407227,0.774902,0
23450,-0.374512,-0.414551,0.775879,0
23470,-0.375488,-0.413574,0.771484,0
23490,-0.372559,-0.412109,0.774902,0
23510,-0.375488,-0.416016,0.768066,0
23530,-0.379883,-0.418945,0.769043,0
23550,-0.379395,-0.40918,0.771484,0
23570,-0.375,-0.410645,0.763672,0
23590,-0.375977,-0.416504,0.769531,0
23610,-0.38623,-0.420898,0.76709,0
23630,-0.382812,-0.412598,0.779785,0
23650,-0.353027,-0.389648,0.763672,0
23670,-0.378906,-0.432617,0.763184,0
23690,-0.376953,-0.428711,0.771973,0
23710,-0.379395,-0.414551,0.766602,0
23730,-0.382324,-0.419434,0.762695,0
23750,-0.378418,-0.416992,0.768555,0
23770,-0.371094,-0.410645,0.771484,0
23790,-0.374023,-0.412109,0.776367,0
23810,-0.378906,-0.408203,0.777832,0
23830,-0.379395,-0.421875,0.767578,0
23850,-0.376465,-0.414551,0.764648,0
23870,-0.378418,-0.416016,0.76709,0
23890,-0.385254,-0.417969,0.770996,0
23910,-0.377441,-0.415039,0.768066,0
23930,-0.377441,-0.410645,0.768066,0
23950,-0.378906,-0.416992,0.763672,0
23970,-0.379883,-0.411621,0.768066,0
23990,-0.37793,-0.414062,0.772461,0
24010,-0.376465,-0.413086,0.770508,0
24030,-0.376465,-0.420898,0.772461,0
24050,-0.376953,-0.416504,0.771973,0
24070,-0.374023,-0.416504,0.762207,0
24090,-0.375488,-0.415039,0.76709,0
24110,-0.380859,-0.408691,0.772461,0
24130,-0.375,-0.41748,0.765137,0
24150,-0.368164,-0.418945,0.77002,0
24170,-0.377441,-0.421875,0.768555,0
24190,-0.380371,-0.417969,0.770996,0
24210,-0.381348,-0.413086,0.771484,0
24230,-0.380371,-0.408203,0.768066,0
24250,-0.381348,-0.414062,0.770996,0
24270,-0.375488,-0.415527,0.771484,0
24290,-0.378418,-0.412109,0.77002,0
24310,-0.37793,-0.415039,0.767578,0
24330,-0.375977,-0.41748,0.772949,0
24350,-0.373535,-0.415039,0.766602,0
24370,-0.379883,-0.416016,0.76709,0
24390,-0.371094,-0.419434,0.776367,0
24410,-0.365723,-0.40918,0.764648,0
24430,-0.393066,-0.427246,0.769043,0
24450,-0.37793,-0.404297,0.780762,0
24470,-0.376953,-0.414062,0.77002,0
24490,-0.369629,-0.414062,0.77002,0
24510,-0.374512,-0.40918,0.776855,0
24530,-0.376953,-0.415527,0.774414,0
24550,-0.37793,-0.419434,0.770996,0
24570,-0.375488,-0.415039,0.767578,0
24590,-0.375977,-0.415039,0.767578,0
24610,-0.378906,-0.418457,0.769043,0
24630,-0.376465,-0.418457,0.773438,0
24650,-0.374023,-0.410645,0.771973,0
24670,-0.380859,-0.413574,0.768066,0
24690,-0.37793,-0.415527,0.773438,0
24710,-0.380371,-0.411621,0.771973,0
24730,-0.376465,-0.414062,0.768066,0
24750,-0.379883,-0.415527,0.758301,0
24770,-0.376953,-0.417969,0.768066,0
24790,-0.376465,-0.410156,0.76709,0
24810,-0.374023,-0.413574,0.768066,0
24830,-0.378418,-0.418457,0.769043,0
24850,-0.377441,-0.415039,0.770508,0
24870,-0.387695,-0.413574,0.773926,0
24890,-0.382324,-0.416504,0.772949,0
24910,-0.356445,-0.398438,0.76709,0
24930,-0.376953,-0.4375,0.757324,0
24950,-0.382324,-0.421387,0.77002,0
24970,-0.381836,-0.412109,0.769043,0
24990,-0.380859,-0.416992,0.759277,0
25010,-0.377441,-0.415039,0.768555,0
25030,-0.380859,-0.411133,0.76709,0
25050,-0.37793,-0.41748,0.779297,0
25070,-0.375977,-0.413574,0.770508,0
25090,-0.374512,-0.415527,0.763672,0
25110,-0.375977,-0.412109,0.767578,0
25130,-0.379883,-0.411133,0.76123,0
25150,-0.375488,-0.413574,0.76709,0
25170,-0.376465,-0.40918,0.783203,0
25190,-0.376953,-0.413574,0.772461,0
25210,-0.373535,-0.412109,0.775391,0
25230,-0.379395,-0.407227,0.769043,0
25250,-0.370605,-0.410645,0.770996,0
25270,-0.378906,-0.416016,0.77002,0
25290,-0.379883,-0.40918,0.775391,0
25310,-0.373535,-0.406738,0.774414,0
25330,-0.374023,-0.406738,0.777344,0
25350,-0.376465,-0.408203,0.774414,0
25370,-0.376465,-0.410156,0.776367,0
25390,-0.373535,-0.411621,0.768066,0
25410,-0.375977,-0.410156,0.772949,0
25430,-0.378418,-0.408691,0.770508,0
25450,-0.374023,-0.408203,0.769531,0
25470,-0.373535,-0.414062,0.772949,0
25490,-0.373535,-0.410645,0.770996,0
25510,-0.369629,-0.40332,0.773438,0
25530,-0.376465,-0.40625,0.775879,0
25550,-0.373047,-0.411621,0.773926,0
25570,-0.37207,-0.411133,0.771973,0
25590,-0.372559,-0.406738,0.774902,0
25610,-0.375977,-0.409668,0.771484,0
25630,-0.377441,-0.40918,0.775391,0
25650,-0.378906,-0.411133,0.777344,0
25670,-0.372559,-0.408203,0.772949,0
25690,-0.375488,-0.415039,0.773438,0
25710,-0.377441,-0.409668,0.769531,0
25730,-0.371582,-0.405762,0.77002,0
25750,-0.373535,-0.40625,0.770508,0
25770,-0.374512,-0.413574,0.776367,0
25790,-0.375,-0.411621,0.770996,0
25810,-0.373535,-0.413086,0.769531,0
25830,-0.373047,-0.408691,0.779297,0
25850,-0.373047,-0.411621,0.773438,0
25870,-0.37207,-0.405273,0.770996,0
25890,-0.371582,-0.408691,0.777344,0
25910,-0.381836,-0.413086,0.77832,0
25930,-0.372559,-0.412598,0.780762,0
25950,-0.373535,-0.414062,0.766113,0
25970,-0.375977,-0.416504,0.774414,0
25990,-0.379395,-0.409668,0.781738,0
26010,-0.380371,-0.403809,0.775879,0
26030,-0.375977,-0.405273,0.770508,0
26050,-0.375488,-0.414551,0.770508,0
26070,-0.375,-0.415527,0.775879,0
26090,-0.376953,-0.415527,0.768555,0
26110,-0.375977,-0.416504,0.770996,0
26130,-0.377441,-0.415039,0.775391,0
26150,-0.375488,-0.411133,0.773926,0
26170,-0.369629,-0.414551,0.766602,0
26190,-0.375488,-0.40918,0.779785,0
26210,-0.376465,-0.407715,0.775391,0
26230,-0.375,-0.412598,0.771973,0
26250,-0.37207,-0.414062,0.768555,0
26270,-0.373535,-0.416992,0.769531,0
26290,-0.375488,-0.415527,0.77002,0
26310,-0.375488,-0.408203,0.764648,0
26330,-0.376953,-0.40918,0.776367,0
26350,-0.380859,-0.408203,0.770508,0
26370,-0.373535,-0.412109,0.776855,0
26390,-0.378418,-0.411621,0.77002,0
26410,-0.378906,-0.421387,0.771973,0
26430,-0.374512,-0.41748,0.774414,0
26450,-0.369629,-0.412598,0.769531,0
26470,-0.374023,-0.412109,0.775391,0
26490,-0.373535,-0.416016,0.775391,0
26510,-0.374512,-0.411133,0.770508,0
26530,-0.375,-0.411133,0.771484,0
26550,-0.376465,-0.410156,0.76709,0
26570,-0.372559,-0.418457,0.774902,0
26590,-0.375,-0.412109,0.777344,0
26610,-0.376953,-0.416992,0.774902,0
26630,-0.374512,-0.407227,0.770996,0
26650,-0.374512,-0.409668,0.772949,0
26670,-0.37207,-0.411621,0.772461,0
26690,-0.375488,-0.409668,0.773438,0
26710,-0.370605,-0.412109,0.772461,0
26720,-0.371582,-0.413574,0.767578,0
26740,-0.375,-0.408203,0.774902,0
26760,-0.371094,-0.413086,0.773926,0
26780,-0.37793,-0.416992,0.771973,0
26800,-0.373535,-0.410156,0.773926,0
26820,-0.375488,-0.410156,0.769531,0
26840,-0.377441,-0.414062,0.771973,0
26860,-0.374512,-0.410645,0.773926,0
26880,-0.374023,-0.410645,0.768555,0
26900,-0.373047,-0.413574,0.77002,0
26920,-0.374512,-0.412109,0.772461,0
26940,-0.380859,-0.406738,0.775391,0
26960,-0.372559,-0.41748,0.772461,0
26980,-0.373535,-0.423828,0.765137,0
27000,-0.378418,-0.419434,0.774414,0
27020,-0.376953,-0.410645,0.77002,0
27040,-0.379883,-0.408203,0.769043,0
27060,-0.380371,-0.408203,0.766113,0
27080,-0.381348,-0.41748,0.768066,0
27100,-0.376953,-0.410156,0.770508,0
27120,-0.377441,-0.413086,0.771484,0
27140,-0.37793,-0.417969,0.774414,0
27160,-0.37207,-0.418457,0.768555,0
27180,-0.373047,-0.412109,0.772949,0
27200,-0.371582,-0.412598,0.768555,0
27220,-0.375,-0.414551,0.765137,0
27240,-0.380371,-0.408691,0.773926,0
27260,-0.375488,-0.415039,0.772949,0
27280,-0.374512,-0.418945,0.773926,0
27300,-0.373535,-0.416992,0.774414,0
27320,-0.376953,-0.416016,0.768066,0
27340,-0.375488,-0.414062,0.772949,0
27360,-0.381836,-0.413086,0.776855,0
27380,-0.374023,-0.412598,0.773926,0
27400,-0.375488,-0.413086,0.771484,0
27420,-0.376953,-0.418945,0.76416,0
27440,-0.373535,-0.414062,0.769043,0
27460,-0.37793,-0.411621,0.774414,0
27480,-0.374512,-0.42041,0.768066,0
27500,-0.378906,-0.421875,0.767578,0
27520,-0.375488,-0.417969,0.771484,0
27540,-0.375977,-0.411621,0.772461,0
27560,-0.374023,-0.414551,0.772461,0
27580,-0.378418,-0.410156,0.772461,0
27600,-0.378906,-0.411621,0.77002,0
27620,-0.372559,-0.414551,0.770508,0
27640,-0.378906,-0.415527,0.765625,0
27660,-0.383789,-0.40918,0.76709,0
27680,-0.375,-0.413574,0.77002,0
27700,-0.374512,-0.420898,0.767578,0
27720,-0.376465,-0.416504,0.771484,0
27740,-0.376953,-0.412598,0.77002,0
27760,-0.374512,-0.41748,0.767578,0
27780,-0.375,-0.419922,0.766602,0
27800,-0.375,-0.415527,0.769043,0
27820,-0.377441,-0.411621,0.768066,0
27840,-0.378906,-0.416504,0.769531,0
27860,-0.376953,-0.416016,0.774902,0
27880,-0.376465,-0.409668,0.76709,0
27900,-0.375977,-0.414551,0.769531,0
27920,-0.376953,-0.416992,0.770996,0
27940,-0.375488,-0.412109,0.772949,0
27960,-0.381348,-0.414062,0.774902,0
27980,-0.379395,-0.410156,0.775879,0
28000,-0.378418,-0.419922,0.769043,0
28020,-0.373535,-0.42334,0.765137,0
28040,-0.373047,-0.416016,0.773438,0
28060,-0.37793,-0.418457,0.766602,0
28080,-0.381836,-0.408691,0.772949,0
28100,-0.378906,-0.411133,0.766602,0
28120,-0.376465,-0.417969,0.772461,0
28140,-0.37793,-0.419434,0.77002,0
28160,-0.379395,-0.416992,0.769043,0
28180,-0.376465,-0.410645,0.767578,0
28200,-0.374023,-0.416992,0.77002,0
28220,-0.374512,-0.414062,0.770996,0
28240,-0.374023,-0.414551,0.76709,0
28260,-0.374023,-0.411621,0.772949,0
28280,-0.381348,-0.412598,0.775879,0
28300,-0.380859,-0.418457,0.76416,0
28320,-0.376465,-0.416992,0.771973,0
28340,-0.376953,-0.418457,0.772461,0
28360,-0.375977,-0.42041,0.771484,0
28380,-0.378906,-0.413574,0.774902,0
28400,-0.376953,-0.407715,0.769043,0
28420,-0.379395,-0.413574,0.770996,0
28440,-0.380859,-0.416992,0.773926,0
28460,-0.372559,-0.411621,0.773926,0
28480,-0.375488,-0.420898,0.769043,0
28500,-0.374023,-0.419922,0.766602,0
28520,-0.37793,-0.412109,0.772461,0
28540,-0.376465,-0.410156,0.772949,0
28560,-0.373535,-0.419434,0.773438,0
28580,-0.368652,-0.416016,0.770996,0
28600,-0.378418,-0.414062,0.768555,0
28620,-0.374023,-0.410156,0.771484,0
28640,-0.379395,-0.414551,0.772949,0
28660,-0.378906,-0.414551,0.774902,0
28680,-0.373047,-0.410645,0.769531,0
28700,-0.376465,-0.416504,0.768066,0
28710,-0.378418,-0.419434,0.766113,0
28730,-0.378418,-0.407715,0.765137,0
28750,-0.374023,-0.412109,0.77002,0
28770,-0.379883,-0.418457,0.770996,0
28790,-0.378906,-0.416992,0.772949,0
28810,-0.375488,-0.411621,0.776367,0
28830,-0.373535,-0.410156,0.775391,0
28850,-0.375488,-0.416504,0.768555,0
28870,-0.374512,-0.416504,0.771484,0
28890,-0.373047,-0.411621,0.768066,0
28910,-0.378418,-0.413574,0.77002,0
28930,-0.376953,-0.416016,0.76709,0
28950,-0.378418,-0.406738,0.776855,0
28970,-0.379395,-0.410645,0.770996,0
28990,-0.372559,-0.427246,0.765625,0
29010,-0.377441,-0.419922,0.764648,0
29030,-0.374512,-0.414551,0.770508,0
29050,-0.375488,-0.414062,0.769531,0
29070,-0.376953,-0.419434,0.774902,0
29090,-0.380859,-0.414551,0.76709,0
29110,-0.37207,-0.415527,0.770508,0
29130,-0.378906,-0.413086,0.766602,0
29150,-0.377441,-0.420898,0.764648,0
29170,-0.37793,-0.411621,0.770996,0
29190,-0.374023,-0.404297,0.773926,0
29210,-0.375488,-0.405762,0.772949,0
29230,-0.367676,-0.411621,0.773438,0
29250,-0.379883,-0.412109,0.774902,0
29270,-0.378418,-0.407715,0.770996,0
29290,-0.380371,-0.415527,0.765137,0
29310,-0.37793,-0.416504,0.770508,0
29330,-0.375977,-0.412598,0.76416,0
29350,-0.371582,-0.410645,0.774414,0
29370,-0.373047,-0.405762,0.77002,0
29390,-0.376953,-0.399414,0.772949,0
29410,-0.374512,-0.409668,0.774414,0
29430,-0.375488,-0.416504,0.776855,0
29450,-0.376465,-0.414062,0.771484,0
29470,-0.373047,-0.412598,0.773926,0
29490,-0.376953,-0.412598,0.764648,0
29510,-0.378906,-0.407715,0.772949,0
29530,-0.364746,-0.40625,0.774902,0
29550,-0.370605,-0.408691,0.768555,0
29570,-0.376465,-0.410156,0.778809,0
29590,-0.378906,-0.406738,0.773438,0
29610,-0.379395,-0.40625,0.772461,0
29630,-0.377441,-0.412109,0.777832,0
29650,-0.378418,-0.411133,0.768066,0
29670,-0.376953,-0.40918,0.77002,0
29690,-0.373047,-0.407227,0.772949,0
29710,-0.375977,-0.411133,0.771973,0
29730,-0.375488,-0.410156,0.774902,0
29750,-0.374512,-0.404785,0.774902,0
29770,-0.376953,-0.407715,0.777832,0
29790,-0.376465,-0.412109,0.766113,0
29810,-0.382324,-0.411133,0.777832,0
29830,-0.374512,-0.402832,0.766113,0
29850,-0.373047,-0.408203,0.765625,0
29870,-0.373047,-0.404785,0.77002,0
29890,-0.375488,-0.405273,0.774414,0
29910,-0.378906,-0.407715,0.782715,0
29930,-0.380371,-0.411621,0.774414,0
29950,-0.371582,-0.416016,0.757812,0
29970,-0.373535,-0.407227,0.770508,0
29990,-0.376465,-0.409668,0.770996,0
30010,-0.379883,-0.405762,0.774902,0
30030,-0.378906,-0.40625,0.773926,0
30050,-0.37793,-0.406738,0.774414,0
30070,-0.375488,-0.414551,0.777344,0
30090,-0.377441,-0.409668,0.773438,0
30110,-0.370117,-0.407715,0.770996,0
30130,-0.373535,-0.411133,0.774414,0
30150,-0.37207,-0.414551,0.765137,0
30170,-0.374023,-0.40625,0.773926,0
30190,-0.376953,-0.400879,0.776855,0
30210,-0.37793,-0.404297,0.773438,0
30230,-0.379883,-0.410645,0.775879,0
30250,-0.373047,-0.412598,0.772461,0
30270,-0.372559,-0.414551,0.770508,0
30290,-0.375,-0.415527,0.773926,0
30310,-0.373047,-0.410156,0.772949,0
30330,-0.375977,-0.407715,0.774902,0
30350,-0.376465,-0.406738,0.775391,0
30370,-0.376465,-0.405762,0.773438,0
30390,-0.373047,-0.40625,0.770508,0
30410,-0.371094,-0.410156,0.773438,0
30430,-0.372559,-0.416504,0.774902,0
30450,-0.375488,-0.413574,0.772461,0
30470,-0.371094,-0.407715,0.771973,0
30490,-0.374023,-0.414062,0.775391,0
30510,-0.375977,-0.412598,0.774902,0
30530,-0.373535,-0.408203,0.775391,0
30550,-0.371582,-0.409668,0.775391,0
30570,-0.37793,-0.413086,0.77002,0
30590,-0.376465,-0.413086,0.773438,0
30610,-0.375,-0.410156,0.774902,0
30630,-0.371094,-0.409668,0.775391,0
30650,-0.375488,-0.410645,0.772949,0
30670,-0.375977,-0.410156,0.774414,0
30690,-0.375,-0.411621,0.766602,0
30710,-0.372559,-0.416504,0.770996,0
30730,-0.375,-0.413086,0.771973,0
30750,-0.373047,-0.413086,0.77832,0
30770,-0.37207,-0.412109,0.773438,0
30790,-0.37207,-0.413086,0.770996,0
30810,-0.375,-0.415039,0.773926,0
30830,-0.373047,-0.410645,0.772461,0
30850,-0.368164,-0.409668,0.771484,0
30870,-0.371582,-0.414062,0.777344,0
30890,-0.383301,-0.410645,0.780762,0
30910,-0.375,-0.413086,0.771973,0
30930,-0.370117,-0.41748,0.771484,0
30950,-0.370117,-0.41748,0.765137,0
30970,-0.376465,-0.411133,0.777344,0
30990,-0.376953,-0.40625,0.773438,0
31010,-0.376465,-0.409668,0.775879,0
31030,-0.375488,-0.414062,0.769043,0
31050,-0.370605,-0.414062,0.770996,0
31070,-0.370605,-0.414062,0.772461,0
31090,-0.374512,-0.41748,0.771973,0
31110,-0.374512,-0.414551,0.77002,0
31130,-0.373047,-0.411621,0.770996,0
31150,-0.375488,-0.415527,0.76709,0
31170,-0.373047,-0.416504,0.770996,0
31190,-0.376953,-0.40625,0.776855,0
31210,-0.375,-0.411133,0.768555,0
31230,-0.37793,-0.419434,0.773438,0
31250,-0.374023,-0.417969,0.769531,0
31270,-0.371094,-0.413086,0.770996,0
31290,-0.378906,-0.414551,0.76709,0
31310,-0.377441,-0.416504,0.764648,0
31330,-0.375,-0.411621,0.768555,0
31350,-0.375,-0.411133,0.76709,0
31370,-0.378418,-0.416016,0.767578,0
31390,-0.373535,-0.411621,0.769043,0
31410,-0.370117,-0.414551,0.770996,0
31430,-0.375,-0.41748,0.770996,0
31450,-0.377441,-0.41748,0.766602,0
31470,-0.372559,-0.414551,0.773438,0
31490,-0.370605,-0.413086,0.768555,0
31510,-0.37207,-0.414062,0.771484,0
31530,-0.375977,-0.414551,0.772461,0
31550,-0.374512,-0.411621,0.777832,0
31570,-0.374512,-0.411621,0.770508,0
31590,-0.37207,-0.41748,0.768066,0
31610,-0.376953,-0.41748,0.773926,0
31630,-0.371094,-0.412109,0.766602,0
31650,-0.375488,-0.415039,0.767578,0
31670,-0.375977,-0.414062,0.772461,0
31690,-0.375977,-0.41748,0.77002,0
31710,-0.370117,-0.416504,0.772949,0
31730,-0.37207,-0.417969,0.774902,0
31750,-0.375,-0.414062,0.772461,0
31770,-0.375977,-0.414062,0.777344,0
31790,-0.37793,-0.412598,0.769043,0
31810,-0.374512,-0.411133,0.770508,0
31830,-0.378418,-0.412598,0.77002,0
31850,-0.373535,-0.412598,0.775879,0
31870,-0.376953,-0.41748,0.768555,0
31890,-0.374023,-0.414551,0.769043,0
31910,-0.374512,-0.410645,0.770996,0
31930,-0.37793,-0.40918,0.774902,0
31950,-0.373535,-0.42041,0.773926,0
31970,-0.370605,-0.416992,0.77002,0
31990,-0.370605,-0.416504,0.770508,0
32010,-0.376953,-0.412109,0.771484,0
32030,-0.381836,-0.410156,0.773438,0
32050,-0.375488,-0.409668,0.773438,0
32070,-0.374023,-0.412109,0.775879,0
32090,-0.374512,-0.416992,0.768555,0
32110,-0.375488,-0.417969,0.769531,0
32130,-0.371582,-0.414062,0.770508,0
32140,-0.370117,-0.422852,0.771484,0
32160,-0.373047,-0.425781,0.777344,0
32180,-0.375,-0.415527,0.773926,0
32200,-0.372559,-0.408203,0.77002,0
32220,-0.376953,-0.412598,0.764648,0
32240,-0.376953,-0.414551,0.770508,0
32260,-0.380859,-0.410645,0.770996,0
32280,-0.375488,-0.413086,0.77002,0
32300,-0.375977,-0.413086,0.768555,0
32320,-0.376953,-0.419434,0.76709,0
32340,-0.375977,-0.415039,0.765137,0
32360,-0.377441,-0.418945,0.768555,0
32380,-0.378906,-0.416504,0.773926,0
32400,-0.373047,-0.415039,0.771484,0
32420,-0.374512,-0.412109,0.769531,0
32440,-0.370117,-0.422363,0.765137,0
32460,-0.374023,-0.422363,0.76709,0
32480,-0.375488,-0.415039,0.769043,0
32500,-0.378418,-0.417969,0.770508,0
32520,-0.377441,-0.42041,0.773438,0
32540,-0.380859,-0.416504,0.771484,0
32560,-0.379883,-0.414062,0.76709,0
32580,-0.375488,-0.415039,0.76709,0
32600,-0.376953,-0.417969,0.772949,0
32620,-0.375977,-0.415039,0.770996,0
32640,-0.373535,-0.416016,0.770996,0
32660,-0.375,-0.422363,0.769043,0
32680,-0.378906,-0.416504,0.764648,0
32700,-0.375977,-0.407715,0.765137,0
32720,-0.374023,-0.416504,0.772949,0
32740,-0.374512,-0.41748,0.774414,0
32760,-0.375,-0.414551,0.768066,0
32780,-0.374512,-0.413086,0.774902,0
32800,-0.37793,-0.420898,0.770996,0
32820,-0.379883,-0.414551,0.770996,0
32840,-0.377441,-0.412109,0.765137,0
32860,-0.37793,-0.416016,0.776855,0
32880,-0.375488,-0.415527,0.77002,0
32900,-0.375977,-0.415527,0.765137,0
32920,-0.37207,-0.408691,0.775391,0
32940,-0.374512,-0.411133,0.762207,0
32960,-0.378418,-0.41748,0.774414,0
32980,-0.380371,-0.40918,0.775879,0
33000,-0.375488,-0.410156,0.770996,0
33020,-0.37207,-0.424316,0.768555,0
33040,-0.375977,-0.436523,0.772461,0
33060,-0.371582,-0.488281,0.768555,0
33080,-0.411621,-0.61084,0.815918,0
33100,-0.401367,-0.650391,0.791992,0
33120,-0.384766,-0.535156,0.819824,0
33140,-0.433594,-0.405762,0.814453,0
33160,-0.411621,-0.475098,0.781738,0
33180,-0.421875,-0.593262,0.890137,0
33200,-0.358398,-0.494141,0.943848,0
33220,-0.20166,-0.508789,0.913086,0
33240,-0.165039,-0.535645,0.858887,0
33260,-0.134277,-0.557129,0.853027,0
33280,-0.0629883,-0.557617,0.869141,0
33300,-0.0649414,-0.521973,0.898926,0
33320,0.0126953,-0.470215,0.875977,0
33340,0.0527344,-0.430176,0.870117,0
33360,0.131348,-0.441895,0.851562,0
33380,0.223633,-0.479492,0.797852,0
33400,0.258301,-0.476562,0.802246,0
33420,0.254395,-0.453613,0.795898,0
33440,0.28125,-0.432129,0.727539,0
33460,0.343262,-0.4375,0.705566,0
33480,0.340332,-0.4375,0.693848,0
33500,0.368652,-0.410156,0.682129,0
33520,0.414551,-0.42627,0.63623,0
33540,0.429199,-0.418457,0.626953,0
33560,0.442871,-0.397949,0.612305,0
33580,0.459473,-0.389648,0.58252,0
33600,0.48877,-0.386719,0.572754,0
33620,0.5,-0.379395,0.541504,0
33640,0.513672,-0.382812,0.524414,0
33660,0.560059,-0.413086,0.48877,0
33680,0.582031,-0.415039,0.51416,0
33700,0.587402,-0.406738,0.498047,0
33720,0.625,-0.434082,0.468262,0
33740,0.625,-0.438477,0.479492,0
33760,0.592773,-0.416992,0.48291,0
33780,0.567383,-0.400391,0.486328,0
33800,0.504395,-0.402344,0.498047,0
33820,0.480469,-0.400391,0.47998,0
33840,0.524902,-0.429199,0.457031,0
33860,0.508789,-0.402832,0.491699,0
33880,0.535645,-0.387695,0.506348,0
33900,0.581055,-0.397461,0.501953,0
33920,0.620117,-0.411133,0.499512,0
33940,0.629883,-0.42041,0.499512,0
33960,0.631836,-0.430176,0.491211,0
33980,0.64209,-0.42334,0.506348,0
34000,0.672363,-0.406738,0.52002,0
34020,0.686523,-0.407227,0.498047,0
34040,0.695801,-0.413086,0.503418,0
34060,0.674805,-0.417969,0.510254,0
34080,0.669434,-0.418945,0.522461,0
34100,0.665039,-0.424316,0.520996,0
34120,0.679199,-0.425781,0.531738,0
34130,0.660645,-0.413086,0.541016,0
34150,0.660156,-0.418457,0.551758,0
34170,0.664062,-0.429199,0.549316,0
34190,0.660645,-0.432617,0.552734,0
34210,0.650879,-0.43457,0.557129,0
34230,0.633301,-0.439941,0.561523,0
34250,0.627441,-0.435547,0.554199,0
34270,0.62207,-0.432617,0.552246,0
34290,0.615234,-0.436523,0.556641,0
34310,0.614258,-0.433105,0.549805,0
34330,0.600098,-0.417969,0.541016,0
34350,0.608887,-0.428223,0.544434,0
34370,0.597656,-0.416504,0.545898,0
34390,0.604492,-0.418945,0.54834,0
34410,0.590332,-0.407715,0.546387,0
34430,0.563477,-0.393555,0.538574,0
34450,0.525391,-0.393555,0.534668,0
34470,0.46875,-0.383789,0.53418,0
34490,0.373535,-0.339844,0.564941,0
34510,0.364746,-0.340332,0.54541,0
34530,0.391602,-0.327637,0.538086,0
34550,0.435547,-0.293945,0.54248,0
34570,0.463867,-0.258301,0.565918,0
34590,0.487305,-0.265137,0.550781,0
34610,0.48291,-0.337402,0.598633,0
34630,0.480957,-0.400879,0.641113,0
34650,0.455566,-0.431152,0.65918,0
34670,0.400391,-0.425293,0.685547,0
34690,0.382812,-0.429199,0.753418,0
34710,0.374512,-0.471191,0.763184,0
34730,0.365234,-0.51123,0.811035,0
34750,0.32959,-0.535156,0.851562,0
34770,0.266113,-0.501953,0.811523,0
34790,0.236328,-0.510254,0.791992,0
34810,0.186035,-0.481445,0.789062,0
34830,0.106445,-0.444824,0.901367,0
34850,0.0893555,-0.464844,0.936523,0
34870,-0.00146484,-0.39502,0.88916,0
34890,-0.0605469,-0.355469,0.912598,0
34910,-0.0981445,-0.35791,0.938477,0
34930,-0.0883789,-0.418945,0.880371,0
34950,-0.0883789,-0.444336,0.916016,0
34970,-0.203613,-0.438477,0.90625,0
34990,-0.293945,-0.345703,0.922852,0
35010,-0.237305,-0.354492,0.878418,0
35030,-0.223145,-0.32373,0.820801,0
35050,-0.297363,-0.284668,0.851074,0
35070,-0.370117,-0.226074,0.855957,0
35090,-0.393066,-0.273926,0.855469,0
35110,-0.379395,-0.335938,0.852051,0
35130,-0.407715,-0.418945,0.901855,0
35150,-0.441895,-0.429688,0.95752,0
35170,-0.400879,-0.29248,0.90918,0
35190,-0.321289,-0.276367,0.841797,0
35210,-0.398438,-0.249023,0.810059,0
35230,-0.410645,-0.255371,0.778809,0
35250,-0.380371,-0.240234,0.766602,0
35270,-0.388184,-0.205078,0.793457,0
35290,-0.409668,-0.208984,0.84082,0
35310,-0.387695,-0.237305,0.84668,0
35330,-0.356934,-0.277832,0.855957,0
35350,-0.35791,-0.281738,0.821777,0
35370,-0.353516,-0.290039,0.815918,0
35390,-0.35791,-0.306152,0.81543,0
35410,-0.367188,-0.299316,0.818848,0
35430,-0.370605,-0.303711,0.823242,0
35450,-0.375,-0.296875,0.831543,0
35470,-0.379395,-0.304199,0.827148,0
35490,-0.376953,-0.298828,0.82373,0
35510,-0.373047,-0.294922,0.820801,0
35530,-0.373535,-0.291992,0.817871,0
35550,-0.369629,-0.279785,0.816406,0
35570,-0.364746,-0.262695,0.822266,0
35590,-0.351074,-0.27002,0.839844,0
35610,-0.353027,-0.265137,0.841797,0
35630,-0.355957,-0.268066,0.835938,0
35650,-0.364746,-0.277344,0.833984,0
35670,-0.369141,-0.286133,0.826172,0
35690,-0.373535,-0.282715,0.82959,0
35710,-0.375488,-0.269043,0.833496,0
35730,-0.369141,-0.268555,0.830078,0
35750,-0.371582,-0.272949,0.821777,0
35770,-0.37207,-0.277344,0.83252,0
35790,-0.376953,-0.263672,0.825684,0
35810,-0.369629,-0.262695,0.825195,0
35830,-0.366211,-0.275391,0.825684,0
35850,-0.371582,-0.274902,0.825195,0
35870,-0.370605,-0.282715,0.820801,0
35890,-0.373535,-0.285645,0.81543,0
35910,-0.374512,-0.281738,0.827148,0
35930,-0.373535,-0.282227,0.822266,0
35950,-0.371582,-0.283691,0.828613,0
35970,-0.377441,-0.289551,0.822754,0
35990,-0.374023,-0.273438,0.82666,0
36010,-0.375,-0.27002,0.833984,0
36030,-0.375977,-0.276367,0.81543,0
36050,-0.373047,-0.277344,0.824707,0
36070,-0.367188,-0.283203,0.819336,0
36090,-0.374512,-0.282227,0.822754,0
36110,-0.374512,-0.27832,0.824219,0
36130,-0.375977,-0.280762,0.825195,0
36150,-0.366699,-0.286621,0.820312,0
36170,-0.375,-0.274414,0.818848,0
36190,-0.380859,-0.286133,0.829102,0
36210,-0.374512,-0.290527,0.825195,0
36230,-0.371094,-0.276855,0.824707,0
36250,-0.372559,-0.284668,0.818359,0
36270,-0.375,-0.282715,0.817871,0
36290,-0.375977,-0.279785,0.820312,0
36310,-0.376953,-0.27832,0.825195,0
36330,-0.37793,-0.283691,0.82373,0
36350,-0.381836,-0.280273,0.822266,0
36370,-0.373047,-0.280762,0.820801,0
36390,-0.379395,-0.282715,0.814453,0
36410,-0.37793,-0.277832,0.825195,0
36430,-0.375977,-0.272461,0.820801,0
36450,-0.379883,-0.272949,0.828613,0
36470,-0.378906,-0.282227,0.822754,0
36490,-0.380859,-0.282715,0.818848,0
36510,-0.37207,-0.283691,0.827637,0
36530,-0.374023,-0.285645,0.824219,0
36550,-0.372559,-0.286133,0.82959,0
36570,-0.37793,-0.280762,0.827637,0
36590,-0.37207,-0.279297,0.82666,0
36610,-0.371582,-0.285645,0.837891,0
36630,-0.37793,-0.30127,0.852051,0
36650,-0.390625,-0.365234,0.842285,0
36670,-0.40332,-0.398926,0.816895,0
36690,-0.450195,-0.246094,0.905762,0
36710,-0.459961,-0.19043,0.929199,0
36730,-0.480469,-0.149902,0.825195,0
36750,-0.54248,-0.33252,0.917969,0
36770,-0.472168,-0.453613,0.992676,0
36790,-0.211426,-0.649902,0.999023,0
36810,-0.0532227,-0.501953,1.04932,0
36830,0.00244141,-0.387207,1.04785,0
36850,0.0820312,-0.339355,0.961914,0
36870,0.100098,-0.312012,0.926758,0
36890,0.135254,-0.383789,0.923828,0
36910,0.20752,-0.458984,0.876953,0
36930,0.224121,-0.42334,0.819824,0
36950,0.216797,-0.402344,0.800781,0
36970,0.245117,-0.367188,0.769531,0
36990,0.27832,-0.366699,0.726074,0
37010,0.249023,-0.360352,0.694824,0
37030,0.282715,-0.337891,0.697266,0
37050,0.317871,-0.349609,0.680176,0
37070,0.319824,-0.363281,0.659668,0
37090,0.319824,-0.367676,0.648438,0
37110,0.348633,-0.381348,0.646973,0
37130,0.333496,-0.405273,0.666016,0
37150,0.32666,-0.419922,0.63623,0
37170,0.34375,-0.460449,0.630859,0
37190,0.336914,-0.439941,0.638672,0
37210,0.341797,-0.450195,0.626465,0
37230,0.333984,-0.417969,0.603516,0
37250,0.307617,-0.444824,0.600098,0
37270,0.320312,-0.439453,0.616699,0
37290,0.303711,-0.464844,0.614258,0
37310,0.302246,-0.464355,0.619629,0
37330,0.34375,-0.484863,0.614258,0
37350,0.359863,-0.51123,0.631348,0
37370,0.371094,-0.525391,0.637695,0
37390,0.38916,-0.51709,0.648438,0
37410,0.393555,-0.508301,0.660645,0
37430,0.388672,-0.515137,0.65918,0
37450,0.387695,-0.502441,0.668945,0
37470,0.404297,-0.486328,0.694824,0
37490,0.411621,-0.504883,0.688477,0
37510,0.401855,-0.508301,0.681152,0
37530,0.400879,-0.498047,0.700195,0
37550,0.406738,-0.498047,0.704102,0
37560,0.398926,-0.504883,0.685059,0
37580,0.385742,-0.50293,0.676758,0
37600,0.384766,-0.504395,0.677246,0
37620,0.376465,-0.50293,0.691895,0
37640,0.370117,-0.499023,0.686035,0
37670,0.36084,-0.497559,0.720215,0
37690,0.345703,-0.50293,0.715332,0
37710,0.345703,-0.502441,0.718262,0
37730,0.350098,-0.497559,0.713379,0
37750,0.367188,-0.48584,0.700684,0
37770,0.371582,-0.47168,0.715332,0
37790,0.365723,-0.474609,0.692871,0
37810,0.354492,-0.492676,0.710449,0
37830,0.321289,-0.504883,0.716797,0
37850,0.312012,-0.50293,0.726562,0
37870,0.307129,-0.498535,0.715332,0
37890,0.310059,-0.493164,0.72998,0
37910,0.3125,-0.484375,0.738281,0
37930,0.334473,-0.483887,0.722168,0
37950,0.344238,-0.473633,0.717285,0
37970,0.353027,-0.486328,0.723633,0
37990,0.338867,-0.491211,0.712402,0
38010,0.335449,-0.48877,0.717285,0
38030,0.335938,-0.489258,0.712402,0
38050,0.3125,-0.490723,0.725586,0
38070,0.297852,-0.498535,0.719727,0
38090,0.311523,-0.512695,0.716309,0
38110,0.319336,-0.500488,0.726074,0
38130,0.333984,-0.490723,0.72998,0
38150,0.337891,-0.480957,0.711426,0
38170,0.348633,-0.490723,0.708984,0
38190,0.344238,-0.501465,0.716797,0
38210,0.334961,-0.507812,0.717773,0
38230,0.32666,-0.49707,0.711426,0
38250,0.32373,-0.495117,0.717285,0
38270,0.327637,-0.496582,0.712402,0
38290,0.306152,-0.507812,0.712402,0
38310,0.305176,-0.530762,0.70752,0
38330,0.313477,-0.520996,0.70752,0
38350,0.317871,-0.523438,0.705566,0
38370,0.322266,-0.515625,0.700684,0
38390,0.312988,-0.518066,0.695312,0
38410,0.302246,-0.535645,0.683594,0
38430,0.293945,-0.530762,0.70752,0
38450,0.263672,-0.541992,0.706055,0
38470,0.228027,-0.560059,0.705078,0
38490,0.215332,-0.541016,0.733887,0
38510,0.210449,-0.539551,0.703613,0
38530,0.205078,-0.522949,0.708496,0
38550,0.180664,-0.524414,0.71875,0
38570,0.185547,-0.524414,0.726562,0
38590,0.192383,-0.520996,0.741211,0
38610,0.208984,-0.539062,0.728027,0
38630,0.227051,-0.548828,0.730469,0
38650,0.224609,-0.551758,0.727539,0
38670,0.243164,-0.547852,0.729492,0
38690,0.241211,-0.550293,0.719238,0
38710,0.230469,-0.55127,0.721191,0
38730,0.219238,-0.551758,0.714355,0
38750,0.208008,-0.548828,0.701172,0
38770,0.186035,-0.541992,0.722168,0
38790,0.178223,-0.546875,0.724121,0
38810,0.174316,-0.549316,0.721191,1000
38830,0.179199,-0.559082,0.723145,0
38850,0.202148,-0.555664,0.714844,0
38870,0.161621,-0.540039,0.722168,0
38890,0.149414,-0.541016,0.710938,0
38910,0.145996,-0.557129,0.706055,0
38930,0.115234,-0.543945,0.70459,0
38950,0.0732422,-0.538574,0.684082,0
38970,0.0981445,-0.54834,0.677246,0
38990,0.102539,-0.543457,0.697266,0
39010,0.145996,-0.543945,0.694824,0
39030,0.197754,-0.530762,0.72998,0
39050,0.217773,-0.52832,0.741699,0
39070,0.262695,-0.553223,0.719238,0
39090,0.28418,-0.543457,0.718262,0
39110,0.255371,-0.540039,0.745605,0
39130,0.275879,-0.536133,0.758789,0
39150,0.275879,-0.562988,0.726074,0
39170,0.260254,-0.568848,0.717773,0
39190,0.303711,-0.526367,0.76123,0
39210,0.313965,-0.51416,0.739746,0
39230,0.282227,-0.520996,0.706055,0
39250,0.278809,-0.51416,0.726074,0
39270,0.307129,-0.483398,0.775391,0
39290,0.325195,-0.483398,0.75293,0
39310,0.32373,-0.500488,0.717285,0
39330,0.312012,-0.518066,0.724121,0
39350,0.304199,-0.518555,0.72168,0
39370,0.279785,-0.506348,0.723145,0
39390,0.271484,-0.490234,0.728027,0
39410,0.272461,-0.509766,0.730469,0
39430,0.237305,-0.510254,0.733398,0
39450,0.24707,-0.507812,0.743652,0
39470,0.257812,-0.481934,0.754395,0
39490,0.257324,-0.503906,0.739746,0
39510,0.255859,-0.497559,0.726562,0
39520,0.243164,-0.495605,0.728516,0
39540,0.27832,-0.483398,0.746094,0
39560,0.275391,-0.490234,0.718262,0
39580,0.277344,-0.495117,0.720215,0
39600,0.295898,-0.479492,0.742676,0
39620,0.306641,-0.473145,0.737305,0
39640,0.29834,-0.476074,0.720703,0
39660,0.294922,-0.477051,0.728516,0
39680,0.316895,-0.472168,0.750977,0
39700,0.322266,-0.472168,0.737793,0
39720,0.323242,-0.475098,0.715332,0
39740,0.327148,-0.46875,0.733398,0
39760,0.324219,-0.466309,0.730957,0
39780,0.30957,-0.47168,0.726562,0
39800,0.32666,-0.471191,0.729004,0
39820,0.324707,-0.463867,0.73877,0
39840,0.330566,-0.460938,0.736328,0
39860,0.336426,-0.47168,0.73584,0
39880,0.319336,-0.469238,0.731445,0
39900,0.324219,-0.458984,0.739258,0
39920,0.34082,-0.456055,0.746094,0
39940,0.338379,-0.461914,0.730957,0
39960,0.321289,-0.467285,0.722656,0
39980,0.334473,-0.461426,0.731445,0
40000,0.338867,-0.444336,0.72998,0
40020,0.346191,-0.439941,0.720703,0
40040,0.341309,-0.458496,0.72998,0
40060,0.352539,-0.455566,0.736328,0
40080,0.359375,-0.443359,0.73291,0
40100,0.367188,-0.447754,0.724121,0
40120,0.371094,-0.442871,0.707031,0
40140,0.368652,-0.433105,0.730469,0
40160,0.377441,-0.435547,0.714355,0
40180,0.370117,-0.459473,0.705566,0
40200,0.384766,-0.470703,0.714355,0
40220,0.405762,-0.453125,0.722656,0
40240,0.410645,-0.440918,0.71582,0
40260,0.411133,-0.442871,0.706055,0
40280,0.418457,-0.441406,0.715332,0
40300,0.42334,-0.443359,0.710449,0
40320,0.416016,-0.447266,0.70752,0
40340,0.406738,-0.444824,0.70166,0
40360,0.40332,-0.448242,0.703613,0
40380,0.412598,-0.439453,0.711426,0
40400,0.419922,-0.438477,0.719727,0
40420,0.419922,-0.435547,0.716797,0
40440,0.427246,-0.43457,0.716309,0
40460,0.439453,-0.432617,0.714844,0
40480,0.445801,-0.446289,0.731445,0
40500,0.425781,-0.450684,0.723145,0
40520,0.435547,-0.443359,0.730469,0
40540,0.453125,-0.435547,0.73584,0
40560,0.437012,-0.440918,0.727539,0
40580,0.436523,-0.433105,0.736816,0
40600,0.430176,-0.426758,0.728027,0
40620,0.425781,-0.429688,0.71875,0
40640,0.432617,-0.427734,0.72168,0
40660,0.399902,-0.412109,0.730957,0
40680,0.400391,-0.411133,0.737793,0
40700,0.412109,-0.431641,0.717773,0
40720,0.398926,-0.418457,0.735352,0
40740,0.413574,-0.425293,0.740234,0
40760,0.447266,-0.428711,0.745605,0
40780,0.403809,-0.421387,0.727051,0
40800,0.408203,-0.427246,0.741699,0
40820,0.445312,-0.430664,0.753906,0
40840,0.419434,-0.427734,0.73291,0
40860,0.429199,-0.431641,0.731934,0
40880,0.427246,-0.424316,0.743164,0
40900,0.419922,-0.408691,0.740723,0
40920,0.410156,-0.411621,0.743164,0
40940,0.415527,-0.413086,0.73877,0
40960,0.385254,-0.41748,0.727539,0
40980,0.391113,-0.406738,0.756348,0
41000,0.449707,-0.418457,0.737793,0
41020,0.446289,-0.404785,0.727051,0
41030,0.388672,-0.399414,0.74707,0
41050,0.354492,-0.424316,0.745605,0
41070,0.400879,-0.427246,0.729004,0
41090,0.341797,-0.418457,0.699707,0
41110,0.273438,-0.434082,0.723633,0
41130,0.325684,-0.432617,0.716309,0
41150,0.34082,-0.422363,0.708496,0
41170,0.336914,-0.416504,0.697266,0
41190,0.335938,-0.425781,0.707031,0
41210,0.310547,-0.444824,0.70752,0
41230,0.311523,-0.438477,0.692383,0
41250,0.322754,-0.448242,0.694336,0
41270,0.308105,-0.455566,0.677246,0
41290,0.294434,-0.477051,0.666016,0
41310,0.286133,-0.492188,0.669922,0
41330,0.310059,-0.495605,0.687012,0
41350,0.286133,-0.491211,0.670898,0
41370,0.286621,-0.522949,0.67041,0
41390,0.300293,-0.507812,0.676758,0
41410,0.29248,-0.520996,0.661133,0
41430,0.300781,-0.522461,0.658203,0
41450,0.303223,-0.524414,0.66748,0
41470,0.275391,-0.524414,0.65625,0
41490,0.288574,-0.539551,0.638672,0
41510,0.324219,-0.54834,0.634766,0
41530,0.313477,-0.553711,0.634766,0
41550,0.296387,-0.575195,0.614258,0
41570,0.320801,-0.583496,0.622559,0
41590,0.338867,-0.577148,0.618652,0
41610,0.327637,-0.591309,0.604492,0
41630,0.330078,-0.588867,0.616211,0
41650,0.332031,-0.598145,0.61084,0
41670,0.337402,-0.610352,0.606445,0
41690,0.328125,-0.630859,0.591309,0
41710,0.325684,-0.618652,0.595215,0
41730,0.335449,-0.60791,0.617188,0
41750,0.33252,-0.620605,0.603027,0
41770,0.370117,-0.653809,0.603516,0
41790,0.39502,-0.654785,0.612793,0
41810,0.374512,-0.637695,0.601074,0
41830,0.365723,-0.644531,0.591309,0
41850,0.405762,-0.664062,0.588379,0
41870,0.412598,-0.660156,0.583984,0
41890,0.353516,-0.625977,0.575684,0
41910,0.323242,-0.637207,0.577637,0
41930,0.400391,-0.652832,0.54248,0
41950,0.385742,-0.647461,0.56543,0
41970,0.370117,-0.640625,0.559082,0
41990,0.365234,-0.647949,0.554688,0
42010,0.379883,-0.657715,0.533203,0
42030,0.398438,-0.643066,0.547852,0
42050,0.394531,-0.61084,0.564941,0
42070,0.404785,-0.641113,0.533691,0
42090,0.44873,-0.662598,0.545898,0
42110,0.397949,-0.646484,0.525391,0
42130,0.376465,-0.654785,0.50293,0
42150,0.407227,-0.677734,0.480957,0
42170,0.4375,-0.651367,0.512207,0
42190,0.455078,-0.657227,0.51123,0
42210,0.449707,-0.650391,0.500977,0
42230,0.44043,-0.621582,0.508301,0
42250,0.501953,-0.604004,0.525879,0
42270,0.532227,-0.601074,0.498047,0
42290,0.489746,-0.626465,0.485352,0
42310,0.49707,-0.608398,0.505859,0
42330,0.543457,-0.59082,0.494141,0
42350,0.571777,-0.603027,0.460449,0
42370,0.539551,-0.618164,0.458008,0
42390,0.553711,-0.597656,0.491211,0
42410,0.573242,-0.585449,0.47168,0
42430,0.578125,-0.59668,0.460938,0
42450,0.571289,-0.57373,0.490234,0
42470,0.62793,-0.563477,0.496094,0
42490,0.598633,-0.562012,0.475586,0
42510,0.570312,-0.575195,0.460938,0
42530,0.625977,-0.542969,0.491211,0
42550,0.634766,-0.529297,0.498047,0
42570,0.610352,-0.543945,0.469238,0
42590,0.632324,-0.553223,0.491211,0
42610,0.635742,-0.511719,0.498535,0
42630,0.626465,-0.519043,0.469727,0
42650,0.647949,-0.517578,0.473633,0
42670,0.660156,-0.5,0.496582,0
42690,0.660156,-0.483398,0.489746,0
42710,0.672852,-0.490234,0.467773,0
42730,0.674316,-0.467285,0.462402,0
42750,0.654785,-0.469727,0.477051,0
42770,0.655762,-0.467285,0.482422,0
42790,0.650391,-0.457031,0.487305,0
42810,0.666992,-0.44043,0.494629,0
42830,0.655762,-0.421387,0.47998,0
42850,0.66748,-0.426758,0.490723,0
42870,0.676758,-0.434082,0.498535,0
42890,0.665527,-0.418457,0.506836,0
42910,0.683594,-0.42627,0.507812,0
42930,0.702637,-0.417969,0.513672,0
42950,0.691895,-0.405762,0.516113,0
42960,0.685059,-0.421875,0.500977,0
42980,0.702637,-0.4375,0.521484,0
43000,0.688477,-0.429199,0.53125,0
43020,0.707031,-0.426758,0.520508,0
43040,0.760254,-0.445312,0.538574,0
43060,0.664062,-0.42041,0.534668,0
43080,0.633301,-0.404297,0.545898,0
43100,0.706543,-0.415039,0.567383,0
43120,0.694336,-0.412598,0.55957,0
43140,0.631348,-0.390137,0.563965,0
43160,0.662109,-0.412598,0.599609,0
43180,0.723145,-0.416504,0.566895,0
43200,0.683594,-0.398438,0.58252,0
43220,0.628418,-0.360352,0.613281,0
43240,0.623535,-0.347656,0.609375,0
43260,0.655273,-0.366699,0.609863,0
43280,0.629883,-0.347656,0.604004,0
43300,0.519043,-0.311035,0.600586,0
43320,0.526367,-0.320312,0.598633,0
43340,0.604004,-0.336914,0.597656,0
43360,0.618164,-0.330078,0.599121,0
43380,0.54248,-0.300781,0.590332,0
43400,0.555664,-0.334473,0.586426,0
43420,0.579102,-0.331543,0.575684,0
43440,0.569824,-0.354004,0.566406,0
43460,0.558594,-0.371094,0.560547,0
43480,0.560547,-0.396973,0.579102,0
43500,0.59082,-0.429688,0.577148,0
43520,0.583496,-0.410156,0.566406,0
43540,0.560547,-0.416992,0.577148,0
43560,0.566406,-0.459473,0.563965,0
43580,0.602051,-0.473633,0.580566,0
43600,0.59375,-0.458008,0.57959,0
43620,0.562012,-0.48877,0.581543,0
43640,0.556641,-0.487305,0.568848,0
43660,0.555176,-0.463867,0.566406,0
43680,0.512695,-0.48291,0.55127,0
43700,0.519531,-0.522461,0.558594,0
43720,0.538086,-0.533203,0.544922,0
43740,0.513672,-0.515625,0.543457,0
43760,0.488281,-0.523926,0.529297,0
43780,0.498047,-0.562988,0.531738,0
43800,0.48877,-0.57666,0.536133,0
43820,0.490234,-0.600586,0.489746,0
43840,0.489746,-0.590332,0.503418,0
43860,0.473145,-0.596191,0.496582,0
43880,0.468262,-0.61084,0.495117,0
43900,0.496094,-0.63916,0.481445,0
43920,0.504883,-0.633301,0.467773,0
43940,0.473145,-0.625488,0.456543,0
43960,0.467773,-0.645508,0.439453,0
43980,0.500488,-0.677246,0.42334,0
44000,0.5,-0.676758,0.410156,0
44020,0.479492,-0.682617,0.396484,0
44040,0.491211,-0.687988,0.396484,0
44060,0.484375,-0.70166,0.390625,0
44080,0.472168,-0.705566,0.390625,0
44100,0.503906,-0.712402,0.375977,0
44120,0.52832,-0.703125,0.35498,0
44140,0.51123,-0.699219,0.357422,0
44160,0.486816,-0.70459,0.344727,0
44180,0.478516,-0.702637,0.334473,0
44200,0.486328,-0.719727,0.329102,0
44220,0.50293,-0.710449,0.328613,0
44240,0.518555,-0.715332,0.3125,0
44260,0.518555,-0.704102,0.314453,0
44280,0.535156,-0.723145,0.303223,0
44300,0.590332,-0.745605,0.293945,0
44320,0.584473,-0.743164,0.262695,0
44340,0.562988,-0.739746,0.258301,0
44360,0.577148,-0.694336,0.273438,0
44380,0.619629,-0.700684,0.237793,0
44400,0.651367,-0.711426,0.215332,0
44420,0.638672,-0.641602,0.251465,0
44440,0.62793,-0.63623,0.209961,0
44460,0.69873,-0.680176,0.181641,0
44480,0.683594,-0.657715,0.206055,0
44500,0.696289,-0.634766,0.21875,0
44520,0.748535,-0.624023,0.205078,0
44540,0.746582,-0.607422,0.183594,0
44560,0.744629,-0.615723,0.189453,0
44580,0.744141,-0.584961,0.19873,0
44600,0.76709,-0.545898,0.191406,0
44620,0.796387,-0.547363,0.188965,0
44640,0.783203,-0.538574,0.17627,0
44660,0.786621,-0.523438,0.181641,0
44680,0.798828,-0.48291,0.182129,0
44700,0.813477,-0.462891,0.192871,0
44720,0.857422,-0.469727,0.219238,0
44740,0.84082,-0.451172,0.204102,0
44760,0.81543,-0.441895,0.199707,0
44780,0.850586,-0.421387,0.207031,0
44800,0.867676,-0.408691,0.209473,0
44820,0.850098,-0.405762,0.230469,0
44840,0.863281,-0.408203,0.230957,0
44860,0.860352,-0.373047,0.277344,0
44880,0.883789,-0.393555,0.26123,0
44900,0.883301,-0.390625,0.266113,0
44920,0.821289,-0.339844,0.286621,0
44940,0.831055,-0.342773,0.3125,0
44950,0.834473,-0.350098,0.292969,0
44970,0.825684,-0.359863,0.327148,0
44990,0.797363,-0.32666,0.355469,0
45010,0.801758,-0.338867,0.354492,0
45030,0.869629,-0.357422,0.370605,0
45050,0.841797,-0.335938,0.380371,0
45070,0.763184,-0.311523,0.396973,0
45090,0.79834,-0.314941,0.390625,0
45110,0.812988,-0.336426,0.418457,0
45130,0.750488,-0.27832,0.412598,0
45150,0.760254,-0.293457,0.430664,0
45170,0.808594,-0.312012,0.433594,0
45190,0.737305,-0.25293,0.480469,0
45210,0.737793,-0.287598,0.498047,0
45230,0.773438,-0.278809,0.464844,0
45250,0.764648,-0.266113,0.489746,0
45270,0.699219,-0.246094,0.503906,0
45290,0.694824,-0.295898,0.50293,0
45310,0.740723,-0.320312,0.51123,0
45330,0.767578,-0.333496,0.51709,0
45350,0.716797,-0.325195,0.53418,0
45370,0.67627,-0.351562,0.526367,0
45390,0.716797,-0.385742,0.52002,0
45410,0.70166,-0.375977,0.539062,0
45430,0.666504,-0.400879,0.51709,0
45450,0.67334,-0.436523,0.505859,0
45470,0.66748,-0.429688,0.504883,0
45490,0.640625,-0.422852,0.501465,0
45510,0.635254,-0.436523,0.491211,0
45530,0.631836,-0.466309,0.47168,0
45550,0.599121,-0.486816,0.459473,0
45570,0.599121,-0.499512,0.459473,0
45590,0.617188,-0.495605,0.454102,0
45610,0.604004,-0.506348,0.443848,0
45630,0.585938,-0.529297,0.436035,0
45650,0.571289,-0.549316,0.430176,0
45670,0.612305,-0.563477,0.427734,0
45690,0.622559,-0.561035,0.414062,0
45710,0.581055,-0.585449,0.399902,0
45730,0.614258,-0.626465,0.396973,0
45750,0.63623,-0.616211,0.389648,0
45770,0.577148,-0.615234,0.393066,0
45790,0.58252,-0.648438,0.370117,0
45810,0.617676,-0.678223,0.35498,0
45830,0.576172,-0.652344,0.370117,0
45850,0.568359,-0.675781,0.344238,0
45870,0.608398,-0.694824,0.342773,0
45890,0.578613,-0.693848,0.325195,0
45910,0.582031,-0.680664,0.3125,0
45930,0.597656,-0.69043,0.295898,0
45950,0.590332,-0.720215,0.279785,0
45970,0.586426,-0.707031,0.274902,0
45990,0.584961,-0.685059,0.240234,0
46010,0.569336,-0.687988,0.231445,0
46030,0.574219,-0.698242,0.228027,0
46050,0.584473,-0.699219,0.207031,0
46070,0.61084,-0.662109,0.205566,0
46090,0.624023,-0.658691,0.192871,0
46110,0.631348,-0.664062,0.17627,0
46130,0.617676,-0.672852,0.183105,0
46150,0.641113,-0.657227,0.166992,0
46170,0.665039,-0.626953,0.158691,0
46190,0.677246,-0.62207,0.156738,0
46210,0.686523,-0.612305,0.166992,0
46230,0.692383,-0.611816,0.164551,0
46250,0.711426,-0.602051,0.16748,0
46270,0.745605,-0.567871,0.17041,0
46290,0.736816,-0.564453,0.164551,0
46310,0.730957,-0.568848,0.159668,0
46330,0.748047,-0.550293,0.178223,0
46350,0.759766,-0.535156,0.177246,0
46370,0.762695,-0.544434,0.159668,0
46390,0.754395,-0.528809,0.180664,0
46410,0.782227,-0.52002,0.194336,0
46430,0.781738,-0.516113,0.168945,0
46450,0.768555,-0.520508,0.178223,0
46470,0.796387,-0.501953,0.190918,0
46490,0.800293,-0.477539,0.191895,1001
46510,0.780762,-0.499023,0.175781,0
46530,0.793457,-0.494141,0.208008,0
46550,0.816406,-0.470215,0.220703,0
46570,0.815918,-0.48291,0.197754,0
46590,0.811523,-0.479004,0.192871,0
46610,0.830566,-0.459961,0.214355,0
46630,0.834961,-0.459473,0.213379,0
46650,0.835938,-0.463379,0.204102,0
46670,0.813477,-0.457031,0.199707,0
46690,0.814453,-0.451172,0.218262,0
46710,0.828613,-0.453125,0.216797,0
46730,0.809082,-0.455078,0.198242,0
46750,0.794922,-0.469238,0.20752,0
46770,0.803223,-0.471191,0.193848,0
46790,0.779297,-0.467285,0.192871,0
46810,0.75293,-0.464844,0.203613,0
46830,0.739746,-0.485352,0.199219,0
46850,0.750488,-0.502441,0.189453,0
46870,0.749512,-0.477051,0.184082,0
46890,0.75,-0.475098,0.185059,0
46910,0.760254,-0.476562,0.179199,0
46930,0.73584,-0.464844,0.184082,0
46950,0.724609,-0.481445,0.179688,0
46970,0.728027,-0.478027,0.199707,0
46990,0.688477,-0.457031,0.201172,0
47010,0.633789,-0.444824,0.205566,0
47030,0.62793,-0.432129,0.212891,0
47050,0.619629,-0.41748,0.215332,0
47070,0.640137,-0.421387,0.224121,0
47090,0.63916,-0.420898,0.207031,0
47110,0.630859,-0.40625,0.225098,0
47130,0.624023,-0.402344,0.238281,0
47150,0.648438,-0.431641,0.241211,0
47170,0.675781,-0.424316,0.261719,0
47190,0.728516,-0.418945,0.301758,0
47210,0.686035,-0.381836,0.30957,0
47230,0.718262,-0.418945,0.316895,0
47250,0.788086,-0.435547,0.336914,0
47270,0.761719,-0.390625,0.361328,0
47290,0.79541,-0.42334,0.355957,0
47310,0.861816,-0.438965,0.406738,0
47330,0.842285,-0.505371,0.375488,0
47350,0.807129,-0.491699,0.369141,0
47370,0.802246,-0.462402,0.432129,0
47390,0.776855,-0.467285,0.463867,0
47410,0.730957,-0.523438,0.465332,0
47430,0.742188,-0.512695,0.521484,0
47450,0.69043,-0.524414,0.538086,0
47470,0.705566,-0.525879,0.543457,0
47490,0.711914,-0.522461,0.567871,0
47510,0.679688,-0.543945,0.61377,0
47530,0.651855,-0.526367,0.637695,0
47550,0.649414,-0.566895,0.667969,0
47570,0.594727,-0.546387,0.692383,0
47590,0.548828,-0.556152,0.689453,0
47610,0.52832,-0.560059,0.713379,0
47630,0.477051,-0.540527,0.734375,0
47650,0.39209,-0.535156,0.746094,0
47670,0.358398,-0.526855,0.749512,0
47690,0.364258,-0.51709,0.774414,0
47710,0.320801,-0.519043,0.774902,0
47730,0.262695,-0.51416,0.746582,0
47750,0.209961,-0.530762,0.760254,0
47770,0.191895,-0.514648,0.76416,0
47790,0.214844,-0.490234,0.757812,1000
47810,0.205078,-0.482422,0.731934,0
47830,0.17041,-0.509277,0.726074,0
47850,0.163574,-0.524902,0.731445,0
47870,0.185059,-0.53418,0.748047,0
47890,0.209473,-0.574219,0.73291,0
47910,0.216797,-0.578125,0.727539,0
47930,0.21875,-0.561035,0.740723,0
47950,0.211426,-0.558594,0.749023,0
47970,0.212402,-0.561035,0.73877,0
47990,0.22168,-0.575684,0.722656,0
48010,0.219727,-0.568359,0.741211,0
48030,0.208984,-0.549316,0.725098,0
48050,0.201172,-0.528809,0.728516,0
48070,0.203613,-0.527344,0.72168,0
48090,0.208008,-0.537598,0.728516,0
48110,0.191895,-0.541016,0.729004,0
48130,0.178711,-0.521973,0.723633,0
48150,0.177734,-0.515625,0.739258,0
48170,0.185059,-0.526367,0.724609,0
48190,0.177246,-0.531738,0.726074,0
48210,0.168457,-0.539551,0.726562,0
48230,0.171875,-0.521484,0.742676,0
48250,0.196289,-0.521973,0.721191,0
48270,0.212402,-0.53125,0.719238,0
48290,0.213867,-0.518555,0.745605,0
48310,0.234375,-0.524414,0.749512,0
48330,0.245117,-0.530273,0.727539,0
48350,0.255371,-0.515625,0.726562,0
48370,0.27002,-0.516113,0.72998,0
48390,0.275879,-0.508301,0.717773,0
48400,0.28125,-0.514648,0.720215,0
48420,0.281738,-0.520508,0.709473,0
48440,0.258301,-0.512207,0.721191,0
48460,0.242188,-0.502441,0.729004,0
48480,0.266602,-0.51416,0.727051,0
48500,0.26416,-0.517578,0.705566,0
48520,0.266113,-0.50293,0.723633,0
48540,0.263672,-0.504883,0.726562,0
48560,0.261719,-0.5,0.712891,0
48580,0.23584,-0.503906,0.70166,0
48600,0.257812,-0.509277,0.724121,0
48620,0.290039,-0.490723,0.733398,0
48640,0.302246,-0.492676,0.705078,0
48660,0.288574,-0.52002,0.694336,0
48680,0.270996,-0.506348,0.710449,0
48700,0.305176,-0.519531,0.712891,0
48720,0.305664,-0.518066,0.700684,0
48740,0.311035,-0.516113,0.702637,0
48760,0.330566,-0.511719,0.720703,0
48780,0.316895,-0.51709,0.698242,0
48800,0.335938,-0.516602,0.674316,0
48820,0.332031,-0.525391,0.683594,0
48840,0.356934,-0.505859,0.713379,0
48860,0.351562,-0.521484,0.67627,0
48880,0.347656,-0.53125,0.669922,0
48900,0.349609,-0.537598,0.68457,0
48920,0.394043,-0.544922,0.719238,0
48940,0.367676,-0.529785,0.67334,0
48960,0.342773,-0.537109,0.666016,0
48980,0.327637,-0.547363,0.652344,0
49000,0.308594,-0.524902,0.666504,0
49020,0.337402,-0.535156,0.692383,0
49040,0.340332,-0.523926,0.690918,0
49060,0.34082,-0.509766,0.69043,0
49080,0.327637,-0.534668,0.657227,0
49100,0.321289,-0.568359,0.651855,0
49120,0.338379,-0.550781,0.668945,0
49140,0.341309,-0.540527,0.66748,0
49160,0.321289,-0.554199,0.664551,0
49180,0.320312,-0.52832,0.666016,0
49200,0.325195,-0.561523,0.666992,0
49220,0.361816,-0.541992,0.679688,0
49240,0.346191,-0.554199,0.680176,0
49260,0.358887,-0.575195,0.665039,0
49280,0.358887,-0.54834,0.672852,0
49300,0.380859,-0.556152,0.681641,0
49320,0.380859,-0.555664,0.662109,0
49340,0.348145,-0.574219,0.658203,0
49360,0.350098,-0.557129,0.669434,0
49380,0.37207,-0.57373,0.666016,0
49400,0.394531,-0.57959,0.666992,0
49420,0.368652,-0.566895,0.650879,0
49440,0.360352,-0.55957,0.649414,0
49460,0.384277,-0.568359,0.652832,0
49480,0.40625,-0.569336,0.644531,0
49500,0.390137,-0.549316,0.641113,0
49520,0.364746,-0.554199,0.640137,0
49540,0.374023,-0.55127,0.638184,0
49560,0.396973,-0.5625,0.631348,0
49580,0.398926,-0.561035,0.623047,0
49600,0.385254,-0.567383,0.627441,0
49620,0.393555,-0.56543,0.637207,0
49640,0.40918,-0.563965,0.62793,0
49660,0.429199,-0.556152,0.618164,0
49680,0.40625,-0.56543,0.618652,0
49700,0.425781,-0.560059,0.624512,0
49720,0.4375,-0.555664,0.611816,0
49740,0.456055,-0.553711,0.608398,0
49760,0.449707,-0.562988,0.599121,0
49780,0.477539,-0.562012,0.607422,0
49800,0.496094,-0.555664,0.607422,0
49820,0.515137,-0.560547,0.609375,0
49840,0.525391,-0.555664,0.615234,0
49860,0.549805,-0.557617,0.599121,0
49880,0.505371,-0.552246,0.616699,0
49900,0.541504,-0.554199,0.626953,0
49920,0.530762,-0.53418,0.617676,0
49940,0.489746,-0.515137,0.609863,0
49960,0.492188,-0.515625,0.623047,0
49980,0.499023,-0.519531,0.656738,0
50000,0.498047,-0.494141,0.64502,0
50020,0.465332,-0.490723,0.634766,0
50040,0.453613,-0.5,0.642578,0
50060,0.480469,-0.506348,0.64502,0
50080,0.486816,-0.515625,0.645996,0
50100,0.428223,-0.50293,0.669434,0
50120,0.462891,-0.506348,0.659668,0
50140,0.479492,-0.521973,0.644043,0
50160,0.409668,-0.482422,0.666016,0
50180,0.419922,-0.495117,0.67627,0
50200,0.483398,-0.519531,0.681641,0
50220,0.405273,-0.5,0.668945,0
50240,0.345703,-0.481934,0.682617,0
50260,0.419922,-0.484375,0.662598,0
50280,0.422363,-0.477539,0.681641,0
50300,0.346191,-0.459961,0.658691,0
50320,0.355469,-0.48291,0.666016,0
50340,0.42334,-0.483398,0.6875,0
50360,0.452148,-0.497559,0.682617,0
50380,0.426758,-0.496582,0.65625,0
50390,0.40625,-0.517578,0.661621,0
50410,0.432617,-0.510254,0.682617,0
50430,0.441406,-0.520508,0.644043,0
50450,0.408203,-0.541504,0.635254,0
50470,0.362793,-0.520996,0.657715,0
50490,0.381836,-0.513672,0.666504,0
50510,0.396973,-0.533203,0.631836,0
50530,0.361816,-0.541992,0.64502,0
50550,0.359863,-0.535156,0.641113,0
50570,0.376953,-0.546387,0.636719,0
50590,0.374512,-0.5625,0.62207,0
50610,0.361816,-0.563477,0.618164,0
50630,0.356445,-0.571289,0.611816,0
50650,0.361328,-0.581543,0.599121,0
50670,0.313965,-0.562988,0.600586,0
50690,0.284668,-0.575684,0.600098,0
50710,0.325684,-0.594727,0.584961,0
50730,0.335449,-0.612793,0.56543,0
50750,0.311035,-0.632812,0.578125,0
50770,0.311035,-0.611328,0.591797,0
50790,0.332031,-0.604492,0.59375,0
50810,0.335449,-0.617676,0.578613,0
50830,0.331055,-0.629395,0.570801,0
50850,0.31543,-0.628418,0.566895,0
50870,0.317871,-0.657227,0.54541,0
50890,0.319824,-0.679688,0.536133,0
50910,0.313477,-0.67334,0.550781,0
50930,0.321777,-0.661133,0.541504,0
50950,0.311035,-0.682129,0.538086,0
50970,0.313965,-0.706055,0.520996,0
50990,0.327148,-0.696289,0.518555,0
51010,0.33252,-0.699219,0.506348,0
51030,0.323242,-0.710449,0.502441,0
51050,0.348633,-0.709473,0.490234,0
51070,0.35498,-0.708008,0.516113,0
51090,0.34668,-0.713379,0.502441,0
51110,0.341797,-0.715332,0.507812,0
51130,0.335449,-0.697266,0.520508,0
51150,0.35498,-0.695801,0.540039,0
51170,0.376953,-0.703613,0.507812,0
51190,0.377441,-0.701172,0.499512,0
51210,0.385254,-0.684082,0.522461,0
51230,0.424316,-0.709473,0.498047,0
51250,0.444824,-0.718262,0.487305,0
51270,0.458984,-0.690918,0.51709,0
51290,0.45166,-0.670898,0.492676,0
51310,0.445312,-0.675781,0.466797,0
51330,0.469238,-0.679688,0.453125,0
51350,0.461914,-0.67334,0.455078,0
51370,0.469238,-0.662598,0.443359,0
51390,0.495117,-0.687988,0.446289,0
51410,0.522949,-0.648438,0.447754,0
51430,0.55127,-0.63916,0.41748,0
51450,0.531738,-0.655762,0.395508,0
51470,0.540527,-0.655273,0.394043,0
51490,0.601562,-0.638672,0.414062,0
51510,0.594238,-0.635254,0.395508,0
51530,0.536133,-0.624512,0.375488,0
51550,0.565918,-0.607422,0.405273,0
51570,0.62207,-0.605957,0.398926,0
51590,0.644043,-0.612793,0.36377,0
51610,0.631836,-0.588379,0.38916,0
51630,0.638184,-0.597656,0.373047,0
51650,0.693359,-0.582031,0.371582,0
51670,0.674805,-0.587402,0.373047,0
51690,0.686035,-0.585449,0.345703,0
51710,0.709473,-0.572266,0.364746,0
51730,0.662109,-0.553223,0.378906,0
51750,0.697266,-0.558105,0.35791,0
51770,0.706055,-0.556152,0.356445,0
51790,0.686523,-0.508789,0.371094,0
51810,0.706543,-0.509766,0.351074,0
51830,0.743652,-0.506836,0.353027,0
51850,0.728027,-0.50293,0.362793,0
51870,0.729492,-0.492188,0.344238,0
51890,0.748535,-0.508301,0.345703,0
51910,0.746094,-0.468262,0.366699,0
51930,0.763184,-0.445312,0.373047,0
51950,0.759277,-0.451172,0.35498,0
51970,0.774902,-0.45459,0.369141,0
51990,0.757812,-0.43457,0.394531,0
52010,0.770996,-0.414062,0.37793,0
52030,0.78418,-0.425293,0.385742,0
52050,0.769531,-0.419922,0.394043,0
52070,0.756348,-0.407715,0.411133,0
52090,0.785156,-0.40625,0.402344,0
52110,0.76709,-0.413574,0.401367,0
52130,0.741211,-0.40332,0.413574,0
52150,0.774414,-0.400879,0.418457,0
52170,0.764648,-0.383789,0.416504,0
52190,0.752441,-0.387207,0.448242,0
52210,0.782227,-0.418457,0.436035,0
52230,0.796875,-0.416992,0.439941,0
52250,0.724121,-0.375,0.48291,0
52270,0.733887,-0.364746,0.484863,0
52290,0.785156,-0.401855,0.461914,0
52310,0.753906,-0.385742,0.488281,0
52330,0.676758,-0.367676,0.517578,0
52350,0.729492,-0.36084,0.5,0
52370,0.786621,-0.385742,0.523926,0
52390,0.700684,-0.346191,0.517578,0
52410,0.662598,-0.345703,0.51123,0
52430,0.733398,-0.369141,0.519531,0
52450,0.696289,-0.333008,0.540039,0
52470,0.606445,-0.331543,0.516113,0
52490,0.637695,-0.358398,0.522949,0
52510,0.658203,-0.375488,0.547363,0
52530,0.62793,-0.349121,0.541504,0
52550,0.617676,-0.398438,0.535156,0
52570,0.613281,-0.398926,0.537598,0
52590,0.630859,-0.418457,0.55127,0
52610,0.647949,-0.431641,0.533691,0
52630,0.59082,-0.42334,0.543457,0
52650,0.583008,-0.440918,0.541992,0
52670,0.60498,-0.463379,0.534668,0
52690,0.584961,-0.459473,0.53418,0
52710,0.55957,-0.449219,0.533203,0
52730,0.553711,-0.476074,0.533203,0
52750,0.55957,-0.503906,0.503906,0
52770,0.554199,-0.495605,0.518066,0
52790,0.534668,-0.501953,0.509766,0
52810,0.562988,-0.539551,0.515137,0
52830,0.580566,-0.560547,0.500488,0
52850,0.570312,-0.538086,0.515625,0
52870,0.554199,-0.549805,0.506836,0
52890,0.563477,-0.574219,0.498047,0
52910,0.55127,-0.587402,0.495117,0
52930,0.524902,-0.570801,0.48877,0
52950,0.511719,-0.567871,0.486328,0
52970,0.524902,-0.603516,0.456543,0
52990,0.535645,-0.623047,0.458008,0
53010,0.539062,-0.612793,0.466797,0
53030,0.515625,-0.595703,0.453125,0
53050,0.515137,-0.594238,0.458496,0
53070,0.54541,-0.614258,0.43457,0
53090,0.540039,-0.59668,0.429688,0
53110,0.539062,-0.624512,0.407715,0
53130,0.559082,-0.649902,0.393066,0
53150,0.54541,-0.646484,0.378906,0
53170,0.543945,-0.635254,0.376953,0
53190,0.562012,-0.637207,0.374512,0
53210,0.582031,-0.645508,0.35791,0
53230,0.550293,-0.638184,0.359375,0
53250,0.538574,-0.655273,0.348145,0
53270,0.566406,-0.661133,0.336426,0
53290,0.581055,-0.66748,0.331543,0
53310,0.584473,-0.65332,0.336914,0
53330,0.57373,-0.683105,0.322266,0
53350,0.567383,-0.709473,0.300293,0
53370,0.564453,-0.694336,0.296387,0
53390,0.595215,-0.677734,0.294922,0
53410,0.60498,-0.676758,0.288574,0
53430,0.597168,-0.664551,0.274414,0
53450,0.634766,-0.662109,0.272461,0
53470,0.633789,-0.635254,0.262207,0
53490,0.663086,-0.65625,0.244629,0
53510,0.700195,-0.674805,0.207031,0
53530,0.675781,-0.643066,0.227539,0
53550,0.703613,-0.628906,0.21875,0
53570,0.726562,-0.612793,0.19873,0
53590,0.762207,-0.614258,0.191406,0
53610,0.761719,-0.569336,0.195312,0
53630,0.767578,-0.571289,0.182617,0
53650,0.780273,-0.583008,0.144531,0
53670,0.758301,-0.574707,0.150879,0
53690,0.794434,-0.541504,0.162598,0
53710,0.807617,-0.540527,0.144043,0
53730,0.772949,-0.540039,0.12793,0
53750,0.793945,-0.521973,0.148438,0
53770,0.832031,-0.470215,0.169434,0
53790,0.844727,-0.469727,0.144531,0
53810,0.829102,-0.469238,0.120605,0
53820,0.838379,-0.444824,0.14209,0
53840,0.849609,-0.424316,0.166504,0
53860,0.834961,-0.422852,0.148926,0
53880,0.859863,-0.404785,0.174805,0
53900,0.871582,-0.345215,0.216797,0
53920,0.825195,-0.333984,0.183594,0
53940,0.832031,-0.355957,0.174316,0
53960,0.870605,-0.366699,0.201172,0
53980,0.868164,-0.318848,0.234863,0
54000,0.880859,-0.316895,0.205078,0
54020,0.885742,-0.32373,0.21875,0
54040,0.902832,-0.296875,0.265137,0
54060,0.842285,-0.268555,0.276367,0
54080,0.861816,-0.29248,0.255859,0
54100,0.868652,-0.27832,0.281738,0
54120,0.850098,-0.255371,0.332031,0
54140,0.845703,-0.229004,0.316406,0
54160,0.836914,-0.214844,0.317871,0
54180,0.847656,-0.227539,0.341797,0
54200,0.833008,-0.234863,0.367188,0
54220,0.847656,-0.219727,0.382324,0
54240,0.832031,-0.182617,0.334961,0
54260,0.820801,-0.231934,0.362793,0
54280,0.848633,-0.227051,0.40918,0
54300,0.826172,-0.216309,0.401367,0
54320,0.808594,-0.232422,0.417969,0
54340,0.816406,-0.228027,0.446289,0
54360,0.772461,-0.195312,0.472656,0
54380,0.783691,-0.235352,0.473145,0
54400,0.790527,-0.211914,0.479492,0
54420,0.746582,-0.187988,0.516113,0
54440,0.753906,-0.196777,0.513184,0
54460,0.791992,-0.205566,0.523438,0
54480,0.797852,-0.219727,0.525391,0
54500,0.771973,-0.211426,0.531738,0
54520,0.753418,-0.23584,0.519043,0
54540,0.772949,-0.254883,0.514648,0
54560,0.790039,-0.273926,0.527832,0
54580,0.722168,-0.256836,0.515625,0
54600,0.67627,-0.262207,0.54248,0
54620,0.717773,-0.275879,0.515625,0
54640,0.735352,-0.282227,0.537109,0
54660,0.65625,-0.288574,0.555176,0
54680,0.663574,-0.293457,0.567383,0
54700,0.702148,-0.320801,0.542969,0
54720,0.671875,-0.308594,0.562012,0
54740,0.63916,-0.31543,0.575684,0
54760,0.63623,-0.339355,0.57666,0
54780,0.645508,-0.368652,0.574219,0
54800,0.661621,-0.374512,0.556641,0
54820,0.63623,-0.380371,0.574707,0
54840,0.614746,-0.417969,0.555176,0
54860,0.630371,-0.442871,0.549316,0
54880,0.617676,-0.421875,0.554199,0
54900,0.581055,-0.435059,0.556641,0
54920,0.593262,-0.45752,0.519531,0
54940,0.596191,-0.457031,0.520996,0
54960,0.592773,-0.475098,0.506836,0
54980,0.591309,-0.501465,0.492188,0
55000,0.591797,-0.491211,0.486816,0
55020,0.613281,-0.51123,0.463379,0
55040,0.605957,-0.533691,0.45752,0
55060,0.575195,-0.550781,0.442871,0
55080,0.558105,-0.543457,0.431641,0
55100,0.586426,-0.529785,0.422363,0
55120,0.600586,-0.563477,0.414551,0
55140,0.57373,-0.561523,0.416992,0
55160,0.549805,-0.558594,0.394531,0
55180,0.614258,-0.583008,0.397461,0
55200,0.617676,-0.572266,0.393555,0
55220,0.567871,-0.597168,0.380371,0
55240,0.607422,-0.631348,0.381836,0
55260,0.634277,-0.626953,0.371094,0
55280,0.608887,-0.625977,0.364746,0
55300,0.60498,-0.639648,0.354492,0
55320,0.609863,-0.649902,0.339844,0
55340,0.620117,-0.656738,0.348145,0
55360,0.618164,-0.654297,0.339844,0
55380,0.609375,-0.65918,0.311035,0
55400,0.583008,-0.659668,0.308105,0
55420,0.612793,-0.660645,0.314941,0
55440,0.630859,-0.666992,0.292969,0
55460,0.60498,-0.665039,0.271484,0
55480,0.595703,-0.666504,0.260742,0
55500,0.614746,-0.664551,0.257812,0
55520,0.637207,-0.637695,0.268066,0
55540,0.687012,-0.647949,0.246582,0
55560,0.696289,-0.651367,0.251953,0
55580,0.686035,-0.625977,0.255371,0
55600,0.70752,-0.610352,0.234375,0
55620,0.725098,-0.597656,0.213867,0
55640,0.722168,-0.57666,0.225586,0
55660,0.716309,-0.580078,0.206543,0
55680,0.736328,-0.55957,0.187012,0
55700,0.751953,-0.56543,0.191406,0
55720,0.766602,-0.558594,0.168457,0
55740,0.734375,-0.530762,0.181152,0
55760,0.743164,-0.536621,0.164551,0
55780,0.796875,-0.533691,0.174805,0
55800,0.812988,-0.501953,0.17041,0
55810,0.788086,-0.491211,0.150391,0
55830,0.803223,-0.504883,0.157227,0
55850,0.824219,-0.499023,0.156738,0
55870,0.822266,-0.464355,0.155762,0
55890,0.822266,-0.458008,0.140625,0
55910,0.84082,-0.473145,0.142578,0
55930,0.825195,-0.443359,0.15332,0
55950,0.812012,-0.427734,0.152344,0
55970,0.816406,-0.408691,0.145996,0
55990,0.824707,-0.42334,0.154785,0
56010,0.819336,-0.416504,0.13916,0
56030,0.81543,-0.404297,0.141602,0
56050,0.818848,-0.40332,0.14209,0
56070,0.843262,-0.40625,0.135254,0
56090,0.851562,-0.417969,0.140137,0
56110,0.844238,-0.392578,0.136719,0
56130,0.853516,-0.40332,0.121582,0
56150,0.847656,-0.407227,0.134277,1001
56170,0.842773,-0.418457,0.125977,0
56190,0.858398,-0.429688,0.107422,0
56210,0.856934,-0.433105,0.125,0
56230,0.85791,-0.420898,0.123047,0
56250,0.871582,-0.445312,0.102051,0
56270,0.856445,-0.449707,0.11084,0
56290,0.858398,-0.455078,0.117676,0
56310,0.835449,-0.433594,0.114746,0
56330,0.82959,-0.428711,0.109863,0
56350,0.822754,-0.435059,0.090332,0
56370,0.780273,-0.469238,0.0957031,0
56390,0.777832,-0.475098,0.0961914,0
56410,0.787109,-0.469727,0.090332,0
56430,0.751465,-0.439941,0.0942383,0
56450,0.724121,-0.407227,0.106934,0
56470,0.726562,-0.428711,0.0986328,0
56490,0.744141,-0.446289,0.0976562,0
56510,0.756836,-0.434082,0.121094,0
56530,0.75293,-0.433105,0.103027,0
56550,0.723145,-0.416992,0.109863,0
56570,0.692871,-0.409668,0.132324,0
56590,0.703125,-0.398926,0.159668,0
56610,0.705566,-0.384766,0.167969,0
56630,0.680664,-0.374023,0.162598,0
56650,0.710938,-0.405762,0.173828,0
56670,0.751953,-0.412109,0.202148,0
56690,0.751465,-0.370117,0.214355,0
56710,0.729492,-0.387207,0.22168,0
56730,0.755859,-0.408691,0.254883,0
56750,0.769531,-0.421875,0.296875,0
56770,0.76709,-0.412598,0.302246,0
56790,0.734863,-0.421875,0.26709,0
56810,0.719238,-0.407715,0.313965,0
56830,0.759766,-0.419434,0.358398,0
56850,0.758789,-0.449707,0.347656,0
56870,0.662598,-0.473633,0.337891,0
56890,0.671875,-0.476074,0.378906,0
56910,0.750977,-0.483398,0.467285,0
56930,0.741211,-0.473633,0.482422,0
56950,0.640625,-0.489746,0.472168,0
56970,0.653809,-0.521484,0.517578,0
56990,0.74707,-0.487793,0.680664,0
57010,0.70459,-0.493164,0.648438,0
57030,0.599609,-0.511719,0.580078,0
57050,0.698242,-0.488281,0.661133,0
57070,0.743164,-0.473633,0.781738,0
57090,0.716309,-0.519043,0.74707,0
57110,0.640137,-0.555664,0.740234,0
57130,0.57959,-0.563965,0.788574,0
57150,0.557617,-0.552734,0.84668,0
57170,0.515137,-0.537598,0.831055,0
57190,0.486328,-0.527832,0.815918,0
57210,0.370117,-0.475586,0.80957,0
57230,0.306641,-0.439453,0.805664,0
57250,0.299316,-0.446289,0.783691,0
57270,0.230957,-0.42334,0.761719,0
57290,0.195312,-0.43457,0.73584,0
57310,0.249512,-0.38623,0.783203,0
57330,0.291504,-0.369141,0.757812,0
57350,0.308594,-0.379883,0.739746,0
57370,0.325684,-0.402832,0.785645,0
57390,0.331543,-0.431641,0.776855,0
57410,0.324219,-0.439941,0.762695,0
57430,0.310547,-0.46582,0.772949,0
57450,0.308105,-0.478027,0.751465,0
57470,0.30127,-0.480469,0.753906,0
57490,0.314941,-0.463867,0.759277,0
57510,0.311523,-0.458984,0.741211,0
57530,0.299805,-0.452637,0.73584,0
57550,0.291016,-0.441895,0.75,0
57570,0.288086,-0.43457,0.743652,0
57590,0.283203,-0.445801,0.746582,1000
57610,0.283691,-0.452148,0.751953,0
57630,0.282715,-0.456055,0.765137,0
57650,0.283691,-0.462402,0.746094,0
57670,0.282715,-0.465332,0.737793,0
57690,0.269043,-0.45752,0.747559,0
57710,0.258789,-0.453613,0.742188,0
57730,0.255371,-0.481445,0.72998,0
57750,0.255859,-0.466309,0.733398,0
57770,0.276367,-0.457031,0.75,0
57790,0.282715,-0.469238,0.753418,0
57810,0.275391,-0.477539,0.746094,0
57830,0.292969,-0.479492,0.753418,0
57850,0.279297,-0.47168,0.768066,0
57870,0.236816,-0.46582,0.759766,0
57890,0.232422,-0.474121,0.755859,0
57910,0.239746,-0.463379,0.752441,0
57930,0.248535,-0.453125,0.760254,0
57950,0.275391,-0.464844,0.766602,0
57970,0.28125,-0.469727,0.740723,0
57990,0.266602,-0.464355,0.746582,0
58010,0.249512,-0.454102,0.749512,0
58030,0.259766,-0.45459,0.725098,0
58050,0.294434,-0.451172,0.731934,0
58070,0.281738,-0.455566,0.726562,0
58090,0.241211,-0.47168,0.714355,0
58110,0.233887,-0.497559,0.714844,0
58130,0.257324,-0.491211,0.730469,0
58150,0.266113,-0.496094,0.743652,0
58170,0.240723,-0.492188,0.728516,0
58190,0.249512,-0.509766,0.737305,0
58210,0.272949,-0.5,0.759277,0
58230,0.271484,-0.492676,0.763184,0
58250,0.265137,-0.508789,0.72998,0
58270,0.240234,-0.501465,0.718262,0
58290,0.255371,-0.496582,0.744629,0
58310,0.274902,-0.488281,0.744141,0
58330,0.244629,-0.505371,0.711426,0
58350,0.226562,-0.493652,0.706543,0
58370,0.286621,-0.483398,0.768066,0
58390,0.299316,-0.45752,0.734375,0
58410,0.308594,-0.486816,0.699219,0
58430,0.307617,-0.492676,0.700195,0
58450,0.368652,-0.496094,0.744629,0
58470,0.367188,-0.505371,0.705078,0
58490,0.357422,-0.516113,0.676758,0
58510,0.346191,-0.506348,0.670898,0
58530,0.33252,-0.509277,0.681641,0
58550,0.352539,-0.500488,0.688965,0
58570,0.333984,-0.541992,0.675781,0
58590,0.327637,-0.533691,0.686035,0
58610,0.371582,-0.509277,0.723145,0
58630,0.384277,-0.521973,0.693848,0
58650,0.37793,-0.503418,0.674805,0
58670,0.369629,-0.535645,0.668457,0
58690,0.389648,-0.513184,0.705566,0
58710,0.397461,-0.499512,0.681641,0
58730,0.376953,-0.515137,0.671875,0
58750,0.382812,-0.527832,0.668457,0
58770,0.379395,-0.529785,0.668945,0
58790,0.380859,-0.521973,0.664062,0
58810,0.380371,-0.54248,0.665039,0
58840,0.374023,-0.536133,0.656738,0
58860,0.385742,-0.526855,0.654785,0
58880,0.398438,-0.547852,0.661133,0
58900,0.399902,-0.521484,0.651855,0
58920,0.404785,-0.540527,0.645508,0
58940,0.409668,-0.521484,0.650391,0
58960,0.415039,-0.543945,0.638184,0
58980,0.415039,-0.524414,0.637207,0
59000,0.430664,-0.545898,0.626953,0
59020,0.433594,-0.547363,0.628906,0
59040,0.436035,-0.548828,0.622559,0
59060,0.438965,-0.539062,0.628906,0
59080,0.449219,-0.543457,0.627441,0
59100,0.431641,-0.540527,0.623047,0
59120,0.442871,-0.544922,0.616699,0
59140,0.466309,-0.541016,0.615723,0
59160,0.461914,-0.530762,0.601562,0
59180,0.479492,-0.533691,0.603027,0
59200,0.48291,-0.531738,0.601074,0
59220,0.483887,-0.522949,0.599609,0
59230,0.483887,-0.531738,0.611328,0
59250,0.466797,-0.523926,0.608887,0
59270,0.483887,-0.524414,0.617676,0
59290,0.520996,-0.529297,0.609863,0
59310,0.546387,-0.530762,0.608398,0
59330,0.517578,-0.526367,0.610352,0
59350,0.534668,-0.521973,0.622559,0
59370,0.563477,-0.525391,0.623535,0
59390,0.572266,-0.510742,0.626465,0
59410,0.541992,-0.509766,0.643555,0
59430,0.500977,-0.502441,0.632324,0
59450,0.51123,-0.505859,0.62207,0
59470,0.555664,-0.511719,0.628418,0
59490,0.526367,-0.507324,0.64502,0
59510,0.45752,-0.470215,0.648926,0
59530,0.458008,-0.474121,0.65918,0
59550,0.486816,-0.493164,0.66748,0
59570,0.446777,-0.466309,0.667969,0
59590,0.422363,-0.458984,0.670898,0
59610,0.45752,-0.470703,0.705566,0
59630,0.47168,-0.477051,0.682129,0
59650,0.456055,-0.461914,0.664551,0
59670,0.442871,-0.453125,0.694824,0
59690,0.461426,-0.458496,0.691406,0
59710,0.46582,-0.473633,0.696777,0
59730,0.45166,-0.464844,0.698242,0
59750,0.45166,-0.447266,0.683105,0
59770,0.455078,-0.463379,0.682129,0
59790,0.436035,-0.452637,0.6875,0
59810,0.420898,-0.43457,0.6875,0
59830,0.397461,-0.427734,0.68457,0
59850,0.388184,-0.449219,0.687012,0
59870,0.394043,-0.432617,0.695312,0
59890,0.393066,-0.420898,0.704102,0
59910,0.39209,-0.438477,0.683105,0
59930,0.396484,-0.461426,0.669434,0
59950,0.397949,-0.444824,0.6875,0
59970,0.420898,-0.443848,0.695801,0
59990,0.421387,-0.459961,0.670898,0
60010,0.389648,-0.494141,0.658691,0
60030,0.394043,-0.486328,0.688477,0
60050,0.396484,-0.473145,0.674316,0
60070,0.380371,-0.503418,0.655762,0
60090,0.401855,-0.522461,0.67041,0
60110,0.40918,-0.496582,0.682129,0
60130,0.368164,-0.488281,0.665527,0
60150,0.349609,-0.535156,0.650879,0
60170,0.355469,-0.508301,0.675293,0
60190,0.333496,-0.509766,0.661133,0
60210,0.342773,-0.541504,0.647461,0
60230,0.365234,-0.556152,0.650879,0
60250,0.366211,-0.555664,0.638184,0
60270,0.353516,-0.545898,0.630859,0
60290,0.349121,-0.585449,0.627441,0
60310,0.362305,-0.591797,0.628418,0
60330,0.352539,-0.573242,0.629883,0
60350,0.354492,-0.571289,0.620605,0
60370,0.348145,-0.594727,0.613281,0
60390,0.32959,-0.598633,0.597656,0
60410,0.29541,-0.602539,0.608398,0
60430,0.313965,-0.613281,0.589844,0
60450,0.331055,-0.609863,0.592285,0
60470,0.308594,-0.611816,0.602051,0
60490,0.311035,-0.623047,0.563965,0
60510,0.319336,-0.611328,0.570312,0
60530,0.335449,-0.627441,0.569824,0
60550,0.354004,-0.636719,0.556152,0
60570,0.339355,-0.656738,0.550293,0
60590,0.356445,-0.671387,0.532715,0
60610,0.363281,-0.648926,0.550781,0
60630,0.349121,-0.647949,0.541504,0
60650,0.34668,-0.678711,0.516602,0
60670,0.369629,-0.674316,0.53418,0
60690,0.360352,-0.643066,0.550293,0
60710,0.36377,-0.634766,0.533203,0
60730,0.391113,-0.667969,0.512207,0
60750,0.381836,-0.660645,0.547852,0
60770,0.397461,-0.655273,0.547852,0
60790,0.428223,-0.664551,0.527832,0
60810,0.410156,-0.670898,0.504883,0
60830,0.396973,-0.649902,0.538574,0
60850,0.457031,-0.668457,0.530273,0
60870,0.435059,-0.67041,0.491699,0
60890,0.432617,-0.65332,0.518066,0
60910,0.462402,-0.635254,0.526367,0
60930,0.507812,-0.632324,0.494141,0
60950,0.505859,-0.635742,0.469727,0
60970,0.498535,-0.625488,0.469727,0
60990,0.539551,-0.624512,0.479004,0
61010,0.551758,-0.626465,0.453613,0
61030,0.526367,-0.618652,0.439453,0
61050,0.555664,-0.605469,0.472168,0
61070,0.600586,-0.591309,0.467773,0
61090,0.600098,-0.597168,0.437988,0
61110,0.584961,-0.605957,0.433594,0
61120,0.612305,-0.566895,0.452637,0
61150,0.643066,-0.557129,0.453125,0
61170,0.650391,-0.57959,0.40625,0
61190,0.627441,-0.566406,0.417969,0
61210,0.65332,-0.527344,0.439941,0
61220,0.661133,-0.532715,0.40918,0
61240,0.676758,-0.543945,0.398438,0
61260,0.661133,-0.541016,0.385742,0
61280,0.692383,-0.531738,0.410156,0
61300,0.711914,-0.498047,0.42627,0
61320,0.709961,-0.490723,0.392578,0
61340,0.708984,-0.498047,0.395996,0
61360,0.719238,-0.476562,0.412109,0
61380,0.722656,-0.471191,0.402344,0
61400,0.732422,-0.47168,0.394043,0
61420,0.707031,-0.477539,0.402344,0
61440,0.727051,-0.459473,0.422363,0
61460,0.733887,-0.439453,0.418945,0
61480,0.744629,-0.45459,0.405762,0
61500,0.746582,-0.427246,0.430176,0
61520,0.749512,-0.427246,0.439453,0
61540,0.753418,-0.42627,0.424805,0
61560,0.761719,-0.405273,0.438477,0
61580,0.766602,-0.397949,0.45166,0
61600,0.748535,-0.379395,0.449219,0
61620,0.756348,-0.382812,0.446289,0
61640,0.722656,-0.376465,0.448242,0
61660,0.724121,-0.36084,0.453613,0
61680,0.733887,-0.347168,0.441406,0
61700,0.771484,-0.376953,0.441895,0
61720,0.74707,-0.370117,0.45752,0
61740,0.709473,-0.358398,0.471191,0
61760,0.729492,-0.348633,0.462402,0
61780,0.73291,-0.348145,0.466797,0
61800,0.690918,-0.327148,0.504883,0
61820,0.705078,-0.328613,0.495117,0
61840,0.723145,-0.34375,0.485352,0
61860,0.725098,-0.34082,0.503418,0
61880,0.745605,-0.34668,0.514648,0
61900,0.731445,-0.336914,0.527832,0
61920,0.685059,-0.325195,0.530762,0
61940,0.724121,-0.324219,0.527832,0
61960,0.697266,-0.307617,0.536621,0
61980,0.675293,-0.304688,0.549316,0
62000,0.702148,-0.338867,0.532227,0
62020,0.661133,-0.330078,0.546387,0
62040,0.631836,-0.315918,0.574219,0
62060,0.669434,-0.321777,0.57373,0
62080,0.692871,-0.339355,0.57666,0
62100,0.645508,-0.350586,0.572754,0
62120,0.632812,-0.365234,0.558105,0
62140,0.637695,-0.345703,0.581543,0
62160,0.645996,-0.359863,0.565918,0
62180,0.615234,-0.358887,0.529785,0
62200,0.588867,-0.366211,0.574219,0
62220,0.625977,-0.387695,0.565918,0
62240,0.625977,-0.397949,0.554688,0
62260,0.57959,-0.414062,0.562988,0
62280,0.561035,-0.405762,0.566406,0
62300,0.568848,-0.413086,0.575684,0
62320,0.568848,-0.413574,0.56543,0
62340,0.553711,-0.432129,0.568848,0
62360,0.552734,-0.43457,0.597168,0
62380,0.549805,-0.45166,0.573242,0
62400,0.567871,-0.489746,0.556641,0
62420,0.558105,-0.486328,0.572266,0
62440,0.53418,-0.490234,0.572266,0
62460,0.540039,-0.479492,0.578613,0
62480,0.541504,-0.513672,0.549805,0
62500,0.536621,-0.522461,0.567871,0
62520,0.524902,-0.546875,0.564941,0
62540,0.541992,-0.568848,0.539062,0
62560,0.541504,-0.536133,0.562988,0
62580,0.501465,-0.534668,0.552734,0
62600,0.503906,-0.576172,0.53418,0
62620,0.510742,-0.568359,0.537109,0
62640,0.489746,-0.572266,0.530762,0
62660,0.46875,-0.561035,0.51416,0
62680,0.45459,-0.545898,0.518066,0
62700,0.490234,-0.57959,0.516602,0
62720,0.516602,-0.597168,0.501953,0
62740,0.48584,-0.595215,0.491699,0
62760,0.487793,-0.597168,0.487793,0
62780,0.509277,-0.600586,0.476562,0
62800,0.513672,-0.604492,0.481934,0
62820,0.525879,-0.610352,0.475586,0
62840,0.519531,-0.617676,0.458984,0
62860,0.515625,-0.62207,0.439453,0
62880,0.523438,-0.625488,0.437012,0
62900,0.539062,-0.634277,0.42334,0
62920,0.532227,-0.640625,0.414551,0
62940,0.53418,-0.645996,0.408691,0
62960,0.578613,-0.674316,0.397949,0
62980,0.558594,-0.657715,0.397949,0
63000,0.530273,-0.643555,0.385254,0
63020,0.553223,-0.664551,0.37793,0
63040,0.556152,-0.643066,0.368164,0
63060,0.58252,-0.634277,0.382812,0
63080,0.603027,-0.644531,0.353516,0
63100,0.584961,-0.625977,0.356445,0
63120,0.591797,-0.602539,0.370117,0
63140,0.649414,-0.598633,0.337402,0
63160,0.650391,-0.604492,0.305664,0
63180,0.652344,-0.586914,0.331543,0
63200,0.686035,-0.583496,0.32666,0
63220,0.664062,-0.596191,0.288574,0
63240,0.70166,-0.603027,0.299805,0
63260,0.758789,-0.545898,0.311523,0
63280,0.750977,-0.553711,0.269043,0
63300,0.748535,-0.569336,0.255859,0
63320,0.747559,-0.573242,0.250488,0
63340,0.755371,-0.535645,0.249512,0
63360,0.769043,-0.540527,0.205566,0
63380,0.765137,-0.546875,0.210449,0
63400,0.779785,-0.527344,0.223145,0
63420,0.77832,-0.497559,0.214844,0
63440,0.807617,-0.501953,0.192871,0
63460,0.79541,-0.495117,0.187012,0
63480,0.779297,-0.472656,0.19043,0
63500,0.813965,-0.441895,0.185547,0
63520,0.813477,-0.439453,0.152344,0
63540,0.813965,-0.451172,0.158691,0
63560,0.834961,-0.424805,0.168457,0
63580,0.856445,-0.40625,0.15918,0
63600,0.87793,-0.394043,0.167969,0
63620,0.85498,-0.389648,0.143555,0
63640,0.856934,-0.36377,0.144531,0
63660,0.897461,-0.359863,0.162109,0
63680,0.886719,-0.338379,0.160645,0
63700,0.884766,-0.32959,0.166016,0
63720,0.891602,-0.300293,0.181641,0
63740,0.892578,-0.281738,0.205078,0
63760,0.878906,-0.275879,0.20752,0
63780,0.878418,-0.225098,0.226074,0
63800,0.913574,-0.210938,0.252441,0
63820,0.91748,-0.221191,0.253906,0
63840,0.901367,-0.249512,0.254883,0
63860,0.919434,-0.212402,0.298828,0
63880,0.903809,-0.188965,0.323242,0
63900,0.852539,-0.215332,0.316406,0
63920,0.855957,-0.20166,0.341797,0
63940,0.894043,-0.224609,0.380371,0
63960,0.874512,-0.203613,0.379883,0
63980,0.852539,-0.209473,0.375977,0
64000,0.849121,-0.216797,0.405273,0
64020,0.840332,-0.21582,0.42334,0
64040,0.861816,-0.236816,0.40625,0
64060,0.835938,-0.224609,0.456543,0
64080,0.77002,-0.217773,0.458008,0
64100,0.758789,-0.208008,0.449707,0
64120,0.790039,-0.217773,0.451172,0
64140,0.755859,-0.202637,0.475586,0
64160,0.71875,-0.229004,0.5,0
64180,0.755371,-0.252441,0.475098,0
64200,0.743164,-0.25293,0.499512,0
64220,0.706543,-0.240234,0.497559,0
64240,0.706055,-0.271484,0.488281,0
64260,0.713867,-0.29248,0.500977,0
64280,0.712891,-0.30127,0.49707,0
64300,0.70752,-0.276367,0.52002,0
64320,0.70752,-0.317383,0.506836,0
64340,0.711914,-0.361328,0.508789,0
64360,0.702637,-0.362793,0.523926,0
64380,0.712891,-0.360352,0.511719,0
64400,0.688477,-0.366699,0.523438,0
64420,0.667969,-0.408203,0.535156,0
64440,0.67041,-0.419922,0.519531,0
64460,0.637695,-0.390625,0.538574,0
64480,0.635254,-0.417969,0.530762,0
64500,0.654785,-0.45752,0.522949,0
64520,0.64502,-0.462402,0.541504,0
64540,0.624023,-0.453613,0.524414,0
64560,0.636719,-0.493164,0.498535,0
64580,0.638672,-0.498535,0.5,0
64600,0.598633,-0.474121,0.513184,0
64620,0.594727,-0.516602,0.48584,0
64640,0.618164,-0.520508,0.482422,0
64660,0.592285,-0.53125,0.465332,0
64670,0.572266,-0.543945,0.465332,0
64690,0.581543,-0.55127,0.449707,0
64710,0.565918,-0.5625,0.432129,0
64730,0.55957,-0.581055,0.431641,0
64750,0.578125,-0.590332,0.413574,0
64770,0.570312,-0.604004,0.400879,0
64790,0.545898,-0.601562,0.386719,0
64810,0.56543,-0.621094,0.395996,0
64830,0.574707,-0.641113,0.371582,0
64850,0.58252,-0.638184,0.351074,0
64870,0.575195,-0.635742,0.355957,0
64890,0.575195,-0.652832,0.34082,0
64910,0.600098,-0.652344,0.330078,0
64930,0.623535,-0.645996,0.31543,0
64950,0.632812,-0.677734,0.29834,0
64970,0.618652,-0.688965,0.289551,0
64990,0.616699,-0.67041,0.288574,0
65010,0.665527,-0.680664,0.263184,0
65030,0.673828,-0.668457,0.26416,0
65050,0.628418,-0.663574,0.256348,0
65070,0.639648,-0.665527,0.245117,0
65090,0.67041,-0.654785,0.225586,0
65110,0.683105,-0.641602,0.217773,0
65130,0.677734,-0.627441,0.222656,0
65150,0.668945,-0.619629,0.19873,0
65170,0.691895,-0.620605,0.193848,0
65190,0.719238,-0.601562,0.189453,0
65210,0.727539,-0.566895,0.182617,0
65230,0.697266,-0.557617,0.182129,0
65250,0.720703,-0.585938,0.161621,0
65270,0.782227,-0.573242,0.154297,0
65290,0.757324,-0.539551,0.150879,0
65310,0.736816,-0.554199,0.141113,0
65330,0.741699,-0.552734,0.140625,0
65350,0.768066,-0.533203,0.152344,0
65370,0.776855,-0.508789,0.132324,0
65390,0.774414,-0.513672,0.126465,0
65410,0.77002,-0.508301,0.134277,0
65430,0.794434,-0.488281,0.146973,0
65450,0.807617,-0.466309,0.125977,0
65470,0.80127,-0.475098,0.131836,0
65490,0.811035,-0.474121,0.140137,0
65510,0.837402,-0.445801,0.145508,0
65530,0.850586,-0.458984,0.129883,0
65550,0.833496,-0.455566,0.137207,0
65570,0.809082,-0.422852,0.126953,0
65590,0.805664,-0.417969,0.135742,0
65610,0.84668,-0.435547,0.126465,0
65630,0.848633,-0.429199,0.111816,0
65650,0.802246,-0.396973,0.129883,0
65670,0.806641,-0.402344,0.111816,0
65690,0.828125,-0.417969,0.116699,0
65710,0.823242,-0.427246,0.116699,0
65730,0.801758,-0.418457,0.0991211,0
65750,0.820312,-0.424805,0.102539,0
65770,0.822754,-0.450684,0.0947266,0
65790,0.825684,-0.459473,0.105957,0
65810,0.826172,-0.435547,0.117676,0
65830,0.875488,-0.460449,0.100586,0
65850,0.900391,-0.454102,0.0942383,0
65870,0.87207,-0.444336,0.124023,1001
65890,0.867188,-0.447266,0.115723,0
65910,0.858887,-0.449707,0.111816,0
65930,0.850586,-0.472168,0.097168,0
65950,0.868164,-0.48584,0.0898438,0
65970,0.861816,-0.470703,0.103027,0
65990,0.831055,-0.462402,0.103516,0
66010,0.826172,-0.460449,0.100586,0
66030,0.833496,-0.453125,0.112793,0
66050,0.793945,-0.464844,0.102539,0
66070,0.76416,-0.460938,0.09375,0
66090,0.745605,-0.429199,0.109375,0
66110,0.754883,-0.446289,0.0976562,0
66130,0.782227,-0.470215,0.0854492,0
66150,0.770996,-0.456543,0.0932617,0
66170,0.74707,-0.448242,0.0976562,0
66190,0.739746,-0.437012,0.108887,0
66210,0.717285,-0.429688,0.107422,0
66230,0.700195,-0.422363,0.110352,0
66250,0.689453,-0.40918,0.125488,0
66270,0.686035,-0.412109,0.125977,0
66290,0.69043,-0.405273,0.134277,0
66310,0.686523,-0.385254,0.153809,0
66330,0.685059,-0.401367,0.152832,0
66350,0.755859,-0.441406,0.141113,0
66370,0.757324,-0.391602,0.182129,0
66390,0.725098,-0.402344,0.199219,0
66410,0.754395,-0.43457,0.23877,0
66430,0.777832,-0.433594,0.275391,0
