Timestamp, Acceleration x, Acceleration y, Acceleration z, Marker
40,-0.351562,-0.500488,0.733887,0
60,-0.347656,-0.51123,0.722656,0
80,-0.348633,-0.506348,0.730957,0
100,-0.349609,-0.491699,0.730957,0
120,-0.351074,-0.494141,0.723633,0
140,-0.351074,-0.515137,0.724609,0
160,-0.353516,-0.512695,0.71875,0
170,-0.347168,-0.503418,0.728027,0
180,-0.349121,-0.502441,0.732422,0
220,-0.357422,-0.506836,0.733887,0
240,-0.353027,-0.510254,0.722168,0
260,-0.350098,-0.506348,0.730469,0
280,-0.349609,-0.504883,0.727539,0
300,-0.353027,-0.5,0.728516,0
320,-0.361328,-0.506836,0.71875,0
340,-0.352051,-0.507324,0.725586,0
360,-0.346191,-0.496094,0.735352,0
380,-0.353516,-0.5,0.728027,0
400,-0.362305,-0.514648,0.726562,0
420,-0.341309,-0.498535,0.723145,0
440,-0.355469,-0.510742,0.726074,0
460,-0.358887,-0.516113,0.708984,0
480,-0.347168,-0.490234,0.731934,0
500,-0.352539,-0.509277,0.716309,0
520,-0.364746,-0.521484,0.714844,0
540,-0.353027,-0.495117,0.731445,0
560,-0.354492,-0.501953,0.720703,0
580,-0.355957,-0.51709,0.729004,0
600,-0.348633,-0.494141,0.729492,0
620,-0.343262,-0.481445,0.736816,0
640,-0.351074,-0.499512,0.73584,0
660,-0.349609,-0.51416,0.725098,0
680,-0.350586,-0.516113,0.721191,0
700,-0.351562,-0.509277,0.725586,0
720,-0.356445,-0.511719,0.724609,0
740,-0.355469,-0.504395,0.726562,0
760,-0.355957,-0.490723,0.730469,0
780,-0.360352,-0.510254,0.728027,0
800,-0.354492,-0.504883,0.718262,0
820,-0.347168,-0.501953,0.721191,0
840,-0.357422,-0.50293,0.721191,0
860,-0.34668,-0.496582,0.729492,0
880,-0.35791,-0.502441,0.730469,0
900,-0.353516,-0.506836,0.71582,0
920,-0.356445,-0.507324,0.729004,0
940,-0.349121,-0.503418,0.719727,0
960,-0.351562,-0.507812,0.728516,0
980,-0.356934,-0.505859,0.716309,0
1000,-0.347168,-0.505859,0.725586,0
1020,-0.351074,-0.501953,0.723145,0
1040,-0.351074,-0.506348,0.727051,0
1060,-0.349609,-0.501953,0.719727,0
1080,-0.364746,-0.529297,0.72168,0
1100,-0.351562,-0.50293,0.722168,0
1120,-0.338867,-0.507812,0.712891,0
1140,-0.354492,-0.513672,0.72168,0
1160,-0.354492,-0.51416,0.717285,0
1180,-0.363281,-0.513672,0.724609,0
1200,-0.352051,-0.513672,0.723633,0
1220,-0.349121,-0.510254,0.728027,0
1240,-0.345215,-0.496582,0.733887,0
1250,-0.348633,-0.485352,0.735352,0
1270,-0.354492,-0.520508,0.69873,0
1290,-0.361328,-0.521973,0.731934,0
1310,-0.338379,-0.489258,0.72998,0
1330,-0.36084,-0.515137,0.733398,0
1350,-0.351074,-0.509277,0.722168,0
1370,-0.348633,-0.496582,0.722656,0
1390,-0.347656,-0.500488,0.734863,0
1410,-0.357422,-0.507324,0.71875,0
1430,-0.348633,-0.50293,0.719727,0
1450,-0.346191,-0.497559,0.728516,0
1470,-0.353027,-0.511719,0.728516,0
1490,-0.352539,-0.509277,0.717285,0
1510,-0.349609,-0.503418,0.717285,0
1530,-0.36084,-0.513184,0.726074,0
1550,-0.342285,-0.497559,0.728516,0
1570,-0.351074,-0.513184,0.721191,0
1590,-0.354492,-0.501953,0.722168,0
1610,-0.348633,-0.5,0.73291,0
1630,-0.344727,-0.503906,0.721191,0
1650,-0.356934,-0.513672,0.729492,0
1670,-0.349121,-0.507324,0.720215,0
1690,-0.357422,-0.505859,0.725586,0
1710,-0.353027,-0.507324,0.725586,0
1730,-0.351562,-0.50293,0.729004,0
1750,-0.352539,-0.497559,0.730469,0
1770,-0.350098,-0.506348,0.720703,0
1790,-0.351074,-0.508301,0.723145,0
1810,-0.350098,-0.503418,0.716797,0
1830,-0.355469,-0.51123,0.719727,0
1850,-0.354492,-0.508301,0.722656,0
1870,-0.354004,-0.501465,0.723145,0
1890,-0.349609,-0.501953,0.729492,0
1910,-0.349121,-0.495605,0.72998,0
1930,-0.35498,-0.50293,0.723633,0
1950,-0.354004,-0.512207,0.714844,0
1970,-0.350586,-0.510254,0.716797,0
1990,-0.347656,-0.509766,0.721191,0
2010,-0.343262,-0.499512,0.733887,0
2030,-0.366211,-0.519043,0.728516,0
2050,-0.364258,-0.492188,0.731445,0
2070,-0.353516,-0.483887,0.728516,0
2090,-0.365234,-0.500977,0.725586,0
2110,-0.351562,-0.506836,0.723145,0
2130,-0.353516,-0.504395,0.719238,0
2150,-0.345703,-0.49707,0.721191,0
2170,-0.361816,-0.513184,0.725586,0
2190,-0.343262,-0.493652,0.719727,0
2210,-0.36084,-0.509277,0.723145,0
2230,-0.367188,-0.515625,0.724121,0
2250,-0.342285,-0.494629,0.722168,0
2270,-0.347656,-0.516113,0.710449,0
2290,-0.369141,-0.532227,0.714355,0
2310,-0.355469,-0.478516,0.736328,0
2330,-0.347656,-0.501465,0.722656,0
2350,-0.36377,-0.505859,0.725098,0
2370,-0.348145,-0.510742,0.723633,0
2390,-0.354492,-0.513672,0.722168,0
2410,-0.359375,-0.507812,0.726074,0
2430,-0.354004,-0.493652,0.726562,0
2450,-0.353027,-0.504883,0.729004,0
2470,-0.356934,-0.506348,0.724121,0
2490,-0.348633,-0.509277,0.720215,0
2510,-0.350098,-0.508301,0.725098,0
2530,-0.355469,-0.502441,0.726562,0
2550,-0.355469,-0.501953,0.727539,0
2570,-0.351074,-0.503418,0.726074,0
2590,-0.343262,-0.50293,0.730469,0
2610,-0.350586,-0.501953,0.729492,0
2630,-0.349121,-0.503418,0.728516,0
2650,-0.352051,-0.504395,0.724121,0
2670,-0.352539,-0.500977,0.728516,0
2690,-0.347656,-0.507324,0.727051,0
2710,-0.353027,-0.505859,0.728027,0
2730,-0.35498,-0.509766,0.727051,0
2750,-0.352539,-0.505859,0.723145,0
2770,-0.349121,-0.50293,0.723145,0
2790,-0.345215,-0.505859,0.722168,0
2810,-0.345215,-0.50293,0.725586,0
2830,-0.354004,-0.50293,0.731445,0
2850,-0.36084,-0.509766,0.723145,0
2870,-0.350586,-0.505859,0.719727,0
2890,-0.361328,-0.519043,0.724609,0
2910,-0.317383,-0.472656,0.716309,0
2930,-0.409668,-0.549316,0.716797,0
2950,-0.333008,-0.50293,0.726562,0
2970,-0.335938,-0.503418,0.720703,0
2990,-0.373047,-0.510742,0.71582,0
3010,-0.351074,-0.513184,0.729492,0
3030,-0.351074,-0.494141,0.729004,0
3050,-0.376465,-0.51416,0.708984,0
3070,-0.341309,-0.518555,0.725098,0
3090,-0.343262,-0.529297,0.703613,0
3110,-0.36377,-0.519043,0.712402,0
3130,-0.352539,-0.506348,0.727539,0
3150,-0.365723,-0.516602,0.724121,0
3170,-0.342285,-0.505371,0.720703,0
3190,-0.344727,-0.509277,0.723633,0
3210,-0.353516,-0.503418,0.715332,0
3230,-0.352539,-0.505371,0.724121,0
3250,-0.351074,-0.509766,0.720215,0
3270,-0.357422,-0.506836,0.728516,0
3290,-0.348145,-0.504883,0.731445,0
3310,-0.356445,-0.505371,0.726562,0
3330,-0.359375,-0.513184,0.722168,0
3350,-0.347168,-0.510254,0.727539,0
3370,-0.354004,-0.506836,0.713379,0
3390,-0.349121,-0.505371,0.732422,0
3410,-0.357422,-0.507324,0.727539,0
3430,-0.345703,-0.492676,0.734863,0
3450,-0.354004,-0.507812,0.725586,0
3470,-0.353027,-0.50293,0.721191,0
3490,-0.34082,-0.493164,0.726562,0
3510,-0.350098,-0.515137,0.720703,0
3530,-0.356445,-0.513184,0.724121,0
3550,-0.348633,-0.507324,0.71582,0
3570,-0.349121,-0.505859,0.728027,0
3590,-0.343262,-0.521484,0.714355,0
3610,-0.352051,-0.518555,0.723633,0
3630,-0.36084,-0.507324,0.719727,0
3650,-0.354004,-0.505859,0.723633,0
3670,-0.353027,-0.510742,0.71875,0
3690,-0.352051,-0.51416,0.713379,0
3710,-0.349121,-0.52002,0.716797,0
3710,-0.353516,-0.513184,0.724121,0
3730,-0.349121,-0.502441,0.725098,0
3750,-0.320312,-0.507812,0.744141,0
3770,-0.48291,-0.470703,0.618164,0
3790,-0.465332,-0.424805,0.617188,0
3810,-0.078125,-0.449707,0.630859,0
3840,-0.39502,-0.47168,0.46582,0
3880,-0.548828,-0.488281,0.586426,0
3890,-0.293945,-0.471191,0.691895,0
3910,-0.353027,-0.521973,0.71875,0
3930,-0.359375,-0.519043,0.715332,0
3950,-0.365234,-0.518066,0.709961,0
3970,-0.350586,-0.507324,0.720703,0
3990,-0.350586,-0.508789,0.720215,0
4010,-0.354004,-0.507812,0.720703,0
4030,-0.361816,-0.51416,0.722656,0
4050,-0.35791,-0.513672,0.716797,0
4070,-0.354004,-0.515625,0.721191,0
4090,-0.35498,-0.500488,0.724609,0
4110,-0.350586,-0.5,0.721191,0
4130,-0.358398,-0.518066,0.719727,0
4150,-0.350586,-0.518066,0.720215,0
4170,-0.351074,-0.504883,0.724121,0
4190,-0.35498,-0.506836,0.719238,0
4210,-0.359375,-0.501465,0.731934,0
4230,-0.359375,-0.513184,0.727539,0
4250,-0.353516,-0.499023,0.718262,0
4270,-0.349609,-0.504883,0.726562,0
4290,-0.357422,-0.507324,0.724121,0
4310,-0.355469,-0.499023,0.727539,0
4330,-0.354492,-0.505371,0.725098,0
4350,-0.354492,-0.516602,0.717285,0
4370,-0.348633,-0.513672,0.722168,0
4390,-0.353027,-0.507324,0.722656,0
4410,-0.354492,-0.504395,0.730469,0
4430,-0.357422,-0.491699,0.729004,0
4450,-0.355469,-0.504883,0.727051,0
4470,-0.36084,-0.525879,0.721191,0
4490,-0.333984,-0.495117,0.728516,0
4510,-0.37793,-0.51709,0.725098,0
4530,-0.388184,-0.506836,0.740234,0
4550,-0.272949,-0.493164,0.691895,0
4570,-0.406738,-0.527344,0.731445,0
4590,-0.348633,-0.498535,0.731445,0
4610,-0.333496,-0.489258,0.725586,0
4630,-0.376465,-0.518555,0.723145,0
4650,-0.350098,-0.518555,0.711914,0
4670,-0.35498,-0.515625,0.709961,0
4690,-0.352539,-0.496582,0.725098,0
4710,-0.359375,-0.502441,0.722168,0
4730,-0.364746,-0.508789,0.722656,0
4750,-0.361816,-0.52002,0.712402,0
4770,-0.354004,-0.509766,0.71875,0
4790,-0.350586,-0.501465,0.722656,0
4800,-0.36377,-0.51709,0.724609,0
4820,-0.343262,-0.499023,0.717773,0
4820,-0.354004,-0.506836,0.726562,0
4840,-0.352539,-0.503906,0.722656,0
4860,-0.353027,-0.506836,0.726074,0
4880,-0.359863,-0.512207,0.725586,0
4900,-0.353027,-0.493652,0.739746,0
4920,-0.347656,-0.495117,0.721191,0
4940,-0.372559,-0.512695,0.725586,0
4960,-0.355957,-0.49707,0.726562,0
4980,-0.355469,-0.495605,0.726074,0
5000,-0.354492,-0.501953,0.729004,0
5020,-0.352539,-0.503906,0.724121,0
5040,-0.347656,-0.487305,0.730469,0
5060,-0.351074,-0.500488,0.729492,0
5080,-0.358887,-0.510742,0.730957,0
5100,-0.353516,-0.504395,0.72998,0
5120,-0.356934,-0.497559,0.730469,0
5140,-0.359375,-0.513672,0.723145,0
5160,-0.346191,-0.503418,0.717285,0
5180,-0.357422,-0.501953,0.731445,0
5200,-0.352539,-0.484375,0.729004,0
5220,-0.35791,-0.502441,0.725586,0
5240,-0.361328,-0.509766,0.71875,0
5260,-0.35791,-0.490234,0.731934,0
5280,-0.350098,-0.507812,0.722168,0
5300,-0.352051,-0.49707,0.733887,0
5320,-0.351562,-0.503418,0.711426,0
5340,-0.351074,-0.508789,0.728027,0
5360,-0.350586,-0.49707,0.731445,0
5380,-0.35498,-0.50293,0.72168,0
5400,-0.356445,-0.507324,0.730957,0
5420,-0.35498,-0.5,0.731445,0
5440,-0.348145,-0.505371,0.719727,0
5460,-0.355957,-0.494141,0.725586,0
5480,-0.354492,-0.50293,0.73291,0
5500,-0.353516,-0.5,0.720215,0
5520,-0.350098,-0.510254,0.725098,0
5540,-0.352539,-0.494629,0.731934,0
5560,-0.352539,-0.515625,0.719238,0
5580,-0.353516,-0.510254,0.722656,0
5600,-0.350098,-0.51416,0.721191,0
5620,-0.351074,-0.506836,0.72168,0
5640,-0.35498,-0.498047,0.727051,0
5660,-0.353516,-0.499023,0.726074,0
5680,-0.356445,-0.495117,0.725098,0
5700,-0.358887,-0.507324,0.724609,0
5720,-0.352051,-0.498535,0.724121,0
5740,-0.356934,-0.494629,0.736816,0
5760,-0.353516,-0.506836,0.720703,0
5780,-0.355957,-0.507324,0.727539,0
5800,-0.354492,-0.507324,0.721191,0
5820,-0.349121,-0.492188,0.73584,0
5840,-0.350098,-0.500977,0.725098,0
5860,-0.35498,-0.506836,0.731934,0
5880,-0.350586,-0.49707,0.732422,0
5900,-0.35498,-0.493164,0.727051,0
5920,-0.349609,-0.510254,0.720215,0
5940,-0.352539,-0.507812,0.725586,0
5960,-0.353027,-0.506348,0.72998,0
5980,-0.352051,-0.496582,0.725098,0
6000,-0.356445,-0.504395,0.727051,0
6020,-0.358887,-0.498047,0.725586,0
6040,-0.358887,-0.505859,0.725098,0
6060,-0.350586,-0.503418,0.718262,0
6080,-0.351562,-0.505371,0.728027,0
6100,-0.344727,-0.492676,0.732422,0
6120,-0.351562,-0.510254,0.72168,0
6140,-0.35498,-0.506348,0.725586,0
6160,-0.354004,-0.500488,0.726074,0
6180,-0.353027,-0.502441,0.724609,0
6200,-0.352539,-0.505371,0.725586,0
6220,-0.353516,-0.505371,0.743652,0
6240,-0.331543,-0.457031,0.768555,0
6260,-0.362305,-0.516602,0.652832,0
6280,-0.358398,-0.489258,0.779297,0
6300,-0.346191,-0.515625,0.679688,0
6320,-0.358398,-0.503418,0.73584,0
6340,-0.36084,-0.515137,0.72168,0
6360,-0.349609,-0.48584,0.725586,0
6380,-0.352539,-0.507812,0.729004,0
6400,-0.356445,-0.499023,0.721191,0
6420,-0.350098,-0.51123,0.722656,0
6440,-0.355469,-0.507324,0.720703,0
6460,-0.351562,-0.505859,0.734375,0
6470,-0.347168,-0.485352,0.73584,0
6490,-0.35498,-0.506348,0.718262,0
6510,-0.34668,-0.524902,0.719727,0
6530,-0.344238,-0.507812,0.719727,0
6550,-0.351562,-0.511719,0.725586,0
6570,-0.347168,-0.497559,0.725098,0
6590,-0.351562,-0.514648,0.718262,0
6610,-0.346191,-0.515625,0.726562,0
6630,-0.344727,-0.511719,0.712402,0
6650,-0.345703,-0.516602,0.731934,0
6670,-0.350098,-0.503906,0.728516,0
6690,-0.34082,-0.493652,0.731445,0
6710,-0.342773,-0.505371,0.726074,0
6730,-0.343262,-0.521973,0.721191,0
6750,-0.346191,-0.515137,0.723145,0
6770,-0.351074,-0.490234,0.733887,0
6790,-0.348633,-0.505371,0.724121,0
6810,-0.355957,-0.513672,0.724609,0
6830,-0.345703,-0.515625,0.719238,0
6850,-0.34375,-0.51123,0.729004,0
6870,-0.341309,-0.495117,0.723633,0
6890,-0.342773,-0.502441,0.723145,0
6910,-0.345703,-0.509277,0.720215,0
6930,-0.350098,-0.509277,0.72998,0
6950,-0.348145,-0.501465,0.720215,0
6970,-0.343262,-0.504883,0.733887,0
6990,-0.343262,-0.510254,0.731445,0
7010,-0.34668,-0.504395,0.719727,0
7030,-0.344727,-0.516602,0.731445,0
7050,-0.345215,-0.507812,0.722168,0
7070,-0.345215,-0.494629,0.730469,0
7090,-0.350098,-0.507812,0.72998,0
7110,-0.345215,-0.506348,0.723145,0
7130,-0.348145,-0.51709,0.707031,0
7150,-0.379395,-0.570801,0.71582,0
7170,-0.273926,-0.396973,0.759277,0
7190,-0.395508,-0.581543,0.683105,0
7210,-0.344238,-0.469727,0.786621,0
7230,-0.328613,-0.495605,0.679688,0
7250,-0.374023,-0.506348,0.765625,0
7270,-0.344727,-0.510254,0.705566,0
7290,-0.341309,-0.514648,0.712891,0
7310,-0.359375,-0.5,0.720215,0
7330,-0.342285,-0.501465,0.726562,0
7350,-0.351074,-0.501953,0.715332,0
7370,-0.357422,-0.510742,0.736816,0
7390,-0.348145,-0.508301,0.721191,0
7410,-0.341309,-0.510742,0.729492,0
7430,-0.34668,-0.503906,0.729004,0
7450,-0.362305,-0.498047,0.731934,0
7470,-0.346191,-0.504395,0.725586,0
7490,-0.344727,-0.511719,0.719238,0
7510,-0.345215,-0.511719,0.723633,0
7530,-0.348145,-0.500977,0.728516,0
7550,-0.354004,-0.481445,0.730957,0
7570,-0.359863,-0.515137,0.721191,0
7590,-0.351074,-0.529785,0.719238,0
7610,-0.341797,-0.503906,0.728027,0
7630,-0.348633,-0.490723,0.731445,0
7650,-0.354492,-0.490723,0.72998,0
7670,-0.341309,-0.501953,0.727539,0
7690,-0.344238,-0.512207,0.725098,0
7710,-0.347656,-0.460938,0.740723,0
7730,-0.362793,-0.53418,0.713379,0
7750,-0.35498,-0.489258,0.734863,0
7770,-0.339355,-0.530762,0.708008,0
7790,-0.353027,-0.51416,0.721191,0
7810,-0.334473,-0.492676,0.737793,0
7830,-0.34375,-0.489746,0.726562,0
7850,-0.348145,-0.505371,0.713867,0
7870,-0.343262,-0.510742,0.725098,0
7890,-0.352539,-0.509766,0.726562,0
7910,-0.346191,-0.510254,0.728027,0
7930,-0.348145,-0.498535,0.726562,0
7950,-0.345215,-0.491211,0.731934,0
7970,-0.34668,-0.504883,0.726562,0
7990,-0.349121,-0.533691,0.724121,0
8010,-0.339355,-0.510254,0.730957,0
8030,-0.338379,-0.506348,0.72168,0
8050,-0.344238,-0.494141,0.722168,0
8070,-0.350098,-0.51123,0.727051,0
8090,-0.331055,-0.506348,0.722656,0
8110,-0.345215,-0.526367,0.717773,0
8130,-0.339355,-0.495605,0.726562,0
8150,-0.337402,-0.506348,0.728027,0
8170,-0.341797,-0.516113,0.725098,0
8190,-0.341797,-0.516602,0.729004,0
8210,-0.348633,-0.499512,0.728027,0
8230,-0.345703,-0.514648,0.718262,0
8250,-0.341309,-0.516602,0.717773,0
8270,-0.334961,-0.495117,0.724121,0
8290,-0.350098,-0.515625,0.732422,0
8310,-0.350586,-0.488281,0.730957,0
8330,-0.344238,-0.509766,0.716797,0
8330,-0.340332,-0.528809,0.72998,0
8350,-0.341797,-0.51416,0.712402,0
8370,-0.330566,-0.52002,0.722656,0
8370,-0.335449,-0.509766,0.728027,0
8390,-0.334473,-0.504395,0.732422,0
8410,-0.323242,-0.51709,0.720703,0
8430,-0.336914,-0.520508,0.724609,0
8440,-0.342773,-0.513672,0.728027,0
8450,-0.339844,-0.524414,0.723145,0
8470,-0.348145,-0.516113,0.723145,0
8490,-0.338867,-0.510742,0.731445,0
8510,-0.339844,-0.520996,0.720703,0
8510,-0.337402,-0.53125,0.711426,0
8530,-0.34082,-0.527344,0.722656,0
8550,-0.341309,-0.51709,0.734863,0
8570,-0.330566,-0.518066,0.726074,0
8570,-0.337402,-0.518555,0.733887,0
8590,-0.34668,-0.505859,0.728516,0
8610,-0.289551,-0.470703,0.76123,0
8630,-0.469238,-0.402344,0.553711,0
8650,-0.258301,-0.328613,0.427734,0
8690,-0.655273,-0.637695,1.00732,0
8710,0.120117,-0.416504,0.794922,0
8760,0.496582,-0.333984,0.495117,0
8810,0.224609,-0.388672,0.395996,0
8850,-0.318848,-0.590332,0.770508,0
8870,-0.359863,-0.471191,0.726562,0
8890,-0.336914,-0.500977,0.729004,0
8910,-0.340332,-0.51123,0.735352,0
8930,-0.340332,-0.500488,0.72998,0
8950,-0.336426,-0.498535,0.736328,0
8970,-0.338379,-0.497559,0.731934,0
8990,-0.345215,-0.508789,0.727539,0
9010,-0.348633,-0.509277,0.723633,0
9030,-0.34082,-0.507812,0.725098,0
9050,-0.338867,-0.508789,0.723633,0
9070,-0.34375,-0.505859,0.727539,0
9090,-0.34668,-0.504395,0.724121,0
9110,-0.347168,-0.504395,0.728516,0
9120,-0.346191,-0.509277,0.722656,0
9140,-0.344238,-0.504883,0.720215,0
9160,-0.342285,-0.514648,0.722168,0
9180,-0.348633,-0.507324,0.728027,0
9200,-0.337891,-0.495605,0.727539,0
9220,-0.342773,-0.513672,0.730469,0
9240,-0.344727,-0.501953,0.72998,0
9260,-0.351074,-0.513672,0.723145,0
9280,-0.356934,-0.516113,0.71582,0
9300,-0.343262,-0.513184,0.722168,0
9320,-0.346191,-0.505859,0.727051,0
9340,-0.350098,-0.500977,0.722168,0
9360,-0.341797,-0.502441,0.72998,0
9380,-0.348633,-0.516602,0.721191,0
9400,-0.335938,-0.516113,0.725098,0
9420,-0.348633,-0.507324,0.73291,0
9440,-0.344727,-0.504883,0.730957,0
9460,-0.346191,-0.517578,0.720215,0
9480,-0.34082,-0.491699,0.732422,0
9500,-0.349121,-0.497559,0.727539,0
9520,-0.344238,-0.510254,0.730957,0
9540,-0.34375,-0.493164,0.734863,0
9560,-0.348145,-0.493164,0.730469,0
9580,-0.347656,-0.501953,0.736328,0
9600,-0.351562,-0.502441,0.724609,0
9620,-0.346191,-0.509277,0.729004,0
9640,-0.349121,-0.507812,0.730469,0
9660,-0.344238,-0.501953,0.727051,0
9680,-0.346191,-0.504395,0.726562,0
9700,-0.34375,-0.503906,0.729492,0
9720,-0.347168,-0.500977,0.729492,0
9740,-0.342285,-0.50293,0.729004,0
9760,-0.349121,-0.505859,0.729492,0
9780,-0.344727,-0.508789,0.72998,0
9800,-0.350098,-0.50293,0.726562,0
9820,-0.341309,-0.50293,0.729004,0
9840,-0.342285,-0.500977,0.723145,0
9860,-0.350586,-0.499512,0.716797,0
9880,-0.3125,-0.45752,0.760742,0
9900,-0.361816,-0.518555,0.685059,0
9920,-0.361328,-0.529785,0.771973,0
9940,-0.302246,-0.48877,0.688965,0
9960,-0.376465,-0.521484,0.749023,0
9980,-0.34375,-0.498047,0.73584,0
10000,-0.324219,-0.501465,0.710938,0
10020,-0.354004,-0.505859,0.732422,0
10040,-0.343262,-0.500977,0.722168,0
10060,-0.341309,-0.498535,0.72998,0
10080,-0.352539,-0.505371,0.728027,0
10100,-0.348145,-0.509277,0.727539,0
10120,-0.341797,-0.501953,0.734863,0
10140,-0.347168,-0.495117,0.734375,0
10160,-0.354004,-0.503906,0.733887,0
10180,-0.341309,-0.495605,0.728027,0
10200,-0.34668,-0.504395,0.722656,0
10220,-0.355469,-0.508789,0.729492,0
10240,-0.340332,-0.510742,0.725586,0
10260,-0.349609,-0.506836,0.725586,0
10280,-0.348145,-0.51123,0.725098,0
10300,-0.34668,-0.513672,0.717773,0
10320,-0.344238,-0.505859,0.724121,0
10340,-0.353516,-0.503418,0.726074,0
10360,-0.354492,-0.513672,0.728027,0
10380,-0.348145,-0.504883,0.726562,0
10400,-0.351074,-0.505371,0.72168,0
10420,-0.348633,-0.520508,0.719238,0
10440,-0.349121,-0.52002,0.716797,0
10460,-0.346191,-0.500977,0.720703,0
10480,-0.345215,-0.500488,0.724609,0
10500,-0.354004,-0.514648,0.718262,0
10520,-0.348145,-0.508789,0.728516,0
10540,-0.343262,-0.505859,0.723145,0
10560,-0.349609,-0.515625,0.722656,0
10580,-0.347656,-0.529297,0.717285,0
10600,-0.339844,-0.514648,0.718262,0
10620,-0.34082,-0.518555,0.715332,0
10640,-0.350098,-0.52002,0.720215,0
10660,-0.347656,-0.509766,0.727051,0
10680,-0.347656,-0.504883,0.728516,0
10700,-0.351074,-0.521484,0.72168,0
10720,-0.348633,-0.516602,0.695801,0
10740,-0.385254,-0.581543,0.701172,0
10760,-0.301758,-0.441895,0.770508,0
10780,-0.34082,-0.507812,0.687988,0
10800,-0.388672,-0.539062,0.760254,0
10820,-0.307617,-0.503418,0.704102,0
10840,-0.360352,-0.51123,0.723633,0
10860,-0.364746,-0.514648,0.729004,0
10880,-0.344727,-0.500488,0.71875,0
10900,-0.357422,-0.499512,0.729492,0
10920,-0.349609,-0.499023,0.727539,0
10940,-0.353027,-0.500488,0.730957,0
10960,-0.352539,-0.501953,0.725098,0
10980,-0.353027,-0.5,0.728027,0
11000,-0.355469,-0.504395,0.731934,0
11020,-0.351562,-0.498047,0.725586,0
11040,-0.350586,-0.512207,0.72998,0
11060,-0.348145,-0.500977,0.718262,0
11080,-0.353516,-0.503906,0.724609,0
11100,-0.35498,-0.504395,0.727051,0
11120,-0.347656,-0.507324,0.71582,0
11140,-0.355957,-0.517578,0.724609,0
11160,-0.349609,-0.51123,0.71875,0
11180,-0.349609,-0.501953,0.723145,0
11200,-0.358398,-0.507324,0.724121,0
11220,-0.352539,-0.508789,0.731934,0
11240,-0.34375,-0.493652,0.735352,0
11260,-0.344727,-0.496094,0.727539,0
11280,-0.344727,-0.499512,0.722168,0
11300,-0.354492,-0.510254,0.727539,0
11320,-0.349609,-0.500977,0.734863,0
11340,-0.354004,-0.511719,0.717285,0
11360,-0.348633,-0.510254,0.726562,0
11380,-0.342285,-0.50293,0.723633,0
11400,-0.348633,-0.509277,0.72998,0
11420,-0.353027,-0.503418,0.723145,0
11440,-0.353027,-0.507812,0.725098,0
11460,-0.353516,-0.497559,0.726074,0
11480,-0.349609,-0.52002,0.71875,0
11500,-0.348633,-0.51709,0.722656,0
11520,-0.350098,-0.508301,0.727539,0
11540,-0.345703,-0.504883,0.724121,0
11560,-0.342773,-0.506348,0.724609,0
11580,-0.338867,-0.502441,0.729492,0
11600,-0.349121,-0.511719,0.723633,0
11620,-0.345215,-0.503418,0.729004,0
11640,-0.349609,-0.511719,0.727539,0
11660,-0.345703,-0.510742,0.725586,0
11680,-0.345703,-0.504395,0.726562,0
11700,-0.348145,-0.503906,0.730469,0
11720,-0.348145,-0.507324,0.730469,0
11740,-0.349121,-0.509766,0.733398,0
11760,-0.346191,-0.503418,0.730469,0
11770,-0.349609,-0.503906,0.731445,0
11790,-0.350586,-0.492676,0.732422,0
11810,-0.330078,-0.508789,0.717773,0
11830,-0.36084,-0.51709,0.726562,0
11850,-0.337891,-0.5,0.728516,0
11870,-0.345703,-0.48877,0.733398,0
11890,-0.350098,-0.516113,0.719238,0
11910,-0.349609,-0.501953,0.729492,0
11930,-0.344727,-0.501465,0.727539,0
11950,-0.350098,-0.519531,0.716797,0
11970,-0.353027,-0.505859,0.727051,0
11990,-0.335449,-0.50293,0.729492,0
12010,-0.349121,-0.504395,0.723633,0
12030,-0.348633,-0.512207,0.726562,0
12050,-0.344238,-0.519531,0.725586,0
12070,-0.351562,-0.513184,0.724609,0
12090,-0.344238,-0.509766,0.723633,0
12110,-0.344727,-0.507812,0.727539,0
12130,-0.352051,-0.510254,0.729492,0
12150,-0.356934,-0.519043,0.718262,0
12170,-0.347656,-0.53125,0.708008,0
12190,-0.345215,-0.512695,0.717773,0
12210,-0.351074,-0.5,0.729492,0
12230,-0.356934,-0.498535,0.732422,0
12250,-0.35791,-0.509277,0.717285,0
12270,-0.364258,-0.525391,0.713867,0
12290,-0.354492,-0.519531,0.716309,0
12310,-0.352051,-0.516602,0.71875,0
12330,-0.348633,-0.508301,0.712891,0
12350,-0.350586,-0.502441,0.726074,0
12370,-0.344238,-0.51123,0.720215,0
12390,-0.347168,-0.523438,0.709473,0
12390,-0.365723,-0.523438,0.717285,0
12410,-0.345703,-0.508301,0.728516,0
12430,-0.306152,-0.501465,0.703613,0
12470,-0.44873,-0.438477,0.681641,0
12490,-0.398926,-0.445801,0.668457,0
12510,-0.292969,-0.543945,0.761719,0
12530,-0.352051,-0.53418,0.708008,0
12550,-0.35498,-0.51709,0.726074,0
12570,-0.347656,-0.518555,0.713867,0
12590,-0.354004,-0.519531,0.71875,0
12610,-0.347656,-0.554688,0.709961,0
12630,-0.371582,-0.541504,0.702148,0
12650,-0.373047,-0.498047,0.724609,0
12670,-0.353027,-0.484863,0.730957,0
12690,-0.332031,-0.507324,0.716797,0
12710,-0.339355,-0.527344,0.727539,0
12730,-0.336426,-0.491211,0.741699,0
12750,-0.339844,-0.476074,0.729004,0
12770,-0.341797,-0.506348,0.736816,0
12790,-0.348145,-0.523926,0.741211,0
12800,-0.341309,-0.577148,0.733887,0
12820,-0.321289,-0.565918,0.744629,0
12840,-0.34375,-0.520508,0.73877,0
12860,-0.362305,-0.479004,0.713379,0
12880,-0.379883,-0.458496,0.692871,0
12900,-0.383301,-0.432129,0.698242,0
12920,-0.380371,-0.427734,0.706543,0
12940,-0.381348,-0.441895,0.719238,0
12960,-0.377441,-0.458984,0.730469,0
12980,-0.36377,-0.488281,0.722168,0
13000,-0.355957,-0.523438,0.708984,0
13020,-0.359375,-0.543945,0.70752,0
13040,-0.345703,-0.551758,0.727539,0
13060,-0.334473,-0.521484,0.708496,0
13080,-0.348145,-0.597168,0.713867,0
13100,-0.321289,-0.556641,0.741211,0
13120,-0.288086,-0.477539,0.746582,0
13140,-0.329102,-0.491211,0.734375,0
13160,-0.352539,-0.507324,0.720703,0
13180,-0.34668,-0.492188,0.719727,0
13200,-0.360352,-0.494141,0.716309,0
13220,-0.367188,-0.50293,0.720703,0
13240,-0.359375,-0.525879,0.731934,0
13260,-0.354492,-0.524414,0.72998,0
13280,-0.364746,-0.523926,0.735352,0
13300,-0.352539,-0.530273,0.743164,0
13320,-0.34375,-0.536621,0.753906,0
13340,-0.351562,-0.550781,0.753418,0
13360,-0.342773,-0.593262,0.730957,0
13380,-0.328125,-0.645996,0.751953,0
13400,-0.308594,-0.600586,0.788086,0
13420,-0.341309,-0.499023,0.790039,0
13440,-0.356445,-0.502441,0.754395,0
13460,-0.255859,-0.546875,0.786133,0
13480,-0.202148,-0.412109,0.752441,0
13500,-0.147949,-0.659668,0.728516,0
13520,-0.293457,-0.847168,0.810547,0
13540,-0.206543,-0.845215,0.807617,0
13560,-0.0664062,-0.774414,0.748535,0
13580,-0.0942383,-0.655273,0.737305,0
13600,-0.0830078,-0.580566,0.770996,0
13620,-0.0263672,-0.575195,0.757324,0
13640,0.00732422,-0.60498,0.719238,0
13660,0.0361328,-0.651855,0.732422,0
13680,0.0449219,-0.648438,0.728027,0
13700,0.0458984,-0.63916,0.70459,0
13720,0.0473633,-0.618164,0.711426,0
13740,0.078125,-0.606934,0.688477,0
13760,0.10791,-0.586914,0.668457,0
13780,0.123047,-0.591797,0.641602,0
13800,0.0981445,-0.59082,0.646484,0
13820,0.0986328,-0.619629,0.635742,0
13840,0.138672,-0.646973,0.603027,0
13860,0.158691,-0.622559,0.580566,0
13880,0.15918,-0.623047,0.560059,0
13900,0.155762,-0.641602,0.554199,0
13900,0.171875,-0.63916,0.55957,0
13920,0.182617,-0.683105,0.566406,0
13940,0.213867,-0.6875,0.564941,0
13960,0.219238,-0.659668,0.334961,0
13980,0.312012,-0.657227,0.437988,0
14000,-0.034668,-0.681641,0.445312,0
14020,-0.436035,-0.833496,0.784668,0
14040,0.348633,-0.708008,0.730957,0
14070,1.12061,-0.604004,0.57959,0
14090,1.38428,-0.592773,0.552734,0
14110,1.29639,-0.687988,0.702148,0
14120,0.395996,-0.863281,0.799805,0
14130,-0.572754,-0.772949,0.213379,0
14150,1.01904,-0.645996,0.682617,0
14170,-0.552246,-0.81543,0.226562,0
14190,0.720215,-0.852539,0.837402,0
14200,0.63623,-0.665527,0.53125,0
14220,-0.323242,-0.789551,0.149414,0
14240,-0.387207,-0.919922,0.230957,0
14260,-0.0214844,-0.931152,0.472168,0
14280,0.227051,-0.91748,0.615234,0
14300,0.280273,-0.924316,0.653809,0
14310,0.134766,-0.945801,0.556152,0
14360,0.63916,-0.779785,1.10889,0
14380,-0.325684,-0.994141,-0.0561523,0
14400,0.246094,-0.61084,0.355469,0
14420,0.630371,-0.780273,1.21143,0
14460,0.805664,-0.559082,1.29199,0
14480,-0.370605,-1.02734,-0.284668,0
14500,0.773926,-0.544434,1.33398,0
14520,-0.413574,-1.01172,-0.504883,0
14540,0.577637,-0.725098,1.48828,0
14560,0.206543,-0.702148,0.0375977,0
14580,-0.365234,-1.04785,-0.168457,0
14600,0.527344,-0.668457,1.56885,0
14620,0.646484,-0.563965,0.879395,0
14620,0.00390625,-0.869629,-0.49707,0
14640,-0.394531,-1.08105,-0.474609,0
14660,-0.012207,-0.90625,0.837402,0
14680,0.613281,-0.608887,1.70996,0
14700,0.6875,-0.536133,1.00342,0
14720,0.0908203,-0.829102,-0.377441,0
14740,-0.36084,-1.06836,-0.612793,0
14760,-0.148926,-0.969238,0.540527,0
14770,0.437012,-0.680176,1.61523,0
14800,0.742188,-0.516113,1.50049,0
14810,0.423828,-0.648438,0.266113,0
14830,-0.244141,-0.885742,0.769043,0
14850,0.260742,-0.802734,0.627441,0
14870,0.243164,-0.770996,0.513184,0
14890,0.204102,-0.786133,0.504883,0
14910,0.172363,-0.799805,0.496582,0
14930,0.190918,-0.789551,0.496094,0
14950,0.0405273,-0.869141,0.861328,0
14970,0.398926,-0.597168,0.847168,0
14990,-0.400391,-1.06836,-0.319336,0
15010,0.280273,-0.776855,1.34375,0
15030,0.702148,-0.540039,1.68555,0
15050,0.65332,-0.563965,0.844238,0
15070,0.161133,-0.788086,-0.3125,0
15090,-0.298828,-1.01855,-0.729004,0
15110,-0.371582,-1.06592,-0.154785,0
15130,0.0571289,-0.86084,1.0752,0
15150,-0.465332,-0.836426,0.641113,0
15170,-0.108398,-0.750488,0.359375,0
15190,0.209961,-0.789062,0.504395,0
15210,0.190918,-0.787598,0.491699,0
15230,0.177246,-0.786133,0.49707,0
15250,0.205566,-0.792969,0.507812,0
15270,0.202637,-0.787109,0.519043,0
15290,0.164062,-0.777832,0.506836,0
15310,0.1875,-0.782715,0.500488,0
15330,0.20459,-0.770508,0.508301,0
15350,0.183105,-0.777832,0.500488,0
15370,0.171875,-0.782715,0.499023,0
15390,0.173828,-0.784668,0.498535,0
15410,0.161133,-0.799316,0.498047,0
15430,0.165527,-0.799316,0.503418,0
15450,0.172363,-0.779785,0.51123,0
15470,0.150879,-0.785645,0.496094,0
15490,0.166016,-0.785645,0.518555,0
15510,0.154785,-0.790527,0.521973,0
15530,0.14502,-0.805664,0.515625,0
15550,0.167969,-0.797363,0.509277,0
15570,0.156738,-0.767578,0.508301,0
15590,0.144043,-0.775391,0.502441,0
15610,0.176758,-0.786133,0.500488,0
15630,0.175293,-0.787598,0.512207,0
15650,0.146484,-0.787598,0.521484,0
15670,0.168945,-0.79834,0.524414,0
15690,0.169434,-0.791016,0.517578,0
15710,0.156738,-0.77832,0.514648,0
15730,0.166504,-0.77832,0.508301,0
15750,0.181152,-0.774414,0.505371,0
15770,0.179199,-0.776367,0.510742,0
15790,0.169434,-0.769043,0.509277,0
15810,0.156738,-0.778809,0.511719,0
15830,0.163574,-0.785645,0.507812,1000
15850,0.181641,-0.784668,0.501953,0
15870,0.167969,-0.775391,0.498535,0
15890,0.145996,-0.790527,0.498535,0
15910,0.164551,-0.787598,0.507812,0
15930,0.171387,-0.759277,0.520996,0
15950,0.152344,-0.763672,0.514648,0
15970,0.165527,-0.77002,0.515625,0
15990,0.1875,-0.780273,0.51416,0
16010,0.171875,-0.791016,0.516602,0
16030,0.162598,-0.797852,0.513184,0
16050,0.192871,-0.786133,0.499512,0
16070,0.1875,-0.773438,0.495605,0
16090,0.163086,-0.787598,0.503906,0
16110,0.160156,-0.809082,0.520508,0
16130,0.157715,-0.789551,0.516602,0
16150,0.15918,-0.772461,0.512207,0
16170,0.182129,-0.767578,0.506348,0
16190,0.175293,-0.769043,0.513672,0
16210,0.14502,-0.784668,0.530273,0
16230,0.174316,-0.803711,0.522949,0
16240,0.203613,-0.798828,0.51123,0
16260,0.168945,-0.778809,0.504395,0
16280,0.169434,-0.757324,0.507324,0
16300,0.168945,-0.788574,0.51123,0
16320,0.181641,-0.79541,0.510742,0
16340,0.183105,-0.797852,0.522949,0
16360,0.170898,-0.76416,0.509766,0
16380,0.161133,-0.756348,0.505371,0
16400,0.160645,-0.78125,0.520996,0
16420,0.187988,-0.793457,0.518555,0
16440,0.184082,-0.768066,0.521484,0
16460,0.168945,-0.780273,0.51123,0
16480,0.172363,-0.782715,0.52002,0
16500,0.155273,-0.786133,0.513672,0
16520,0.15332,-0.791992,0.509277,0
16540,0.17334,-0.774902,0.503906,0
16560,0.19043,-0.773926,0.507324,0
16580,0.158203,-0.776367,0.513672,0
16600,0.151367,-0.780762,0.510254,0
16620,0.177246,-0.751953,0.520996,0
16640,0.180664,-0.768555,0.524902,0
16660,0.179688,-0.786133,0.500488,0
16680,0.174805,-0.799316,0.52002,0
16700,0.194824,-0.788574,0.506836,0
16720,0.188477,-0.793945,0.499512,0
16740,0.165527,-0.78418,0.521484,0
16760,0.166016,-0.771484,0.52002,0
16780,0.180664,-0.777832,0.522949,0
16800,0.178711,-0.777344,0.516113,0
16820,0.180176,-0.777344,0.516113,0
16840,0.187012,-0.78125,0.509277,0
16860,0.166992,-0.779785,0.512695,0
16880,0.167969,-0.775879,0.515625,0
16900,0.159668,-0.776855,0.51416,0
16920,0.167969,-0.774902,0.510254,0
16940,0.169922,-0.800781,0.512207,0
16960,0.175781,-0.801758,0.507324,0
16980,0.17041,-0.76709,0.505371,0
17000,0.152832,-0.760254,0.510742,0
17020,0.154297,-0.783691,0.511719,0
17040,0.171875,-0.794922,0.516602,0
17060,0.164062,-0.787109,0.508789,0
17080,0.167969,-0.76709,0.5,0
17100,0.165527,-0.770508,0.514648,0
17120,0.167969,-0.786133,0.515625,0
17140,0.168945,-0.796387,0.515625,0
17160,0.168945,-0.794922,0.521973,0
17180,0.166992,-0.786621,0.514648,0
17200,0.165039,-0.782227,0.513672,0
17220,0.174316,-0.788574,0.506836,0
17240,0.191406,-0.779297,0.513672,0
17260,0.17041,-0.771973,0.521484,0
17280,0.164062,-0.769043,0.508301,0
17300,0.167969,-0.790527,0.513672,0
17320,0.185547,-0.788574,0.517578,0
17340,0.178711,-0.787109,0.505859,0
17360,0.162109,-0.78418,0.499023,0
17380,0.166504,-0.783203,0.518555,0
17400,0.17041,-0.772461,0.515625,0
17420,0.147949,-0.787598,0.496582,0
17440,0.166504,-0.786621,0.511719,0
17460,0.176758,-0.765625,0.5,0
17480,0.152832,-0.775391,0.491211,0
17500,0.15625,-0.779785,0.499023,0
17520,0.17334,-0.793945,0.498535,0
17540,0.151855,-0.791504,0.508301,0
17560,0.15332,-0.769043,0.510254,0
17580,0.168945,-0.774414,0.509277,0
17600,0.171387,-0.791016,0.510742,0
17620,0.154785,-0.775879,0.516113,0
17640,0.160645,-0.772461,0.516113,0
17660,0.15918,-0.772461,0.518066,0
17680,0.166504,-0.774902,0.52002,0
17700,0.189453,-0.782227,0.521973,0
17720,0.188477,-0.790527,0.516602,0
17740,0.19873,-0.787109,0.511719,0
17760,0.203613,-0.772461,0.521973,0
17780,0.203125,-0.77002,0.518555,0
17800,0.197266,-0.786621,0.509277,0
17820,0.205078,-0.779297,0.512695,0
17840,0.20166,-0.775391,0.519043,0
17860,0.211426,-0.776367,0.510254,0
17880,0.208984,-0.76416,0.503418,0
17900,0.183594,-0.763184,0.509277,0
17920,0.202637,-0.750977,0.519043,0
17940,0.223633,-0.75,0.518066,0
17960,0.219238,-0.748535,0.487793,0
17980,0.203125,-0.741211,0.496582,0
18000,0.223633,-0.737305,0.52002,0
18020,0.228027,-0.753418,0.507812,0
18040,0.217773,-0.757812,0.519531,0
18060,0.223633,-0.757812,0.524414,0
18080,0.268555,-0.748535,0.51709,0
18100,0.256348,-0.742676,0.517578,0
18120,0.243652,-0.761719,0.519531,0
18140,0.27002,-0.751953,0.533691,0
18160,0.27002,-0.744629,0.512695,0
18180,0.283203,-0.744141,0.517578,0
18200,0.305176,-0.731934,0.525879,0
18220,0.277832,-0.73291,0.518066,0
18240,0.276367,-0.749512,0.523926,0
18260,0.295898,-0.741211,0.543945,0
18280,0.318848,-0.724609,0.536621,0
18300,0.318359,-0.732422,0.516602,0
18320,0.326172,-0.73291,0.536621,0
18340,0.332031,-0.726562,0.537598,0
18360,0.334961,-0.713867,0.536621,0
18380,0.339355,-0.70752,0.521973,0
18400,0.363281,-0.703125,0.507324,0
18420,0.375,-0.691406,0.519043,0
18440,0.349609,-0.707031,0.518555,0
18460,0.355957,-0.719727,0.507812,0
18480,0.392578,-0.696289,0.509277,0
18500,0.379395,-0.681641,0.507324,0
18520,0.327148,-0.688965,0.498535,0
18540,0.344727,-0.700684,0.516602,0
18560,0.393555,-0.693359,0.520996,0
18580,0.406738,-0.688477,0.501953,0
18600,0.393555,-0.683594,0.504883,0
18620,0.406738,-0.666504,0.513672,0
18640,0.406738,-0.68457,0.513184,0
18660,0.427246,-0.677734,0.503418,0
18680,0.450684,-0.653809,0.503418,0
18700,0.462402,-0.641113,0.485352,0
18720,0.421875,-0.625977,0.499023,0
18740,0.449219,-0.645508,0.507324,0
18760,0.481934,-0.63916,0.5,0
18780,0.490723,-0.62207,0.48877,0
18800,0.501465,-0.625488,0.492676,0
18820,0.478516,-0.624023,0.48291,0
18840,0.496094,-0.629395,0.48584,0
18860,0.491211,-0.626465,0.494629,0
18880,0.525879,-0.615234,0.489746,0
18900,0.521484,-0.593262,0.498047,0
18920,0.500977,-0.602051,0.484863,0
18940,0.507812,-0.592285,0.501465,0
18960,0.507812,-0.577637,0.522461,0
18980,0.538574,-0.57666,0.499023,0
19000,0.546387,-0.589844,0.488281,0
19020,0.531738,-0.577637,0.482422,0
19040,0.552246,-0.557617,0.513184,0
19060,0.581543,-0.57959,0.487793,0
19080,0.591797,-0.561035,0.499512,0
19100,0.554199,-0.544434,0.501465,0
19120,0.541504,-0.516602,0.51709,0
19140,0.584961,-0.532227,0.48877,0
19160,0.600098,-0.524414,0.472656,0
19180,0.589355,-0.510254,0.488281,0
19200,0.614258,-0.496094,0.490234,0
19220,0.586426,-0.502441,0.465332,0
19240,0.617676,-0.500977,0.472656,0
19260,0.629883,-0.506836,0.489746,0
19280,0.627441,-0.495117,0.485352,0
19300,0.628418,-0.473145,0.487793,0
19320,0.662598,-0.475098,0.49707,0
19340,0.650391,-0.458496,0.469238,0
19360,0.693359,-0.474609,0.460938,0
19380,0.650391,-0.456055,0.464355,0
19400,0.673828,-0.437988,0.475098,0
19420,0.675293,-0.443359,0.453613,0
19440,0.70752,-0.422852,0.459473,0
19460,0.6875,-0.452148,0.43457,0
19480,0.703613,-0.436523,0.450684,0
19500,0.667969,-0.405762,0.458496,0
19520,0.700684,-0.40625,0.427734,0
19540,0.680664,-0.402832,0.445312,0
19550,0.719238,-0.380371,0.403809,0
19570,0.733398,-0.394531,0.442383,0
19590,0.754395,-0.370117,0.435547,0
19610,0.737305,-0.370117,0.408203,0
19630,0.674316,-0.380371,0.440918,0
19650,0.761719,-0.366699,0.420898,0
19670,0.782227,-0.364258,0.422363,0
19690,0.768066,-0.350586,0.409668,0
19710,0.807617,-0.345215,0.404297,0
19730,0.779785,-0.345703,0.391113,0
19750,0.790039,-0.307129,0.411133,0
19770,0.763672,-0.310547,0.429199,0
19790,0.798828,-0.30957,0.422852,0
19810,0.769531,-0.311523,0.402832,0
19830,0.779785,-0.287598,0.415039,0
19850,0.789551,-0.332031,0.432617,0
19870,0.744141,-0.288574,0.449707,0
19890,0.748047,-0.286133,0.453125,0
19910,0.760742,-0.291016,0.458008,0
19930,0.779297,-0.305664,0.441895,0
19950,0.758301,-0.29541,0.457031,0
19970,0.744141,-0.273926,0.464355,0
19990,0.750977,-0.307617,0.453613,0
20010,0.763184,-0.295898,0.478027,0
20030,0.727539,-0.273438,0.49707,0
20050,0.712402,-0.319336,0.515137,0
20070,0.758789,-0.300781,0.5,0
20090,0.742188,-0.281738,0.513184,0
20110,0.675293,-0.307617,0.527832,0
20130,0.680176,-0.222168,0.567871,0
20150,0.706543,-0.288574,0.518066,0
20170,0.67627,-0.32666,0.55127,0
20190,0.665039,-0.278809,0.571777,0
20210,0.635254,-0.337402,0.585938,0
20230,0.632812,-0.310059,0.602539,0
20250,0.62793,-0.297363,0.586426,0
20270,0.628418,-0.296387,0.571777,0
20290,0.643066,-0.301758,0.588379,0
20310,0.651367,-0.289062,0.60791,0
20330,0.586426,-0.308594,0.621582,0
20350,0.586426,-0.34668,0.623535,0
20370,0.602051,-0.328125,0.599121,0
20390,0.608887,-0.310547,0.615234,0
20410,0.563965,-0.285645,0.656738,0
20430,0.575195,-0.304688,0.6875,0
20450,0.608887,-0.313965,0.648438,0
20470,0.607422,-0.26709,0.67334,0
20490,0.570312,-0.254883,0.670898,0
20510,0.578125,-0.260742,0.664062,0
20530,0.58252,-0.294434,0.662598,0
20550,0.560547,-0.29834,0.661133,0
20570,0.540039,-0.328125,0.703125,0
20590,0.48291,-0.348145,0.723633,0
20610,0.438965,-0.333008,0.736328,0
20630,0.443848,-0.307129,0.741699,0
20650,0.515137,-0.28418,0.718262,0
20670,0.492188,-0.287598,0.697754,0
20690,0.469238,-0.320801,0.748047,0
20710,0.465332,-0.335938,0.757812,0
20730,0.493652,-0.305664,0.688477,0
20750,0.487305,-0.250977,0.683105,0
20770,0.475098,-0.235352,0.73291,0
20790,0.5,-0.285645,0.718262,0
20810,0.446289,-0.308594,0.72168,0
20830,0.415039,-0.32373,0.723145,0
20850,0.453613,-0.338867,0.741211,0
20870,0.461426,-0.327148,0.76416,0
20890,0.408691,-0.300293,0.749023,0
20910,0.370605,-0.297363,0.754883,0
20930,0.391602,-0.345703,0.818848,0
20950,0.400879,-0.348145,0.800293,0
20970,0.428223,-0.341309,0.759277,0
20990,0.393066,-0.341309,0.754883,0
21010,0.388184,-0.330566,0.74707,0
21030,0.396973,-0.338379,0.759277,0
21050,0.36084,-0.353027,0.746582,0
21060,0.373535,-0.351562,0.740723,0
21090,0.38623,-0.345703,0.758301,0
21110,0.365723,-0.397461,0.746094,0
21130,0.34082,-0.422852,0.767578,0
21150,0.361816,-0.401855,0.742188,0
21170,0.407715,-0.370117,0.717285,0
21190,0.333984,-0.357422,0.743164,0
21210,0.280273,-0.388184,0.72998,0
21230,0.344727,-0.429199,0.726074,0
21250,0.418457,-0.45166,0.751953,0
21270,0.403809,-0.426758,0.757812,0
21290,0.363281,-0.439453,0.760254,0
21310,0.379883,-0.42041,0.757812,0
21330,0.399414,-0.396484,0.743652,0
21350,0.407227,-0.405762,0.727051,0
21370,0.383301,-0.411621,0.745117,0
21390,0.311523,-0.45752,0.729004,0
21410,0.283203,-0.440918,0.710938,0
21430,0.321777,-0.437012,0.76416,0
21450,0.312988,-0.410645,0.710449,0
21470,0.292969,-0.416504,0.732422,0
21490,0.338379,-0.41748,0.712402,0
21500,0.330566,-0.39502,0.716309,0
21520,0.23877,-0.391602,0.710938,0
21540,0.230957,-0.44043,0.699219,0
21560,0.356934,-0.44873,0.727051,0
21580,0.387695,-0.429199,0.705566,0
21600,0.375488,-0.437012,0.724121,0
21620,0.384766,-0.469727,0.709473,0
21640,0.387695,-0.501465,0.694336,0
21660,0.349609,-0.480469,0.689941,0
21680,0.371094,-0.495117,0.700684,0
21700,0.354004,-0.474609,0.694824,0
21720,0.288574,-0.478516,0.687012,0
21740,0.297852,-0.513184,0.70752,0
21760,0.323242,-0.519043,0.729492,0
21780,0.341797,-0.498535,0.729004,0
21800,0.371094,-0.457031,0.728516,0
21820,0.333008,-0.466309,0.712402,0
21840,0.297852,-0.494141,0.683594,0
21860,0.352051,-0.493164,0.687988,0
21880,0.311523,-0.45752,0.678711,0
21900,0.283203,-0.455566,0.692383,0
21920,0.322754,-0.50293,0.698242,0
21940,0.384766,-0.519043,0.687988,0
21960,0.408691,-0.524414,0.686035,0
21980,0.371582,-0.50293,0.686523,0
22000,0.335938,-0.516602,0.686523,0
22020,0.331055,-0.539551,0.692383,0
22040,0.351562,-0.519531,0.651367,0
22060,0.345703,-0.513672,0.654297,0
22080,0.319336,-0.494141,0.687988,0
22100,0.355469,-0.515137,0.677734,0
22120,0.380859,-0.490234,0.666504,0
22140,0.358398,-0.48584,0.662109,0
22160,0.39209,-0.502441,0.67334,0
22180,0.334473,-0.526855,0.662598,0
22200,0.308105,-0.521973,0.674805,0
22220,0.338867,-0.496582,0.65625,0
22240,0.378906,-0.494629,0.655273,0
22260,0.364746,-0.518066,0.670898,0
22280,0.352051,-0.539551,0.646973,0
22300,0.366211,-0.521973,0.650391,0
22320,0.398926,-0.522949,0.682617,0
22340,0.431152,-0.517578,0.672852,0
22360,0.427246,-0.511719,0.651367,0
22380,0.409668,-0.496094,0.675293,0
22400,0.395996,-0.503906,0.67041,0
22420,0.403809,-0.532715,0.63623,0
22440,0.447754,-0.519043,0.639648,0
22460,0.450195,-0.493652,0.666016,0
22480,0.427734,-0.5,0.647949,0
22500,0.429688,-0.490723,0.638672,0
22520,0.436523,-0.473145,0.65625,0
22540,0.427734,-0.477051,0.638672,0
22560,0.40332,-0.479492,0.64502,0
22580,0.426758,-0.510742,0.637695,0
22600,0.482422,-0.52832,0.598145,0
22620,0.497559,-0.508789,0.610352,0
22640,0.46875,-0.490723,0.635742,0
22660,0.488281,-0.508301,0.596191,0
22680,0.499023,-0.543457,0.597168,0
22700,0.466797,-0.553223,0.644043,0
22720,0.476074,-0.537109,0.625,0
22740,0.522949,-0.480469,0.600098,0
22760,0.53125,-0.473145,0.630371,0
22780,0.490234,-0.499023,0.606445,0
22800,0.462891,-0.479004,0.609375,0
22820,0.458496,-0.45166,0.587402,0
22840,0.52002,-0.440918,0.560059,0
22860,0.539062,-0.445312,0.584473,0
22880,0.483398,-0.463379,0.618652,0
22900,0.482422,-0.513672,0.603516,0
22920,0.550293,-0.512207,0.584961,0
22940,0.575684,-0.469727,0.580078,0
22960,0.552734,-0.440918,0.589355,0
22980,0.553223,-0.472656,0.587891,0
23000,0.580078,-0.478027,0.565918,0
23020,0.57373,-0.462891,0.541504,0
23040,0.558105,-0.458496,0.556641,0
23060,0.584473,-0.449707,0.60791,0
23080,0.604492,-0.447754,0.603027,0
23100,0.608887,-0.460449,0.583008,0
23120,0.606445,-0.464355,0.541504,0
23140,0.630859,-0.45166,0.540527,0
23160,0.612305,-0.423828,0.549805,0
23180,0.606934,-0.415527,0.557129,0
23200,0.635742,-0.436035,0.54248,0
23220,0.617676,-0.443359,0.535645,0
23240,0.59082,-0.429199,0.536621,0
23260,0.589844,-0.42627,0.552246,0
23280,0.628418,-0.401367,0.564453,0
23300,0.642578,-0.421875,0.535156,0
23320,0.640625,-0.442383,0.505371,0
23340,0.649902,-0.453125,0.513672,0
23360,0.664551,-0.443359,0.51123,0
23380,0.665039,-0.409668,0.496094,0
23400,0.662598,-0.415039,0.5,0
23420,0.665527,-0.432617,0.520508,0
23440,0.638184,-0.439941,0.515625,0
23460,0.630859,-0.417969,0.499512,0
23480,0.640137,-0.399902,0.499512,0
23500,0.632812,-0.386719,0.518555,0
23520,0.658203,-0.408691,0.486328,0
23540,0.662598,-0.437012,0.462402,0
23560,0.651367,-0.426758,0.470215,0
23580,0.666992,-0.403809,0.478516,0
23600,0.674316,-0.390625,0.473145,0
23620,0.702637,-0.404785,0.469238,0
23640,0.712891,-0.43457,0.464355,0
23660,0.720215,-0.435547,0.477539,0
23680,0.713379,-0.399902,0.458984,0
23700,0.71582,-0.394043,0.467285,0
23720,0.747559,-0.370117,0.483398,0
23740,0.726074,-0.356445,0.470703,0
23760,0.734863,-0.35498,0.447754,0
23780,0.730469,-0.394043,0.419922,0
23800,0.740723,-0.387207,0.404785,0
23820,0.733887,-0.358398,0.400879,0
23840,0.754395,-0.331055,0.406738,0
23860,0.772949,-0.343262,0.39209,0
23880,0.793945,-0.369141,0.383789,0
23900,0.758301,-0.404785,0.416992,0
23920,0.741699,-0.406738,0.440918,0
23940,0.669922,-0.391602,0.460938,0
23960,0.761719,-0.350586,0.424805,0
23980,0.747559,-0.351074,0.383789,0
24000,0.758301,-0.380859,0.355957,0
24020,0.740723,-0.376465,0.378906,0
24040,0.79248,-0.37793,0.338379,0
24060,0.800781,-0.329102,0.36377,0
24080,0.819336,-0.324707,0.359863,0
24100,0.85791,-0.334961,0.339844,0
24120,0.833008,-0.349609,0.311523,0
24140,0.846191,-0.333496,0.318848,0
24160,0.8125,-0.312012,0.295898,0
24180,0.833496,-0.316895,0.288574,0
24200,0.843262,-0.305664,0.339355,0
24220,0.86377,-0.295898,0.323242,0
24240,0.830566,-0.298828,0.280762,0
24260,0.82373,-0.29834,0.282227,0
24280,0.883789,-0.283203,0.263184,0
24300,0.830566,-0.274902,0.295898,0
24320,0.843262,-0.261719,0.310059,0
24340,0.872559,-0.220703,0.305176,0
24360,0.879395,-0.231445,0.295898,0
24380,0.870605,-0.241211,0.287109,0
24400,0.845215,-0.239258,0.282715,0
24420,0.817383,-0.258301,0.285156,0
24440,0.847168,-0.225586,0.280762,0
24460,0.853027,-0.262695,0.294434,0
24480,0.854492,-0.234863,0.289551,0
24500,0.871582,-0.224121,0.297852,0
24520,0.854004,-0.234863,0.285156,0
24540,0.871094,-0.23291,0.289551,0
24560,0.881348,-0.235352,0.29541,0
24580,0.860352,-0.235352,0.294434,0
24600,0.87207,-0.226074,0.277832,0
24620,0.875,-0.205078,0.290527,0
24640,0.864258,-0.229492,0.286133,0
24660,0.866211,-0.236328,0.292969,0
24680,0.873047,-0.185547,0.304199,0
24700,0.851562,-0.209961,0.300781,0
24720,0.847656,-0.205078,0.294434,0
24740,0.870605,-0.165039,0.29248,0
24760,0.873535,-0.168945,0.318359,0
24780,0.852051,-0.157227,0.31543,0
24800,0.830566,-0.193359,0.318848,0
24820,0.857422,-0.19873,0.312012,0
24840,0.849121,-0.188965,0.342773,0
24860,0.869629,-0.165039,0.319336,0
24870,0.87793,-0.131836,0.303223,0
24890,0.874512,-0.145996,0.33252,0
24910,0.862305,-0.154785,0.344727,0
24930,0.870605,-0.15332,0.336914,0
24950,0.861328,-0.140625,0.350098,0
24970,0.866699,-0.183105,0.344238,0
24990,0.871582,-0.127441,0.345215,0
25010,0.848145,-0.0834961,0.361328,0
25030,0.838379,-0.138184,0.348145,0
25050,0.867676,-0.163086,0.365723,0
25070,0.867188,-0.151367,0.37793,0
25090,0.854492,-0.261719,0.37207,0
25110,0.852051,-0.0424805,0.393066,0
25130,0.87793,-0.0766602,0.393066,0
25150,0.828125,-0.142578,0.403809,0
25170,0.834473,-0.0957031,0.390137,0
25190,0.811035,-0.0483398,0.403809,0
25210,0.830078,-0.103516,0.430664,0
25230,0.79834,-0.138184,0.429199,0
25250,0.793945,-0.129395,0.437012,0
25270,0.805664,-0.0664062,0.438477,0
25290,0.808105,-0.0517578,0.435547,0
25310,0.804199,-0.0771484,0.448242,0
25330,0.806152,-0.109863,0.46875,0
25350,0.774414,-0.119629,0.485352,0
25370,0.800781,-0.0947266,0.450195,0
25390,0.791992,-0.0595703,0.462891,0
25410,0.803223,-0.0576172,0.490723,0
25430,0.772461,-0.09375,0.478027,0
25450,0.794922,-0.120117,0.492188,0
25470,0.772949,-0.0732422,0.492676,0
25490,0.775391,-0.0473633,0.472656,0
25510,0.772949,-0.0561523,0.493164,0
25530,0.782227,-0.0874023,0.511719,0
25550,0.774414,-0.0947266,0.515625,0
25570,0.772461,-0.0678711,0.499512,0
25590,0.774902,-0.0473633,0.522461,0
25610,0.750488,-0.0605469,0.53125,0
25630,0.755371,-0.105469,0.519043,0
25650,0.749512,-0.0878906,0.531738,0
25670,0.730469,-0.0791016,0.536621,0
25690,0.731445,-0.0776367,0.572266,0
25710,0.728516,-0.0888672,0.552246,0
25730,0.723633,-0.120117,0.564941,0
25750,0.72168,-0.09375,0.563477,0
25770,0.67627,-0.0551758,0.597656,0
25790,0.708984,-0.0952148,0.598633,0
25810,0.668457,-0.128906,0.583008,0
25830,0.671875,-0.126465,0.595703,0
25850,0.668945,-0.100586,0.632324,0
25870,0.65625,-0.0678711,0.631348,0
25890,0.682617,-0.090332,0.621582,0
25910,0.70459,-0.101074,0.630859,0
25930,0.69043,-0.110352,0.635254,0
25950,0.669922,-0.09375,0.635254,0
25970,0.660645,-0.115234,0.642578,0
25990,0.68457,-0.165039,0.643066,0
26010,0.651367,-0.167969,0.656738,0
26030,0.59668,-0.137207,0.689941,0
26050,0.580078,-0.124512,0.694824,0
26070,0.602051,-0.162109,0.667969,0
26090,0.609375,-0.169922,0.663086,0
26110,0.599121,-0.154785,0.657227,0
26130,0.594238,-0.155273,0.648438,0
26150,0.572754,-0.191406,0.686035,0
26170,0.606445,-0.210449,0.619629,0
26190,0.619141,-0.184082,0.629395,0
26210,0.572754,-0.180176,0.684082,0
26230,0.535645,-0.242188,0.675781,0
26250,0.570312,-0.262695,0.678223,0
26270,0.621094,-0.217285,0.698242,0
26290,0.614746,-0.191895,0.700684,0
26310,0.585449,-0.180176,0.68457,0
26330,0.550781,-0.219727,0.692383,0
26350,0.561523,-0.235352,0.678223,0
26370,0.605469,-0.211426,0.665039,0
26390,0.608887,-0.183594,0.672852,0
26410,0.552734,-0.204102,0.692383,0
26430,0.536133,-0.266602,0.681152,0
26450,0.601562,-0.254883,0.65625,0
26470,0.609863,-0.188477,0.668945,0
26490,0.560059,-0.195312,0.662598,0
26510,0.553711,-0.222168,0.663574,0
26530,0.532715,-0.206055,0.657715,0
26550,0.509766,-0.209961,0.66748,0
26570,0.520508,-0.258789,0.685059,0
26590,0.538086,-0.296387,0.663086,0
26610,0.518555,-0.307617,0.63916,0
26630,0.606934,-0.272461,0.663086,0
26650,0.671387,-0.268555,0.646484,0
26670,0.58252,-0.305176,0.675293,0
26690,0.535645,-0.308105,0.647949,0
26710,0.579102,-0.268066,0.629883,0
26730,0.536621,-0.249023,0.660156,0
26750,0.528809,-0.296875,0.711914,0
26770,0.544922,-0.310059,0.674316,0
26790,0.542969,-0.344727,0.623047,0
26810,0.665527,-0.313965,0.640137,0
26820,0.668457,-0.290039,0.621582,0
26840,0.539551,-0.288574,0.625,0
26860,0.495117,-0.299805,0.657227,0
26880,0.505371,-0.293457,0.626465,0
26900,0.467285,-0.301758,0.626465,0
26920,0.500488,-0.35498,0.646973,0
26940,0.598145,-0.357422,0.65918,0
26960,0.682617,-0.331055,0.637207,0
26980,0.625,-0.318359,0.634766,0
27000,0.563477,-0.360352,0.588867,0
27020,0.613281,-0.343262,0.654297,0
27040,0.570801,-0.298828,0.656738,0
27060,0.524414,-0.30957,0.631348,0
27080,0.524414,-0.35791,0.632324,0
27100,0.550781,-0.347168,0.652832,0
27120,0.574707,-0.32666,0.67041,0
27140,0.547852,-0.347168,0.620605,0
27160,0.520996,-0.383789,0.594727,0
27180,0.570312,-0.375488,0.659668,0
27200,0.584473,-0.308105,0.631348,0
27220,0.583496,-0.349121,0.603516,0
27240,0.557617,-0.378418,0.637695,0
27260,0.491211,-0.373047,0.64502,0
27280,0.521484,-0.360352,0.609863,0
27300,0.587891,-0.363281,0.585449,0
27320,0.547852,-0.36377,0.609863,0
27340,0.506348,-0.366699,0.638184,0
27360,0.521484,-0.380859,0.612305,0
27380,0.549316,-0.373047,0.623535,0
27400,0.558594,-0.36084,0.630859,0
27420,0.554199,-0.387695,0.646973,0
27440,0.53125,-0.398926,0.640137,0
27460,0.523926,-0.394043,0.64502,0
27480,0.552734,-0.373047,0.637695,0
27500,0.581543,-0.406738,0.63916,0
27520,0.54834,-0.416504,0.604492,0
27540,0.535645,-0.408203,0.643066,0
27560,0.543945,-0.394531,0.651367,0
27580,0.562012,-0.415527,0.612793,0
27600,0.540039,-0.432617,0.624023,0
27620,0.524902,-0.43457,0.640625,0
27640,0.522949,-0.412109,0.633301,0
27660,0.562988,-0.398438,0.604004,0
27680,0.57373,-0.41748,0.63623,0
27700,0.537109,-0.443848,0.629395,0
27720,0.543457,-0.439453,0.609863,0
27740,0.543457,-0.411133,0.606445,0
27760,0.521973,-0.413574,0.622559,0
27780,0.533691,-0.447754,0.590332,0
27800,0.586914,-0.447266,0.595703,0
27820,0.589355,-0.435547,0.603027,0
27840,0.547852,-0.40918,0.591797,0
27860,0.552246,-0.429199,0.577637,0
27880,0.571777,-0.440918,0.570312,0
27900,0.561035,-0.442383,0.575195,0
27920,0.557617,-0.430176,0.564453,0
27940,0.563965,-0.442383,0.554688,0
27960,0.55957,-0.444824,0.55957,0
27980,0.560547,-0.459473,0.54834,0
28000,0.579102,-0.489258,0.56543,0
28020,0.612793,-0.467773,0.546387,0
28040,0.616699,-0.447754,0.549316,0
28060,0.591309,-0.478027,0.553711,0
28080,0.591309,-0.496094,0.555664,0
28100,0.599121,-0.481934,0.534668,0
28120,0.605469,-0.460938,0.539551,0
28140,0.604492,-0.458984,0.549316,0
28160,0.587891,-0.468262,0.531738,0
28180,0.597168,-0.481445,0.507324,0
28200,0.614746,-0.46875,0.521973,0
28220,0.601562,-0.461426,0.535156,0
28240,0.613281,-0.472168,0.507812,0
28260,0.601562,-0.479492,0.503906,0
28280,0.629395,-0.473145,0.493652,0
28300,0.677246,-0.485352,0.480469,0
28320,0.649414,-0.463379,0.493164,0
28340,0.619141,-0.455078,0.501465,0
28360,0.643066,-0.484375,0.476562,0
28380,0.645508,-0.46875,0.476562,0
28400,0.63916,-0.441895,0.481934,0
28420,0.658691,-0.460449,0.452637,0
28440,0.649902,-0.472168,0.464355,0
28460,0.637695,-0.461914,0.479492,0
28480,0.648926,-0.467773,0.464355,0
28500,0.684082,-0.46875,0.425293,0
28520,0.701172,-0.461426,0.442871,0
28540,0.699707,-0.467773,0.451172,0
28560,0.688965,-0.470215,0.45166,0
28580,0.685547,-0.483398,0.42627,0
28600,0.681152,-0.452637,0.427734,0
28620,0.670898,-0.426758,0.424316,0
28640,0.690918,-0.44043,0.430664,0
28660,0.705078,-0.45166,0.408691,0
28680,0.717773,-0.424316,0.411621,0
28700,0.730469,-0.437988,0.39502,0
28720,0.72168,-0.456543,0.379883,0
28740,0.697266,-0.458008,0.397949,0
28760,0.730957,-0.468262,0.370117,0
28780,0.756836,-0.452148,0.355469,0
28790,0.765625,-0.429688,0.367676,0
28810,0.759277,-0.436035,0.359863,0
28830,0.760254,-0.480469,0.334961,0
28850,0.778809,-0.450195,0.34668,0
28870,0.802246,-0.414551,0.341797,0
28890,0.765625,-0.42041,0.339355,0
28910,0.748047,-0.459473,0.330566,0
28930,0.782715,-0.455078,0.329102,0
28950,0.798828,-0.429199,0.317383,0
28970,0.783203,-0.400879,0.329102,0
28990,0.784668,-0.43457,0.311035,0
29010,0.789062,-0.429688,0.297363,0
29030,0.8125,-0.407715,0.28418,0
29050,0.79834,-0.416016,0.277344,0
29070,0.78418,-0.422363,0.298828,0
29090,0.793457,-0.433105,0.28125,0
29110,0.787598,-0.426758,0.252441,0
29130,0.793457,-0.401855,0.25293,0
29150,0.806152,-0.391602,0.264648,0
29170,0.812988,-0.382324,0.24707,0
29190,0.797363,-0.388184,0.23877,0
29210,0.802246,-0.39209,0.231445,0
29230,0.84082,-0.382324,0.214355,0
29250,0.82373,-0.374512,0.230957,0
29270,0.79834,-0.375,0.230469,0
29290,0.82373,-0.378418,0.22168,0
29310,0.827148,-0.363281,0.210938,0
29330,0.858887,-0.353027,0.187988,0
29350,0.843262,-0.380859,0.177246,0
29370,0.861328,-0.349609,0.205078,0
29390,0.849121,-0.362793,0.208008,0
29410,0.869141,-0.365723,0.180664,0
29430,0.871582,-0.353027,0.184082,0
29450,0.882324,-0.324219,0.205078,0
29470,0.882324,-0.349121,0.172363,0
29490,0.890625,-0.354004,0.168945,0
29510,0.895996,-0.338867,0.179199,0
29530,0.918945,-0.303711,0.196289,0
29550,0.896973,-0.323242,0.166016,0
29570,0.89209,-0.381836,0.182129,0
29590,0.896973,-0.331055,0.175781,0
29610,0.891602,-0.380859,0.17627,0
29630,0.901855,-0.29541,0.143066,0
29650,0.891602,-0.283691,0.160156,0
29670,0.902344,-0.282227,0.142578,0
29690,0.890625,-0.288086,0.139648,0
29710,0.890137,-0.269531,0.161621,0
29730,0.865234,-0.258789,0.15625,0
29750,0.881836,-0.26416,0.146973,0
29770,0.894043,-0.255371,0.155762,0
29790,0.917969,-0.248047,0.163574,0
29810,0.891602,-0.266602,0.158203,0
29830,0.866211,-0.307129,0.149902,0
29850,0.903809,-0.19873,0.138672,0
29870,0.906738,-0.226074,0.129883,0
29890,0.923828,-0.27002,0.139648,0
29910,0.922852,-0.219238,0.162598,0
29930,0.923828,-0.210938,0.149902,0
29950,0.931641,-0.211426,0.146484,0
29970,0.924805,-0.194336,0.164551,0
29990,0.911133,-0.224121,0.14209,0
30010,0.894531,-0.236328,0.136719,0
30030,0.913086,-0.15332,0.17041,0
30050,0.912109,-0.110352,0.157715,0
30070,0.9375,-0.194336,0.152344,0
30090,0.909668,-0.240234,0.171387,0
30110,0.884277,-0.189941,0.205566,0
30130,0.902832,-0.139648,0.187012,0
30150,0.925293,-0.128418,0.164551,0
30170,0.897461,-0.152344,0.192871,0
30180,0.921875,-0.155273,0.224121,0
30200,0.921387,-0.156738,0.202637,0
30220,0.920898,-0.138672,0.20752,0
30240,0.907715,-0.119141,0.229004,0
30260,0.924316,-0.130859,0.22168,0
30280,0.911621,-0.118652,0.233398,0
30300,0.91748,-0.121582,0.22998,0
30320,0.905273,-0.118164,0.217285,0
30340,0.90625,-0.103027,0.255371,0
30360,0.882812,-0.119629,0.241699,0
30380,0.881836,-0.128906,0.268555,0
30400,0.877441,-0.12207,0.268066,0
30420,0.874512,-0.0947266,0.270996,0
30440,0.889648,-0.0976562,0.267578,0
30460,0.880371,-0.107422,0.304688,0
30480,0.874512,-0.124023,0.274902,0
30500,0.878418,-0.111816,0.28418,0
30520,0.881836,-0.0957031,0.314941,0
30540,0.868652,-0.0947266,0.315918,0
30560,0.870605,-0.105957,0.310547,0
30580,0.904297,-0.124023,0.303223,0
30600,0.917969,-0.123535,0.32373,0
30620,0.888184,-0.114258,0.320312,0
30640,0.885742,-0.111328,0.329102,0
30660,0.866699,-0.0981445,0.366211,0
30680,0.869141,-0.0888672,0.339844,0
30700,0.856445,-0.0922852,0.32959,0
30720,0.838867,-0.0878906,0.354004,0
30740,0.831055,-0.078125,0.370605,0
30760,0.838379,-0.0854492,0.351562,0
30780,0.853027,-0.0927734,0.356445,0
30800,0.842773,-0.0800781,0.359863,0
30820,0.833008,-0.0834961,0.379395,0
30840,0.82373,-0.0932617,0.388184,0
30860,0.831543,-0.0986328,0.37793,0
30880,0.851074,-0.0678711,0.392578,0
30900,0.845703,-0.0541992,0.397461,0
30920,0.826172,-0.0595703,0.403809,0
30940,0.847656,-0.0708008,0.393555,0
30960,0.856445,-0.09375,0.400391,0
30980,0.86377,-0.0805664,0.375977,0
31000,0.851562,-0.0463867,0.374023,0
31020,0.837891,-0.0454102,0.421875,0
31040,0.825684,-0.0595703,0.452148,0
31060,0.805664,-0.0678711,0.456055,0
31080,0.823242,-0.0820312,0.419434,0
31100,0.824219,-0.0410156,0.437012,0
31120,0.825684,-0.0458984,0.48877,0
31140,0.839355,-0.0708008,0.455078,0
31160,0.822266,-0.0878906,0.453125,0
31180,0.816406,-0.102539,0.46875,0
31200,0.803223,-0.081543,0.465332,0
31220,0.783203,-0.074707,0.467285,0
31240,0.805176,-0.117188,0.465332,0
31260,0.76416,-0.121094,0.509277,0
31280,0.729492,-0.09375,0.473145,0
31300,0.775391,-0.0991211,0.445312,0
31320,0.823242,-0.0917969,0.470703,0
31340,0.81543,-0.0878906,0.469238,0
31360,0.797363,-0.121582,0.468262,0
31380,0.77832,-0.135742,0.48584,0
31400,0.788574,-0.115723,0.466309,0
31420,0.775391,-0.103516,0.464844,0
31440,0.764648,-0.109863,0.47168,0
31460,0.792969,-0.128418,0.484863,0
31480,0.817871,-0.111816,0.488281,0
31500,0.791504,-0.110352,0.488281,0
31520,0.789551,-0.133301,0.482422,0
31540,0.784668,-0.120605,0.5,0
31560,0.763184,-0.0981445,0.50293,0
31580,0.75,-0.108398,0.505859,0
31600,0.778809,-0.128906,0.498535,0
31620,0.791504,-0.113281,0.494629,0
31640,0.759766,-0.106445,0.485352,0
31660,0.725098,-0.152832,0.48584,0
31680,0.717285,-0.149902,0.518555,0
31700,0.70166,-0.0986328,0.511719,0
31720,0.720703,-0.0810547,0.49707,0
31740,0.755371,-0.112793,0.51123,0
31760,0.748047,-0.166504,0.528809,0
31780,0.748047,-0.150391,0.525391,0
31800,0.774414,-0.110352,0.54834,0
31820,0.738281,-0.132324,0.523438,0
31840,0.73291,-0.172363,0.524414,0
31860,0.723145,-0.148926,0.561523,0
31880,0.733887,-0.105957,0.555664,0
31900,0.696777,-0.131348,0.553711,0
31920,0.70459,-0.162109,0.56543,0
31940,0.688965,-0.158691,0.555176,0
31960,0.680664,-0.184082,0.567871,0
31980,0.678711,-0.16748,0.590332,0
32000,0.651855,-0.166504,0.594238,0
32020,0.718262,-0.187988,0.569336,0
32040,0.696777,-0.195312,0.57666,0
32060,0.679688,-0.205566,0.62793,0
32080,0.654297,-0.198242,0.57959,0
32100,0.69873,-0.210938,0.586914,0
32120,0.699219,-0.218262,0.575684,0
32130,0.702637,-0.265137,0.572754,0
32150,0.663574,-0.237305,0.606445,0
32170,0.646484,-0.223145,0.619141,0
32190,0.672363,-0.243652,0.575195,0
32210,0.651367,-0.275879,0.549805,0
32230,0.647461,-0.249512,0.602539,0
32250,0.67627,-0.261719,0.589355,0
32270,0.660156,-0.263184,0.569824,0
32290,0.65625,-0.266602,0.553711,0
32310,0.67041,-0.276855,0.559082,0
32330,0.631348,-0.25293,0.604492,0
32350,0.629883,-0.276855,0.574219,0
32370,0.693359,-0.283203,0.538086,0
32390,0.678711,-0.283203,0.575684,0
32410,0.625,-0.273926,0.563965,0
32430,0.649902,-0.279297,0.554688,0
32450,0.672852,-0.289062,0.552246,0
32470,0.645996,-0.294434,0.55957,0
32490,0.655273,-0.306152,0.595703,0
32510,0.670898,-0.281738,0.566406,0
32530,0.663574,-0.301758,0.573242,0
32550,0.651367,-0.296875,0.578125,0
32570,0.616699,-0.320312,0.582031,0
32590,0.671875,-0.310059,0.571289,0
32610,0.677734,-0.313477,0.569824,0
32630,0.642578,-0.320312,0.564941,0
32650,0.618164,-0.336426,0.572754,0
32670,0.626465,-0.346191,0.56543,0
32690,0.67041,-0.313965,0.576172,0
32710,0.668945,-0.308105,0.571289,0
32730,0.618164,-0.367188,0.549805,0
32750,0.633301,-0.361816,0.569824,0
32770,0.64502,-0.332031,0.581543,0
32790,0.668945,-0.329102,0.5625,0
32810,0.660645,-0.35498,0.550293,0
32830,0.632324,-0.363281,0.579102,0
32850,0.623047,-0.348145,0.564941,0
32870,0.666992,-0.344727,0.543457,0
32890,0.692383,-0.356934,0.556641,0
32910,0.593262,-0.373535,0.567871,0
32930,0.584473,-0.359863,0.576172,0
32950,0.655762,-0.357422,0.552246,0
32970,0.646973,-0.343262,0.537598,0
32990,0.611816,-0.367188,0.562988,0
33010,0.640625,-0.406738,0.556152,0
33030,0.66748,-0.364258,0.54248,0
33050,0.634277,-0.352051,0.565918,0
33070,0.620605,-0.395508,0.521973,0
33090,0.634766,-0.413574,0.527344,0
33110,0.679688,-0.36084,0.53418,0
33130,0.657715,-0.338379,0.533203,0
33150,0.630859,-0.392578,0.520508,0
33170,0.64502,-0.422852,0.525391,0
33190,0.640625,-0.393555,0.529785,0
33210,0.644531,-0.376465,0.503418,0
33230,0.635742,-0.397461,0.517578,0
33250,0.653809,-0.430664,0.532227,0
33270,0.64502,-0.399902,0.517578,0
33290,0.63916,-0.393066,0.519043,0
33310,0.681152,-0.409668,0.521973,0
33330,0.673828,-0.413086,0.504883,0
33350,0.633301,-0.428711,0.494629,0
33370,0.675293,-0.424316,0.522949,0
33390,0.702148,-0.436035,0.524902,0
33410,0.638184,-0.445801,0.492188,0
33430,0.660645,-0.422852,0.510254,0
33450,0.693359,-0.425781,0.500977,0
33470,0.664062,-0.408691,0.472168,0
33490,0.64209,-0.42627,0.501953,0
33510,0.651367,-0.420898,0.490723,0
33530,0.666016,-0.432617,0.44873,0
33550,0.673828,-0.44043,0.464844,0
33570,0.640625,-0.438477,0.477539,0
33590,0.666504,-0.439453,0.451172,0
33610,0.696289,-0.436035,0.468262,0
33630,0.684082,-0.4375,0.450684,0
33650,0.660156,-0.455566,0.430664,0
33670,0.677734,-0.501465,0.427734,0
33690,0.702637,-0.47168,0.4375,0
33710,0.697266,-0.447754,0.435059,0
33730,0.685059,-0.472168,0.421387,0
33750,0.668457,-0.504395,0.419922,0
33770,0.697754,-0.48584,0.433594,0
33790,0.723145,-0.445801,0.420898,0
33810,0.693359,-0.462891,0.393066,0
33830,0.657227,-0.504395,0.393555,0
33850,0.699219,-0.5,0.434082,0
33870,0.742676,-0.477539,0.389648,0
33890,0.725098,-0.476562,0.353027,0
33910,0.69873,-0.466309,0.387695,0
33930,0.702148,-0.470215,0.399414,0
33950,0.71875,-0.472656,0.34082,0
33970,0.737305,-0.453613,0.333496,0
33990,0.76416,-0.424316,0.375488,0
34010,0.72998,-0.463379,0.330078,0
34030,0.699707,-0.48877,0.311523,0
34050,0.71875,-0.445801,0.350586,0
34070,0.758789,-0.413574,0.332031,0
34090,0.777832,-0.422363,0.304688,0
34110,0.745605,-0.453613,0.328613,0
34130,0.775879,-0.46582,0.333496,0
34150,0.79834,-0.450195,0.28125,0
34170,0.796875,-0.428711,0.274902,0
34190,0.810547,-0.414551,0.301758,0
34210,0.812012,-0.444824,0.294922,0
34230,0.785156,-0.472656,0.270996,0
34250,0.766602,-0.470703,0.27832,0
34270,0.777344,-0.433105,0.285156,0
34290,0.779785,-0.404785,0.268555,0
34310,0.813965,-0.40332,0.248535,0
34330,0.818359,-0.422852,0.254883,0
34350,0.820312,-0.444336,0.233887,0
34370,0.8125,-0.424805,0.245117,0
34390,0.819824,-0.414062,0.236328,0
34410,0.848633,-0.391602,0.201172,0
34430,0.857422,-0.393066,0.216309,0
34450,0.835449,-0.423828,0.21582,0
34470,0.801758,-0.436523,0.214355,0
34490,0.832031,-0.397949,0.198242,0
34510,0.841309,-0.38916,0.198242,0
34530,0.854492,-0.395508,0.185547,0
34550,0.853027,-0.411133,0.19043,0
34570,0.854004,-0.392578,0.214355,0
34590,0.84668,-0.378906,0.184082,0
34610,0.854492,-0.361328,0.161133,0
34630,0.882324,-0.353027,0.183594,0
34650,0.852539,-0.364746,0.1875,0
34670,0.842773,-0.38623,0.165039,0
34690,0.852539,-0.365723,0.152344,0
34710,0.856934,-0.345703,0.162598,0
34730,0.845215,-0.349609,0.15918,0
34750,0.86084,-0.365234,0.146484,0
34770,0.851562,-0.339844,0.158203,0
34790,0.877441,-0.350586,0.148926,0
34810,0.876953,-0.367188,0.121094,0
34830,0.892578,-0.350586,0.150391,0
34850,0.890625,-0.330566,0.178711,0
34870,0.882324,-0.319336,0.145996,0
34890,0.894043,-0.311035,0.135254,1001
34910,0.907227,-0.327637,0.149414,0
34930,0.871094,-0.322754,0.138672,0
34950,0.859863,-0.293945,0.150879,0
34970,0.88623,-0.290039,0.132324,0
34990,0.90918,-0.296387,0.114258,0
35010,0.894043,-0.291992,0.11377,0
35030,0.880859,-0.26709,0.132812,0
35050,0.897949,-0.263184,0.119141,0
35070,0.926758,-0.278809,0.103027,0
35090,0.908203,-0.287109,0.109863,0
35110,0.89209,-0.28125,0.138184,0
35130,0.898438,-0.270996,0.124023,0
35150,0.912109,-0.289062,0.117188,0
35170,0.909668,-0.310547,0.139648,0
35190,0.901855,-0.302246,0.146973,0
35210,0.921387,-0.299316,0.126465,0
35230,0.908203,-0.286133,0.137695,0
35250,0.925293,-0.308105,0.109375,0
35270,0.922852,-0.297363,0.109375,0
35290,0.928223,-0.280762,0.121094,0
35310,0.885254,-0.245117,0.154785,0
35330,0.849609,-0.287598,0.111816,0
35350,0.84375,-0.339844,0.090332,0
35370,0.823242,-0.339844,0.118652,0
35390,0.796875,-0.354492,0.0981445,0
35410,0.837402,-0.37207,0.0961914,0
35430,0.875977,-0.324219,0.128418,0
35450,0.92041,-0.349121,0.106445,0
35470,0.943848,-0.378418,0.0947266,0
35480,0.934082,-0.376465,0.118652,0
35500,0.911133,-0.324219,0.15332,0
35520,0.908691,-0.350586,0.13916,0
35540,0.887695,-0.423828,0.126953,0
35560,0.928223,-0.45166,0.151367,0
35580,0.910645,-0.416504,0.227539,0
35600,0.879395,-0.360352,0.159668,0
35620,0.852051,-0.379883,0.123047,0
35640,0.868164,-0.379883,0.189453,0
35660,0.88623,-0.383301,0.193359,0
35680,0.859863,-0.32959,0.188965,0
35700,0.836914,-0.337402,0.178711,0
35720,0.854004,-0.378418,0.147949,0
35740,0.844238,-0.404785,0.186035,0
35760,0.837891,-0.422852,0.172363,0
35780,0.841797,-0.379883,0.211426,0
35800,0.817871,-0.359375,0.241699,0
35820,0.794434,-0.415527,0.206543,0
35840,0.769043,-0.452148,0.204102,0
35860,0.711426,-0.500488,0.168945,0
35880,0.839844,-0.498047,0.187012,0
35900,0.881836,-0.368164,0.299805,0
35920,0.853516,-0.319824,0.325195,0
35940,0.830566,-0.373047,0.276367,0
35960,0.797852,-0.42334,0.343262,0
35980,0.776855,-0.480957,0.294434,0
36000,0.860352,-0.415527,0.260254,0
36020,0.883789,-0.335938,0.300781,0
36040,0.828125,-0.375488,0.265137,0
36060,0.773926,-0.432129,0.300781,0
36080,0.836426,-0.428223,0.308594,0
36100,0.854004,-0.360352,0.289062,0
36120,0.814941,-0.36084,0.243164,0
36140,0.794434,-0.422363,0.243652,0
36160,0.801758,-0.388184,0.29541,0
36180,0.824219,-0.36084,0.255859,0
36200,0.827148,-0.352051,0.289551,0
36220,0.740723,-0.396973,0.289062,0
36240,0.733887,-0.449219,0.270508,0
36260,0.772461,-0.437988,0.300293,0
36280,0.724609,-0.37793,0.32959,0
36300,0.65332,-0.373535,0.313965,0
36320,0.655273,-0.386719,0.306641,0
36340,0.712402,-0.373535,0.339844,0
36360,0.719727,-0.366211,0.348633,0
36380,0.746582,-0.378906,0.387695,0
36400,0.803711,-0.421875,0.416504,0
36420,0.837891,-0.408691,0.400391,0
36440,0.821777,-0.394531,0.380371,0
36460,0.80127,-0.396484,0.401855,0
36480,0.794434,-0.420898,0.413086,0
36500,0.814453,-0.394531,0.430176,0
36520,0.868164,-0.412598,0.382324,0
36540,0.814453,-0.398926,0.410645,0
36560,0.725098,-0.412109,0.400879,0
36580,0.740234,-0.446777,0.330566,0
36600,0.836426,-0.475098,0.267578,0
36620,0.886719,-0.449707,0.269531,0
36640,0.811523,-0.429688,0.29541,0
36660,0.811035,-0.42334,0.285156,0
36680,0.807617,-0.405273,0.293945,0
36700,0.80127,-0.405273,0.287598,0
36720,0.791504,-0.424316,0.25293,0
36740,0.750488,-0.407227,0.282715,0
36760,0.73584,-0.422852,0.322266,0
36780,0.809082,-0.434082,0.303223,0
36800,0.789551,-0.433594,0.288086,0
36820,0.762207,-0.443359,0.266113,0
36840,0.804688,-0.480957,0.263672,0
36860,0.827637,-0.475098,0.290039,0
36880,0.818848,-0.439941,0.268066,0
36900,0.780273,-0.423828,0.276855,0
36920,0.718262,-0.41748,0.260742,0
36940,0.63916,-0.416992,0.26123,0
36960,0.62793,-0.415527,0.256836,0
36980,0.610352,-0.400391,0.263184,0
37000,0.585449,-0.367188,0.262695,0
37020,0.576172,-0.399414,0.262695,0
37040,0.676758,-0.410156,0.245605,0
37060,0.72168,-0.429688,0.248535,0
37080,0.634766,-0.41748,0.276367,0
37100,0.624512,-0.430664,0.32666,0
37120,0.733887,-0.458496,0.328125,0
37140,0.74707,-0.457031,0.311523,0
37160,0.694824,-0.45459,0.349121,0
37180,0.650391,-0.460449,0.378906,0
37200,0.630371,-0.461426,0.391602,0
37220,0.60791,-0.477539,0.339844,0
37240,0.646484,-0.505859,0.327637,0
37260,0.662598,-0.499512,0.379395,0
37280,0.562012,-0.456055,0.402344,0
37300,0.458984,-0.445801,0.39209,0
37320,0.587402,-0.518555,0.357422,0
37340,0.720703,-0.541016,0.401855,0
37360,0.59082,-0.469238,0.40332,0
37380,0.541504,-0.461426,0.418457,0
37400,0.638672,-0.553223,0.494629,0
37420,0.67041,-0.548828,0.48291,0
37430,0.581055,-0.523926,0.5,0
37450,0.598633,-0.546875,0.54834,0
37470,0.672363,-0.609375,0.544922,0
37480,0.658203,-0.615234,0.490234,0
37500,0.632324,-0.55957,0.536621,0
37520,0.626465,-0.583496,0.586914,0
37540,0.624512,-0.593262,0.59668,0
37560,0.57959,-0.60498,0.554688,0
37580,0.589355,-0.583008,0.578613,0
37600,0.563477,-0.602539,0.605957,0
37620,0.486816,-0.599609,0.613281,0
37640,0.425293,-0.597168,0.618652,0
37660,0.409668,-0.592773,0.634766,0
37680,0.446289,-0.619629,0.631836,0
37700,0.457031,-0.603516,0.628906,0
37720,0.450195,-0.575195,0.658203,0
37740,0.473633,-0.580078,0.668457,0
37760,0.510742,-0.623047,0.666992,0
37780,0.502441,-0.610352,0.679199,0
37800,0.475098,-0.596191,0.666016,0
37820,0.475098,-0.595703,0.660156,0
37840,0.475098,-0.624512,0.663086,0
37860,0.429199,-0.637207,0.66748,0
37880,0.398438,-0.624023,0.679688,0
37900,0.375,-0.591797,0.692871,0
37920,0.415039,-0.611816,0.658691,0
37940,0.391602,-0.617676,0.628906,0
37960,0.324219,-0.593262,0.644043,0
37980,0.317871,-0.54834,0.673828,0
38000,0.336914,-0.553223,0.648926,0
38020,0.32373,-0.560059,0.625488,0
38040,0.284668,-0.588379,0.66748,0
38060,0.278809,-0.529297,0.700195,0
38080,0.337891,-0.563477,0.641602,0
38100,0.356934,-0.552246,0.65332,0
38120,0.31543,-0.537598,0.671387,0
38140,0.308594,-0.547363,0.693359,0
38160,0.326172,-0.584961,0.694336,0
38180,0.317383,-0.558105,0.695801,0
38200,0.291992,-0.569336,0.678711,0
38220,0.269531,-0.560059,0.678711,0
38240,0.263672,-0.555664,0.655762,0
38260,0.263184,-0.563477,0.624023,0
38280,0.260254,-0.577148,0.63916,0
38300,0.255371,-0.586426,0.651855,1000
38320,0.285645,-0.557617,0.661621,0
38340,0.327637,-0.526855,0.657715,0
38360,0.294434,-0.5,0.67627,0
38380,0.272461,-0.557129,0.691406,0
38400,0.325684,-0.54541,0.669922,0
38420,0.37793,-0.540527,0.684082,0
38440,0.371582,-0.486328,0.703613,0
38460,0.381348,-0.515137,0.665039,0
38480,0.420898,-0.54248,0.672852,0
38500,0.454102,-0.573242,0.654297,0
38520,0.459473,-0.537598,0.660156,0
38540,0.478516,-0.552734,0.638672,0
38560,0.503906,-0.564453,0.593262,0
38580,0.51123,-0.569336,0.591797,0
38600,0.464355,-0.570312,0.607422,0
38620,0.421875,-0.62207,0.60791,0
38640,0.435059,-0.632324,0.577148,0
38660,0.459961,-0.620117,0.587891,0
38680,0.42627,-0.595215,0.606934,0
38700,0.426758,-0.594238,0.580566,0
38720,0.449707,-0.57666,0.572266,0
38740,0.443848,-0.602539,0.584961,0
38760,0.429688,-0.616699,0.583496,0
38780,0.408691,-0.642578,0.57666,0
38800,0.400391,-0.634766,0.553711,0
38820,0.380859,-0.620605,0.55957,0
38840,0.371582,-0.620117,0.562012,0
38860,0.367188,-0.604004,0.591309,0
38880,0.381348,-0.620605,0.561523,0
38900,0.377441,-0.614258,0.54834,0
38920,0.359375,-0.59082,0.579102,0
38940,0.375488,-0.607422,0.568848,0
38960,0.397949,-0.622559,0.557129,0
38980,0.388184,-0.616211,0.57959,0
39000,0.380859,-0.61377,0.555176,0
39020,0.391113,-0.61084,0.557129,0
39040,0.399902,-0.620605,0.567871,0
39060,0.378418,-0.658691,0.560059,0
39080,0.364746,-0.65625,0.541504,0
39100,0.403809,-0.650879,0.560547,0
39120,0.391602,-0.643555,0.533203,0
39140,0.378418,-0.648438,0.553223,0
39160,0.390137,-0.644531,0.580078,0
39180,0.385254,-0.650391,0.575684,0
39200,0.39502,-0.639648,0.563965,0
39220,0.413574,-0.632324,0.576172,0
39240,0.396484,-0.640625,0.581543,0
39260,0.365234,-0.670898,0.582031,0
39280,0.385742,-0.676758,0.569824,0
39300,0.396973,-0.625977,0.566406,0
39320,0.370605,-0.635254,0.557617,0
39340,0.359375,-0.659668,0.542969,0
39360,0.378906,-0.658203,0.55127,0
39380,0.379883,-0.644043,0.548828,0
39400,0.369629,-0.629395,0.561523,0
39420,0.354492,-0.632324,0.578613,0
39440,0.370605,-0.64502,0.586426,0
39460,0.358887,-0.645508,0.583984,0
39480,0.358887,-0.630371,0.562988,0
39500,0.384277,-0.624023,0.554199,0
39520,0.397949,-0.64209,0.559082,0
39540,0.364258,-0.664551,0.548828,0
39560,0.382812,-0.666504,0.540039,0
39580,0.389648,-0.655273,0.533203,0
39600,0.392578,-0.646973,0.54541,0
39620,0.375,-0.658691,0.553711,0
39640,0.348145,-0.665039,0.557129,0
39660,0.360352,-0.676758,0.564941,0
39680,0.387695,-0.663086,0.557129,0
39700,0.366699,-0.649902,0.562012,0
39720,0.364258,-0.625,0.554688,0
39740,0.384766,-0.65332,0.568848,0
39760,0.369629,-0.679688,0.566406,0
39780,0.369629,-0.675293,0.558105,0
39800,0.391602,-0.64209,0.550293,0
39820,0.387207,-0.623535,0.562012,0
39840,0.360352,-0.657715,0.556641,0
39860,0.384766,-0.65918,0.553223,0
39880,0.406738,-0.646484,0.555664,0
39900,0.376465,-0.641602,0.563477,0
39920,0.368652,-0.653809,0.546875,0
39940,0.385742,-0.655273,0.560059,0
39960,0.361328,-0.634277,0.549805,0
39980,0.367188,-0.658691,0.543945,0
39990,0.379883,-0.662109,0.555664,0
40010,0.370117,-0.652832,0.56543,0
40030,0.379395,-0.635742,0.555664,0
40050,0.398438,-0.642578,0.544434,0
40070,0.390137,-0.645508,0.552246,0
40080,0.383301,-0.662598,0.548828,0
40100,0.391113,-0.664551,0.53418,0
40120,0.386719,-0.644043,0.54541,0
40140,0.370605,-0.641602,0.557617,0
40160,0.390137,-0.650879,0.553223,0
40180,0.404785,-0.637695,0.561523,0
40200,0.386719,-0.638672,0.543457,0
40220,0.407715,-0.641602,0.549316,0
40240,0.431152,-0.644531,0.561035,0
40260,0.424805,-0.638672,0.536621,0
40280,0.428223,-0.640137,0.540039,0
40300,0.433105,-0.636719,0.549805,0
40320,0.412109,-0.648926,0.532227,0
40340,0.40332,-0.649902,0.527344,0
40360,0.393555,-0.649902,0.552246,0
40380,0.398438,-0.645996,0.541992,0
40400,0.411133,-0.647461,0.537598,0
40420,0.422852,-0.626953,0.528809,0
40440,0.424805,-0.645508,0.54834,0
40460,0.39209,-0.643066,0.560547,0
40480,0.382812,-0.660645,0.54834,0
40500,0.397949,-0.655273,0.539551,0
40520,0.403809,-0.635254,0.538574,0
40540,0.402832,-0.626953,0.548828,0
40560,0.388184,-0.648926,0.541504,0
40580,0.386719,-0.657715,0.539062,0
40600,0.404297,-0.632324,0.550293,0
40620,0.44043,-0.623535,0.556641,0
40640,0.437012,-0.632324,0.540039,0
40660,0.421875,-0.63916,0.546875,0
40680,0.416992,-0.64502,0.541504,0
40700,0.444336,-0.63623,0.533203,0
40720,0.436035,-0.643555,0.532227,0
40740,0.431152,-0.644043,0.527832,0
40750,0.447754,-0.644043,0.519043,0
40770,0.449707,-0.622559,0.530273,0
40790,0.448242,-0.63623,0.53125,0
40810,0.460449,-0.646973,0.518555,0
40830,0.477539,-0.632812,0.532715,0
40850,0.470215,-0.615723,0.526367,0
40870,0.474609,-0.609863,0.525879,0
40890,0.491211,-0.622559,0.509766,0
40910,0.5,-0.629883,0.515625,0
40930,0.479492,-0.630371,0.50293,0
40950,0.480469,-0.616699,0.508789,0
40970,0.478516,-0.613281,0.512207,0
40990,0.479004,-0.617188,0.495117,0
41010,0.498047,-0.62207,0.49707,0
41030,0.498535,-0.615723,0.501465,0
41050,0.487305,-0.606934,0.500977,0
41070,0.505859,-0.603516,0.507324,0
41090,0.506836,-0.59668,0.504395,0
41110,0.495605,-0.605957,0.496582,0
41130,0.493652,-0.609863,0.507324,0
41150,0.506836,-0.600586,0.5,0
41170,0.51416,-0.614258,0.496582,0
41190,0.515137,-0.614258,0.493652,0
41210,0.527832,-0.601562,0.492188,0
41230,0.515137,-0.594238,0.489258,0
41250,0.512695,-0.596191,0.490723,0
41270,0.523438,-0.599609,0.482422,0
41290,0.529297,-0.602539,0.49707,0
41310,0.520996,-0.589355,0.489746,0
41330,0.537109,-0.58252,0.481445,0
41350,0.545898,-0.585449,0.477051,0
41370,0.536133,-0.592773,0.492676,0
41390,0.537109,-0.578613,0.498535,0
41410,0.55957,-0.591797,0.478027,0
41430,0.567871,-0.587402,0.478027,0
41450,0.558594,-0.584961,0.47168,0
41470,0.558594,-0.578125,0.467285,0
41490,0.571777,-0.573242,0.491211,0
41510,0.57959,-0.584961,0.471191,0
41530,0.560547,-0.568848,0.469727,0
41550,0.573242,-0.569336,0.460449,0
41570,0.579102,-0.575195,0.469238,0
41590,0.577637,-0.577637,0.460938,0
41610,0.581055,-0.572266,0.46875,0
41630,0.583984,-0.567871,0.463379,0
41650,0.589355,-0.5625,0.470703,0
41670,0.585449,-0.572754,0.473145,0
41690,0.585449,-0.562012,0.466797,0
41710,0.599121,-0.544922,0.469238,0
41730,0.607422,-0.543457,0.463867,0
41750,0.609863,-0.54834,0.449707,0
41770,0.595703,-0.558594,0.45166,0
41790,0.600098,-0.549805,0.458984,0
41810,0.611328,-0.54541,0.456055,0
41830,0.614258,-0.531738,0.436035,0
41850,0.622559,-0.532715,0.4375,0
41870,0.637695,-0.536621,0.450195,0
41890,0.621094,-0.530762,0.440918,0
41910,0.624023,-0.532227,0.4375,0
41930,0.63623,-0.533691,0.447754,0
41950,0.628418,-0.540039,0.449219,0
41970,0.630859,-0.538574,0.435547,0
41990,0.632812,-0.532227,0.438965,0
42010,0.63623,-0.53418,0.447266,0
42030,0.635254,-0.535156,0.448242,0
42050,0.640137,-0.537109,0.425781,0
42070,0.648926,-0.521484,0.432617,0
42090,0.638672,-0.529297,0.443359,0
42110,0.624023,-0.52832,0.431152,0
42130,0.62207,-0.522461,0.437988,0
42150,0.653809,-0.506836,0.438965,0
42170,0.646973,-0.520996,0.434082,0
42190,0.648926,-0.506348,0.427246,0
42210,0.644531,-0.506348,0.443359,0
42230,0.646973,-0.503418,0.438965,0
42250,0.652344,-0.51709,0.424805,0
42270,0.666016,-0.503906,0.412598,0
42290,0.675781,-0.499023,0.423828,0
42310,0.665527,-0.501465,0.430176,0
42330,0.66748,-0.521484,0.414551,0
42350,0.666992,-0.500977,0.413086,0
42370,0.675293,-0.492676,0.410645,0
42390,0.682129,-0.493652,0.411133,0
42410,0.665527,-0.490723,0.419922,0
42430,0.666504,-0.490723,0.414062,0
42450,0.666504,-0.493652,0.416016,0
42470,0.668945,-0.475586,0.418457,0
42490,0.674316,-0.473633,0.414062,0
42510,0.666504,-0.480957,0.412598,0
42530,0.66748,-0.494141,0.420898,0
42550,0.681641,-0.482422,0.42334,0
42570,0.686523,-0.462891,0.421875,0
42590,0.703613,-0.477051,0.421387,0
42610,0.700684,-0.474121,0.428711,0
42630,0.692383,-0.478027,0.422363,0
42650,0.70752,-0.469727,0.429199,0
42670,0.705566,-0.461914,0.423828,0
42690,0.703125,-0.453125,0.41748,0
42700,0.713379,-0.45752,0.419434,0
42720,0.722656,-0.47168,0.412109,0
42740,0.710938,-0.459473,0.412598,0
42760,0.71582,-0.459473,0.409668,0
42780,0.711426,-0.461914,0.415527,0
42800,0.703613,-0.466797,0.416504,0
42820,0.704102,-0.467773,0.40332,0
42840,0.70166,-0.459961,0.417969,0
42860,0.697266,-0.447754,0.427734,0
42880,0.695312,-0.450195,0.427734,0
42900,0.681152,-0.463867,0.418945,0
42920,0.679688,-0.458496,0.421387,0
42940,0.688965,-0.458984,0.442383,0
42960,0.687012,-0.458496,0.428711,0
42980,0.683594,-0.458984,0.435547,0
43000,0.68457,-0.462891,0.437988,0
43020,0.680664,-0.466797,0.431152,0
43040,0.677246,-0.460938,0.418945,0
43060,0.679688,-0.460449,0.433105,0
43080,0.678711,-0.466309,0.450684,0
43100,0.692383,-0.458496,0.454102,0
43120,0.707031,-0.453125,0.443848,0
43140,0.755859,-0.466309,0.367188,0
43160,0.782227,-0.461426,0.366699,0
43180,0.776855,-0.392578,0.425293,0
43200,0.714844,-0.471191,0.446289,0
43220,0.660156,-0.571289,0.462891,0
43240,0.625,-0.52002,0.472656,0
43260,0.598145,-0.47998,0.466797,0
43280,0.609375,-0.499512,0.484863,0
43300,0.647461,-0.533691,0.483398,0
43320,0.627441,-0.548828,0.416016,0
43340,0.631836,-0.532227,0.365234,0
43360,0.651367,-0.541504,0.410645,0
43380,0.656738,-0.567871,0.437988,0
43400,0.645996,-0.599609,0.441406,0
43420,0.643066,-0.599121,0.441895,0
43440,0.642578,-0.611816,0.418457,0
43460,0.645508,-0.53125,0.47168,0
43480,0.626465,-0.505371,0.419434,0
43500,0.629883,-0.544922,0.367676,0
43520,0.645996,-0.563477,0.435059,0
43540,0.619629,-0.601074,0.405762,0
43560,0.639648,-0.638184,0.398926,0
43580,0.620605,-0.583008,0.439453,0
43600,0.595215,-0.521973,0.4375,0
43620,0.588379,-0.525879,0.430664,0
43640,0.581543,-0.555176,0.395996,0
43660,0.574707,-0.591309,0.362305,0
43680,0.576172,-0.611328,0.393066,0
43700,0.619629,-0.613281,0.418945,0
43720,0.631836,-0.568848,0.421387,0
43740,0.605957,-0.561035,0.378906,0
43760,0.580566,-0.630371,0.328613,0
43780,0.563965,-0.665039,0.379883,0
43800,0.570312,-0.669434,0.402344,0
43820,0.567383,-0.682617,0.371582,0
43840,0.566406,-0.680176,0.338867,0
43860,0.543945,-0.706543,0.348145,0
43880,0.547363,-0.694336,0.396484,0
43900,0.532227,-0.687988,0.390137,0
43920,0.53418,-0.723145,0.359375,0
43940,0.540527,-0.725586,0.368652,0
43960,0.535645,-0.700684,0.376953,0
43980,0.527832,-0.694824,0.371094,0
43990,0.546875,-0.661621,0.382324,0
44010,0.538086,-0.595215,0.36377,0
44030,0.531738,-0.555664,0.348145,0
44050,0.536621,-0.522461,0.374512,0
44070,0.548828,-0.525879,0.388184,0
44090,0.55127,-0.54834,0.369629,0
44110,0.564941,-0.568359,0.358398,0
44130,0.556152,-0.588867,0.347168,0
44150,0.556152,-0.625977,0.343262,0
44170,0.56543,-0.678223,0.35498,0
44190,0.575684,-0.679688,0.39209,0
44210,0.602051,-0.673828,0.4375,0
44230,0.625488,-0.670898,0.428223,0
44250,0.614746,-0.677246,0.344238,0
44270,0.595215,-0.665039,0.368164,0
44290,0.582031,-0.675293,0.446289,0
44310,0.594727,-0.699707,0.453613,0
44330,0.604004,-0.67041,0.429688,0
44350,0.615234,-0.627441,0.397949,0
44370,0.61377,-0.61377,0.40332,0
44390,0.598145,-0.596191,0.435059,0
44410,0.590332,-0.572266,0.470215,0
44430,0.592773,-0.578613,0.458496,0
44450,0.588867,-0.586914,0.414551,0
44470,0.599121,-0.563965,0.436035,0
44490,0.61377,-0.561523,0.463379,0
44510,0.606934,-0.572266,0.454102,0
44530,0.600586,-0.582031,0.422852,0
44550,0.59668,-0.574707,0.413086,0
44570,0.609863,-0.56543,0.437988,0
44590,0.603516,-0.578613,0.43457,0
44610,0.619629,-0.590332,0.410156,0
44630,0.633301,-0.570801,0.424316,0
44650,0.611328,-0.566895,0.420898,0
44670,0.601562,-0.568848,0.411133,0
44690,0.629883,-0.584473,0.411621,0
44710,0.620605,-0.571777,0.444336,0
44730,0.605957,-0.55957,0.432617,0
44750,0.614746,-0.56543,0.422852,0
44770,0.632812,-0.563477,0.417969,0
44790,0.621094,-0.554199,0.440918,0
44810,0.60498,-0.545898,0.430176,0
44830,0.632324,-0.536621,0.393066,0
44850,0.635742,-0.548828,0.40332,0
44870,0.633301,-0.549805,0.430664,0
44890,0.618652,-0.539062,0.433594,0
44910,0.602539,-0.532227,0.435059,0
44930,0.617188,-0.536621,0.433105,0
44950,0.621094,-0.547852,0.430176,0
44970,0.614746,-0.544434,0.423828,0
44990,0.607422,-0.537598,0.412109,0
45010,0.618164,-0.553223,0.414551,0
45030,0.620117,-0.554199,0.419434,0
45050,0.623047,-0.555176,0.419434,0
45070,0.631836,-0.562012,0.435547,0
45090,0.669434,-0.572266,0.430176,0
45110,0.644043,-0.558105,0.432129,0
45130,0.639648,-0.568359,0.412109,0
45150,0.679688,-0.571777,0.439453,0
45170,0.712891,-0.575195,0.456543,0
45190,0.708496,-0.58252,0.446777,0
45210,0.638184,-0.567383,0.438477,0
45230,0.624512,-0.568848,0.437012,0
45250,0.717773,-0.550293,0.478027,0
45270,0.691895,-0.562988,0.48584,0
45290,0.583008,-0.563477,0.484375,0
45310,0.487793,-0.584473,0.483398,0
45330,0.455078,-0.60791,0.487305,0
45350,0.412109,-0.611328,0.496582,0
45370,0.363281,-0.627441,0.521484,0
45390,0.342285,-0.616699,0.51709,0
45410,0.377441,-0.626953,0.531738,0
45430,0.436523,-0.65625,0.517578,0
45450,0.46582,-0.622559,0.510742,0
45470,0.499023,-0.600586,0.481934,0
45490,0.505371,-0.618164,0.485352,0
45510,0.498047,-0.647949,0.480469,0
45530,0.548828,-0.649414,0.483398,0
45550,0.561035,-0.623047,0.468262,0
45570,0.561035,-0.607422,0.452637,0
45590,0.565918,-0.635254,0.450684,0
45610,0.590332,-0.630859,0.45166,0
45630,0.598633,-0.609375,0.455566,0
45650,0.595215,-0.590332,0.459961,0
45670,0.577148,-0.601074,0.433105,0
45690,0.598633,-0.620117,0.419434,0
45710,0.57959,-0.611816,0.436035,0
45730,0.57666,-0.570801,0.435547,0
45750,0.569336,-0.55957,0.433594,0
45770,0.57373,-0.5625,0.422363,0
45790,0.549316,-0.557129,0.430664,0
45810,0.55127,-0.56543,0.440918,0
45830,0.585938,-0.584961,0.390625,0
45850,0.641113,-0.567871,0.393066,0
45870,0.645508,-0.528809,0.404785,0
45890,0.584961,-0.5625,0.403809,0
45910,0.646484,-0.573242,0.403809,0
45930,0.623047,-0.572266,0.423828,0
45950,0.631348,-0.57959,0.425781,0
45970,0.614746,-0.566406,0.382324,0
45990,0.620605,-0.557129,0.40918,0
46010,0.617676,-0.549316,0.439453,0
46030,0.594238,-0.557129,0.452148,0
46050,0.574219,-0.571777,0.418457,0
46060,0.570312,-0.57666,0.379395,0
46080,0.577148,-0.557129,0.405762,0
46100,0.583984,-0.533691,0.422363,0
46120,0.602539,-0.535645,0.41748,0
46140,0.615723,-0.546875,0.426758,0
46160,0.627441,-0.565918,0.433105,0
46180,0.625,-0.559082,0.429199,0
46200,0.624512,-0.579102,0.427734,0
46220,0.629883,-0.600586,0.405762,0
46240,0.635742,-0.615723,0.406738,0
46260,0.637695,-0.605957,0.416016,0
46280,0.625488,-0.595703,0.420898,0
46300,0.618164,-0.594727,0.427734,0
46320,0.624512,-0.600586,0.453125,0
46340,0.609375,-0.590332,0.444824,0
46360,0.591309,-0.597656,0.432617,0
46380,0.596191,-0.592285,0.427734,0
46400,0.59082,-0.571777,0.450195,0
46420,0.589844,-0.572754,0.453125,0
46440,0.579102,-0.569824,0.44873,0
46460,0.587891,-0.569336,0.446289,0
46480,0.601562,-0.565918,0.435059,0
46500,0.560059,-0.614258,0.456055,0
46520,0.598633,-0.540527,0.441406,0
46540,0.594238,-0.539062,0.442383,0
46560,0.598633,-0.5625,0.4375,0
46580,0.60791,-0.5625,0.436035,0
46600,0.599121,-0.539062,0.435059,0
46620,0.613281,-0.539062,0.443359,0
46640,0.604492,-0.54834,0.449707,0
46660,0.592285,-0.537598,0.440918,0
46680,0.609375,-0.544922,0.430176,0
46700,0.637207,-0.546387,0.429688,0
46720,0.623535,-0.53418,0.435059,0
46740,0.641113,-0.537109,0.447266,0
46760,0.654785,-0.54248,0.459961,0
46780,0.683594,-0.532715,0.459961,0
46800,0.648926,-0.521973,0.442871,0
46820,0.651367,-0.519043,0.443848,0
46840,0.663086,-0.519043,0.442383,0
46860,0.647461,-0.527344,0.45459,0
46880,0.648438,-0.515137,0.440918,0
46900,0.675781,-0.505859,0.421387,0
46920,0.649902,-0.505371,0.429199,0
46940,0.64209,-0.504883,0.445312,0
46960,0.64502,-0.51123,0.44043,0
46980,0.697754,-0.48877,0.430664,0
47000,0.646973,-0.490234,0.437988,0
47020,0.654785,-0.496582,0.435059,0
47040,0.657715,-0.487305,0.430176,0
47060,0.661133,-0.477539,0.445801,0
47080,0.668457,-0.48584,0.433105,0
47100,0.697754,-0.49707,0.404785,0
47120,0.673828,-0.473145,0.410156,0
47140,0.678223,-0.472168,0.421875,0
47160,0.69043,-0.493164,0.431152,0
47180,0.692383,-0.492676,0.426758,0
47200,0.689453,-0.467773,0.41748,0
47220,0.692871,-0.46875,0.42334,0
47240,0.750977,-0.440918,0.397461,0
47260,0.685547,-0.474609,0.419434,0
47280,0.691895,-0.458496,0.425293,0
47300,0.697266,-0.459473,0.420898,0
47320,0.699219,-0.444824,0.419434,0
47340,0.631836,-0.49707,0.430664,0
47360,0.702637,-0.432617,0.420898,0
47380,0.700684,-0.45166,0.445801,0
47400,0.702148,-0.44043,0.426758,0
47420,0.712402,-0.37207,0.410645,0
47440,0.70459,-0.411621,0.435059,0
47460,0.715332,-0.43457,0.417969,0
47480,0.727539,-0.427734,0.413086,0
47500,0.692383,-0.480957,0.44043,0
47520,0.709473,-0.417969,0.436035,0
47540,0.72168,-0.424316,0.445312,0
47560,0.726562,-0.400879,0.438477,0
47580,0.726562,-0.397461,0.428223,0
47600,0.702148,-0.426758,0.4375,0
47620,0.714355,-0.399414,0.441406,0
47640,0.727051,-0.397949,0.439453,0
47660,0.720703,-0.398926,0.446289,0
47680,0.731934,-0.378418,0.4375,0
47700,0.716309,-0.376465,0.432129,0
47720,0.727539,-0.395508,0.444824,0
47740,0.723633,-0.392578,0.454102,0
47760,0.716309,-0.393555,0.45459,0
47780,0.725098,-0.370117,0.44873,0
47800,0.725098,-0.359863,0.440918,0
47820,0.717773,-0.384277,0.457031,0
47840,0.713867,-0.378906,0.468262,0
47860,0.724121,-0.367676,0.462402,0
47880,0.710449,-0.361816,0.459473,0
47900,0.699707,-0.369141,0.45752,0
47920,0.713379,-0.388184,0.47168,0
47940,0.717285,-0.377441,0.466797,0
47960,0.698242,-0.368164,0.464844,0
47980,0.70459,-0.333496,0.479004,0
48000,0.714844,-0.342285,0.487305,0
48020,0.691895,-0.376953,0.492188,0
48030,0.688477,-0.367676,0.487305,0
48050,0.688477,-0.365234,0.48291,0
48070,0.683594,-0.38623,0.50293,0
48090,0.689941,-0.291016,0.523926,0
48110,0.687012,-0.308105,0.492188,0
48130,0.690918,-0.358398,0.499023,0
48150,0.678223,-0.365234,0.521484,0
48170,0.677246,-0.37207,0.542969,0
48190,0.677246,-0.356445,0.525391,0
48210,0.686523,-0.366211,0.516113,0
48230,0.685547,-0.369141,0.521973,0
48250,0.685059,-0.275879,0.536133,0
48270,0.70166,-0.338867,0.520508,0
48290,0.70752,-0.358887,0.52832,0
48310,0.68457,-0.333008,0.536621,0
48330,0.678711,-0.338379,0.510742,0
48350,0.680176,-0.345703,0.530273,0
48370,0.666992,-0.349609,0.541504,0
48390,0.674805,-0.382812,0.539551,0
48410,0.656738,-0.349609,0.569336,0
48430,0.650879,-0.263184,0.555176,0
48450,0.647949,-0.312988,0.546875,0
48470,0.645508,-0.34082,0.572754,0
48490,0.631348,-0.368164,0.582031,0
48510,0.635254,-0.298828,0.595703,0
48530,0.638184,-0.341797,0.562988,0
48550,0.638672,-0.34668,0.566895,0
48570,0.62793,-0.350098,0.578125,0
48590,0.628906,-0.343262,0.559082,0
48610,0.645508,-0.318359,0.570801,0
48630,0.639648,-0.306641,0.562988,0
48650,0.636719,-0.346191,0.57959,0
48670,0.631836,-0.353516,0.569336,0
48690,0.637207,-0.330566,0.575195,0
48710,0.651855,-0.311035,0.573242,0
48730,0.649414,-0.339844,0.570801,0
48750,0.643066,-0.327148,0.571777,0
48770,0.637695,-0.328125,0.581055,0
48790,0.623047,-0.330078,0.586914,0
48810,0.648438,-0.335449,0.580078,0
48830,0.628418,-0.333984,0.588867,0
48850,0.620605,-0.32373,0.602539,0
48870,0.632324,-0.333008,0.597168,0
48890,0.624512,-0.342773,0.583984,0
48910,0.608887,-0.330078,0.59375,0
48930,0.609863,-0.325195,0.603516,0
48950,0.61377,-0.32959,0.597168,0
48970,0.623047,-0.34082,0.582031,0
48990,0.60791,-0.342773,0.589844,0
49010,0.604492,-0.345215,0.592285,0
49030,0.595215,-0.33252,0.615723,0
49050,0.594238,-0.32959,0.606934,0
49070,0.598145,-0.32666,0.606934,0
49090,0.605469,-0.331055,0.612793,0
49110,0.595703,-0.333984,0.609375,0
49130,0.596191,-0.348145,0.611328,0
49150,0.594727,-0.337402,0.617676,0
49170,0.595215,-0.33252,0.615723,0
49190,0.585938,-0.321777,0.626465,0
49210,0.601562,-0.344727,0.61377,0
49230,0.606934,-0.334961,0.625,0
49250,0.595703,-0.330566,0.627441,0
49270,0.586426,-0.329102,0.618164,0
49290,0.585938,-0.325195,0.623535,0
49310,0.59375,-0.335938,0.621582,0
49330,0.591309,-0.32666,0.616211,0
49350,0.589355,-0.330566,0.633789,0
49370,0.588867,-0.335449,0.620605,0
49390,0.590332,-0.339355,0.640625,0
49410,0.581055,-0.326172,0.643066,0
49430,0.585449,-0.330566,0.626465,0
49450,0.594727,-0.311035,0.614258,0
49470,0.596191,-0.339844,0.61377,0
49490,0.582031,-0.346191,0.621582,0
49510,0.582031,-0.358398,0.633301,0
49530,0.604492,-0.356445,0.617676,0
49550,0.612793,-0.330566,0.613281,0
49570,0.595703,-0.322754,0.616699,0
49590,0.586426,-0.352539,0.614746,0
49610,0.584961,-0.365234,0.619629,0
49630,0.580566,-0.342285,0.624023,0
49650,0.568359,-0.333008,0.606934,0
49670,0.577637,-0.34375,0.602539,0
49690,0.562988,-0.344727,0.624512,0
49710,0.563477,-0.357422,0.631836,0
49730,0.583984,-0.345703,0.619141,0
49750,0.591309,-0.333496,0.626465,0
49770,0.573242,-0.333008,0.628418,0
49790,0.575195,-0.341797,0.626465,0
49810,0.585938,-0.33252,0.637695,0
49830,0.599121,-0.324219,0.648926,0
49850,0.597656,-0.329102,0.632812,0
49870,0.588379,-0.335938,0.642578,0
49890,0.587891,-0.345215,0.630371,0
49910,0.577637,-0.349121,0.62207,0
49930,0.583496,-0.337402,0.63623,0
49950,0.580078,-0.33252,0.641113,0
49970,0.574707,-0.34082,0.64502,0
49990,0.556641,-0.349121,0.645508,0
50010,0.555176,-0.350098,0.643066,0
50030,0.566406,-0.337891,0.629395,0
50050,0.558105,-0.32666,0.651855,0
50070,0.567383,-0.337891,0.644043,0
50090,0.57373,-0.348145,0.650391,0
50110,0.559082,-0.345215,0.652832,0
50130,0.569824,-0.341797,0.645996,0
50150,0.578125,-0.352539,0.648926,0
50170,0.546875,-0.351562,0.655762,0
50190,0.546875,-0.345215,0.65625,0
50210,0.561523,-0.334961,0.65918,0
50230,0.545898,-0.327148,0.659668,0
50250,0.541504,-0.338867,0.649414,0
50270,0.55127,-0.353516,0.662109,0
50290,0.546387,-0.346191,0.653809,0
50310,0.536133,-0.353027,0.649414,0
50330,0.52832,-0.347656,0.655762,0
50350,0.527832,-0.333496,0.670898,0
50370,0.523438,-0.332031,0.655762,0
50390,0.539551,-0.36377,0.680176,0
50410,0.516113,-0.345703,0.675781,0
50430,0.505859,-0.355957,0.67334,0
50450,0.505859,-0.349609,0.686035,0
50470,0.522461,-0.348145,0.675781,0
50490,0.527344,-0.345703,0.681641,0
50510,0.511719,-0.368652,0.69043,0
50530,0.501465,-0.367676,0.687988,0
50550,0.537598,-0.349609,0.676758,0
50570,0.53125,-0.350098,0.668945,0
50590,0.496582,-0.351074,0.662109,0
50610,0.485352,-0.381836,0.682129,0
50630,0.495117,-0.348633,0.686035,0
50650,0.493652,-0.344238,0.669434,0
50670,0.499512,-0.353027,0.666016,0
50690,0.498535,-0.370605,0.688477,0
50710,0.492676,-0.358887,0.687988,0
50730,0.480469,-0.363281,0.663574,0
50750,0.51123,-0.355469,0.668945,0
50770,0.494141,-0.345703,0.680176,0
50790,0.46875,-0.371582,0.677734,0
50810,0.466797,-0.390137,0.694824,0
50830,0.481445,-0.37793,0.713867,0
50850,0.478027,-0.359375,0.681641,0
50870,0.489258,-0.366211,0.684082,0
50890,0.463379,-0.378418,0.703613,0
50910,0.474121,-0.404785,0.688965,0
50930,0.489258,-0.39209,0.689941,0
50950,0.496582,-0.373535,0.688965,0
50970,0.479004,-0.374023,0.694336,0
50990,0.506348,-0.394043,0.688477,0
51010,0.513672,-0.40332,0.69873,0
51030,0.485352,-0.402344,0.697754,0
51050,0.456543,-0.39502,0.677734,0
51070,0.461914,-0.39209,0.682617,0
51090,0.469727,-0.412598,0.682617,0
51110,0.462402,-0.419922,0.674316,0
51130,0.460938,-0.411621,0.672852,0
51150,0.435547,-0.395996,0.693848,0
51170,0.439941,-0.408691,0.666992,0
51190,0.442383,-0.415527,0.685547,0
51210,0.462891,-0.40332,0.687988,0
51230,0.455566,-0.394531,0.672363,0
51250,0.415039,-0.414062,0.6875,0
51270,0.407715,-0.417969,0.690918,0
51290,0.452637,-0.414551,0.699707,0
51310,0.450195,-0.38916,0.69873,0
51330,0.434082,-0.397949,0.699707,0
51350,0.415039,-0.402344,0.691406,0
51370,0.421387,-0.42041,0.691406,0
51380,0.430664,-0.411133,0.697754,0
51400,0.42627,-0.422852,0.696289,0
51420,0.438965,-0.404785,0.686035,0
51440,0.430176,-0.409668,0.689941,0
51460,0.431641,-0.435547,0.696777,0
51480,0.416992,-0.422852,0.688965,0
51500,0.406738,-0.427734,0.683594,0
51520,0.424316,-0.423828,0.692871,0
51540,0.432129,-0.422363,0.68457,0
51560,0.425781,-0.450195,0.69043,0
51580,0.446289,-0.450195,0.697266,0
51600,0.427734,-0.45752,0.698242,0
51620,0.407227,-0.439941,0.709961,0
51640,0.393066,-0.433105,0.712402,0
51660,0.388184,-0.439941,0.712402,0
51680,0.38916,-0.450195,0.699707,0
51700,0.395508,-0.445801,0.687988,0
51720,0.420898,-0.45752,0.710938,0
51740,0.394043,-0.458008,0.693359,0
51760,0.38916,-0.45752,0.69043,0
51780,0.419434,-0.459473,0.705566,0
51800,0.409668,-0.44873,0.67627,0
51820,0.418457,-0.445312,0.681641,0
51840,0.399902,-0.438477,0.692871,0
51860,0.382324,-0.449219,0.683594,0
51880,0.388184,-0.446289,0.695801,0
51900,0.384766,-0.438477,0.681152,0
51920,0.396973,-0.437988,0.693359,0
51940,0.409668,-0.444336,0.693848,0
51960,0.385254,-0.45459,0.692383,0
51980,0.376465,-0.469238,0.68457,0
52000,0.421387,-0.462891,0.713867,0
52020,0.408203,-0.447266,0.712402,0
52040,0.365723,-0.456055,0.686523,0
52060,0.369629,-0.480469,0.695312,0
52080,0.401367,-0.491211,0.696289,0
52100,0.384277,-0.47998,0.683594,0
52120,0.386719,-0.474121,0.691406,0
52140,0.390137,-0.477051,0.691895,0
52160,0.375,-0.487793,0.692871,0
52180,0.375488,-0.482422,0.690918,0
52200,0.402344,-0.492188,0.693359,0
52220,0.398438,-0.491699,0.699707,0
52240,0.364746,-0.503418,0.691406,0
52260,0.361816,-0.501465,0.698242,0
52280,0.367188,-0.478027,0.697266,0
52300,0.375488,-0.466309,0.693848,0
52320,0.385742,-0.484375,0.692871,0
52340,0.392578,-0.494141,0.692383,0
52360,0.378418,-0.485352,0.686035,0
52380,0.389648,-0.464844,0.690918,0
52400,0.379883,-0.468262,0.681152,0
52420,0.368164,-0.48584,0.695312,0
52440,0.357422,-0.496094,0.671387,0
52460,0.341309,-0.500977,0.671875,0
52480,0.348145,-0.496582,0.680176,0
52500,0.359863,-0.495117,0.675293,0
52520,0.35498,-0.504883,0.674805,0
52540,0.361816,-0.516113,0.692871,0
52560,0.365234,-0.512695,0.689941,0
52580,0.36377,-0.518066,0.681152,0
52600,0.357422,-0.518066,0.67627,0
52620,0.399902,-0.522949,0.682129,0
52640,0.398926,-0.51123,0.658203,0
52660,0.356445,-0.517578,0.656738,0
52680,0.364746,-0.532715,0.666504,0
52700,0.402832,-0.528809,0.657227,0
52720,0.394531,-0.504395,0.651855,0
52740,0.394531,-0.508301,0.66748,0
52760,0.379883,-0.519043,0.663574,0
52780,0.369629,-0.546387,0.631348,0
52800,0.380371,-0.529785,0.634766,0
52820,0.407227,-0.512695,0.647949,0
52840,0.392578,-0.523438,0.637207,0
52860,0.365723,-0.55127,0.652344,0
52880,0.391113,-0.557617,0.637695,0
52900,0.407715,-0.527344,0.629883,0
52920,0.38623,-0.523926,0.625,0
52940,0.364258,-0.552246,0.636719,0
52960,0.407227,-0.580078,0.637695,0
52980,0.404785,-0.550293,0.641602,0
53000,0.350586,-0.53418,0.63623,0
53020,0.390137,-0.561523,0.64209,0
53040,0.432129,-0.564453,0.643066,0
53060,0.384277,-0.565918,0.63623,0
53080,0.373047,-0.54834,0.630371,0
53100,0.419922,-0.564453,0.628906,0
53120,0.416504,-0.562988,0.637695,0
53140,0.395508,-0.568848,0.616211,0
53160,0.384766,-0.562012,0.617676,0
53180,0.385742,-0.571289,0.611328,0
53200,0.404785,-0.56543,0.623535,0
53220,0.430664,-0.562012,0.615723,0
53240,0.398926,-0.564941,0.605469,0
53260,0.402832,-0.588867,0.615234,0
53280,0.414551,-0.585938,0.613281,0
53300,0.384277,-0.585449,0.601562,0
53320,0.430664,-0.5625,0.597168,0
53340,0.414062,-0.571289,0.608398,0
53350,0.37793,-0.591309,0.600098,0
53370,0.421875,-0.587891,0.607422,0
53390,0.413086,-0.563477,0.614746,0
53410,0.381348,-0.567383,0.59375,0
53430,0.414551,-0.598633,0.594238,0
53450,0.395996,-0.570801,0.625,0
53470,0.366211,-0.57373,0.603516,0
53490,0.416992,-0.581055,0.591797,0
53510,0.451172,-0.588867,0.592285,0
53530,0.44043,-0.591309,0.599121,0
53550,0.427246,-0.602539,0.597656,0
53570,0.42334,-0.60498,0.572754,0
53590,0.405273,-0.604004,0.568848,0
53610,0.404297,-0.583984,0.579102,0
53630,0.413086,-0.566406,0.57666,0
53650,0.398438,-0.596191,0.600586,0
53670,0.436523,-0.608398,0.592773,0
53690,0.452148,-0.591797,0.567871,0
53710,0.42041,-0.580078,0.560059,0
53730,0.432129,-0.588867,0.589844,0
53750,0.418457,-0.588867,0.620117,0
53770,0.430664,-0.600098,0.568359,0
53790,0.481934,-0.562012,0.546875,0
53810,0.455566,-0.558105,0.581543,0
53830,0.407715,-0.603516,0.581543,0
53850,0.431152,-0.618164,0.565918,0
53870,0.437012,-0.564941,0.585449,0
53890,0.427246,-0.563965,0.592285,0
53910,0.437012,-0.59082,0.575195,0
53930,0.411621,-0.601074,0.574219,0
53950,0.411621,-0.586426,0.59668,0
53970,0.461914,-0.571289,0.578125,0
53990,0.45752,-0.571289,0.551758,0
54010,0.419922,-0.59668,0.578613,0
54030,0.464844,-0.61084,0.585938,0
54050,0.47998,-0.601562,0.572266,0
54070,0.47168,-0.585938,0.553223,0
54090,0.494141,-0.572266,0.540039,0
54110,0.474121,-0.587891,0.575684,0
54130,0.470215,-0.581055,0.569824,0
54150,0.480957,-0.562988,0.539551,0
54170,0.501465,-0.537598,0.539551,0
54190,0.487793,-0.550781,0.545898,0
54210,0.491699,-0.573242,0.530762,0
54230,0.513184,-0.575195,0.519531,0
54250,0.536621,-0.555176,0.53418,0
54270,0.499023,-0.543945,0.518066,0
54290,0.478516,-0.570312,0.524902,0
54310,0.535645,-0.591309,0.530273,0
54330,0.556641,-0.57373,0.512695,0
54350,0.520508,-0.547363,0.502441,0
54370,0.507324,-0.576172,0.503906,0
54390,0.533691,-0.582031,0.522461,0
54410,0.524902,-0.593262,0.51416,0
54430,0.520996,-0.579102,0.5,0
54450,0.525391,-0.575684,0.51709,0
54470,0.527344,-0.574219,0.529297,0
54490,0.533691,-0.596191,0.521973,0
54510,0.540039,-0.585938,0.499023,0
54530,0.538574,-0.574219,0.521973,0
54550,0.527832,-0.571777,0.524902,0
54570,0.51416,-0.586426,0.51416,0
54590,0.530273,-0.578613,0.501465,0
54610,0.556152,-0.561523,0.493164,0
54630,0.560059,-0.557617,0.499512,0
54650,0.541016,-0.548828,0.504395,0
54670,0.537598,-0.583496,0.480957,0
54690,0.566895,-0.586914,0.490723,0
54710,0.561035,-0.559082,0.509766,0
54730,0.541016,-0.561523,0.485352,0
54750,0.554199,-0.5625,0.493652,0
54770,0.598145,-0.566406,0.500488,0
54790,0.595703,-0.556152,0.472656,0
54810,0.579102,-0.561035,0.481934,0
54830,0.57959,-0.565918,0.489746,0
54850,0.591309,-0.544922,0.489258,0
54870,0.59375,-0.547363,0.456543,0
54890,0.584961,-0.554199,0.446777,0
54910,0.587891,-0.554199,0.485352,0
54930,0.605957,-0.551758,0.46582,0
54950,0.611816,-0.557129,0.441895,0
54970,0.622559,-0.543945,0.474609,0
54990,0.616211,-0.540039,0.465332,0
55010,0.608887,-0.546387,0.4375,0
55030,0.591309,-0.550781,0.461426,0
55050,0.61084,-0.546875,0.466797,0
55070,0.610352,-0.550293,0.447266,0
55090,0.614746,-0.540039,0.433105,0
55110,0.62793,-0.525879,0.460449,0
55130,0.619629,-0.546387,0.452148,0
55150,0.615723,-0.549316,0.421875,0
55170,0.637695,-0.524414,0.437988,0
55190,0.629395,-0.518066,0.447266,0
55210,0.609375,-0.542969,0.429199,0
55230,0.626953,-0.543945,0.434082,0
55250,0.643555,-0.530762,0.428711,0
55270,0.635254,-0.507324,0.420898,0
55290,0.644531,-0.515137,0.422363,0
55310,0.665039,-0.52832,0.428223,0
55330,0.651855,-0.530762,0.421875,0
55350,0.664551,-0.522949,0.407227,0
55370,0.686035,-0.505859,0.40332,0
55390,0.691406,-0.487305,0.411621,0
55410,0.691406,-0.515137,0.39502,0
55430,0.686035,-0.51709,0.39209,0
55450,0.689453,-0.50293,0.386719,0
55470,0.709473,-0.492188,0.39502,0
55490,0.721191,-0.488281,0.401855,0
55510,0.719238,-0.467285,0.395996,0
55530,0.692871,-0.498047,0.385742,0
55550,0.678711,-0.503906,0.39209,0
55570,0.679688,-0.479492,0.388672,0
55590,0.687988,-0.435059,0.393555,0
55610,0.716797,-0.462402,0.365234,0
55630,0.713379,-0.487305,0.384277,0
55650,0.709961,-0.492188,0.401367,0
55670,0.712402,-0.460938,0.393066,0
55690,0.719727,-0.458008,0.375,0
55710,0.71582,-0.481934,0.364258,0
55730,0.705078,-0.466797,0.399414,0
55750,0.732422,-0.461914,0.376465,0
55770,0.729004,-0.45752,0.341797,0
55790,0.748047,-0.462891,0.359375,0
55810,0.739258,-0.461914,0.366699,0
55830,0.740234,-0.477051,0.354004,0
55850,0.759277,-0.462402,0.333984,0
55870,0.752441,-0.439453,0.359375,0
55890,0.762207,-0.448242,0.367188,0
55910,0.755859,-0.44873,0.367188,0
55930,0.739746,-0.43457,0.363281,0
55950,0.723633,-0.427734,0.36084,0
55970,0.743164,-0.4375,0.36084,0
55990,0.750488,-0.455078,0.341797,0
56010,0.751465,-0.453125,0.339844,0
56030,0.758789,-0.4375,0.34375,0
56050,0.767578,-0.425293,0.337891,0
56070,0.747559,-0.433105,0.333496,0
56090,0.764648,-0.447754,0.337891,0
56110,0.774902,-0.439941,0.321289,0
56130,0.779785,-0.42627,0.350098,0
56150,0.769531,-0.407715,0.321777,0
56170,0.765625,-0.428711,0.32666,0
56190,0.790527,-0.410156,0.345215,0
56210,0.788574,-0.38916,0.316895,0
56230,0.787109,-0.399902,0.30957,0
56250,0.786621,-0.40625,0.327148,0
56270,0.783203,-0.413574,0.324219,0
56290,0.793945,-0.380371,0.326172,0
56310,0.79541,-0.371582,0.318848,0
56330,0.791992,-0.37793,0.323242,0
56350,0.783203,-0.381348,0.321289,0
56370,0.780273,-0.370117,0.32373,0
56390,0.786621,-0.373535,0.319336,0
56420,0.790527,-0.364746,0.313965,0
56440,0.806641,-0.371582,0.310547,0
56460,0.809082,-0.372559,0.328613,0
56480,0.812012,-0.364746,0.307617,0
56500,0.823242,-0.368164,0.315918,0
56520,0.800781,-0.363281,0.321777,0
56540,0.799805,-0.353516,0.319336,0
56560,0.805176,-0.358398,0.333008,0
56580,0.819336,-0.353516,0.314941,0
56600,0.804199,-0.344727,0.306641,0
56620,0.813477,-0.348145,0.320801,0
56640,0.82666,-0.360352,0.325684,0
56660,0.811035,-0.36377,0.312012,0
56680,0.81543,-0.350098,0.291504,0
56700,0.813477,-0.34375,0.293945,0
56710,0.831055,-0.355957,0.290039,0
56730,0.841309,-0.34668,0.290039,0
56750,0.827148,-0.336914,0.294434,0
56760,0.847656,-0.345215,0.305664,0
56780,0.838379,-0.327637,0.289062,0
56800,0.822266,-0.331543,0.32373,0
56820,0.839355,-0.34082,0.298828,0
56840,0.854004,-0.318359,0.293945,0
56860,0.851074,-0.28125,0.335449,0
56880,0.844727,-0.299805,0.312988,0
56900,0.836914,-0.333984,0.310547,0
56920,0.84375,-0.303223,0.307129,0
56940,0.84375,-0.266113,0.302734,0
56960,0.845703,-0.270996,0.307617,0
56980,0.842773,-0.290527,0.310547,0
57000,0.824219,-0.313477,0.314453,0
57020,0.843262,-0.27002,0.319824,0
57040,0.848633,-0.245605,0.313965,0
57060,0.838867,-0.258301,0.316895,0
57080,0.827148,-0.278809,0.321777,0
57100,0.848145,-0.277832,0.311523,0
57120,0.846191,-0.25,0.30127,0
57140,0.849121,-0.238281,0.304199,0
57160,0.837891,-0.26123,0.313477,0
57180,0.833496,-0.283691,0.306641,0
57200,0.836914,-0.279785,0.3125,0
57220,0.846191,-0.255859,0.308594,0
57240,0.836426,-0.248535,0.314453,0
57260,0.834961,-0.246582,0.320801,0
57280,0.816406,-0.272461,0.327637,0
57300,0.825684,-0.272949,0.324707,0
57320,0.848633,-0.257812,0.318359,0
57340,0.837891,-0.234375,0.314453,0
57360,0.823242,-0.265137,0.330566,0
57380,0.845215,-0.304199,0.327637,0
57400,0.853027,-0.267578,0.335938,0
57420,0.836914,-0.223633,0.333984,0
57440,0.830078,-0.243652,0.340332,0
57460,0.842773,-0.266602,0.34668,0
57480,0.822266,-0.254883,0.350586,0
57500,0.822754,-0.227051,0.352051,0
57520,0.829102,-0.225586,0.336426,0
57540,0.82666,-0.22168,0.344727,0
57560,0.835449,-0.214844,0.368652,0
57580,0.849121,-0.237793,0.362793,0
57600,0.842285,-0.232422,0.354004,0
57620,0.825684,-0.212402,0.376953,0
57640,0.821777,-0.207031,0.359863,0
57660,0.809082,-0.209961,0.363281,0
57680,0.830566,-0.224609,0.359863,0
57700,0.850098,-0.213379,0.378418,0
57720,0.802734,-0.205566,0.395508,0
57740,0.801758,-0.199707,0.398438,0
57760,0.81543,-0.209473,0.393555,0
57780,0.827148,-0.208496,0.390137,0
57800,0.827637,-0.193848,0.384766,0
57820,0.817383,-0.195801,0.395508,0
57840,0.80957,-0.196777,0.39209,0
57860,0.812012,-0.21875,0.382324,0
57880,0.832031,-0.218262,0.393066,0
57900,0.825195,-0.171875,0.397461,0
57920,0.816895,-0.160156,0.389648,0
57940,0.813477,-0.192383,0.398926,0
57960,0.830078,-0.210449,0.396484,0
57980,0.837402,-0.191895,0.393555,0
58000,0.817871,-0.17334,0.399414,0
58020,0.826172,-0.192383,0.389648,0
58040,0.818359,-0.191895,0.399902,0
58060,0.79834,-0.184082,0.407227,0
58080,0.807617,-0.193848,0.409668,0
58100,0.814941,-0.191406,0.40332,0
58120,0.808105,-0.181641,0.414062,0
58140,0.797363,-0.174805,0.421875,0
58160,0.808105,-0.176758,0.410645,0
58180,0.804688,-0.176758,0.424805,0
58200,0.805664,-0.178223,0.425781,0
58220,0.803711,-0.186523,0.42627,0
58240,0.8125,-0.171387,0.430176,0
58260,0.825195,-0.158203,0.416992,0
58280,0.807129,-0.170898,0.42627,0
58300,0.80127,-0.18457,0.431641,0
58320,0.802246,-0.179688,0.434082,0
58340,0.805176,-0.172852,0.425781,0
58360,0.804199,-0.163086,0.439941,0
58380,0.807129,-0.161133,0.438477,0
58400,0.810547,-0.180176,0.436523,0
58420,0.793945,-0.185547,0.460449,0
58440,0.810547,-0.187012,0.437988,0
58460,0.800293,-0.158203,0.444824,0
58480,0.788086,-0.156738,0.455078,0
58500,0.796875,-0.178711,0.455078,0
58520,0.792969,-0.185059,0.452637,0
58540,0.791504,-0.172363,0.453125,0
58560,0.801758,-0.152344,0.438965,0
58580,0.791016,-0.168457,0.463379,0
58600,0.780762,-0.17041,0.462891,0
58620,0.791504,-0.178711,0.458496,0
58640,0.789062,-0.17627,0.470215,0
58650,0.769531,-0.160645,0.475098,0
58670,0.762207,-0.178711,0.474609,0
58690,0.779785,-0.163086,0.476074,0
58710,0.773438,-0.145996,0.480469,0
58730,0.752441,-0.168457,0.494629,0
58750,0.760254,-0.201172,0.48877,0
58770,0.763184,-0.177246,0.501953,0
58790,0.765625,-0.147461,0.485352,0
58810,0.762207,-0.150391,0.487793,0
58830,0.756836,-0.170898,0.527344,0
58850,0.744629,-0.179199,0.529785,0
58870,0.747559,-0.160645,0.495605,0
58890,0.76123,-0.166992,0.511719,0
58910,0.769531,-0.166016,0.521484,0
58930,0.758789,-0.17627,0.529785,0
58950,0.740234,-0.179199,0.51709,0
58970,0.743652,-0.180664,0.523438,0
58990,0.744629,-0.168945,0.53418,0
59010,0.740234,-0.174805,0.536621,0
59030,0.727051,-0.192383,0.535156,0
59050,0.738281,-0.181641,0.543457,0
59070,0.730957,-0.168457,0.544434,0
59090,0.716309,-0.179199,0.537109,0
59110,0.725586,-0.205566,0.547363,0
59130,0.705078,-0.172852,0.555664,0
59150,0.719238,-0.1875,0.535156,0
59170,0.729004,-0.202637,0.55127,0
59190,0.706055,-0.202637,0.556152,0
59210,0.675781,-0.18457,0.565918,0
59230,0.693848,-0.19873,0.550781,0
59250,0.695801,-0.181641,0.561035,0
59270,0.702637,-0.200195,0.588379,0
59290,0.666016,-0.212402,0.558594,0
59310,0.702148,-0.198242,0.560059,0
59330,0.700684,-0.202148,0.585449,0
59350,0.694824,-0.200684,0.573242,0
59370,0.694824,-0.20166,0.56543,0
59390,0.697754,-0.225098,0.584961,0
59410,0.683105,-0.202637,0.589844,0
59430,0.679688,-0.189453,0.577637,0
59450,0.692383,-0.205078,0.575195,0
59470,0.671387,-0.205078,0.586914,0
59490,0.646484,-0.224121,0.585449,0
59510,0.675293,-0.209961,0.57666,0
59530,0.679199,-0.19043,0.598633,0
59550,0.657227,-0.19873,0.59082,0
59570,0.679199,-0.214355,0.580078,0
59590,0.68457,-0.219238,0.602051,0
59610,0.674316,-0.199707,0.596191,0
59630,0.683105,-0.187012,0.583984,0
59650,0.668457,-0.208496,0.582031,0
59670,0.688477,-0.25293,0.609375,0
59690,0.681641,-0.223633,0.597168,0
59710,0.651855,-0.190918,0.590332,0
59730,0.648926,-0.207031,0.587402,0
59750,0.668945,-0.249023,0.615234,0
59770,0.657227,-0.244141,0.598145,0
59790,0.652344,-0.215332,0.616699,0
59810,0.650391,-0.216797,0.606934,0
59830,0.660645,-0.21875,0.602051,0
59850,0.644531,-0.234863,0.59668,0
59870,0.646484,-0.243164,0.613281,0
59890,0.644043,-0.234863,0.623047,0
59910,0.63623,-0.222656,0.61084,0
59930,0.630371,-0.215332,0.601074,0
59950,0.615234,-0.221191,0.612305,0
59970,0.623047,-0.234375,0.612305,0
59990,0.618652,-0.23291,0.624023,0
60010,0.652832,-0.248535,0.60791,0
60030,0.649414,-0.253418,0.611328,0
60050,0.652832,-0.255859,0.615723,0
60070,0.639648,-0.241699,0.625977,0
60090,0.623047,-0.243652,0.622559,0
60110,0.631836,-0.259277,0.609375,0
60130,0.626953,-0.229004,0.621094,0
60150,0.624023,-0.258301,0.625977,0
60170,0.608887,-0.275879,0.614746,0
60190,0.603516,-0.274414,0.623535,0
60210,0.61377,-0.24707,0.614258,0
60230,0.601074,-0.260742,0.626465,0
60250,0.629883,-0.276855,0.630859,0
60270,0.614258,-0.268555,0.645508,0
60290,0.585938,-0.273926,0.624023,0
60310,0.597656,-0.268066,0.624023,0
60330,0.639648,-0.281738,0.648438,0
60350,0.631348,-0.279297,0.629395,0
60370,0.572266,-0.268066,0.626465,0
60390,0.607422,-0.290039,0.633789,0
60410,0.644531,-0.281738,0.643066,0
60430,0.586914,-0.304688,0.642578,0
60450,0.594727,-0.27832,0.619629,0
60470,0.62793,-0.291016,0.638672,0
60490,0.603027,-0.278809,0.639648,0
60510,0.574219,-0.308594,0.629883,0
60530,0.598145,-0.296387,0.635254,0
60550,0.591309,-0.263184,0.627441,0
60570,0.571777,-0.291016,0.627441,0
60590,0.599609,-0.292969,0.629395,0
60610,0.576172,-0.281738,0.625488,0
60630,0.57373,-0.286621,0.62793,0
60650,0.61084,-0.291992,0.625977,0
60670,0.604492,-0.276855,0.640625,0
60690,0.60498,-0.274902,0.62207,0
60710,0.615234,-0.305664,0.619141,0
60730,0.589844,-0.303711,0.624512,0
60750,0.557617,-0.302734,0.598633,0
60770,0.589844,-0.311523,0.612305,0
60790,0.635742,-0.302246,0.623047,0
60810,0.623047,-0.294922,0.636719,0
60830,0.592773,-0.327148,0.621094,0
60850,0.609375,-0.334961,0.619629,0
60870,0.625,-0.30127,0.612793,0
60890,0.594727,-0.300781,0.628906,0
60910,0.583496,-0.304688,0.626953,0
60930,0.606445,-0.317871,0.626953,0
60950,0.609863,-0.317383,0.642578,0
60970,0.598145,-0.320801,0.62207,0
60990,0.580078,-0.305664,0.624023,0
61010,0.585449,-0.317871,0.635254,0
61030,0.618652,-0.323242,0.621094,0
61050,0.589355,-0.345703,0.634277,0
61070,0.549316,-0.352051,0.633301,0
61090,0.603516,-0.344238,0.624023,0
61110,0.606445,-0.336914,0.632324,0
61130,0.568848,-0.338379,0.633301,0
61150,0.555176,-0.361816,0.625,0
61170,0.567871,-0.359863,0.61084,0
61190,0.575684,-0.341797,0.611328,0
61210,0.594238,-0.353516,0.625977,0
61230,0.600586,-0.358398,0.622559,0
61250,0.571289,-0.369629,0.620605,0
61270,0.565918,-0.377441,0.620605,0
61290,0.598145,-0.351074,0.618652,0
61310,0.606445,-0.347168,0.601562,0
61330,0.574219,-0.378418,0.591309,0
61350,0.558105,-0.403809,0.616699,0
61370,0.581543,-0.370117,0.601074,0
61390,0.610352,-0.355469,0.584473,0
61410,0.60498,-0.389648,0.578613,0
61430,0.573242,-0.413574,0.601074,0
61450,0.561523,-0.436523,0.602051,0
61470,0.632812,-0.414062,0.583984,0
61490,0.623047,-0.390137,0.592285,0
61510,0.5625,-0.430664,0.608887,0
61530,0.582031,-0.45752,0.583984,0
61550,0.595215,-0.428223,0.591797,0
61570,0.578613,-0.393555,0.594238,0
61590,0.594727,-0.401855,0.570312,0
61610,0.591797,-0.457031,0.563965,0
61630,0.565918,-0.462402,0.567383,0
61650,0.554199,-0.450684,0.546387,0
61670,0.60498,-0.456543,0.53418,0
61690,0.640625,-0.448242,0.557617,0
61710,0.553223,-0.465332,0.570801,0
61730,0.51416,-0.505371,0.524414,0
61750,0.573242,-0.481445,0.54541,0
61770,0.599609,-0.442383,0.555664,0
61790,0.546387,-0.44873,0.526855,0
61810,0.512695,-0.501465,0.52832,0
61830,0.616211,-0.508301,0.526367,0
61850,0.629395,-0.477051,0.487305,0
61870,0.546875,-0.492188,0.488281,0
61890,0.584961,-0.487305,0.498535,0
61910,0.654785,-0.476074,0.525391,0
61930,0.619141,-0.486816,0.468262,0
61950,0.585938,-0.541504,0.45752,0
61970,0.64209,-0.516602,0.512695,0
61990,0.654785,-0.485352,0.496582,0
62000,0.62793,-0.515625,0.4375,0
62020,0.64502,-0.511719,0.449707,0
62040,0.632812,-0.499023,0.501465,0
62060,0.577637,-0.484863,0.483398,0
62080,0.603516,-0.498047,0.441406,0
62100,0.663574,-0.46582,0.45166,0
62120,0.603516,-0.461914,0.476562,0
62140,0.53418,-0.47168,0.460449,0
62160,0.625977,-0.481445,0.419434,0
62180,0.671387,-0.45166,0.414062,0
62200,0.669922,-0.461914,0.417969,0
62220,0.646484,-0.52002,0.445312,0
62240,0.70459,-0.516602,0.405762,0
62260,0.797363,-0.491211,0.359863,0
62280,0.77832,-0.455078,0.393066,0
62300,0.732422,-0.504395,0.394043,0
62320,0.763672,-0.540527,0.349609,0
62340,0.814453,-0.427246,0.369629,0
62360,0.797363,-0.371094,0.375977,0
62380,0.825684,-0.459473,0.29541,0
62400,0.783691,-0.466797,0.322266,0
62420,0.746094,-0.402832,0.368652,0
62440,0.743164,-0.432617,0.299316,0
62460,0.775391,-0.45752,0.239258,0
62480,0.780273,-0.431641,0.276367,0
62500,0.791992,-0.365234,0.321777,0
62520,0.790527,-0.381348,0.266113,0
62540,0.796875,-0.407227,0.220703,0
62560,0.822754,-0.365723,0.252441,0
62580,0.859863,-0.351074,0.209961,0
62600,0.870605,-0.351074,0.187012,0
62620,0.867188,-0.338379,0.189941,0
62640,0.883789,-0.370117,0.156738,0
62660,0.877441,-0.347168,0.164062,0
62680,0.887207,-0.320801,0.200195,0
62700,0.897949,-0.323242,0.167969,0
62720,0.913574,-0.294922,0.140137,0
62740,0.919922,-0.270996,0.151367,0
62760,0.907227,-0.26123,0.187988,0
62780,0.925781,-0.242188,0.160645,0
62800,0.957031,-0.231445,0.134277,0
62820,0.94043,-0.200684,0.174316,0
62840,0.931641,-0.206543,0.180176,0
62860,0.903809,-0.210938,0.179199,0
62880,0.932129,-0.158691,0.183594,0
62900,0.929199,-0.081543,0.219727,0
62920,0.924316,-0.090332,0.223633,0
62940,0.88916,-0.132812,0.246582,0
62960,0.891113,-0.0976562,0.273438,0
62980,0.885742,-0.0766602,0.251953,0
63000,0.873535,-0.0839844,0.243652,0
63020,0.880371,-0.0703125,0.285645,0
63040,0.848633,-0.0742188,0.297363,0
63060,0.82373,-0.0859375,0.28418,0
63080,0.899902,-0.0864258,0.283691,0
63100,0.880859,-0.0678711,0.338867,0
63120,0.838379,-0.0766602,0.311035,0
63140,0.861328,-0.105957,0.288574,0
63160,0.883301,-0.0952148,0.300293,0
63180,0.862305,-0.065918,0.324707,0
63200,0.863281,-0.0761719,0.312988,0
63220,0.918945,-0.114746,0.327148,0
63240,0.913086,-0.0883789,0.401855,0
63260,0.888184,-0.0336914,0.370117,0
63280,0.916016,-0.0649414,0.344238,0
63300,0.894531,-0.0576172,0.354492,0
63320,0.871582,-0.0786133,0.372559,0
63340,0.82373,-0.0356445,0.363281,0
63360,0.870605,-0.0541992,0.370117,0
63380,0.872559,-0.0444336,0.440918,0
63400,0.824707,-0.0239258,0.472656,0
63420,0.856445,-0.00488281,0.402344,0
63440,0.853516,0.0205078,0.456055,0
63460,0.791504,0.00292969,0.496094,0
63480,0.773926,-0.0224609,0.493164,0
63500,0.844727,-0.0532227,0.469238,0
63520,0.824219,0.0205078,0.468262,0
63540,0.790039,-0.0234375,0.498047,0
63560,0.810059,-0.0449219,0.492676,0
63580,0.782227,-0.0693359,0.535645,0
63600,0.717285,-0.097168,0.520996,0
63620,0.759277,-0.0712891,0.549316,0
63640,0.793457,-0.065918,0.551758,0
63660,0.721191,-0.0615234,0.55127,0
63680,0.708496,-0.0898438,0.56543,0
63700,0.745605,-0.162598,0.55957,0
63720,0.755859,-0.138672,0.56543,0
63740,0.685059,-0.118652,0.621582,0
63760,0.756348,-0.135742,0.609863,0
63780,0.784668,-0.174805,0.603516,0
63800,0.708008,-0.20166,0.503418,0
63820,0.664062,-0.187988,0.574707,0
63840,0.64209,-0.116211,0.600586,0
63860,0.607422,-0.12793,0.569824,0
63880,0.583984,-0.174805,0.538086,0
63900,0.581055,-0.177734,0.612305,0
63920,0.666016,-0.187012,0.591309,0
63940,0.618652,-0.248535,0.517578,0
63960,0.700684,-0.285645,0.536133,0
63980,0.796387,-0.185059,0.606445,0
63990,0.606934,-0.220703,0.572266,0
64010,0.565918,-0.303711,0.568848,0
64030,0.657715,-0.293457,0.557129,0
64050,0.618652,-0.272949,0.595215,0
64070,0.621094,-0.295898,0.602051,0
64090,0.650879,-0.356445,0.585938,0
64110,0.701172,-0.339355,0.600586,0
64130,0.650391,-0.344727,0.519043,0
64150,0.616211,-0.374023,0.521973,0
64170,0.743164,-0.355957,0.583984,0
64190,0.67334,-0.290527,0.604492,0
64210,0.493652,-0.395508,0.558594,0
64230,0.556152,-0.434082,0.516113,0
64250,0.625977,-0.384766,0.502441,0
64270,0.623047,-0.381348,0.55127,0
64290,0.594238,-0.428711,0.547852,0
64310,0.573242,-0.460449,0.453613,0
64330,0.665039,-0.450684,0.440918,0
64350,0.741699,-0.390625,0.452148,0
64370,0.69043,-0.435547,0.462402,0
64390,0.586914,-0.411133,0.52002,0
64410,0.576172,-0.45166,0.450684,0
64430,0.633301,-0.464844,0.420898,0
64450,0.62207,-0.459961,0.48291,0
64470,0.675293,-0.471191,0.457031,0
64490,0.737305,-0.509277,0.431152,0
64510,0.719727,-0.560059,0.431152,0
64530,0.673828,-0.515625,0.416504,0
64550,0.72998,-0.500977,0.421875,0
64570,0.777344,-0.465332,0.436523,0
64590,0.671875,-0.489258,0.404785,0
64610,0.689941,-0.487793,0.376953,0
64630,0.704102,-0.456055,0.462402,0
64650,0.674805,-0.450195,0.400391,0
64670,0.685547,-0.490234,0.36084,0
64690,0.692871,-0.506348,0.398438,0
64710,0.754395,-0.460938,0.410645,0
64730,0.750977,-0.493652,0.387695,0
64750,0.684082,-0.495605,0.38623,0
64770,0.70459,-0.478027,0.361328,0
64790,0.772461,-0.438965,0.339844,0
64810,0.801758,-0.419922,0.321289,0
64830,0.773438,-0.461914,0.365234,0
64850,0.721191,-0.455078,0.375488,0
64870,0.741211,-0.395508,0.314453,0
64890,0.752441,-0.412109,0.324707,0
64910,0.739746,-0.458008,0.355469,0
64930,0.744141,-0.515625,0.356445,0
64950,0.791992,-0.498047,0.29541,0
64970,0.82666,-0.466309,0.30957,0
64990,0.779785,-0.45459,0.339844,0
65010,0.821289,-0.455078,0.274414,0
65030,0.855469,-0.452148,0.253906,0
65050,0.770508,-0.456055,0.34082,0
65070,0.729004,-0.439941,0.290039,0
65090,0.740234,-0.416992,0.277832,0
65110,0.765137,-0.404785,0.279785,0
65130,0.807617,-0.455078,0.285156,0
65150,0.791992,-0.476074,0.284668,0
65170,0.791504,-0.464844,0.243652,0
65190,0.839355,-0.452637,0.180664,0
65210,0.868652,-0.4375,0.209473,0
65230,0.863281,-0.422363,0.200684,0
65250,0.847656,-0.416992,0.208496,0
65270,0.793457,-0.390625,0.209961,0
65290,0.777832,-0.37207,0.211426,0
65310,0.783691,-0.394531,0.200195,0
65330,0.814453,-0.418457,0.192871,0
65350,0.814453,-0.418945,0.217773,0
65370,0.777832,-0.450684,0.19043,0
65390,0.845215,-0.449219,0.115234,0
65410,0.86377,-0.400879,0.178223,0
65430,0.868164,-0.377441,0.170898,0
65450,0.884277,-0.370605,0.119629,0
65470,0.87793,-0.388672,0.165039,0
65490,0.838867,-0.364258,0.203613,0
65510,0.833984,-0.309082,0.191895,0
65530,0.86084,-0.324707,0.145508,0
65550,0.852539,-0.32666,0.161621,0
65570,0.845703,-0.340332,0.196777,0
65590,0.85498,-0.350098,0.17041,0
65610,0.890137,-0.336914,0.101562,0
65630,0.901855,-0.344238,0.108398,0
65650,0.902832,-0.329102,0.12793,0
65670,0.908691,-0.32373,0.118164,0
65690,0.884766,-0.334961,0.126465,1001
65710,0.854004,-0.322266,0.166504,0
65730,0.84082,-0.287598,0.157227,0
65750,0.838867,-0.294434,0.147949,0
65770,0.862305,-0.324219,0.171875,0
65790,0.871094,-0.324219,0.177246,0
65810,0.908691,-0.359863,0.154297,0
65830,0.946777,-0.371582,0.0927734,0
65850,0.939941,-0.327148,0.0932617,0
65870,0.92041,-0.300293,0.139648,0
65890,0.906738,-0.322266,0.0932617,0
65910,0.870117,-0.328125,0.125,0
65930,0.817383,-0.278809,0.162598,0
65950,0.790527,-0.285645,0.148438,0
65970,0.780273,-0.333496,0.138672,0
65990,0.77832,-0.398926,0.106934,0
66010,0.800781,-0.406738,0.152832,0
66030,0.781738,-0.424805,0.166992,0
66050,0.662109,-0.418945,0.184082,0
66070,0.599609,-0.445312,0.128418,0
66090,0.608398,-0.468262,0.0957031,0
66110,0.70166,-0.432617,0.155273,0
66130,0.742188,-0.333496,0.205566,0
66150,0.691406,-0.291504,0.261719,0
66170,0.687988,-0.30957,0.302246,0
66190,0.735352,-0.368652,0.341309,0
66210,0.819824,-0.39209,0.337402,0
66230,0.848145,-0.390137,0.358398,0
66250,0.873047,-0.369629,0.425293,0
66270,0.861816,-0.385742,0.462891,0
66290,0.848633,-0.446777,0.467285,0
66310,0.869141,-0.503418,0.445801,0
66330,0.912598,-0.528809,0.461426,0
66350,0.912598,-0.496582,0.518066,0
66370,0.877441,-0.461426,0.463867,0
66390,0.868164,-0.498047,0.387695,0
66410,0.893555,-0.552246,0.414062,0
66430,0.864258,-0.541504,0.459473,0
66450,0.799316,-0.566406,0.40918,0
66470,0.802246,-0.526855,0.379883,0
66490,0.712402,-0.465332,0.400879,0
66510,0.681152,-0.410156,0.40918,0
66530,0.61377,-0.371094,0.413086,0
66550,0.512695,-0.353027,0.416504,0
66570,0.402344,-0.302734,0.398926,0
66590,0.273438,-0.242676,0.341309,0
66610,0.134277,-0.253418,0.273926,0
66630,0,-0.286621,0.300293,0
66650,-0.123047,-0.308105,0.308594,0
66670,0.0898438,-0.491211,0.388672,0
66690,0.326172,-0.425293,0.654297,0
66710,0.262695,-0.432129,0.827637,0
66730,0.280273,-0.55127,0.86084,0
66750,0.546387,-0.597656,0.851074,0
66770,0.507324,-0.5625,0.916992,0
66790,0.578613,-0.595215,0.946289,0
66810,0.65332,-0.688477,0.907715,0
66830,0.694824,-0.708008,0.848145,0
