Timestamp, Acceleration x, Acceleration y, Acceleration z, Marker
40,-0.634277,-0.768066,0.187988,0
60,-0.644043,-0.760254,0.181641,0
80,-0.643066,-0.75,0.186035,0
100,-0.642578,-0.749023,0.185059,0
120,-0.640625,-0.749023,0.196289,0
130,-0.644043,-0.741211,0.192383,0
130,-0.643066,-0.742676,0.19043,0
180,-0.644531,-0.749023,0.200195,0
200,-0.642578,-0.749023,0.20752,0
220,-0.633789,-0.741211,0.196777,0
240,-0.629395,-0.751465,0.193848,0
260,-0.635742,-0.748047,0.216309,0
280,-0.647949,-0.755371,0.21875,0
300,-0.647461,-0.771973,0.214844,0
320,-0.643555,-0.783203,0.197266,0
340,-0.618652,-0.770508,0.172363,0
360,-0.620605,-0.768066,0.180176,0
380,-0.63916,-0.754395,0.180176,0
400,-0.635742,-0.766602,0.150879,0
420,-0.613281,-0.792969,0.165039,0
440,-0.641113,-0.783691,0.208984,0
460,-0.627441,-0.822754,0.206543,0
480,-0.587402,-0.838379,0.224609,0
500,-0.5625,-0.828613,0.23877,0
520,-0.550781,-0.791992,0.253906,0
540,-0.538574,-0.799805,0.26709,0
560,-0.550293,-0.797363,0.279785,0
580,-0.543945,-0.814941,0.266113,0
600,-0.53418,-0.814941,0.255859,0
620,-0.510742,-0.810547,0.262207,0
640,-0.520996,-0.81543,0.276855,0
660,-0.525391,-0.787598,0.287109,0
680,-0.527832,-0.79541,0.283691,0
700,-0.529785,-0.759277,0.284668,0
720,-0.53418,-0.760254,0.268066,0
740,-0.542969,-0.775879,0.265625,0
760,-0.544922,-0.778809,0.281738,0
780,-0.543945,-0.78418,0.286133,0
800,-0.556641,-0.781738,0.281738,0
820,-0.557129,-0.791504,0.284668,0
840,-0.558594,-0.790039,0.277832,0
860,-0.557129,-0.794434,0.277344,0
880,-0.557617,-0.776367,0.276855,0
900,-0.557617,-0.779297,0.278809,0
920,-0.548828,-0.783203,0.274414,0
940,-0.546387,-0.783691,0.270508,0
960,-0.544922,-0.769531,0.26416,0
980,-0.550293,-0.775391,0.259766,0
1000,-0.56543,-0.782715,0.239258,0
1020,-0.569824,-0.791504,0.240723,0
1040,-0.577148,-0.787598,0.249512,0
1060,-0.57959,-0.786621,0.262207,0
1080,-0.568359,-0.773438,0.247559,0
1100,-0.556152,-0.773926,0.251465,0
1120,-0.546875,-0.764648,0.25293,0
1130,-0.54541,-0.77002,0.246582,0
1150,-0.54541,-0.783691,0.262207,0
1170,-0.547852,-0.797852,0.269531,0
1180,-0.547852,-0.807617,0.27832,0
1200,-0.550293,-0.79248,0.295898,0
1220,-0.546387,-0.787598,0.297852,0
1240,-0.536133,-0.774902,0.273926,0
1260,-0.528809,-0.779785,0.287109,0
1280,-0.518555,-0.772949,0.299805,0
1300,-0.512207,-0.779785,0.303711,0
1320,-0.50293,-0.772461,0.291504,0
1340,-0.502441,-0.772949,0.287598,0
1360,-0.503418,-0.781738,0.306152,0
1380,-0.541992,-0.814941,0.359375,0
1400,-0.566895,-0.842773,0.379883,0
1420,-0.55957,-0.86084,0.375488,0
1440,-0.557617,-0.858398,0.34082,0
1460,-0.529785,-0.82959,0.298828,0
1480,-0.522949,-0.786133,0.274902,0
1500,-0.532715,-0.73877,0.272461,0
1520,-0.539551,-0.733398,0.26416,0
1540,-0.549805,-0.760742,0.282227,0
1560,-0.569824,-0.787109,0.307129,0
1580,-0.57666,-0.788574,0.303711,0
1600,-0.57373,-0.791504,0.300293,0
1620,-0.55957,-0.780273,0.29248,0
1640,-0.558594,-0.777832,0.296387,0
1660,-0.569336,-0.772461,0.30127,0
1680,-0.560059,-0.774902,0.291992,0
1700,-0.550293,-0.785156,0.285645,0
1720,-0.541992,-0.799805,0.296387,0
1740,-0.541016,-0.789551,0.293945,0
1760,-0.546875,-0.813477,0.287109,0
1780,-0.530273,-0.817383,0.28418,0
1800,-0.515625,-0.827637,0.279785,0
1820,-0.512207,-0.82959,0.279297,0
1840,-0.509766,-0.823242,0.286133,0
1860,-0.507324,-0.821777,0.288574,0
1880,-0.496094,-0.823242,0.294434,0
1900,-0.498047,-0.830078,0.300293,0
1920,-0.489746,-0.816406,0.295898,0
1940,-0.49707,-0.816406,0.29834,0
1960,-0.488281,-0.805664,0.300293,0
1980,-0.501465,-0.811035,0.294922,0
2000,-0.5,-0.806152,0.290039,0
2020,-0.500977,-0.810059,0.297363,0
2040,-0.507324,-0.811035,0.289062,0
2060,-0.506836,-0.822266,0.286621,0
2080,-0.504395,-0.814941,0.291992,0
2100,-0.496582,-0.819824,0.286621,0
2120,-0.47998,-0.812012,0.290527,0
2140,-0.496094,-0.811523,0.29541,0
2160,-0.51123,-0.82373,0.276855,0
2180,-0.522461,-0.82666,0.274414,0
2200,-0.51416,-0.819824,0.266602,0
2220,-0.519531,-0.825684,0.267578,0
2240,-0.51416,-0.821777,0.271484,0
2260,-0.509766,-0.825684,0.28125,0
2280,-0.513672,-0.813477,0.283203,0
2300,-0.512695,-0.822266,0.285645,0
2320,-0.495605,-0.817383,0.287598,0
2340,-0.499512,-0.81543,0.281738,0
2360,-0.506836,-0.80957,0.287109,0
2380,-0.511719,-0.80957,0.288574,0
2400,-0.504395,-0.810547,0.288574,0
2420,-0.499023,-0.813477,0.291016,0
2440,-0.496094,-0.817383,0.287598,0
2460,-0.484375,-0.808594,0.297363,0
2480,-0.493164,-0.814453,0.29541,0
2500,-0.500488,-0.80957,0.288086,0
2520,-0.49707,-0.80957,0.300781,0
2540,-0.488281,-0.829102,0.285156,0
2560,-0.48584,-0.826172,0.305664,0
2580,-0.5,-0.807617,0.298828,0
2600,-0.497559,-0.804199,0.298828,0
2620,-0.503418,-0.817871,0.310547,0
2640,-0.495605,-0.82959,0.289551,0
2660,-0.494141,-0.832031,0.296387,0
2680,-0.510742,-0.808105,0.291016,0
2700,-0.506836,-0.785156,0.288574,0
2720,-0.508789,-0.791992,0.302734,0
2740,-0.5,-0.814941,0.299805,0
2760,-0.492188,-0.819824,0.295898,0
2780,-0.504883,-0.826172,0.301758,0
2800,-0.508789,-0.81543,0.292969,0
2820,-0.510742,-0.805664,0.297852,0
2840,-0.505859,-0.822754,0.285156,0
2860,-0.500488,-0.828613,0.289551,0
2880,-0.502441,-0.814941,0.283691,0
2900,-0.503906,-0.814941,0.286621,0
2920,-0.500977,-0.803711,0.293945,0
2940,-0.497559,-0.812012,0.29541,0
2960,-0.493164,-0.811035,0.286621,0
2980,-0.505859,-0.807617,0.291504,0
3000,-0.510742,-0.810059,0.29248,0
3020,-0.509766,-0.81543,0.282227,0
3040,-0.506836,-0.814941,0.28418,0
3060,-0.498535,-0.817871,0.276367,0
3080,-0.51123,-0.822754,0.274414,0
3100,-0.491699,-0.817383,0.27832,0
3120,-0.495605,-0.811035,0.288574,0
3140,-0.486816,-0.810059,0.290039,0
3160,-0.48584,-0.814941,0.297852,0
3180,-0.491699,-0.82666,0.288086,0
3200,-0.490723,-0.821777,0.305664,0
3220,-0.489746,-0.804199,0.297852,0
3240,-0.493164,-0.804688,0.30957,0
3260,-0.494629,-0.807617,0.318848,0
3280,-0.492188,-0.810059,0.299805,0
3300,-0.490723,-0.804688,0.300781,0
3320,-0.500488,-0.817871,0.282227,0
3340,-0.496094,-0.82959,0.291016,0
3360,-0.508301,-0.806641,0.291992,0
3380,-0.510742,-0.785156,0.30127,0
3400,-0.503906,-0.793945,0.317383,0
3420,-0.472656,-0.806152,0.317383,0
3440,-0.467285,-0.817871,0.308594,0
3460,-0.473633,-0.816406,0.316895,0
3480,-0.465332,-0.820801,0.332031,0
3500,-0.470215,-0.811523,0.336914,0
3520,-0.46875,-0.824219,0.341309,0
3540,-0.477051,-0.824219,0.328613,0
3560,-0.494629,-0.827637,0.3125,0
3580,-0.496582,-0.820801,0.311035,0
3600,-0.499512,-0.825684,0.297852,0
3620,-0.492188,-0.818848,0.294434,0
3640,-0.487305,-0.810059,0.299805,0
3660,-0.491211,-0.79834,0.294922,0
3680,-0.49707,-0.796875,0.311523,0
3700,-0.502441,-0.792969,0.314941,0
3720,-0.495117,-0.814941,0.322266,0
3740,-0.494629,-0.817383,0.316406,0
3760,-0.486816,-0.812988,0.310547,0
3780,-0.505859,-0.819824,0.284668,0
3790,-0.520996,-0.834961,0.266113,0
3810,-0.517578,-0.828125,0.256348,0
3830,-0.520508,-0.803223,0.26123,0
3850,-0.518066,-0.810547,0.255371,0
3870,-0.505859,-0.808105,0.258789,0
3890,-0.508301,-0.819824,0.277344,0
3910,-0.501953,-0.813477,0.287109,0
3930,-0.495605,-0.828125,0.279785,0
3950,-0.498535,-0.825195,0.282227,0
3970,-0.505859,-0.831055,0.283203,0
3990,-0.508789,-0.822266,0.272461,0
4010,-0.513184,-0.813965,0.271484,0
4030,-0.508301,-0.808105,0.264648,0
4050,-0.504395,-0.805176,0.263672,0
4070,-0.509277,-0.828613,0.26123,0
4090,-0.512207,-0.836914,0.260254,0
4110,-0.512207,-0.82666,0.261719,0
4130,-0.510254,-0.828125,0.259277,0
4150,-0.502441,-0.82373,0.258301,0
4170,-0.501953,-0.82373,0.268066,0
4190,-0.500488,-0.828613,0.269043,0
4210,-0.497559,-0.82373,0.275391,0
4230,-0.50293,-0.830566,0.276855,0
4250,-0.504395,-0.820312,0.272949,0
4270,-0.505859,-0.821777,0.271973,0
4290,-0.510742,-0.812012,0.271973,0
4310,-0.519043,-0.813965,0.274414,0
4330,-0.52002,-0.805664,0.263184,0
4350,-0.522949,-0.8125,0.257812,0
4370,-0.525879,-0.817871,0.256836,0
4390,-0.517578,-0.82373,0.262695,0
4410,-0.516602,-0.820312,0.260742,0
4430,-0.509277,-0.825195,0.265137,0
4450,-0.505859,-0.815918,0.265625,0
4470,-0.501953,-0.823242,0.26709,0
4490,-0.500488,-0.827148,0.266113,0
4510,-0.506836,-0.827637,0.259277,0
4530,-0.5,-0.821777,0.269043,0
4550,-0.501953,-0.821289,0.262695,0
4570,-0.516602,-0.830078,0.264648,0
4590,-0.507812,-0.821777,0.269043,0
4610,-0.507324,-0.82666,0.254883,0
4630,-0.504883,-0.834473,0.248535,0
4650,-0.50293,-0.8125,0.259277,0
4670,-0.509766,-0.807129,0.269531,0
4690,-0.499512,-0.81543,0.266113,0
4710,-0.501465,-0.817383,0.256348,0
4730,-0.501465,-0.821289,0.264648,0
4750,-0.501465,-0.824219,0.253906,0
4770,-0.508301,-0.825684,0.264648,0
4790,-0.51123,-0.819336,0.259277,0
4810,-0.511719,-0.824707,0.251953,0
4830,-0.509277,-0.825684,0.263184,0
4850,-0.510742,-0.821289,0.264648,0
4870,-0.503418,-0.820801,0.257324,0
4890,-0.504883,-0.824219,0.258301,0
4910,-0.508789,-0.818359,0.260742,0
4930,-0.513184,-0.820801,0.256836,0
4950,-0.516602,-0.812988,0.257324,0
4970,-0.517578,-0.817871,0.26416,0
4990,-0.524414,-0.820801,0.259277,0
5010,-0.524414,-0.822754,0.253418,0
5030,-0.521484,-0.813965,0.269531,0
5050,-0.521484,-0.807129,0.262695,0
5070,-0.498047,-0.811523,0.265137,0
5090,-0.498535,-0.827148,0.264648,0
5110,-0.504395,-0.825684,0.261719,0
5130,-0.5,-0.827637,0.26123,0
5150,-0.5,-0.838867,0.250488,0
5170,-0.509277,-0.839355,0.243164,0
5190,-0.503418,-0.821777,0.24707,0
5210,-0.507324,-0.816895,0.263184,0
5230,-0.506348,-0.827148,0.278809,0
5250,-0.49707,-0.82373,0.279785,0
5270,-0.493164,-0.821777,0.273438,0
5290,-0.493652,-0.817871,0.271973,0
5310,-0.501465,-0.822754,0.259766,0
5330,-0.501953,-0.814453,0.268066,0
5350,-0.506836,-0.820312,0.275879,0
5370,-0.505371,-0.820801,0.270508,0
5390,-0.51123,-0.829102,0.266113,0
5410,-0.518555,-0.835938,0.267578,0
5430,-0.517578,-0.831543,0.271484,0
5450,-0.513672,-0.820801,0.269043,0
5470,-0.504395,-0.822266,0.270508,0
5490,-0.5,-0.821777,0.272949,0
5510,-0.502441,-0.814941,0.26709,0
5530,-0.496094,-0.821289,0.265625,0
5550,-0.496582,-0.82959,0.270508,0
5570,-0.498535,-0.830078,0.26709,0
5590,-0.497559,-0.817383,0.262695,0
5610,-0.502441,-0.818848,0.257324,0
5630,-0.496094,-0.8125,0.266602,0
5650,-0.498535,-0.826172,0.275391,0
5670,-0.499512,-0.822754,0.275879,0
5690,-0.50293,-0.825195,0.271484,0
5710,-0.502441,-0.813965,0.282715,0
5730,-0.49707,-0.828613,0.263672,0
5740,-0.5,-0.817871,0.270508,0
5760,-0.519531,-0.821777,0.275391,0
5780,-0.508301,-0.820312,0.270996,0
5800,-0.505371,-0.824219,0.269043,0
5820,-0.505859,-0.810059,0.28125,0
5840,-0.510254,-0.82373,0.279297,0
5860,-0.499512,-0.822266,0.273438,0
5880,-0.500977,-0.818359,0.275879,0
5900,-0.506836,-0.828125,0.271973,0
5920,-0.503906,-0.818848,0.273926,0
5940,-0.503906,-0.818359,0.276855,0
5960,-0.504883,-0.820801,0.281738,0
5980,-0.512207,-0.816895,0.271973,0
6000,-0.508301,-0.817383,0.266602,0
6020,-0.513184,-0.810547,0.271973,0
6040,-0.517578,-0.807617,0.276855,0
6060,-0.515625,-0.814941,0.272461,0
6080,-0.512207,-0.825195,0.278809,0
6100,-0.515137,-0.828613,0.270508,0
6120,-0.505371,-0.811035,0.282715,0
6140,-0.510254,-0.808594,0.280762,0
6160,-0.495605,-0.807617,0.282227,0
6180,-0.505371,-0.802734,0.288574,0
6200,-0.502441,-0.804199,0.28418,0
6220,-0.506836,-0.813477,0.276855,0
6240,-0.5,-0.808594,0.277832,0
6260,-0.51123,-0.816895,0.268066,0
6280,-0.527832,-0.810059,0.270996,0
6300,-0.522949,-0.811035,0.279785,0
6320,-0.515625,-0.807617,0.279785,0
6340,-0.516602,-0.810059,0.271973,0
6360,-0.505859,-0.815918,0.274414,0
6380,-0.504395,-0.834473,0.276367,0
6400,-0.51123,-0.831543,0.267578,0
6420,-0.513672,-0.824219,0.263672,0
6440,-0.505371,-0.83252,0.264648,0
6460,-0.502441,-0.817871,0.270508,0
6480,-0.510254,-0.806641,0.278809,0
6500,-0.520508,-0.784668,0.290039,0
6520,-0.509277,-0.803711,0.303223,0
6540,-0.494629,-0.815918,0.290039,0
6560,-0.489746,-0.816895,0.290039,0
6580,-0.5,-0.801758,0.287109,0
6600,-0.495605,-0.821777,0.28418,0
6620,-0.503418,-0.835449,0.271973,0
6640,-0.509277,-0.845215,0.265137,0
6660,-0.514648,-0.832031,0.259277,0
6680,-0.528809,-0.804688,0.259766,0
6700,-0.526367,-0.805664,0.279785,0
6720,-0.518066,-0.805664,0.287598,0
6740,-0.516113,-0.804688,0.284668,0
6760,-0.512207,-0.809082,0.291992,0
6780,-0.509766,-0.810547,0.284668,0
6800,-0.503418,-0.814941,0.285156,0
6820,-0.50293,-0.814453,0.272949,0
6840,-0.503418,-0.811523,0.286133,0
6860,-0.505859,-0.818359,0.280762,0
6880,-0.498047,-0.819336,0.272949,0
6900,-0.500977,-0.817383,0.276855,0
6920,-0.498535,-0.8125,0.281738,0
6940,-0.501953,-0.814941,0.287598,0
6960,-0.495605,-0.813965,0.293945,0
6980,-0.493164,-0.818848,0.282715,0
7000,-0.497559,-0.813965,0.289062,0
7020,-0.5,-0.814453,0.294434,0
7040,-0.502441,-0.8125,0.288574,0
7060,-0.504883,-0.815918,0.285156,0
7080,-0.501465,-0.814453,0.293945,0
7100,-0.499512,-0.817871,0.284668,0
7120,-0.497559,-0.813477,0.287598,0
7140,-0.499023,-0.806641,0.290039,0
7160,-0.507324,-0.8125,0.294434,0
7180,-0.500977,-0.81543,0.296387,0
7200,-0.489258,-0.819336,0.293945,0
7220,-0.493164,-0.818359,0.301758,0
7240,-0.493164,-0.807617,0.297852,0
7260,-0.500977,-0.805664,0.300293,0
7280,-0.502441,-0.819336,0.296387,0
7300,-0.49707,-0.824219,0.288086,0
7320,-0.496582,-0.817871,0.285156,0
7340,-0.495605,-0.813965,0.27832,0
7360,-0.511719,-0.807129,0.290527,0
7380,-0.51416,-0.812012,0.290039,0
7400,-0.506348,-0.811035,0.284668,0
7420,-0.498047,-0.805664,0.288086,0
7440,-0.494629,-0.811035,0.296875,0
7460,-0.496582,-0.812988,0.293457,0
7480,-0.499023,-0.819336,0.290039,0
7500,-0.495117,-0.82373,0.284668,0
7520,-0.49707,-0.818848,0.284668,0
7540,-0.498047,-0.817383,0.289062,0
7560,-0.501465,-0.820312,0.288086,0
7580,-0.5,-0.81543,0.288086,0
7600,-0.508301,-0.818848,0.286133,0
7620,-0.50293,-0.821289,0.292969,0
7640,-0.501953,-0.813965,0.295898,0
7660,-0.498535,-0.813477,0.291016,0
7680,-0.496582,-0.813477,0.291016,0
7700,-0.498047,-0.8125,0.285156,0
7720,-0.500977,-0.810547,0.285645,0
7740,-0.498047,-0.817871,0.285156,0
7760,-0.501465,-0.820801,0.282227,0
7780,-0.499023,-0.817383,0.277344,0
7800,-0.500488,-0.813965,0.287109,0
7820,-0.500488,-0.819824,0.285156,0
7840,-0.50293,-0.812988,0.286621,0
7860,-0.50293,-0.823242,0.282715,0
7880,-0.501465,-0.821289,0.280273,0
7900,-0.50293,-0.819336,0.284668,0
7920,-0.502441,-0.814941,0.28418,0
7940,-0.504395,-0.814941,0.287109,0
7960,-0.506836,-0.81543,0.272461,0
7980,-0.506348,-0.811523,0.287109,0
8000,-0.502441,-0.815918,0.282715,0
8020,-0.503906,-0.8125,0.277832,0
8040,-0.498535,-0.816406,0.277832,0
8060,-0.504395,-0.817383,0.281738,0
8080,-0.503906,-0.823242,0.275391,0
8100,-0.501953,-0.817871,0.284668,0
8120,-0.500977,-0.81543,0.286621,0
8140,-0.496094,-0.819336,0.281738,0
8160,-0.5,-0.818848,0.279785,0
8180,-0.495605,-0.808594,0.288574,0
8200,-0.503418,-0.818848,0.293945,0
8220,-0.507812,-0.812988,0.282227,0
8240,-0.504883,-0.813965,0.286621,0
8260,-0.505859,-0.813477,0.28125,0
8280,-0.499023,-0.822754,0.285156,0
8300,-0.504395,-0.820801,0.273926,0
8320,-0.508301,-0.824219,0.27832,0
8340,-0.504883,-0.812988,0.28418,0
8360,-0.509277,-0.812988,0.283691,0
8380,-0.51416,-0.80957,0.283203,0
8400,-0.509277,-0.80957,0.290527,0
8420,-0.504395,-0.80127,0.291016,0
8440,-0.500488,-0.808594,0.294922,0
8460,-0.50293,-0.817871,0.292969,0
8480,-0.499023,-0.824707,0.290039,0
8500,-0.497559,-0.817871,0.294922,0
8520,-0.499512,-0.817871,0.28418,0
8540,-0.5,-0.816895,0.290039,0
8560,-0.500977,-0.817871,0.291992,0
8580,-0.49707,-0.808594,0.29248,0
8600,-0.504883,-0.809082,0.29541,0
8620,-0.501953,-0.817871,0.293457,0
8640,-0.494629,-0.805664,0.299316,0
8660,-0.496094,-0.807129,0.304688,0
8680,-0.48877,-0.814941,0.300293,0
8700,-0.489258,-0.811035,0.301758,0
8720,-0.494141,-0.80957,0.302734,0
8740,-0.49707,-0.815918,0.300293,0
8760,-0.489258,-0.816895,0.298828,0
8780,-0.492188,-0.814941,0.291992,0
8800,-0.498047,-0.812988,0.296875,0
8820,-0.5,-0.816895,0.299805,0
8840,-0.492188,-0.802734,0.30127,0
8860,-0.495117,-0.8125,0.30127,0
8880,-0.495117,-0.807129,0.30127,0
8900,-0.498535,-0.804199,0.302734,0
8920,-0.504395,-0.807617,0.29541,0
8940,-0.499023,-0.812012,0.297363,0
8960,-0.495117,-0.805664,0.302734,0
8980,-0.494141,-0.813477,0.303711,0
9000,-0.494141,-0.817871,0.300293,0
9020,-0.489746,-0.8125,0.307129,0
9040,-0.487793,-0.814941,0.305176,0
9060,-0.491211,-0.814453,0.302246,0
9080,-0.490234,-0.815918,0.304199,0
9100,-0.484863,-0.807617,0.312012,0
9120,-0.491211,-0.810547,0.311523,0
9140,-0.465332,-0.778809,0.318848,0
9150,-0.512695,-0.815918,0.335938,0
9170,-0.507812,-0.780273,0.328125,0
9190,-0.488281,-0.812988,0.313965,0
9210,-0.475586,-0.827148,0.288086,0
9230,-0.498047,-0.82373,0.297363,0
9250,-0.502441,-0.804199,0.302246,0
9270,-0.505859,-0.818359,0.294434,0
9290,-0.505859,-0.819336,0.299805,0
9310,-0.491699,-0.814453,0.305176,0
9330,-0.489258,-0.8125,0.299805,0
9350,-0.494141,-0.816895,0.300293,0
9370,-0.494629,-0.812012,0.300781,0
9390,-0.493164,-0.814453,0.301758,0
9410,-0.501953,-0.814941,0.298828,0
9430,-0.499512,-0.813477,0.294434,0
9450,-0.498535,-0.812988,0.293457,0
9470,-0.493164,-0.812988,0.291504,0
9490,-0.498047,-0.815918,0.297852,0
9510,-0.495117,-0.813477,0.293457,0
9530,-0.493652,-0.813477,0.299805,0
9550,-0.490723,-0.820801,0.293945,0
9570,-0.499023,-0.819824,0.288086,0
9590,-0.495117,-0.816895,0.288086,0
9610,-0.502441,-0.820312,0.287598,0
9630,-0.504395,-0.811523,0.300293,0
9650,-0.508789,-0.810547,0.293945,0
9670,-0.5,-0.807129,0.282715,0
9690,-0.502441,-0.818359,0.286621,0
9710,-0.508789,-0.804688,0.287598,0
9730,-0.512695,-0.818848,0.294434,0
9750,-0.492188,-0.816895,0.279297,0
9770,-0.490234,-0.819824,0.282227,0
9790,-0.501465,-0.80957,0.299316,0
9810,-0.506836,-0.8125,0.290039,0
9830,-0.495605,-0.812988,0.291992,0
9850,-0.487305,-0.811523,0.286133,0
9870,-0.490234,-0.808105,0.288574,0
9890,-0.496582,-0.813477,0.297363,0
9910,-0.498047,-0.818848,0.29834,0
9930,-0.495605,-0.812012,0.298828,0
9950,-0.495605,-0.814941,0.29541,0
9970,-0.506836,-0.810547,0.300781,0
9990,-0.50293,-0.813965,0.296387,0
10010,-0.510742,-0.810059,0.296387,0
10030,-0.519043,-0.819336,0.291992,0
10050,-0.516113,-0.813965,0.300781,0
10070,-0.512207,-0.817383,0.28125,0
10090,-0.505371,-0.810059,0.279297,0
10110,-0.510254,-0.813477,0.28418,0
10130,-0.512695,-0.810059,0.289551,0
10150,-0.51123,-0.808105,0.287598,0
10170,-0.506836,-0.810059,0.288086,0
10190,-0.499512,-0.824707,0.295898,0
10210,-0.499512,-0.816895,0.287109,0
10230,-0.49707,-0.80957,0.298828,0
10250,-0.493164,-0.817383,0.292969,0
10270,-0.495605,-0.8125,0.299805,0
10290,-0.49707,-0.807129,0.288086,0
10310,-0.499023,-0.806641,0.29834,0
10330,-0.498047,-0.800781,0.300781,0
10350,-0.501465,-0.807129,0.29541,0
10370,-0.504883,-0.822754,0.29834,0
10390,-0.513184,-0.811035,0.294922,0
10410,-0.512207,-0.816406,0.299316,0
10430,-0.506836,-0.813965,0.299316,0
10450,-0.501465,-0.81543,0.29541,0
10470,-0.496582,-0.803711,0.29541,0
10490,-0.496094,-0.801758,0.302246,0
10510,-0.497559,-0.791992,0.299805,0
10530,-0.508301,-0.806641,0.308594,0
10550,-0.504883,-0.800781,0.307129,0
10570,-0.506348,-0.811035,0.305176,0
10590,-0.50293,-0.810547,0.30957,0
10610,-0.520996,-0.814941,0.303223,0
10630,-0.51123,-0.801758,0.303223,0
10650,-0.504395,-0.799316,0.303223,0
10670,-0.50293,-0.810059,0.300781,0
10690,-0.503418,-0.800293,0.305664,0
10710,-0.504395,-0.803711,0.310059,0
10730,-0.497559,-0.806152,0.305664,0
10750,-0.496094,-0.804688,0.311523,0
10770,-0.499023,-0.805664,0.31543,0
10790,-0.505859,-0.809082,0.312988,0
10810,-0.505371,-0.800781,0.308105,0
10830,-0.504395,-0.804199,0.313477,0
10850,-0.508301,-0.800781,0.319824,0
10870,-0.501465,-0.801758,0.313965,0
10890,-0.507324,-0.808105,0.306641,0
10910,-0.508789,-0.804199,0.303223,0
10930,-0.512207,-0.802246,0.30127,0
10950,-0.510742,-0.806152,0.29834,0
10970,-0.508301,-0.804199,0.301758,0
10990,-0.510742,-0.803711,0.305176,0
11010,-0.500488,-0.799805,0.307129,0
11030,-0.499023,-0.808105,0.310059,0
11050,-0.499023,-0.805664,0.309082,0
11070,-0.495117,-0.807129,0.309082,0
11090,-0.501953,-0.804199,0.307617,0
11110,-0.503418,-0.813965,0.302246,0
11120,-0.501953,-0.799805,0.306152,0
11140,-0.503418,-0.805664,0.302734,0
11160,-0.505859,-0.797852,0.299316,0
11180,-0.502441,-0.796387,0.308105,0
11200,-0.50293,-0.813477,0.306152,0
11220,-0.505859,-0.805664,0.311523,0
11240,-0.508301,-0.802734,0.302246,0
11260,-0.501953,-0.810059,0.308594,0
11280,-0.506348,-0.802734,0.303711,0
11300,-0.506348,-0.806641,0.303223,0
11320,-0.506348,-0.805664,0.304199,0
11340,-0.510742,-0.80127,0.305664,0
11360,-0.507324,-0.802246,0.300293,0
11380,-0.504883,-0.801758,0.302734,0
11400,-0.504395,-0.809082,0.304199,0
11420,-0.501953,-0.810059,0.300781,0
11440,-0.499023,-0.811523,0.305664,0
11460,-0.500488,-0.805176,0.309082,0
11480,-0.503418,-0.804199,0.307129,0
11500,-0.502441,-0.801758,0.303711,0
11520,-0.497559,-0.804199,0.310547,0
11540,-0.501953,-0.800293,0.304199,0
11560,-0.500488,-0.810059,0.308105,0
11580,-0.50293,-0.804688,0.310547,0
11600,-0.499023,-0.80957,0.308594,0
11620,-0.50293,-0.808105,0.307617,0
11640,-0.501465,-0.804199,0.304688,0
11660,-0.504395,-0.802246,0.311035,0
11680,-0.498535,-0.805176,0.308105,0
11700,-0.499023,-0.802246,0.310059,0
11720,-0.499512,-0.804199,0.311523,0
11740,-0.487305,-0.803223,0.312012,0
11760,-0.492676,-0.791504,0.309082,0
11780,-0.499512,-0.810059,0.30957,0
11800,-0.502441,-0.816895,0.307617,0
11820,-0.512695,-0.819336,0.299805,0
11840,-0.503418,-0.804688,0.300293,0
11860,-0.502441,-0.819824,0.302734,0
11880,-0.498535,-0.804688,0.304199,0
11900,-0.504883,-0.794922,0.307617,0
11920,-0.500488,-0.802246,0.316406,0
11940,-0.495117,-0.815918,0.317383,0
11960,-0.498047,-0.800781,0.316895,0
11980,-0.495605,-0.80957,0.313477,0
12000,-0.500488,-0.803711,0.311523,0
12020,-0.500977,-0.805176,0.311523,0
12040,-0.501953,-0.810059,0.311523,0
12060,-0.500488,-0.805176,0.305176,0
12080,-0.501465,-0.807617,0.300781,0
12100,-0.501465,-0.807617,0.302734,0
12120,-0.499512,-0.80957,0.310059,0
12140,-0.500488,-0.808105,0.309082,0
12160,-0.496582,-0.807617,0.305176,0
12180,-0.494141,-0.803223,0.306641,0
12200,-0.501953,-0.807617,0.30957,0
12220,-0.497559,-0.805664,0.314453,0
12240,-0.499023,-0.813965,0.313477,0
12260,-0.500977,-0.803223,0.303711,0
12280,-0.503906,-0.807617,0.302734,0
12300,-0.503906,-0.810059,0.302246,0
12320,-0.508789,-0.817383,0.308594,0
12340,-0.512695,-0.818359,0.303711,0
12360,-0.509277,-0.826172,0.305176,0
12380,-0.502441,-0.825684,0.300293,0
12400,-0.491211,-0.812988,0.302246,0
12420,-0.492676,-0.800293,0.307617,0
12440,-0.481445,-0.801758,0.310547,0
12460,-0.491699,-0.803223,0.31543,0
12480,-0.505859,-0.796875,0.319336,0
12500,-0.510254,-0.796875,0.316406,0
12520,-0.518066,-0.792969,0.303223,0
12540,-0.515625,-0.790039,0.307129,0
12560,-0.506836,-0.784668,0.306641,0
12580,-0.505371,-0.796387,0.302734,0
12600,-0.508301,-0.79248,0.308105,0
12620,-0.504883,-0.802734,0.304199,0
12640,-0.504883,-0.806152,0.301758,0
12660,-0.502441,-0.80127,0.291992,0
12680,-0.500977,-0.79541,0.301758,0
12700,-0.504883,-0.807129,0.3125,0
12720,-0.495117,-0.804199,0.307617,0
12740,-0.483398,-0.806641,0.311523,0
12760,-0.473633,-0.805176,0.316406,0
12780,-0.472168,-0.810059,0.316406,0
12800,-0.474121,-0.819824,0.318848,0
12820,-0.472168,-0.822754,0.322266,0
12840,-0.48584,-0.818359,0.317871,0
12860,-0.486816,-0.816406,0.30957,0
12880,-0.491699,-0.812988,0.309082,0
12900,-0.494629,-0.800781,0.312988,0
12920,-0.498047,-0.803711,0.317383,0
12940,-0.501953,-0.789062,0.32959,0
12960,-0.493652,-0.783203,0.328613,0
12980,-0.495605,-0.780762,0.34082,0
13000,-0.492188,-0.794922,0.351562,0
13020,-0.481445,-0.783691,0.345703,0
13040,-0.490234,-0.796387,0.354004,0
13060,-0.490723,-0.810547,0.362793,0
13080,-0.486816,-0.819336,0.355469,0
13100,-0.484863,-0.810059,0.345215,0
13120,-0.475586,-0.804199,0.333008,0
13140,-0.475586,-0.799805,0.336914,0
13160,-0.490723,-0.787109,0.34375,0
13180,-0.490234,-0.779785,0.34375,0
13200,-0.486328,-0.778809,0.34668,0
13220,-0.477051,-0.774414,0.346191,0
13240,-0.477051,-0.788086,0.353516,0
13260,-0.482422,-0.800781,0.353516,0
13280,-0.477051,-0.80127,0.352539,0
13300,-0.47998,-0.805664,0.357422,0
13320,-0.483887,-0.807617,0.353516,0
13340,-0.494629,-0.796387,0.352539,0
13360,-0.48877,-0.793457,0.355469,0
13380,-0.487305,-0.787109,0.349121,0
13400,-0.496582,-0.783203,0.352051,0
13420,-0.492676,-0.796387,0.353516,0
13440,-0.5,-0.789551,0.354492,0
13460,-0.47998,-0.791504,0.367188,0
13480,-0.490234,-0.821289,0.366699,0
13500,-0.496582,-0.815918,0.364258,0
13520,-0.502441,-0.803223,0.34668,0
13540,-0.501953,-0.798828,0.344238,0
13560,-0.504883,-0.787109,0.35498,0
13580,-0.498535,-0.78418,0.347656,0
13600,-0.497559,-0.776367,0.326172,0
13620,-0.494141,-0.779297,0.332031,0
13640,-0.506348,-0.770508,0.330566,0
13660,-0.511719,-0.776367,0.333008,0
13680,-0.509277,-0.769531,0.350586,0
13700,-0.508789,-0.783203,0.347656,0
13720,-0.498047,-0.78418,0.348633,0
13740,-0.493164,-0.786133,0.35498,0
13760,-0.486328,-0.783203,0.347656,0
13780,-0.484375,-0.789551,0.34668,0
13800,-0.483398,-0.792969,0.338867,0
13820,-0.485352,-0.797852,0.331055,0
13840,-0.493164,-0.801758,0.316406,0
13860,-0.500977,-0.804688,0.3125,0
13880,-0.509277,-0.804688,0.304688,0
13900,-0.508301,-0.797363,0.304199,0
13920,-0.507812,-0.801758,0.303711,0
13940,-0.51709,-0.799805,0.312012,0
13960,-0.512207,-0.808105,0.312012,0
13980,-0.498047,-0.800293,0.311035,0
14000,-0.493164,-0.809082,0.30957,0
14020,-0.497559,-0.807129,0.318359,0
14040,-0.501953,-0.808105,0.304199,0
14060,-0.495117,-0.802246,0.306152,0
14080,-0.499023,-0.808594,0.30957,0
14100,-0.499512,-0.802246,0.305664,0
14120,-0.49707,-0.796875,0.311523,0
14140,-0.505859,-0.79248,0.319336,0
14160,-0.510742,-0.796875,0.325684,0
14180,-0.507324,-0.795898,0.316895,0
14200,-0.508789,-0.790039,0.316895,0
14220,-0.505859,-0.786621,0.319336,0
14240,-0.510742,-0.803223,0.315918,0
14260,-0.488281,-0.797363,0.307617,0
14280,-0.497559,-0.804688,0.315918,0
14300,-0.518555,-0.812012,0.300293,0
14320,-0.514648,-0.785645,0.289062,0
14340,-0.519043,-0.780273,0.29834,0
14360,-0.514648,-0.788086,0.315918,0
14380,-0.506348,-0.791992,0.325195,0
14400,-0.503906,-0.791992,0.327637,0
14420,-0.501953,-0.80957,0.32666,0
14440,-0.491699,-0.808105,0.314453,0
14460,-0.5,-0.807129,0.312012,0
14480,-0.503906,-0.802734,0.314941,0
14500,-0.512695,-0.797852,0.320312,0
14510,-0.506836,-0.792969,0.314453,0
14530,-0.508301,-0.79248,0.318848,0
14550,-0.511719,-0.79541,0.320801,0
14570,-0.509277,-0.791504,0.335938,0
14590,-0.500488,-0.793945,0.336914,0
14610,-0.507812,-0.803711,0.339844,0
14630,-0.503906,-0.804688,0.33252,0
14650,-0.499023,-0.797363,0.321289,0
14670,-0.498047,-0.801758,0.322754,0
14690,-0.500977,-0.794922,0.325684,0
14710,-0.500977,-0.788086,0.325684,0
14730,-0.50293,-0.786133,0.324219,0
14750,-0.501953,-0.792969,0.330566,0
14770,-0.511719,-0.787598,0.337402,0
14790,-0.517578,-0.796875,0.330078,0
14810,-0.505859,-0.789062,0.331543,0
14830,-0.510254,-0.792969,0.324219,0
14850,-0.507324,-0.782227,0.323242,0
14870,-0.49707,-0.79248,0.332031,0
14890,-0.483398,-0.794434,0.345215,0
14910,-0.472656,-0.804688,0.354004,0
14930,-0.465332,-0.804199,0.337402,0
14950,-0.467773,-0.814453,0.329102,0
14970,-0.476074,-0.80957,0.325684,0
14990,-0.483887,-0.806152,0.324707,0
15010,-0.485352,-0.797363,0.334473,0
15030,-0.490234,-0.79834,0.34082,0
15050,-0.484375,-0.798828,0.334473,0
15070,-0.477051,-0.804199,0.331543,0
15090,-0.481934,-0.809082,0.330078,0
15110,-0.481445,-0.81543,0.33252,0
15130,-0.483398,-0.812988,0.32959,0
15150,-0.484375,-0.807129,0.331055,0
15170,-0.489746,-0.805664,0.337891,0
15190,-0.492188,-0.803223,0.34668,0
15210,-0.493164,-0.805664,0.350586,0
15230,-0.491211,-0.791504,0.352051,0
15250,-0.493652,-0.791504,0.347168,0
15270,-0.491211,-0.789551,0.347168,0
15290,-0.489258,-0.793457,0.348633,0
15310,-0.486816,-0.788574,0.342285,0
15330,-0.48291,-0.792969,0.335449,0
15350,-0.489746,-0.79248,0.338379,0
15370,-0.500977,-0.793457,0.336426,0
15390,-0.498047,-0.799316,0.339355,0
15410,-0.490723,-0.802246,0.330566,0
15430,-0.486816,-0.799316,0.333496,0
15450,-0.486328,-0.804199,0.334961,0
15470,-0.48584,-0.802734,0.329102,0
15490,-0.487793,-0.802246,0.327148,0
15510,-0.487305,-0.798828,0.320312,0
15530,-0.479492,-0.805176,0.324219,0
15550,-0.492676,-0.808105,0.337402,0
15570,-0.491699,-0.812012,0.319336,0
15590,-0.492676,-0.805176,0.327637,0
15610,-0.483887,-0.799805,0.333008,0
15630,-0.487793,-0.802734,0.331055,0
15650,-0.48584,-0.794434,0.332031,0
15670,-0.480469,-0.798828,0.33252,0
15690,-0.488281,-0.791992,0.33252,0
15710,-0.486328,-0.793457,0.332031,0
15730,-0.488281,-0.789062,0.337402,0
15750,-0.487793,-0.784668,0.337402,0
15770,-0.478027,-0.792969,0.32666,0
15790,-0.479492,-0.807617,0.331055,0
15810,-0.48291,-0.808594,0.332031,0
15830,-0.483398,-0.8125,0.338379,0
15850,-0.476074,-0.814941,0.340332,0
15870,-0.484863,-0.811035,0.344238,0
15890,-0.486328,-0.801758,0.337891,0
15910,-0.486328,-0.797363,0.342285,0
15930,-0.486328,-0.794434,0.346191,0
15950,-0.490723,-0.793457,0.350098,0
15970,-0.493652,-0.794922,0.344727,0
15990,-0.484375,-0.790527,0.350586,0
16010,-0.483398,-0.796387,0.344727,0
16030,-0.480957,-0.802734,0.341797,0
16050,-0.478516,-0.802734,0.340332,0
16070,-0.474121,-0.798828,0.345703,0
16090,-0.478027,-0.802246,0.347656,0
16110,-0.478027,-0.797852,0.341797,0
16130,-0.472168,-0.80127,0.345215,0
16150,-0.471191,-0.806641,0.344727,0
16170,-0.479492,-0.804199,0.345703,0
16190,-0.473145,-0.790039,0.334961,0
16210,-0.470703,-0.788086,0.349121,0
16230,-0.479004,-0.795898,0.353027,0
16250,-0.485352,-0.804199,0.35791,0
16270,-0.481934,-0.797363,0.354004,0
16290,-0.480957,-0.800293,0.352539,0
16310,-0.467285,-0.806152,0.356934,0
16330,-0.470703,-0.806641,0.370605,0
16350,-0.469238,-0.808594,0.368652,0
16370,-0.472168,-0.80957,0.37207,0
16390,-0.462402,-0.794922,0.37207,0
16410,-0.462891,-0.796387,0.354004,0
16430,-0.479004,-0.791992,0.358887,0
16450,-0.484375,-0.782715,0.356445,0
16470,-0.483398,-0.792969,0.349121,0
16480,-0.485352,-0.792969,0.35498,0
16500,-0.484863,-0.801758,0.361328,0
16520,-0.481445,-0.788086,0.356445,0
16540,-0.477539,-0.795898,0.363281,0
16560,-0.478027,-0.791992,0.36377,0
16580,-0.473145,-0.798828,0.374512,0
16600,-0.469727,-0.791016,0.367188,0
16620,-0.467285,-0.796875,0.369629,0
16640,-0.472168,-0.787109,0.376465,0
16660,-0.481445,-0.790039,0.370605,0
16680,-0.475098,-0.783691,0.37207,0
16700,-0.475098,-0.78418,0.37793,0
16720,-0.48584,-0.779297,0.378906,0
16740,-0.481445,-0.778809,0.378906,0
16760,-0.480957,-0.782227,0.370117,0
16780,-0.477539,-0.781738,0.370605,0
16800,-0.480957,-0.79248,0.384277,0
16820,-0.47998,-0.78418,0.381836,0
16840,-0.470215,-0.774414,0.366699,0
16860,-0.46875,-0.76416,0.374023,0
16880,-0.474121,-0.76123,0.377441,0
16900,-0.484375,-0.755371,0.378418,0
16920,-0.491211,-0.756836,0.38916,0
16940,-0.496582,-0.759277,0.395508,0
16960,-0.504883,-0.756348,0.400391,0
16980,-0.511719,-0.755371,0.381836,0
17000,-0.508789,-0.76709,0.39502,0
17020,-0.505859,-0.761719,0.400391,0
17040,-0.50293,-0.768555,0.38916,0
17060,-0.486816,-0.762207,0.383789,0
17080,-0.477539,-0.767578,0.390625,0
17100,-0.470703,-0.769531,0.390625,0
17120,-0.460449,-0.772461,0.386719,0
17140,-0.461914,-0.773926,0.387695,0
17160,-0.475586,-0.769531,0.396484,0
17180,-0.489258,-0.768066,0.40332,0
17200,-0.487793,-0.765625,0.402344,0
17220,-0.488281,-0.757812,0.409668,0
17240,-0.489746,-0.751953,0.407715,0
17260,-0.488281,-0.756348,0.410645,0
17280,-0.484863,-0.762695,0.415039,0
17300,-0.480957,-0.77002,0.399414,0
17320,-0.477051,-0.760742,0.398438,0
17340,-0.477051,-0.766113,0.40625,0
17360,-0.468262,-0.772461,0.401367,0
17380,-0.469727,-0.773438,0.383301,0
17400,-0.460938,-0.775879,0.37793,0
17420,-0.479004,-0.773926,0.388672,0
17440,-0.48584,-0.759766,0.395508,0
17460,-0.494141,-0.76416,0.395508,0
17480,-0.488281,-0.75293,0.397461,0
17500,-0.487793,-0.754395,0.397461,0
17520,-0.48291,-0.762695,0.397949,0
17540,-0.477539,-0.769531,0.40332,0
17560,-0.478027,-0.773438,0.395996,0
17580,-0.472168,-0.774902,0.391602,0
17600,-0.475586,-0.78418,0.396973,0
17620,-0.480957,-0.783691,0.39502,0
17640,-0.478027,-0.777344,0.401367,0
17660,-0.480957,-0.770508,0.401367,0
17680,-0.48291,-0.76709,0.408691,0
17700,-0.486328,-0.758301,0.401367,0
17720,-0.480469,-0.76416,0.397949,0
17740,-0.477539,-0.757812,0.398438,0
17750,-0.493652,-0.756836,0.398926,0
17770,-0.489746,-0.752441,0.394531,0
17790,-0.483887,-0.756348,0.399414,0
17810,-0.465332,-0.756836,0.39209,0
17830,-0.473633,-0.764648,0.40332,0
17850,-0.482422,-0.787598,0.401855,0
17870,-0.461426,-0.74707,0.404297,0
17890,-0.480469,-0.768066,0.406738,0
17910,-0.469238,-0.766113,0.409668,0
17920,-0.462891,-0.768066,0.407227,0
17940,-0.466309,-0.77832,0.403809,0
17960,-0.472168,-0.778809,0.400391,0
17980,-0.478516,-0.784668,0.404297,0
18000,-0.490234,-0.786621,0.422852,0
18020,-0.504883,-0.822754,0.449219,0
18040,-0.499512,-0.839355,0.450195,0
18060,-0.484863,-0.808105,0.427734,0
18080,-0.473145,-0.760742,0.391602,0
18100,-0.448242,-0.70752,0.347168,0
18120,-0.440918,-0.699707,0.359375,0
18140,-0.469727,-0.713379,0.389648,0
18160,-0.506836,-0.735352,0.393066,0
18180,-0.513672,-0.742676,0.402344,0
18200,-0.497559,-0.761719,0.408203,0
18220,-0.526855,-0.770996,0.445801,0
18240,-0.544434,-0.785645,0.470703,0
18260,-0.517578,-0.770508,0.446289,0
18280,-0.470703,-0.748047,0.402344,0
18300,-0.459473,-0.728027,0.384766,0
18320,-0.479004,-0.726562,0.387207,0
18340,-0.491211,-0.726562,0.382324,0
18360,-0.489258,-0.727051,0.381836,0
18380,-0.515137,-0.728027,0.393066,0
18400,-0.532715,-0.722656,0.396973,0
18420,-0.53125,-0.733887,0.410645,0
18440,-0.538086,-0.731934,0.416016,0
18460,-0.546387,-0.726562,0.436523,0
18480,-0.537109,-0.710449,0.428223,0
18500,-0.518066,-0.699707,0.410156,0
18520,-0.518555,-0.700684,0.409668,0
18540,-0.527832,-0.706055,0.419922,0
18560,-0.523438,-0.713867,0.423828,0
18580,-0.51416,-0.728027,0.416016,0
18600,-0.508301,-0.73584,0.415527,0
18620,-0.491699,-0.757324,0.426758,0
18640,-0.490723,-0.753906,0.437012,0
18660,-0.495117,-0.766113,0.428711,0
18680,-0.501465,-0.762695,0.437988,0
18700,-0.51123,-0.753418,0.429199,0
18720,-0.501953,-0.736816,0.405273,0
18740,-0.504395,-0.733887,0.414062,0
18760,-0.518066,-0.71875,0.414551,0
18780,-0.521484,-0.720703,0.418457,0
18800,-0.520996,-0.719238,0.415039,0
18820,-0.512207,-0.728516,0.418945,0
18840,-0.517578,-0.740723,0.424805,0
18860,-0.516113,-0.75,0.415039,0
18880,-0.539551,-0.755371,0.45752,0
18900,-0.538574,-0.749023,0.429199,0
18920,-0.503906,-0.741699,0.39502,0
18940,-0.477051,-0.733398,0.382324,0
18960,-0.473145,-0.729492,0.384766,0
18980,-0.471191,-0.740723,0.407227,0
19000,-0.475586,-0.749023,0.42627,0
19020,-0.480469,-0.743652,0.414062,0
19040,-0.494629,-0.748047,0.411621,0
19060,-0.499023,-0.743652,0.428223,0
19080,-0.52832,-0.748535,0.458984,0
19100,-0.55957,-0.743652,0.479004,0
19120,-0.555664,-0.731934,0.462891,0
19140,-0.541992,-0.70459,0.432617,0
19160,-0.509277,-0.717773,0.428711,0
19180,-0.500488,-0.720703,0.439941,0
19200,-0.495605,-0.711914,0.427734,0
19220,-0.487305,-0.703125,0.422852,0
19240,-0.483887,-0.71582,0.433105,0
19260,-0.479004,-0.70752,0.432617,0
19280,-0.484375,-0.721191,0.425293,0
19300,-0.505859,-0.717773,0.421875,0
19320,-0.513184,-0.727539,0.432617,0
19340,-0.524902,-0.712402,0.447754,0
19360,-0.523438,-0.706543,0.439941,0
19380,-0.529297,-0.700195,0.450684,0
19400,-0.523926,-0.693359,0.445801,0
19420,-0.516113,-0.700195,0.443359,0
19440,-0.511719,-0.705078,0.447754,0
19460,-0.504395,-0.71875,0.461914,0
19480,-0.494141,-0.70166,0.472656,0
19500,-0.491211,-0.716309,0.471191,0
19520,-0.488281,-0.709961,0.477051,0
19540,-0.480957,-0.70752,0.484863,0
19560,-0.489258,-0.70459,0.482422,0
19580,-0.504395,-0.705078,0.489746,0
19600,-0.508789,-0.692871,0.482422,0
19620,-0.509766,-0.688965,0.472656,0
19640,-0.51123,-0.692383,0.470215,0
19660,-0.516113,-0.70166,0.475098,0
19680,-0.512695,-0.702637,0.472656,0
19700,-0.508301,-0.697266,0.46875,0
19720,-0.500977,-0.707031,0.469727,0
19740,-0.506836,-0.70752,0.466797,0
19760,-0.501465,-0.70752,0.462891,0
19780,-0.49707,-0.701172,0.466309,0
19800,-0.499023,-0.706543,0.46875,0
19820,-0.500977,-0.700684,0.467285,0
19840,-0.498047,-0.698242,0.466797,0
19850,-0.491211,-0.69043,0.470215,0
19870,-0.5,-0.700684,0.473633,0
19890,-0.501953,-0.699707,0.479004,0
19910,-0.501465,-0.699707,0.475586,0
19930,-0.491211,-0.700195,0.473145,0
19950,-0.493164,-0.70459,0.472168,0
19970,-0.501465,-0.697266,0.475586,0
19990,-0.499512,-0.701172,0.479004,0
20010,-0.495605,-0.699707,0.478027,0
20030,-0.490723,-0.706055,0.477051,0
20050,-0.500488,-0.699219,0.475098,0
20070,-0.495117,-0.70166,0.473633,0
20090,-0.495605,-0.701172,0.474609,0
20110,-0.497559,-0.693848,0.484863,0
20130,-0.502441,-0.699707,0.477539,0
20150,-0.497559,-0.702148,0.477051,0
20170,-0.496582,-0.706543,0.477051,0
20190,-0.499023,-0.701172,0.475098,0
20210,-0.491699,-0.703613,0.481934,0
20230,-0.497559,-0.698242,0.479492,0
20250,-0.500488,-0.698242,0.486328,0
20270,-0.498047,-0.696777,0.485352,0
20290,-0.495605,-0.700684,0.479004,0
20310,-0.492676,-0.699219,0.477051,0
20330,-0.493652,-0.70459,0.482422,0
20350,-0.501465,-0.697754,0.472656,0
20370,-0.490723,-0.711914,0.473633,0
20390,-0.485352,-0.706543,0.468262,0
20410,-0.492676,-0.70459,0.46875,0
20430,-0.487305,-0.696777,0.479004,0
20450,-0.497559,-0.701172,0.487793,0
20470,-0.495605,-0.701172,0.492188,0
20490,-0.495605,-0.696289,0.478516,0
20510,-0.499512,-0.69873,0.480469,0
20530,-0.49707,-0.700195,0.472168,0
20550,-0.507812,-0.703613,0.467773,0
20570,-0.500488,-0.706055,0.462402,0
20590,-0.496094,-0.706543,0.469238,0
20610,-0.504395,-0.711426,0.473145,0
20630,-0.501953,-0.714844,0.480469,0
20650,-0.501465,-0.709961,0.467285,0
20670,-0.496582,-0.720703,0.470703,0
20690,-0.498047,-0.728516,0.474121,0
20710,-0.508789,-0.736328,0.472168,0
20730,-0.505371,-0.722656,0.467773,0
20750,-0.504395,-0.728516,0.466797,0
20770,-0.511719,-0.724609,0.463867,0
20790,-0.501953,-0.70752,0.445801,0
20810,-0.490723,-0.706055,0.42334,0
20830,-0.494629,-0.713379,0.42334,0
20850,-0.503906,-0.700684,0.41748,0
20870,-0.51123,-0.685547,0.414551,0
20890,-0.512695,-0.682617,0.425781,0
20910,-0.510254,-0.677246,0.429199,0
20930,-0.505371,-0.693359,0.440918,0
20950,-0.516113,-0.730469,0.45752,0
20970,-0.516602,-0.734863,0.4375,0
20990,-0.501953,-0.724609,0.411621,0
21010,-0.501953,-0.712891,0.401855,0
21030,-0.508789,-0.727051,0.416016,0
21050,-0.526855,-0.747559,0.434082,0
21070,-0.519531,-0.756348,0.414551,0
21090,-0.496094,-0.774414,0.40625,0
21110,-0.477051,-0.761719,0.400391,0
21130,-0.469238,-0.751953,0.397949,0
21150,-0.475098,-0.747559,0.407715,0
21170,-0.475586,-0.755859,0.452148,0
21190,-0.475098,-0.730469,0.456543,0
21210,-0.459961,-0.705078,0.436035,0
21230,-0.467285,-0.739258,0.490723,0
21250,-0.510254,-0.748047,0.529785,0
21270,-0.492188,-0.739746,0.465332,0
21290,-0.473145,-0.742676,0.436035,0
21310,-0.475098,-0.75293,0.439941,0
21330,-0.500977,-0.756348,0.450684,0
21350,-0.497559,-0.73291,0.426758,0
21370,-0.48584,-0.735352,0.40918,0
21390,-0.481934,-0.731934,0.407227,0
21410,-0.47998,-0.731934,0.395508,0
21430,-0.494141,-0.739746,0.396484,0
21450,-0.480469,-0.719727,0.378906,0
21470,-0.472168,-0.703125,0.367188,0
21490,-0.44873,-0.691895,0.348633,0
21510,-0.443359,-0.692871,0.373535,0
21530,-0.442871,-0.716309,0.394531,0
21550,-0.450195,-0.743164,0.422363,0
21570,-0.467285,-0.780762,0.471191,0
21590,-0.48584,-0.811523,0.521484,0
21610,-0.489258,-0.810547,0.55957,0
21630,-0.484375,-0.814941,0.574219,0
21650,-0.462402,-0.775391,0.553223,0
21670,-0.437988,-0.739258,0.500488,0
21690,-0.431152,-0.734375,0.475586,0
21710,-0.432129,-0.745605,0.451172,0
21730,-0.434082,-0.746582,0.432617,0
21750,-0.446777,-0.749512,0.425293,0
21770,-0.445312,-0.75,0.431641,0
21790,-0.449707,-0.760254,0.430664,0
21810,-0.457031,-0.764648,0.429199,0
21820,-0.45459,-0.766602,0.426758,0
21840,-0.458008,-0.769043,0.431152,0
21860,-0.450195,-0.75293,0.430664,0
21880,-0.444336,-0.74707,0.437988,0
21900,-0.436035,-0.744629,0.44043,0
21920,-0.429199,-0.748535,0.450195,0
21940,-0.440918,-0.745117,0.437012,0
21960,-0.459473,-0.766602,0.434082,0
21980,-0.464844,-0.76123,0.429688,0
22000,-0.463867,-0.772461,0.422852,0
22020,-0.460938,-0.776367,0.420898,0
22040,-0.46875,-0.773438,0.428711,0
22060,-0.470215,-0.760742,0.428711,0
22080,-0.471191,-0.760254,0.428223,0
22100,-0.467285,-0.758301,0.428223,0
22120,-0.466797,-0.750977,0.428223,0
22140,-0.472168,-0.746094,0.422363,0
22160,-0.464844,-0.755859,0.416016,0
22180,-0.45752,-0.760742,0.414062,0
22200,-0.45752,-0.769043,0.412598,0
22220,-0.449707,-0.771973,0.418945,0
22240,-0.453125,-0.769043,0.417969,0
22260,-0.451172,-0.762207,0.419922,0
22280,-0.443359,-0.759766,0.41748,0
22300,-0.457031,-0.757324,0.423828,0
22320,-0.467285,-0.757812,0.429199,0
22340,-0.467285,-0.767578,0.424316,0
22360,-0.469727,-0.764648,0.422363,0
22380,-0.471191,-0.773926,0.411133,0
22400,-0.468262,-0.76709,0.408691,0
22420,-0.46582,-0.774414,0.40918,0
22440,-0.464355,-0.762695,0.408203,0
22460,-0.45752,-0.764648,0.407715,0
22480,-0.462402,-0.762695,0.412598,0
22500,-0.45752,-0.77002,0.414551,0
22520,-0.45752,-0.77002,0.413086,0
22540,-0.457031,-0.769531,0.41748,0
22560,-0.458984,-0.77002,0.416992,0
22580,-0.460449,-0.779297,0.412598,0
22600,-0.472168,-0.771484,0.410645,0
22620,-0.469727,-0.765625,0.404785,0
22640,-0.462891,-0.758789,0.42041,0
22660,-0.446777,-0.753418,0.431152,0
22680,-0.442383,-0.77002,0.424805,0
22700,-0.441406,-0.774902,0.416504,0
22720,-0.453613,-0.77832,0.409668,0
22740,-0.450684,-0.770996,0.40625,0
22760,-0.448242,-0.775879,0.41748,0
22780,-0.446289,-0.762695,0.419434,0
22800,-0.440918,-0.76709,0.426758,0
22820,-0.439453,-0.764648,0.429199,0
22840,-0.443848,-0.76709,0.432617,0
22860,-0.453613,-0.763672,0.425781,0
22880,-0.45752,-0.770508,0.432129,0
22900,-0.453125,-0.765625,0.426758,0
22920,-0.449219,-0.772461,0.428223,0
22940,-0.446777,-0.769043,0.423828,0
22960,-0.447266,-0.771484,0.42627,0
22980,-0.450195,-0.765137,0.421387,0
23000,-0.456055,-0.768066,0.424316,0
23020,-0.450684,-0.763184,0.433594,0
23040,-0.459473,-0.761719,0.429688,0
23060,-0.459961,-0.76123,0.430664,0
23080,-0.442871,-0.75,0.429199,0
23100,-0.464844,-0.780762,0.416504,0
23120,-0.467285,-0.772461,0.421387,0
23140,-0.466797,-0.759766,0.414062,0
23160,-0.453613,-0.763672,0.402344,0
23180,-0.453125,-0.774902,0.401367,0
23200,-0.444824,-0.769531,0.414551,0
23220,-0.456543,-0.769043,0.417969,0
23240,-0.456055,-0.771973,0.416016,0
23260,-0.456055,-0.775879,0.408203,0
23280,-0.444336,-0.77002,0.397949,0
23300,-0.458008,-0.773926,0.398926,0
23320,-0.462891,-0.787109,0.384277,0
23340,-0.461426,-0.771973,0.411621,0
23360,-0.462402,-0.769043,0.408691,0
23380,-0.454102,-0.776855,0.401855,0
23400,-0.45752,-0.775391,0.40918,0
23420,-0.467285,-0.770996,0.405273,0
23440,-0.46875,-0.766602,0.416504,0
23460,-0.459961,-0.761719,0.420898,0
23480,-0.453125,-0.763184,0.432129,0
23500,-0.450195,-0.77002,0.421387,0
23520,-0.451172,-0.769043,0.41748,0
23540,-0.460449,-0.762695,0.411133,0
23560,-0.462891,-0.766602,0.412598,0
23580,-0.459473,-0.765137,0.422363,0
23600,-0.459961,-0.764648,0.416504,0
23620,-0.455566,-0.758301,0.412598,0
23640,-0.458496,-0.763672,0.418945,0
23660,-0.453613,-0.768555,0.421875,0
23680,-0.453613,-0.770508,0.421387,0
23700,-0.451172,-0.780273,0.413574,0
23720,-0.446777,-0.77832,0.418945,0
23740,-0.445801,-0.779297,0.418945,0
23760,-0.453613,-0.783203,0.415527,0
23780,-0.453613,-0.772461,0.41748,0
23800,-0.45166,-0.779297,0.418457,0
23820,-0.452148,-0.774902,0.417969,0
23840,-0.458008,-0.768066,0.416016,0
23860,-0.459473,-0.760254,0.422363,0
23880,-0.456543,-0.765137,0.416504,0
23900,-0.45752,-0.765625,0.416504,0
23920,-0.454102,-0.765625,0.416992,0
23940,-0.450684,-0.76416,0.42627,0
23960,-0.413574,-0.759277,0.438965,0
23980,-0.412109,-0.755371,0.443848,0
24000,-0.448242,-0.78418,0.410156,0
24020,-0.457031,-0.802734,0.390137,0
24040,-0.465332,-0.782227,0.405273,0
24060,-0.471191,-0.775879,0.409668,0
24080,-0.450684,-0.772949,0.40625,0
24100,-0.452148,-0.766113,0.418945,0
24120,-0.459961,-0.744141,0.424805,0
24140,-0.463379,-0.750977,0.422363,0
24160,-0.456543,-0.763672,0.42627,0
24180,-0.464844,-0.774902,0.412109,0
24200,-0.464355,-0.780762,0.39502,0
24220,-0.460449,-0.784668,0.395996,0
24240,-0.474609,-0.78418,0.39209,0
24260,-0.470703,-0.778809,0.397949,0
24280,-0.467773,-0.766602,0.413574,0
24300,-0.456543,-0.768066,0.410645,0
24320,-0.452637,-0.770508,0.42334,0
24340,-0.452148,-0.766602,0.421875,0
24360,-0.458496,-0.78125,0.407715,0
24380,-0.459473,-0.780762,0.401855,0
24400,-0.458496,-0.775391,0.401367,0
24420,-0.45752,-0.775391,0.386719,0
24440,-0.455078,-0.77832,0.387207,0
24460,-0.457031,-0.765625,0.396973,0
24480,-0.456055,-0.770508,0.402832,0
24500,-0.447754,-0.76709,0.405273,0
24520,-0.443848,-0.774902,0.403809,0
24540,-0.445312,-0.774902,0.399902,0
24560,-0.453125,-0.790039,0.394531,0
24580,-0.460449,-0.782715,0.400879,0
24600,-0.464844,-0.777832,0.398438,0
24620,-0.465332,-0.771484,0.401367,0
24640,-0.466797,-0.771973,0.40332,0
24660,-0.470215,-0.772949,0.407227,0
24680,-0.471191,-0.776855,0.407715,0
24700,-0.472168,-0.781738,0.411621,0
24720,-0.463379,-0.775391,0.410645,0
24740,-0.466797,-0.776367,0.422363,0
24760,-0.455566,-0.77002,0.42041,0
24780,-0.448242,-0.775879,0.412598,0
24800,-0.460449,-0.76709,0.406738,0
24820,-0.463867,-0.77002,0.405273,0
24840,-0.469238,-0.770508,0.402832,0
24860,-0.46582,-0.773438,0.394043,0
24880,-0.46875,-0.766113,0.411133,0
24900,-0.466797,-0.767578,0.416992,0
24920,-0.461914,-0.774902,0.404785,0
24940,-0.454102,-0.773438,0.399902,0
24960,-0.45166,-0.76709,0.401855,0
24980,-0.459961,-0.778809,0.394531,0
25000,-0.462891,-0.776367,0.397461,0
25020,-0.457031,-0.780762,0.391113,0
25040,-0.44873,-0.782227,0.393555,0
25060,-0.459961,-0.785645,0.384766,0
25080,-0.460938,-0.789062,0.384277,0
25100,-0.464355,-0.777832,0.39502,0
25120,-0.461426,-0.771973,0.394043,0
25140,-0.464355,-0.761719,0.401855,0
25160,-0.462402,-0.765137,0.403809,0
25180,-0.45752,-0.77002,0.391602,0
25200,-0.462891,-0.775391,0.400391,0
25210,-0.462402,-0.776855,0.397461,0
25230,-0.461426,-0.776367,0.403809,0
25250,-0.464355,-0.776855,0.412109,0
25270,-0.464355,-0.780273,0.418945,0
25290,-0.455566,-0.777832,0.413574,0
25310,-0.442871,-0.78418,0.400391,0
25330,-0.435059,-0.76709,0.412598,0
25350,-0.440918,-0.760254,0.419434,0
25370,-0.442871,-0.762695,0.415527,0
25390,-0.445312,-0.760742,0.418945,0
25410,-0.450195,-0.751465,0.416992,0
25430,-0.464844,-0.756836,0.406738,0
25450,-0.467773,-0.758301,0.415527,0
25470,-0.474609,-0.768066,0.424805,0
25490,-0.47998,-0.775391,0.425781,0
25510,-0.48584,-0.775391,0.412598,0
25530,-0.483398,-0.779785,0.408203,0
25550,-0.473633,-0.771973,0.413086,0
25570,-0.469238,-0.774902,0.417969,0
25590,-0.461426,-0.76709,0.419922,0
25610,-0.454102,-0.772949,0.429199,0
25630,-0.450684,-0.773438,0.44043,0
25650,-0.450684,-0.777832,0.433105,0
25670,-0.447266,-0.76709,0.419922,0
25690,-0.447266,-0.762207,0.427734,0
25710,-0.444336,-0.751465,0.437988,0
25730,-0.450195,-0.755859,0.434082,0
25750,-0.463867,-0.75,0.424316,0
25760,-0.467773,-0.748047,0.420898,0
25780,-0.474609,-0.751465,0.421387,0
25800,-0.475586,-0.758301,0.422852,0
25820,-0.470703,-0.760254,0.405762,0
25840,-0.470215,-0.769043,0.405273,0
25860,-0.472656,-0.771484,0.403809,0
25880,-0.474609,-0.776855,0.401855,0
25900,-0.475586,-0.771484,0.404785,0
25920,-0.480957,-0.77002,0.411133,0
25940,-0.472168,-0.763184,0.413086,0
25960,-0.473633,-0.768066,0.413086,0
25980,-0.471191,-0.766602,0.413086,0
26000,-0.480469,-0.762207,0.411133,0
26020,-0.470215,-0.767578,0.40918,0
26040,-0.459961,-0.764648,0.405273,0
26060,-0.460449,-0.77002,0.418457,0
26080,-0.455078,-0.750977,0.412598,0
26100,-0.46582,-0.751465,0.419922,0
26120,-0.461914,-0.746094,0.428711,0
26140,-0.455078,-0.75,0.422852,0
26160,-0.455566,-0.746094,0.422852,0
26180,-0.458496,-0.756348,0.428711,0
26200,-0.461426,-0.757324,0.419922,0
26220,-0.464355,-0.759277,0.416504,0
26240,-0.46875,-0.763184,0.422363,0
26260,-0.473145,-0.767578,0.416992,0
26280,-0.469238,-0.770996,0.415527,0
26300,-0.467285,-0.767578,0.415527,0
26320,-0.467285,-0.762207,0.409668,0
26340,-0.477539,-0.758301,0.410156,0
26360,-0.478516,-0.755371,0.414551,0
26380,-0.477539,-0.756348,0.418945,0
26400,-0.474609,-0.751953,0.427734,0
26420,-0.475586,-0.756836,0.424805,0
26440,-0.471191,-0.756348,0.419434,0
26460,-0.470703,-0.750977,0.418945,0
26480,-0.47168,-0.756348,0.427734,0
26500,-0.466309,-0.755371,0.42041,0
26520,-0.467773,-0.756836,0.429199,0
26540,-0.460449,-0.75,0.420898,0
26560,-0.463867,-0.759766,0.425293,0
26580,-0.459961,-0.756348,0.428223,0
26600,-0.461914,-0.761719,0.431152,0
26620,-0.458984,-0.756836,0.430664,0
26640,-0.462891,-0.760742,0.429688,0
26660,-0.463379,-0.759277,0.425293,0
26680,-0.464844,-0.762207,0.430664,0
26700,-0.468262,-0.76123,0.428223,0
26720,-0.468262,-0.758789,0.419922,0
26740,-0.463379,-0.759766,0.420898,0
26760,-0.47168,-0.76123,0.425781,0
26780,-0.469238,-0.762207,0.420898,0
26800,-0.468262,-0.755859,0.416992,0
26820,-0.467285,-0.758301,0.422852,0
26840,-0.466797,-0.754883,0.426758,0
26860,-0.470215,-0.758301,0.426758,0
26880,-0.467285,-0.755371,0.429199,0
26900,-0.466797,-0.758301,0.42334,0
26920,-0.463867,-0.755371,0.42334,0
26940,-0.466797,-0.763672,0.420898,0
26960,-0.463379,-0.756836,0.419434,0
26980,-0.467285,-0.76416,0.425293,0
27000,-0.468262,-0.755371,0.423828,0
27020,-0.464844,-0.76416,0.425293,0
27040,-0.462891,-0.761719,0.428223,0
27060,-0.468262,-0.760742,0.428223,0
27080,-0.464355,-0.762207,0.419922,0
27100,-0.462891,-0.762207,0.416016,0
27120,-0.466309,-0.760742,0.425293,0
27140,-0.46582,-0.757812,0.418945,0
27160,-0.465332,-0.759766,0.42041,0
27180,-0.463867,-0.759766,0.425293,0
27190,-0.46582,-0.761719,0.42627,0
27210,-0.461914,-0.754883,0.422852,0
27230,-0.467773,-0.757812,0.427246,0
27250,-0.466309,-0.760742,0.425781,0
27270,-0.468262,-0.761719,0.42041,0
27290,-0.464844,-0.759766,0.425293,0
27310,-0.463379,-0.765137,0.419434,0
27330,-0.463867,-0.76123,0.418457,0
27350,-0.464355,-0.760254,0.421875,0
27370,-0.467285,-0.758301,0.42041,0
27390,-0.464355,-0.76416,0.417969,0
27410,-0.460449,-0.756836,0.418945,0
27430,-0.463379,-0.758301,0.427246,0
27450,-0.469238,-0.758789,0.426758,0
27470,-0.464355,-0.760742,0.426758,0
27490,-0.465332,-0.756836,0.422852,0
27510,-0.461914,-0.757324,0.422363,0
27530,-0.466309,-0.76123,0.42041,0
27550,-0.464844,-0.76123,0.424316,0
27570,-0.46875,-0.752441,0.422852,0
27590,-0.463867,-0.76123,0.427734,0
27610,-0.463867,-0.757812,0.422852,0
27630,-0.463867,-0.759277,0.429688,0
27650,-0.462891,-0.757324,0.427246,0
27670,-0.459961,-0.753418,0.437012,0
27690,-0.462402,-0.76416,0.421387,0
27710,-0.464844,-0.762207,0.425293,0
27730,-0.463867,-0.757812,0.42041,0
27750,-0.468262,-0.756348,0.418945,0
27770,-0.466797,-0.761719,0.421875,0
27790,-0.462402,-0.759766,0.423828,0
27810,-0.463867,-0.760742,0.421387,0
27830,-0.461914,-0.758789,0.420898,0
27850,-0.460938,-0.762695,0.427246,0
27870,-0.460449,-0.761719,0.429688,0
27890,-0.459473,-0.760742,0.42627,0
27910,-0.460938,-0.765137,0.425293,0
27930,-0.462402,-0.76123,0.419434,0
27950,-0.462891,-0.760254,0.42041,0
27970,-0.463379,-0.766113,0.421387,0
27990,-0.464355,-0.760742,0.422852,0
28010,-0.459961,-0.758789,0.413574,0
28030,-0.46582,-0.763672,0.426758,0
28050,-0.458984,-0.762695,0.423828,0
28070,-0.466797,-0.761719,0.425293,0
28090,-0.462891,-0.76123,0.427246,0
28110,-0.459961,-0.759277,0.428711,0
28130,-0.465332,-0.757812,0.418945,0
28150,-0.464355,-0.764648,0.421387,0
28170,-0.46875,-0.759766,0.419922,0
28190,-0.466309,-0.762695,0.415527,0
28210,-0.460449,-0.76123,0.423828,0
28220,-0.463379,-0.76123,0.426758,0
28240,-0.45752,-0.76123,0.421387,0
28260,-0.460938,-0.764648,0.423828,0
28280,-0.458496,-0.765137,0.424316,0
28300,-0.464355,-0.764648,0.421387,0
28320,-0.463867,-0.766113,0.425293,0
28340,-0.460938,-0.76123,0.424316,0
28360,-0.463867,-0.76123,0.422852,0
28380,-0.461914,-0.759766,0.419922,0
28400,-0.464355,-0.762695,0.42627,0
28420,-0.459961,-0.758789,0.421387,0
28440,-0.460938,-0.764648,0.427246,0
28460,-0.458008,-0.759277,0.422852,0
28480,-0.460449,-0.764648,0.421387,0
28500,-0.456543,-0.758789,0.421875,0
28520,-0.460938,-0.765625,0.415527,0
28540,-0.460938,-0.759766,0.419434,0
28560,-0.457031,-0.766113,0.42041,0
28580,-0.461914,-0.759766,0.418945,0
28600,-0.463867,-0.763672,0.423828,0
28620,-0.462402,-0.759766,0.414551,0
28640,-0.458008,-0.763672,0.421387,0
28660,-0.462891,-0.765625,0.422363,0
28680,-0.466797,-0.762207,0.425781,0
28700,-0.469238,-0.762695,0.425293,0
28720,-0.458984,-0.757812,0.422852,0
28740,-0.460938,-0.76416,0.415527,0
28760,-0.462402,-0.762695,0.42334,0
28780,-0.463379,-0.760742,0.42334,0
28800,-0.465332,-0.762207,0.423828,0
28820,-0.462891,-0.762695,0.421387,0
28840,-0.461914,-0.758789,0.421875,0
28860,-0.460938,-0.766113,0.42334,0
28880,-0.458496,-0.757324,0.422852,0
28900,-0.464355,-0.768555,0.420898,0
28920,-0.462891,-0.762207,0.419434,0
28940,-0.458496,-0.76709,0.418457,0
28960,-0.461914,-0.76416,0.42041,0
28980,-0.467773,-0.763672,0.422852,0
29000,-0.460449,-0.760254,0.423828,0
29020,-0.462891,-0.764648,0.41748,0
29050,-0.463379,-0.769531,0.420898,0
29070,-0.458984,-0.777832,0.42334,0
29090,-0.465332,-0.785645,0.436035,0
29110,-0.472656,-0.785645,0.419922,0
29130,-0.460449,-0.774902,0.405762,0
29150,-0.462891,-0.753906,0.414062,0
29170,-0.470703,-0.745605,0.413574,0
29190,-0.472168,-0.751465,0.417969,0
29210,-0.478027,-0.751953,0.416504,0
29230,-0.479004,-0.75,0.415527,0
29250,-0.472168,-0.742676,0.414551,0
29270,-0.474121,-0.752441,0.413574,0
29290,-0.466309,-0.761719,0.405273,0
29310,-0.453125,-0.77002,0.401367,0
29330,-0.441895,-0.769531,0.405762,0
29350,-0.443848,-0.776367,0.40625,0
29370,-0.445312,-0.772461,0.411621,0
29390,-0.452637,-0.775391,0.411133,0
29410,-0.461426,-0.770508,0.399902,0
29430,-0.47168,-0.777344,0.398926,0
29450,-0.481934,-0.758789,0.405762,0
29470,-0.48584,-0.765625,0.407715,0
29490,-0.483887,-0.763672,0.397461,0
29510,-0.480469,-0.769531,0.402344,0
29530,-0.472656,-0.774902,0.400879,0
29550,-0.471191,-0.772949,0.40918,0
29570,-0.46582,-0.772949,0.419922,0
29590,-0.464844,-0.771484,0.418945,0
29610,-0.460449,-0.772461,0.417969,0
29630,-0.458984,-0.763672,0.419922,0
29650,-0.461426,-0.768066,0.416504,0
29670,-0.460449,-0.762695,0.414551,0
29690,-0.460938,-0.77002,0.40625,0
29710,-0.460449,-0.770508,0.40332,0
29730,-0.460938,-0.775879,0.404297,0
29750,-0.464844,-0.769531,0.40332,0
29770,-0.458984,-0.779785,0.393066,0
29790,-0.456543,-0.775879,0.397461,0
29810,-0.460938,-0.780762,0.400391,0
29830,-0.451172,-0.777832,0.394043,0
29850,-0.461914,-0.780762,0.38916,0
29870,-0.461914,-0.779297,0.385742,0
29890,-0.464844,-0.783203,0.390625,0
29910,-0.471191,-0.779297,0.39209,0
29930,-0.471191,-0.780273,0.392578,0
29950,-0.469238,-0.778809,0.39209,0
29970,-0.46582,-0.780273,0.390625,0
29990,-0.465332,-0.781738,0.398926,0
30010,-0.470703,-0.78125,0.394043,0
30030,-0.47168,-0.776367,0.390625,0
30050,-0.464844,-0.780273,0.39209,0
30070,-0.459961,-0.776855,0.395996,0
30090,-0.461914,-0.773926,0.390137,0
30110,-0.469238,-0.782715,0.386719,0
30130,-0.467773,-0.783203,0.385742,0
30150,-0.461914,-0.783203,0.390625,0
30170,-0.463867,-0.78125,0.392578,0
30190,-0.464844,-0.783203,0.385742,0
30210,-0.465332,-0.776367,0.387207,0
30230,-0.467285,-0.783203,0.374512,0
30250,-0.478516,-0.788086,0.37207,0
30270,-0.475586,-0.807129,0.362305,0
30290,-0.480957,-0.818359,0.36084,0
30310,-0.495605,-0.85498,0.355957,0
30330,-0.496582,-0.888672,0.389648,0
30350,-0.471191,-0.859375,0.421387,0
30370,-0.470703,-0.828613,0.387207,0
30390,-0.459961,-0.854004,0.381836,0
30410,-0.40625,-0.838867,0.409668,0
30430,-0.397949,-0.859375,0.396484,0
30450,-0.399414,-0.844727,0.37793,0
30470,-0.381348,-0.866211,0.419434,0
30490,-0.382324,-0.905762,0.464844,0
30510,-0.375977,-0.943359,0.447754,0
30530,-0.356934,-0.938477,0.450684,0
30540,-0.362305,-0.97998,0.467285,0
30560,-0.332031,-1.07178,0.496094,0
30580,-0.304688,-1.08008,0.51709,0
30600,-0.266113,-1.03271,0.505859,0
30620,-0.200684,-0.982422,0.480469,0
30640,-0.146484,-0.938477,0.48877,0
30660,-0.118164,-0.945312,0.483887,0
30680,-0.0888672,-0.921875,0.518555,0
30700,-0.0483398,-0.871582,0.510742,0
30720,-0.0253906,-0.868164,0.483887,0
30740,0.0366211,-0.865234,0.478516,0
30760,0.0732422,-0.862793,0.508789,0
30780,0.0942383,-0.801758,0.45459,0
30800,0.0996094,-0.777344,0.457031,0
30820,0.15625,-0.76709,0.473145,0
30840,0.217285,-0.734863,0.486328,0
30860,0.251953,-0.755371,0.467773,0
30880,0.238281,-0.706055,0.468262,0
30900,0.243652,-0.689941,0.479004,0
30920,0.245117,-0.638672,0.461426,0
30940,0.267578,-0.59375,0.433594,0
30960,0.283203,-0.577637,0.42627,0
30980,0.283691,-0.597656,0.430664,0
31000,0.279785,-0.580566,0.436035,0
31020,0.279785,-0.611816,0.413574,0
31040,0.276367,-0.645996,0.405273,0
31060,0.297852,-0.647461,0.438965,0
31080,0.299316,-0.577637,0.458496,0
31100,0.29541,-0.554688,0.462402,0
31120,0.329102,-0.555664,0.459473,0
31140,0.356934,-0.59668,0.477051,0
31160,0.333984,-0.609375,0.524414,0
31180,0.352051,-0.602539,0.527832,0
31200,0.353027,-0.598633,0.549805,0
31220,0.433105,-0.546387,0.530762,0
31240,0.519531,-0.544922,0.490723,0
31260,0.496582,-0.611816,0.482422,0
31280,0.419922,-0.682129,0.516602,0
31300,0.394043,-0.678223,0.523438,0
31320,0.439453,-0.626465,0.506348,0
31340,0.428223,-0.598633,0.563965,0
31360,0.42041,-0.583008,0.575195,0
31380,0.471191,-0.597168,0.539551,0
31400,0.456055,-0.626465,0.570312,0
31420,0.44873,-0.617676,0.578613,0
31440,0.494141,-0.667969,0.567383,0
31460,0.511719,-0.667969,0.551758,0
31480,0.462891,-0.607422,0.556641,0
31500,0.395508,-0.504395,0.571289,0
31520,0.422363,-0.520508,0.550781,0
31540,0.450684,-0.590332,0.55957,0
31560,0.473145,-0.642578,0.535645,0
31580,0.427734,-0.609863,0.537598,0
31600,0.421875,-0.583984,0.556152,0
31620,0.447266,-0.577637,0.540527,0
31640,0.453613,-0.564941,0.532715,0
31660,0.456055,-0.599609,0.559082,0
31680,0.466309,-0.605957,0.553223,0
31700,0.47998,-0.575684,0.538086,0
31720,0.484863,-0.568359,0.558594,0
31740,0.486328,-0.585449,0.557129,0
31760,0.499512,-0.598633,0.557129,0
31780,0.502441,-0.607422,0.547363,0
31800,0.511719,-0.603027,0.553223,0
31820,0.497559,-0.606934,0.545898,0
31840,0.489746,-0.594727,0.55957,0
31860,0.480469,-0.603516,0.56543,0
31880,0.48291,-0.615234,0.558594,0
31900,0.483887,-0.613281,0.550781,0
31920,0.470215,-0.593262,0.553711,0
31940,0.470703,-0.592773,0.562012,0
31960,0.462891,-0.604004,0.558594,0
31980,0.464844,-0.599121,0.54834,0
32000,0.459473,-0.60498,0.553223,0
32020,0.462402,-0.588379,0.559082,0
32040,0.467773,-0.594727,0.554199,0
32060,0.474121,-0.601074,0.539062,0
32080,0.472656,-0.599121,0.550781,0
32100,0.469238,-0.587891,0.544922,0
32120,0.471191,-0.589355,0.539062,0
32140,0.472168,-0.585449,0.535156,0
32160,0.473633,-0.594727,0.537109,0
32180,0.46875,-0.585938,0.528809,0
32200,0.46875,-0.583496,0.526367,0
32220,0.471191,-0.581543,0.529785,0
32240,0.468262,-0.573242,0.535645,0
32260,0.473145,-0.578125,0.547852,0
32280,0.474121,-0.579102,0.543457,0
32300,0.476562,-0.568359,0.542969,0
32320,0.473633,-0.581543,0.545898,0
32340,0.477539,-0.58252,0.542969,0
32360,0.479492,-0.582031,0.54248,0
32380,0.474121,-0.583496,0.546387,0
32400,0.476074,-0.591797,0.54541,0
32420,0.484375,-0.598145,0.551758,0
32440,0.489258,-0.587891,0.551758,0
32460,0.48877,-0.588867,0.547363,0
32480,0.482422,-0.589355,0.554688,0
32500,0.479004,-0.598145,0.553223,0
32510,0.475586,-0.588379,0.553223,0
32530,0.470703,-0.59375,0.549805,0
32550,0.472168,-0.600586,0.553223,0
32570,0.468262,-0.608887,0.554688,0
32590,0.467285,-0.594727,0.55127,0
32610,0.456055,-0.595703,0.543457,0
32630,0.461914,-0.58252,0.541992,0
32650,0.461426,-0.586914,0.543945,0
32670,0.458008,-0.596191,0.546387,0
32690,0.45752,-0.598145,0.549316,0
32710,0.456543,-0.595703,0.54248,0
32730,0.458984,-0.597168,0.54248,0
32750,0.454102,-0.594238,0.54834,0
32770,0.446289,-0.592285,0.546875,0
32790,0.441895,-0.586914,0.561523,0
32810,0.449219,-0.586914,0.5625,0
32830,0.453613,-0.590332,0.550781,0
32850,0.453613,-0.592285,0.549805,0
32870,0.447754,-0.599121,0.547363,0
32890,0.454102,-0.598145,0.555176,0
32910,0.460449,-0.611328,0.550293,0
32930,0.464844,-0.60791,0.548828,0
32950,0.464844,-0.612793,0.564941,0
32970,0.464844,-0.61084,0.557617,0
32990,0.464355,-0.609863,0.561523,0
33010,0.456055,-0.605469,0.550293,0
33030,0.449219,-0.614258,0.560059,0
33050,0.452148,-0.605957,0.553223,0
33070,0.452148,-0.604492,0.552246,0
33090,0.441895,-0.601074,0.556641,0
33110,0.442871,-0.605469,0.55957,0
33130,0.446289,-0.601074,0.549316,0
33150,0.443848,-0.601074,0.547852,0
33170,0.429688,-0.597168,0.554199,0
33190,0.421387,-0.595215,0.556152,0
33210,0.398926,-0.586914,0.555664,0
33230,0.375977,-0.571777,0.553223,0
33250,0.367188,-0.574219,0.540527,0
33270,0.378418,-0.57373,0.532227,0
33290,0.391602,-0.580566,0.520996,0
33310,0.404785,-0.58252,0.538086,0
33330,0.420898,-0.597168,0.543945,0
33350,0.426758,-0.602051,0.544922,0
33370,0.44043,-0.605957,0.54248,0
33390,0.44873,-0.606445,0.57666,0
33410,0.439453,-0.612793,0.58252,0
33430,0.431641,-0.603516,0.575195,0
33450,0.424316,-0.617188,0.578613,0
33470,0.42627,-0.62793,0.573242,0
33490,0.425781,-0.626953,0.576172,0
33510,0.425781,-0.610352,0.575684,0
33530,0.41748,-0.603516,0.572266,0
33550,0.415527,-0.606445,0.587402,0
33570,0.421387,-0.621094,0.591309,0
33590,0.420898,-0.632324,0.601562,0
33610,0.414062,-0.630371,0.595703,0
33630,0.414062,-0.628418,0.588867,0
33650,0.407227,-0.631836,0.598633,0
33670,0.407227,-0.64209,0.600098,0
33690,0.408691,-0.640625,0.595703,0
33710,0.401855,-0.644531,0.600098,0
33730,0.395508,-0.640625,0.59668,0
33750,0.389648,-0.635742,0.592285,0
33770,0.384277,-0.634766,0.594727,0
33790,0.380371,-0.638672,0.593262,0
33810,0.373047,-0.636719,0.59375,0
33830,0.370605,-0.632812,0.59375,0
33850,0.368164,-0.633789,0.591797,0
33870,0.362305,-0.644043,0.592773,0
33890,0.36084,-0.637695,0.583984,0
33910,0.361328,-0.633789,0.583008,0
33930,0.361328,-0.62793,0.592285,0
33950,0.359375,-0.626465,0.586914,0
33970,0.361328,-0.625488,0.583496,0
33990,0.359863,-0.625,0.585938,0
34010,0.365234,-0.628906,0.589355,0
34030,0.369629,-0.627441,0.586426,0
34050,0.370117,-0.628906,0.59082,0
34070,0.378418,-0.631836,0.589355,0
34090,0.381836,-0.630371,0.586426,0
34110,0.384766,-0.619629,0.583496,0
34130,0.383301,-0.62207,0.58252,0
34150,0.395508,-0.623535,0.584473,0
34170,0.391602,-0.62207,0.585449,0
34190,0.387695,-0.622559,0.584961,0
34210,0.380859,-0.622559,0.57959,0
34230,0.383301,-0.619141,0.583984,0
34250,0.379395,-0.618164,0.583496,0
34270,0.374512,-0.616699,0.585938,0
34290,0.367676,-0.614258,0.585449,0
34310,0.366211,-0.608398,0.583496,0
34330,0.369629,-0.614258,0.581543,0
34350,0.376953,-0.615723,0.577148,0
34370,0.384277,-0.612305,0.581055,0
34390,0.383301,-0.621094,0.588379,0
34410,0.388672,-0.616699,0.587402,0
34430,0.385742,-0.626953,0.585449,0
34450,0.391113,-0.62207,0.586914,0
34470,0.390137,-0.625,0.581543,0
34490,0.383789,-0.617676,0.584961,0
34510,0.387207,-0.625,0.578125,0
34530,0.390137,-0.617188,0.577637,0
34550,0.388672,-0.625488,0.583496,0
34570,0.384766,-0.615723,0.591309,0
34590,0.381348,-0.623535,0.581543,0
34610,0.391602,-0.623535,0.579102,0
34630,0.386719,-0.621582,0.579102,0
34650,0.386719,-0.616211,0.585449,0
34670,0.378906,-0.61377,0.588867,0
34690,0.379883,-0.623047,0.584961,0
34710,0.382324,-0.620117,0.584961,0
34730,0.379883,-0.623535,0.57666,0
34750,0.382812,-0.619629,0.575684,0
34770,0.384277,-0.620117,0.580566,0
34790,0.378906,-0.617188,0.575684,0
34810,0.376953,-0.620605,0.570801,0
34830,0.385742,-0.621094,0.571777,0
34850,0.378418,-0.621094,0.571777,0
34870,0.374023,-0.616211,0.57666,0
34890,0.371582,-0.619141,0.572754,0
34910,0.364746,-0.615234,0.572754,0
34930,0.355957,-0.621582,0.570801,0
34950,0.353516,-0.608887,0.570801,0
34970,0.350586,-0.612305,0.566406,0
34990,0.340332,-0.606445,0.578125,0
35010,0.340332,-0.617188,0.585449,0
35030,0.352051,-0.615234,0.588867,0
35050,0.361816,-0.612305,0.578613,0
35070,0.356934,-0.615234,0.571289,0
35090,0.35791,-0.625,0.572754,0
35110,0.350098,-0.625977,0.581543,0
35130,0.35498,-0.623047,0.571777,0
35150,0.376953,-0.651855,0.580078,0
35170,0.381348,-0.630371,0.580078,0
35190,0.384766,-0.635742,0.578613,0
35210,0.42041,-0.653809,0.553223,0
35230,0.40918,-0.655762,0.558105,0
35250,0.395996,-0.669922,0.54834,0
35270,0.432617,-0.694336,0.538086,0
35290,0.465332,-0.732422,0.536133,0
35310,0.458984,-0.753418,0.524902,0
35330,0.503418,-0.761719,0.49707,0
35350,0.542969,-0.770508,0.465332,0
35370,0.576172,-0.755371,0.469238,0
35390,0.61084,-0.73291,0.44873,0
35410,0.637207,-0.693359,0.445312,0
35430,0.67334,-0.687012,0.434082,0
35450,0.706055,-0.648438,0.429199,0
35470,0.71582,-0.64502,0.418457,0
35490,0.709961,-0.577148,0.379395,0
35510,0.743164,-0.581055,0.314941,0
35530,0.71875,-0.561523,0.282227,0
35550,0.736328,-0.514648,0.278809,0
35570,0.730957,-0.501465,0.245605,0
35590,0.749512,-0.498047,0.195312,0
35610,0.770996,-0.471191,0.167969,0
35630,0.803223,-0.453613,0.144531,0
35650,0.837891,-0.446289,0.0947266,0
35670,0.804688,-0.398926,0.081543,0
35690,0.809082,-0.394043,0.0463867,0
35710,0.868652,-0.411133,0.0439453,0
35730,0.897461,-0.418945,0.00878906,0
35750,0.849121,-0.381836,-0.0112305,0
35770,0.878418,-0.376465,-0.0375977,0
35790,0.879883,-0.396484,-0.0546875,0
35810,0.837891,-0.380859,-0.065918,0
35830,0.858887,-0.375488,-0.0898438,0
35850,0.853516,-0.403809,-0.0986328,0
35870,0.842773,-0.401855,-0.119141,0
35890,0.840332,-0.407227,-0.132812,0
35900,0.85498,-0.413086,-0.142578,0
35920,0.847168,-0.417969,-0.148926,0
35940,0.853027,-0.408691,-0.178223,0
35960,0.833984,-0.399902,-0.1875,0
35980,0.84375,-0.400879,-0.166016,0
36000,0.876465,-0.395996,-0.169922,0
36020,0.85498,-0.387207,-0.179199,0
36040,0.862305,-0.401367,-0.197266,0
36060,0.858887,-0.403809,-0.188965,0
36080,0.842285,-0.384277,-0.166992,0
36100,0.84668,-0.38916,-0.160645,0
36120,0.866211,-0.399414,-0.179688,0
36140,0.853516,-0.405762,-0.169922,0
36160,0.856934,-0.400391,-0.180664,0
36180,0.854004,-0.414062,-0.186035,0
36200,0.869141,-0.412598,-0.193359,0
36220,0.885254,-0.420898,-0.194336,0
36240,0.875488,-0.418945,-0.195312,0
36280,0.881836,-0.42041,-0.180176,0
36300,0.875,-0.425781,-0.180664,0
36330,0.85791,-0.433594,-0.162109,0
36350,0.85498,-0.427246,-0.167969,0
36370,0.859375,-0.424805,-0.173828,0
36390,0.855957,-0.421387,-0.165039,0
36410,0.858887,-0.429199,-0.165527,0
36430,0.873535,-0.437988,-0.172852,0
36450,0.864258,-0.449219,-0.175781,0
36470,0.86377,-0.439453,-0.164062,0
36490,0.855469,-0.44043,-0.169922,0
36510,0.848633,-0.436523,-0.163086,0
36530,0.848633,-0.444336,-0.156738,0
36550,0.865723,-0.441406,-0.148438,0
36590,0.852539,-0.44043,-0.172852,0
36610,0.879395,-0.44873,-0.160645,0
36630,0.87793,-0.458496,-0.15625,0
36650,0.845215,-0.423828,-0.176758,0
36670,0.845703,-0.427246,-0.19043,0
36690,0.86084,-0.431152,-0.148926,0
36710,0.879883,-0.449707,-0.13916,0
36730,0.91748,-0.461914,-0.168945,0
36750,0.897949,-0.46875,-0.183105,0
36770,0.902832,-0.447754,-0.187988,0
36790,0.898926,-0.4375,-0.1875,0
36810,0.880859,-0.432129,-0.179688,0
36830,0.880371,-0.429688,-0.187012,0
36850,0.878418,-0.445801,-0.175781,0
36870,0.865234,-0.451172,-0.179688,0
36890,0.856445,-0.441406,-0.175293,0
36910,0.862793,-0.436035,-0.180664,0
36930,0.866699,-0.444336,-0.177734,0
36950,0.869629,-0.443359,-0.172852,0
36970,0.853516,-0.445801,-0.164551,0
36990,0.845703,-0.442383,-0.165039,0
37010,0.845215,-0.451172,-0.167969,0
37030,0.845703,-0.458496,-0.171387,0
37050,0.833496,-0.464844,-0.172363,0
37070,0.83252,-0.445801,-0.171387,0
37090,0.844727,-0.437988,-0.171387,0
37110,0.835938,-0.434082,-0.176758,0
37140,0.842773,-0.434082,-0.178711,0
37160,0.841797,-0.421387,-0.181641,0
37180,0.833008,-0.4375,-0.187988,0
37200,0.831055,-0.433105,-0.186523,0
37220,0.821777,-0.438965,-0.185547,0
37240,0.819336,-0.444824,-0.190918,0
37260,0.814453,-0.444824,-0.189941,0
37280,0.819336,-0.441895,-0.178711,0
37300,0.825684,-0.442871,-0.163574,0
37320,0.819336,-0.442383,-0.153809,0
37340,0.823242,-0.443848,-0.149414,0
37360,0.830566,-0.442871,-0.137695,0
37380,0.82373,-0.453613,-0.119629,0
37400,0.835449,-0.45166,-0.119141,0
37420,0.850586,-0.453125,-0.110352,0
37440,0.837402,-0.459961,-0.0830078,0
37460,0.82666,-0.481445,-0.0776367,0
37480,0.836426,-0.485352,-0.0776367,0
37500,0.852051,-0.475586,-0.0488281,0
37520,0.866211,-0.473633,-0.00976562,0
37540,0.85498,-0.493652,-0.000488281,0
37560,0.834961,-0.51123,-0.0112305,0
37580,0.841309,-0.50293,0.00830078,0
37600,0.820801,-0.515137,0.043457,0
37620,0.797852,-0.527344,0.0581055,0
37640,0.79248,-0.537109,0.0766602,0
37660,0.806641,-0.520508,0.0913086,0
37680,0.792969,-0.535645,0.112793,0
37700,0.754395,-0.552246,0.121094,0
37720,0.750977,-0.572266,0.117188,0
37740,0.758789,-0.567871,0.141113,0
37760,0.763672,-0.582031,0.176758,0
37780,0.728516,-0.600098,0.183105,0
37800,0.71875,-0.614258,0.168945,0
37810,0.740234,-0.605469,0.1875,0
37830,0.730957,-0.62793,0.214355,0
37850,0.687988,-0.641602,0.223633,0
37870,0.675781,-0.660156,0.208984,0
37890,0.713379,-0.652344,0.229004,0
37910,0.718262,-0.65332,0.251953,0
37930,0.69043,-0.664551,0.229004,0
37950,0.693359,-0.676758,0.183594,0
37970,0.699219,-0.679199,0.193848,0
37990,0.704102,-0.70166,0.216309,0
38010,0.684082,-0.70752,0.215332,0
38030,0.679199,-0.702148,0.207031,0
38050,0.670898,-0.69873,0.206543,0
38070,0.670898,-0.687988,0.203125,0
38090,0.666016,-0.698242,0.206543,0
38110,0.658203,-0.695801,0.20459,0
38130,0.660156,-0.704102,0.191406,0
38150,0.685059,-0.702637,0.191406,0
38170,0.666992,-0.708008,0.197754,0
38190,0.65332,-0.705078,0.188477,0
38210,0.63916,-0.707031,0.181641,0
38230,0.644531,-0.708984,0.190918,0
38250,0.634766,-0.719238,0.205078,0
38270,0.624512,-0.722656,0.205566,0
38290,0.621094,-0.725586,0.193848,0
38310,0.632812,-0.729004,0.184082,0
38330,0.625488,-0.736328,0.194336,0
38350,0.629883,-0.751953,0.202148,0
38370,0.639648,-0.752441,0.200195,0
38390,0.662109,-0.761719,0.197754,0
38410,0.623535,-0.760254,0.188477,0
38430,0.618652,-0.754395,0.175293,0
38450,0.620605,-0.749023,0.181641,0
38470,0.639648,-0.768555,0.19043,0
38490,0.60791,-0.766602,0.17334,0
38510,0.564453,-0.753906,0.178223,0
38530,0.532227,-0.749023,0.195312,0
38550,0.553223,-0.767578,0.207031,0
38570,0.530273,-0.789062,0.216797,0
38590,0.481934,-0.763672,0.222168,0
38610,0.45752,-0.757324,0.225098,0
38630,0.454102,-0.776855,0.221191,0
38670,0.432617,-0.787109,0.219238,0
38690,0.422363,-0.775391,0.224609,0
38710,0.424805,-0.789062,0.224121,0
38730,0.435059,-0.800781,0.223633,0
38750,0.446777,-0.800781,0.213867,0
38770,0.461426,-0.800293,0.208008,0
38790,0.473633,-0.798828,0.214355,0
38810,0.475098,-0.803223,0.200195,0
38830,0.490723,-0.800781,0.199219,0
38850,0.500977,-0.810059,0.203125,0
38870,0.510254,-0.802734,0.198242,0
38890,0.517578,-0.797363,0.185547,0
38910,0.523438,-0.781738,0.195801,0
38930,0.525879,-0.783691,0.210449,0
38950,0.523926,-0.780273,0.197754,0
38970,0.529297,-0.78125,0.186523,0
38990,0.52832,-0.774902,0.196289,0
39010,0.521484,-0.772461,0.196289,0
39030,0.518066,-0.771484,0.186035,0
39050,0.521484,-0.769531,0.177246,0
39070,0.52002,-0.76416,0.189453,0
39090,0.517578,-0.77832,0.189453,0
39110,0.500977,-0.791016,0.194824,0
39130,0.472168,-0.770508,0.195801,0
39150,0.443848,-0.782227,0.187988,0
39170,0.433594,-0.791504,0.197754,0
39190,0.411621,-0.807129,0.202637,0
39210,0.399414,-0.833496,0.208008,0
39230,0.384766,-0.843262,0.211426,0
39250,0.367676,-0.871094,0.22168,0
39270,0.35498,-0.899902,0.230469,0
39290,0.36377,-0.920898,0.229492,0
39310,0.365723,-0.926758,0.239258,0
39330,0.361328,-0.929199,0.244141,0
39350,0.347168,-0.955566,0.242676,0
39370,0.336914,-0.931641,0.217285,0
39390,0.32666,-0.913086,0.20166,0
39410,0.302246,-0.913086,0.204102,0
39430,0.285645,-0.913086,0.192871,0
39450,0.27002,-0.894043,0.167969,0
39470,0.262695,-0.90625,0.161133,0
39490,0.25,-0.922363,0.146484,0
39510,0.210449,-0.953613,0.163086,0
39530,0.181641,-1.00439,0.163574,0
39550,0.185547,-0.99707,0.107422,0
39570,0.194824,-0.975586,0.122559,0
39590,0.202148,-0.958496,0.121094,0
39610,0.202637,-0.943359,0.119141,0
39630,0.20459,-0.96875,0.124512,0
39650,0.202637,-0.981445,0.10791,0
39670,0.213379,-0.975098,0.108398,0
39690,0.224609,-0.97168,0.0966797,0
39710,0.226562,-0.946777,0.0947266,0
39730,0.212402,-0.962402,0.0771484,0
39750,0.193848,-0.972168,0.0874023,0
39770,0.191895,-0.98584,0.0927734,0
39790,0.20166,-0.985352,0.0927734,0
39810,0.211426,-0.969238,0.100098,0
39830,0.208008,-0.958008,0.0844727,0
39850,0.189941,-0.960449,0.105957,0
39870,0.159668,-0.983887,0.106445,0
39890,0.154785,-0.98291,0.112793,0
39910,0.169922,-0.961426,0.120117,0
39930,0.179688,-0.929199,0.129883,0
39950,0.188965,-0.900879,0.12793,0
39970,0.158203,-0.890137,0.13623,0
39990,0.161621,-0.884277,0.143555,0
40010,0.179688,-0.901855,0.167969,0
40030,0.196777,-0.910645,0.176758,0
40050,0.185059,-0.913574,0.178711,0
40070,0.212891,-0.916992,0.193848,0
40090,0.245605,-0.904297,0.207031,0
40110,0.231445,-0.910645,0.221191,0
40130,0.220703,-0.916504,0.231445,0
40150,0.241211,-0.915527,0.230469,0
40170,0.249023,-0.91748,0.253906,0
40190,0.24707,-0.907227,0.270996,0
40210,0.23291,-0.898926,0.275879,0
40230,0.229004,-0.905762,0.291016,0
40250,0.237305,-0.856445,0.308105,0
40270,0.220703,-0.856445,0.315918,0
40290,0.19043,-0.867188,0.322266,0
40310,0.20459,-0.875977,0.327637,0
40330,0.204102,-0.878418,0.355957,0
40350,0.162109,-0.851074,0.366699,0
40370,0.154785,-0.856445,0.367676,0
40390,0.170898,-0.862305,0.394531,0
40410,0.161621,-0.855469,0.444824,0
40430,0.14502,-0.826172,0.435547,0
40450,0.127441,-0.817383,0.428223,0
40470,0.0947266,-0.79248,0.5,0
40490,0.074707,-0.788574,0.54248,0
40510,0.0522461,-0.807129,0.515625,0
40530,0.0703125,-0.841797,0.467285,0
40550,0.0756836,-0.861328,0.519043,0
40570,0.0444336,-0.839355,0.549805,0
40590,0.0117188,-0.833496,0.535645,0
40610,0.012207,-0.879883,0.526367,0
40630,0.0366211,-0.879883,0.549805,0
40650,0.0361328,-0.833496,0.571777,0
40670,0.000976562,-0.811523,0.553223,0
40690,0.000488281,-0.79834,0.529785,0
40710,-0.0273438,-0.819824,0.546387,0
40730,-0.0498047,-0.817383,0.583984,0
40750,-0.0512695,-0.817383,0.571777,0
40770,-0.0380859,-0.809082,0.52832,0
40790,-0.0380859,-0.803223,0.537109,0
40810,-0.0678711,-0.776367,0.564453,0
40830,-0.0756836,-0.78125,0.562988,0
40850,-0.0620117,-0.778809,0.553711,0
40870,-0.0766602,-0.783203,0.566895,0
40890,-0.100098,-0.766602,0.583984,0
40910,-0.0932617,-0.765625,0.580078,0
40930,-0.0805664,-0.77002,0.559082,0
40950,-0.0932617,-0.750977,0.561523,0
40970,-0.101562,-0.745117,0.586426,0
40990,-0.0947266,-0.776367,0.574219,0
41010,-0.0732422,-0.791016,0.556641,0
41030,-0.0698242,-0.780273,0.562012,0
41050,-0.0820312,-0.77002,0.549316,0
41070,-0.109863,-0.779785,0.556641,0
41090,-0.104004,-0.776367,0.564453,0
41110,-0.097168,-0.78418,0.577637,0
41130,-0.0849609,-0.793457,0.55957,0
41150,-0.0966797,-0.776855,0.537598,0
41170,-0.0898438,-0.784668,0.552734,0
41190,-0.0874023,-0.774414,0.554199,0
41210,-0.0683594,-0.820801,0.539551,0
41220,-0.0576172,-0.836914,0.530273,0
41240,-0.0776367,-0.772461,0.532227,0
41260,-0.102539,-0.762695,0.547363,0
41280,-0.0839844,-0.786621,0.537598,0
41300,-0.0424805,-0.831543,0.508301,0
41320,-0.0341797,-0.842285,0.488281,0
41340,-0.0708008,-0.803711,0.506836,0
41360,-0.0888672,-0.795898,0.523438,0
41380,-0.0385742,-0.832031,0.461426,0
41400,-0.00830078,-0.857422,0.44873,0
41420,-0.0595703,-0.850098,0.489258,0
41440,-0.09375,-0.842285,0.474121,0
41460,-0.078125,-0.868164,0.455566,0
41480,-0.0415039,-0.841797,0.419922,0
41500,-0.0512695,-0.836426,0.41748,0
41520,-0.104492,-0.863281,0.415039,0
41540,-0.111816,-0.918457,0.402344,0
41560,-0.0888672,-0.94043,0.403809,0
41580,-0.0825195,-0.92041,0.40918,0
41600,-0.101074,-0.887207,0.403809,0
41620,-0.109863,-0.874512,0.420898,0
41640,-0.0927734,-0.887207,0.39209,0
41660,-0.0795898,-0.925781,0.384766,0
41680,-0.0874023,-0.910645,0.370117,0
41700,-0.097168,-0.858887,0.36377,0
41720,-0.0922852,-0.85791,0.39502,0
41740,-0.0927734,-0.914551,0.382324,0
41760,-0.101074,-0.907227,0.404785,0
41780,-0.0839844,-0.899414,0.398438,0
41800,-0.0791016,-0.885742,0.373535,0
41820,-0.0844727,-0.893555,0.40332,0
41840,-0.0786133,-0.919434,0.393555,0
41860,-0.0668945,-0.90625,0.374023,0
41880,-0.0737305,-0.876465,0.383789,0
41900,-0.0439453,-0.916992,0.374512,0
41920,-0.0405273,-0.92041,0.373047,0
41940,-0.0571289,-0.908203,0.356445,0
41960,-0.0698242,-0.878906,0.340332,0
41980,-0.0727539,-0.871582,0.370117,0
42000,-0.0737305,-0.879395,0.38623,0
42020,-0.0629883,-0.883789,0.378418,0
42040,-0.0766602,-0.882812,0.375,0
42060,-0.0942383,-0.897949,0.373535,0
42080,-0.103027,-0.928711,0.381836,0
42100,-0.0898438,-0.945801,0.389648,0
42120,-0.0722656,-0.934082,0.366211,0
42140,-0.0649414,-0.92334,0.362305,0
42160,-0.0717773,-0.92334,0.342773,0
42180,-0.0830078,-0.927734,0.328125,0
42200,-0.0786133,-0.941406,0.32666,0
42220,-0.0874023,-0.938965,0.317871,0
42240,-0.0727539,-0.9375,0.274902,0
42260,-0.0917969,-0.949707,0.285645,0
42280,-0.097168,-0.924805,0.302734,0
42300,-0.106445,-0.910156,0.306641,0
42320,-0.100586,-0.921875,0.295898,0
42340,-0.0947266,-0.944336,0.280762,0
42360,-0.0952148,-0.946777,0.272461,0
42380,-0.10498,-0.950195,0.260254,0
42400,-0.0947266,-0.942871,0.254883,0
42420,-0.0825195,-0.943848,0.258301,0
42440,-0.103516,-0.934082,0.256348,0
42460,-0.114258,-0.956055,0.22168,0
42480,-0.100098,-0.92627,0.240234,0
42500,-0.114746,-0.942871,0.249023,0
42520,-0.103516,-0.952148,0.244629,0
42540,-0.102539,-0.97998,0.221191,0
42560,-0.0961914,-0.972656,0.216797,0
42580,-0.132812,-0.955078,0.238281,0
42600,-0.14502,-0.946777,0.230957,0
42620,-0.124023,-0.959473,0.232422,0
42640,-0.0952148,-0.986328,0.220703,0
42660,-0.112305,-0.975098,0.19873,0
42680,-0.149414,-0.952148,0.214355,0
42700,-0.141602,-0.941895,0.221191,0
42720,-0.131836,-0.939941,0.213379,0
42740,-0.109863,-0.949219,0.219238,0
42760,-0.117676,-0.956055,0.223633,0
42780,-0.12207,-0.957031,0.210449,0
42800,-0.115234,-0.928223,0.191895,0
42820,-0.112305,-0.916504,0.195312,0
42820,-0.121094,-0.94873,0.225586,0
42840,-0.126953,-0.969238,0.212402,0
42860,-0.139648,-0.959473,0.210449,0
42880,-0.120117,-0.970215,0.205566,0
42900,-0.0996094,-0.991699,0.213867,0
42920,-0.10498,-0.992188,0.210449,0
42940,-0.128418,-0.976074,0.18457,0
42960,-0.141113,-0.959961,0.17334,0
42980,-0.155273,-0.922363,0.204102,0
43000,-0.118164,-0.940918,0.186035,0
43020,-0.118652,-0.949219,0.193359,0
43040,-0.144043,-0.973633,0.225586,0
43060,-0.152344,-0.979004,0.215332,0
43080,-0.121094,-0.945312,0.192383,0
43100,-0.108887,-0.95166,0.195801,0
43120,-0.115723,-0.949219,0.189453,0
43140,-0.134766,-0.945312,0.191406,0
43160,-0.125,-0.977051,0.214844,0
43170,-0.0839844,-0.960938,0.214844,0
43190,-0.0859375,-0.95459,0.214844,0
43210,-0.0844727,-0.967773,0.191895,0
43230,-0.101074,-0.963867,0.209961,0
43250,-0.123047,-0.944824,0.21875,0
43270,-0.122559,-0.950684,0.219727,0
43290,-0.105957,-0.931641,0.213379,0
43310,-0.121094,-0.929688,0.23291,0
43330,-0.131348,-0.9375,0.231445,0
43350,-0.14209,-0.953125,0.244629,0
43370,-0.182129,-0.97168,0.27002,0
43390,-0.173828,-0.960938,0.241211,0
43410,-0.11377,-0.978516,0.206055,0
43430,-0.101562,-0.916504,0.251953,0
43450,-0.13623,-0.90625,0.247559,0
43470,-0.139648,-0.915039,0.238281,0
43490,-0.138672,-0.959961,0.253906,0
43510,-0.141113,-1.01953,0.256836,0
43530,-0.147949,-1.01221,0.234375,0
43550,-0.135742,-0.928223,0.226562,0
43570,-0.139648,-0.908691,0.252441,0
43590,-0.13916,-0.925293,0.249512,0
43610,-0.146484,-0.938965,0.254883,0
43630,-0.130371,-0.943359,0.25293,0
43650,-0.134766,-0.942383,0.230469,0
43670,-0.152344,-0.946777,0.252441,0
43690,-0.155273,-0.952148,0.276367,0
43710,-0.149902,-0.959961,0.291992,0
43730,-0.140137,-0.955566,0.289551,0
43750,-0.153809,-0.942871,0.268555,0
43770,-0.166504,-0.960938,0.292969,0
43790,-0.161133,-0.963379,0.292969,0
43810,-0.151855,-0.974121,0.282715,0
43830,-0.150391,-0.95459,0.277344,0
43850,-0.172363,-0.913086,0.258301,0
43870,-0.17041,-0.92041,0.272949,0
43890,-0.163086,-0.956055,0.291992,0
43910,-0.174316,-0.964355,0.302246,0
43930,-0.15918,-0.952148,0.274414,0
43950,-0.151855,-0.943848,0.272949,0
43980,-0.166016,-0.94873,0.283691,0
44000,-0.131348,-0.902344,0.246094,0
44020,-0.144043,-0.907227,0.265137,0
44040,-0.186035,-0.909668,0.297363,0
44060,-0.181152,-0.946777,0.27832,0
44080,-0.147949,-0.938477,0.273438,0
44100,-0.150879,-0.925781,0.288574,0
44120,-0.160156,-0.962402,0.280273,0
44140,-0.14502,-0.952637,0.257324,0
44160,-0.129883,-0.925293,0.236816,0
44180,-0.114746,-0.895996,0.234375,0
44200,-0.144043,-0.91748,0.25,0
44220,-0.183594,-0.920898,0.30127,0
44240,-0.194336,-0.94043,0.322754,0
44260,-0.148438,-0.981445,0.297852,0
44280,-0.13916,-0.999023,0.250977,0
44300,-0.162598,-0.942871,0.227539,0
44320,-0.216309,-0.884277,0.259766,0
44340,-0.192383,-0.910645,0.305664,0
44360,-0.145996,-0.958008,0.288086,0
44380,-0.168457,-0.927734,0.275879,0
44400,-0.218262,-0.937988,0.266113,0
44420,-0.154297,-0.990723,0.23584,0
44440,-0.111328,-0.96875,0.282227,0
44460,-0.164551,-0.915527,0.28125,0
44480,-0.19043,-0.913086,0.241699,0
44500,-0.160645,-0.949219,0.235352,0
44520,-0.153809,-0.992676,0.285645,0
44540,-0.15332,-0.975586,0.28125,0
44560,-0.183105,-0.90332,0.258789,0
44580,-0.180176,-0.916992,0.253418,0
44600,-0.164551,-0.932129,0.263184,0
44620,-0.163574,-0.944824,0.266113,0
44640,-0.154785,-0.932129,0.26123,0
44660,-0.164062,-0.927734,0.257324,0
44680,-0.175293,-0.92334,0.277344,0
44700,-0.169922,-0.935059,0.263672,0
44720,-0.152344,-0.910156,0.261719,0
44740,-0.128906,-0.913086,0.249023,0
44760,-0.14209,-0.917969,0.253906,0
44780,-0.176758,-0.962402,0.272949,0
44800,-0.188965,-0.960938,0.28125,0
44820,-0.135742,-0.953613,0.266113,0
44840,-0.100586,-0.912598,0.251953,0
44860,-0.134277,-0.925293,0.249512,0
44880,-0.17627,-0.960449,0.268066,0
44900,-0.185059,-0.977539,0.290039,0
44920,-0.169922,-0.94873,0.284668,0
44940,-0.163086,-0.942383,0.276855,0
44960,-0.16748,-0.910645,0.281738,0
44980,-0.168457,-0.905762,0.297363,0
45000,-0.142578,-0.937988,0.297852,0
45020,-0.129883,-0.98584,0.294434,0
45040,-0.12793,-1.01514,0.296387,0
45060,-0.134277,-0.976562,0.296387,0
45070,-0.142578,-0.910156,0.282715,0
45090,-0.135254,-0.876465,0.273438,0
45110,-0.131836,-0.922363,0.298828,0
45130,-0.119629,-0.973633,0.315918,0
45150,-0.106934,-0.995117,0.301758,0
45170,-0.122559,-0.962891,0.296387,0
45190,-0.124512,-0.949707,0.276367,0
45210,-0.10498,-0.914062,0.304199,0
45230,-0.124512,-0.951172,0.308105,0
45250,-0.121582,-0.978516,0.307617,0
45270,-0.0927734,-0.987305,0.290039,0
45290,-0.0795898,-0.953613,0.285156,0
45310,-0.0825195,-0.90625,0.287109,0
45330,-0.059082,-0.919434,0.283203,0
45350,-0.050293,-0.950684,0.302734,0
45370,-0.050293,-0.966797,0.325195,0
45390,-0.0112305,-0.981934,0.319336,0
45410,0.0258789,-0.978516,0.319336,0
45430,0.0668945,-0.960449,0.322266,0
45450,0.0761719,-0.961914,0.32959,0
45470,0.090332,-0.95752,0.341797,0
45500,0.143555,-0.962402,0.332031,0
45520,0.144531,-0.973145,0.333008,0
45540,0.141602,-0.959473,0.319824,0
45560,0.139648,-0.952148,0.317383,0
45580,0.143555,-0.951172,0.337891,0
45600,0.135742,-0.94873,0.314941,0
45620,0.119141,-0.941895,0.307617,0
45640,0.107422,-0.95752,0.300781,0
45660,0.104004,-0.960938,0.286621,0
45680,0.0839844,-0.935547,0.282227,0
45700,0.0561523,-0.921875,0.265137,0
45720,0.0375977,-0.904297,0.245117,0
45740,0.0200195,-0.911133,0.229492,0
45760,0.0195312,-0.897461,0.220215,0
45780,0.0283203,-0.901367,0.221191,0
45800,0.0268555,-0.901367,0.200195,0
45820,0.0424805,-0.888184,0.178223,0
45840,0.0576172,-0.872559,0.178711,0
45860,0.0498047,-0.893555,0.163574,0
45880,0.0288086,-0.895508,0.138672,0
45900,0.0258789,-0.916992,0.117676,0
45920,0.0292969,-0.944336,0.130859,0
45940,0.0385742,-0.960449,0.119629,0
45960,0.0634766,-0.976074,0.120117,0
45980,0.100586,-0.997559,0.141113,0
46000,0.114746,-0.98291,0.130859,0
46020,0.124023,-0.97168,0.144531,0
46040,0.151855,-0.946777,0.180664,0
46060,0.168457,-0.945312,0.163086,0
46080,0.159668,-0.952637,0.162598,0
46100,0.136719,-0.95459,0.162598,0
46120,0.140625,-0.973145,0.172363,0
46140,0.169434,-0.979492,0.177734,0
46160,0.177734,-0.970215,0.180176,0
46180,0.179199,-0.95459,0.179688,0
46200,0.19043,-0.952637,0.180664,0
46220,0.20459,-0.950195,0.189453,0
46240,0.187012,-0.958984,0.184082,0
46260,0.16748,-0.950684,0.189453,0
46280,0.178711,-0.953613,0.187012,0
46300,0.193359,-0.961914,0.176758,0
46320,0.179199,-0.950684,0.194824,0
46340,0.162598,-0.940918,0.189941,0
46360,0.16748,-0.958496,0.192383,0
46380,0.172852,-0.964355,0.193848,0
46400,0.165527,-0.947754,0.191406,0
46420,0.18457,-0.956055,0.183105,0
46440,0.177246,-0.953613,0.192383,0
46460,0.158203,-0.950195,0.185547,0
46480,0.168945,-0.962891,0.196777,0
46500,0.175293,-0.973145,0.183594,0
46520,0.15918,-0.970703,0.177246,0
46540,0.11377,-0.949219,0.183105,0
46550,0.12793,-0.94873,0.16748,0
46570,0.122559,-0.953613,0.183105,1000
46590,0.10498,-0.942383,0.180664,0
46610,0.115234,-0.959473,0.17334,0
46630,0.131348,-0.963379,0.177734,0
46650,0.135742,-0.96582,0.19043,0
46670,0.135254,-0.956543,0.202148,0
46690,0.142578,-0.95752,0.18457,0
46710,0.163086,-0.959961,0.198242,0
46730,0.161621,-0.960449,0.21582,0
46750,0.150879,-0.942383,0.197266,0
46770,0.152344,-0.949219,0.189941,0
46790,0.155762,-0.946289,0.199707,0
46810,0.160645,-0.955078,0.199707,0
46830,0.155762,-0.961426,0.20166,0
46850,0.153809,-0.959473,0.195801,0
46870,0.137207,-0.967773,0.19043,0
46890,0.138184,-0.958984,0.193359,0
46910,0.140625,-0.966309,0.197754,0
46930,0.147461,-0.946777,0.187012,0
46950,0.147461,-0.945312,0.183594,0
46970,0.148438,-0.946777,0.17627,0
46990,0.150391,-0.956055,0.177734,0
47010,0.147461,-0.960938,0.178711,0
47030,0.141113,-0.954102,0.178711,0
47050,0.14502,-0.958008,0.172852,0
47070,0.146973,-0.962891,0.166992,0
47090,0.14502,-0.949707,0.162109,0
47110,0.138184,-0.956055,0.174805,0
47130,0.145508,-0.963379,0.175781,0
47150,0.152344,-0.963379,0.166992,0
47170,0.147949,-0.94873,0.161133,0
47190,0.15625,-0.959961,0.163086,0
47210,0.17041,-0.969727,0.164062,0
47230,0.179688,-0.960449,0.163086,0
47250,0.181152,-0.957031,0.160156,0
47270,0.17334,-0.967285,0.149414,0
47290,0.178223,-0.960938,0.153809,0
47310,0.202148,-0.953613,0.16748,0
47330,0.209473,-0.943359,0.168945,0
47350,0.21875,-0.943848,0.14502,0
47370,0.250488,-0.959473,0.172852,0
47390,0.276367,-0.944824,0.181152,0
47410,0.272461,-0.933105,0.168945,0
47430,0.267578,-0.912598,0.13916,0
47450,0.265625,-0.913086,0.132324,0
47470,0.291992,-0.924805,0.138184,0
47490,0.32373,-0.943359,0.137207,0
47510,0.311523,-0.936035,0.135254,0
47530,0.286133,-0.932617,0.137695,0
47550,0.276367,-0.933105,0.138184,0
47570,0.283691,-0.941895,0.146973,0
47590,0.305176,-0.948242,0.145996,0
47610,0.298828,-0.928711,0.13623,0
47630,0.279297,-0.914551,0.148438,0
47650,0.256348,-0.909668,0.149414,0
47670,0.24707,-0.916504,0.15625,0
47690,0.240234,-0.935547,0.151855,0
47710,0.213867,-0.947754,0.15918,0
47730,0.170898,-0.934082,0.162598,0
47750,0.15332,-0.952148,0.15625,0
47770,0.163574,-0.955078,0.144531,0
47790,0.149902,-0.950195,0.151855,0
47810,0.129883,-0.950195,0.144043,0
47830,0.132812,-0.964844,0.145508,0
47850,0.144043,-0.976074,0.162109,0
47870,0.140625,-0.972656,0.162109,0
47890,0.142578,-0.956543,0.166016,0
47910,0.157715,-0.965332,0.178223,0
47930,0.169434,-0.959473,0.179199,0
47950,0.178711,-0.954102,0.171875,0
47970,0.186523,-0.95459,0.184082,0
47990,0.201172,-0.95752,0.181641,0
48010,0.21582,-0.956543,0.175781,0
48030,0.226074,-0.952148,0.174316,0
48050,0.228027,-0.943359,0.17627,0
48070,0.233398,-0.924805,0.17334,0
48090,0.251953,-0.9375,0.169922,0
48110,0.270996,-0.936523,0.165527,0
48130,0.275879,-0.926758,0.17041,0
48150,0.269531,-0.919434,0.166016,0
48170,0.275391,-0.918457,0.170898,0
48190,0.285156,-0.915039,0.174805,0
48210,0.291016,-0.916504,0.193848,0
48230,0.297363,-0.910645,0.18457,0
48250,0.282227,-0.910156,0.186523,0
48270,0.30127,-0.903809,0.182129,0
48290,0.30957,-0.908691,0.202637,0
48310,0.294434,-0.90625,0.206055,0
48330,0.310059,-0.901367,0.199707,0
48350,0.311523,-0.897461,0.200195,0
48370,0.323242,-0.894043,0.206055,0
48390,0.330078,-0.881836,0.213867,0
48400,0.34375,-0.883789,0.208496,0
48420,0.345703,-0.884766,0.210938,0
48440,0.353516,-0.875,0.213379,0
48460,0.360352,-0.878906,0.216309,0
48480,0.367188,-0.885254,0.21875,0
48500,0.377441,-0.876953,0.224121,0
48510,0.37793,-0.868652,0.217773,0
48530,0.393555,-0.871582,0.222656,0
48550,0.404297,-0.866699,0.222656,0
48570,0.414551,-0.864746,0.219238,0
48590,0.430664,-0.853516,0.220703,0
48610,0.440918,-0.858398,0.22168,0
48630,0.473145,-0.843262,0.220215,0
48650,0.494629,-0.853516,0.210449,0
48670,0.495117,-0.841309,0.230469,0
48690,0.499023,-0.829102,0.231934,0
48710,0.496094,-0.81543,0.236328,0
48730,0.487793,-0.816406,0.237305,0
48750,0.505859,-0.797852,0.25,0
48770,0.52832,-0.815918,0.255859,0
48790,0.507324,-0.810059,0.269531,0
48810,0.498047,-0.803711,0.244629,0
48830,0.529297,-0.802246,0.25,0
48850,0.523926,-0.806152,0.269043,0
48870,0.478027,-0.793457,0.287109,0
48890,0.465332,-0.780762,0.282715,0
48910,0.477539,-0.78418,0.274902,0
48930,0.489258,-0.796875,0.279785,0
48950,0.464844,-0.788574,0.290527,0
48970,0.468262,-0.777832,0.292969,0
48990,0.476074,-0.793945,0.299316,0
49010,0.449707,-0.806641,0.316895,0
49030,0.412109,-0.782715,0.326172,0
49050,0.416504,-0.777344,0.332031,0
49070,0.453125,-0.797852,0.331055,0
49090,0.445312,-0.816406,0.333008,0
49110,0.390137,-0.789062,0.359375,0
49130,0.374023,-0.786621,0.354492,0
49150,0.398438,-0.830078,0.351562,0
49170,0.411133,-0.841797,0.349121,0
49190,0.355957,-0.816895,0.351074,0
49210,0.306152,-0.793457,0.355469,0
49230,0.317383,-0.8125,0.370605,0
49250,0.34082,-0.839844,0.375977,0
49270,0.341309,-0.838867,0.388672,0
49290,0.326172,-0.827148,0.393555,0
49310,0.325195,-0.808105,0.402344,0
49330,0.327148,-0.795898,0.398438,0
49350,0.346191,-0.790039,0.396973,0
49370,0.342773,-0.808594,0.393066,0
49390,0.301758,-0.816895,0.389648,0
49410,0.281738,-0.821777,0.383789,0
49430,0.305176,-0.837891,0.394043,0
49450,0.31543,-0.849609,0.383789,0
49470,0.287598,-0.82959,0.396484,0
49490,0.243164,-0.818359,0.394531,0
49510,0.242676,-0.8125,0.405273,0
49530,0.25293,-0.825684,0.40332,0
49550,0.23877,-0.813477,0.404785,0
49570,0.228027,-0.806152,0.432129,0
49590,0.21875,-0.810059,0.415039,0
49610,0.250488,-0.817871,0.407715,0
49630,0.267578,-0.821777,0.42627,0
49650,0.260254,-0.822754,0.441406,0
49670,0.23584,-0.828613,0.423828,0
49690,0.25,-0.84668,0.424805,0
49710,0.265137,-0.851562,0.450195,0
49730,0.249512,-0.833496,0.438965,0
49750,0.222656,-0.817871,0.421875,0
49770,0.239258,-0.820312,0.425293,0
49790,0.263184,-0.832031,0.433594,0
49810,0.242676,-0.821777,0.431152,0
49830,0.217285,-0.812988,0.40918,0
49850,0.23877,-0.808594,0.423828,0
49870,0.252441,-0.824707,0.431152,0
49890,0.225586,-0.811523,0.428223,0
49910,0.224121,-0.818359,0.423828,0
49930,0.253906,-0.839355,0.45166,0
49950,0.250977,-0.845703,0.438477,0
49970,0.225098,-0.83252,0.405762,0
49990,0.224121,-0.829102,0.412598,0
50010,0.23877,-0.84082,0.428223,0
50030,0.229004,-0.836914,0.415527,0
50050,0.220215,-0.842773,0.391602,0
50070,0.239258,-0.843262,0.381836,0
50090,0.256348,-0.859863,0.394531,0
50110,0.230469,-0.852539,0.374023,0
50130,0.207031,-0.842285,0.357422,0
50150,0.220215,-0.849609,0.344238,0
50170,0.200195,-0.852051,0.351562,0
50190,0.176758,-0.839355,0.345703,0
50210,0.180176,-0.860352,0.337402,0
50230,0.228516,-0.888184,0.328125,0
50250,0.242676,-0.891602,0.312012,0
50270,0.223633,-0.864746,0.313965,0
50290,0.23291,-0.87207,0.310547,0
50310,0.28125,-0.883789,0.305664,0
50330,0.274902,-0.879883,0.314453,0
50350,0.23584,-0.868652,0.291992,0
50370,0.248047,-0.879883,0.265137,0
50390,0.286133,-0.896484,0.285645,0
50410,0.291504,-0.89209,0.287598,0
50430,0.263184,-0.858887,0.271484,0
50450,0.279297,-0.847168,0.246094,0
50470,0.316895,-0.868164,0.264648,0
50490,0.331055,-0.877441,0.273926,0
50510,0.313477,-0.875488,0.242676,0
50530,0.337891,-0.875488,0.227539,0
50550,0.380859,-0.883789,0.237793,0
50570,0.394043,-0.88623,0.23877,0
50590,0.358887,-0.861328,0.224609,0
50610,0.396973,-0.855469,0.209961,0
50630,0.452148,-0.85498,0.23584,0
50650,0.442383,-0.852051,0.230957,0
50670,0.410156,-0.812988,0.216309,0
50690,0.450684,-0.820801,0.198242,0
50710,0.489746,-0.833008,0.210938,0
50730,0.464355,-0.81543,0.228027,0
50750,0.48877,-0.803711,0.220215,0
50770,0.524414,-0.798828,0.199219,0
50790,0.541992,-0.791016,0.209473,0
50810,0.530762,-0.771484,0.206055,0
50830,0.529785,-0.743164,0.185547,0
50850,0.557617,-0.74707,0.189941,0
50870,0.568848,-0.746094,0.192871,0
50890,0.564453,-0.716309,0.188965,0
50910,0.549805,-0.6875,0.184082,0
50930,0.597656,-0.69873,0.19043,0
50950,0.637695,-0.717285,0.214355,0
50970,0.621582,-0.693359,0.228027,0
50990,0.620117,-0.666016,0.219238,0
51010,0.645508,-0.650391,0.238281,0
51030,0.672363,-0.657227,0.23877,0
51050,0.717285,-0.674805,0.246582,0
51070,0.720703,-0.661133,0.26416,0
51090,0.725586,-0.645508,0.279785,0
51110,0.731934,-0.63916,0.276367,0
51130,0.705566,-0.635254,0.280762,0
51150,0.682617,-0.617188,0.307129,0
51170,0.682129,-0.601562,0.320801,0
51190,0.714355,-0.597656,0.315918,0
51210,0.755859,-0.58252,0.330078,0
51230,0.682617,-0.605957,0.331055,0
51250,0.619141,-0.597656,0.367676,0
51270,0.641602,-0.601074,0.376465,0
51290,0.717773,-0.610352,0.387207,0
51310,0.727051,-0.615723,0.392578,0
51330,0.677246,-0.58252,0.425781,0
51350,0.664551,-0.568848,0.43457,0
51370,0.696777,-0.580566,0.467773,0
51390,0.708984,-0.601562,0.481934,0
51410,0.664062,-0.584473,0.493652,0
51430,0.625,-0.565918,0.515137,0
51450,0.576172,-0.568848,0.533691,0
51470,0.562988,-0.570312,0.564453,0
51490,0.551758,-0.564453,0.524902,0
51510,0.557129,-0.576172,0.536621,0
51530,0.545898,-0.538574,0.571289,0
51550,0.505371,-0.549805,0.586426,0
51570,0.500488,-0.580566,0.582031,0
51590,0.527344,-0.613281,0.57373,0
51610,0.505859,-0.656738,0.587402,0
51630,0.404297,-0.647949,0.566406,0
51650,0.318848,-0.672852,0.557617,0
51670,0.291992,-0.713379,0.614746,0
51690,0.242188,-0.73584,0.598145,0
51710,0.225098,-0.729004,0.553711,0
51730,0.271973,-0.71875,0.514648,0
51750,0.297852,-0.672852,0.530762,0
51770,0.218262,-0.671387,0.518066,0
51790,0.173828,-0.69873,0.474121,0
51810,0.204102,-0.770508,0.472656,0
51830,0.203125,-0.818848,0.455078,0
51850,0.157715,-0.830566,0.438965,0
51870,0.159668,-0.816406,0.40918,0
51890,0.181152,-0.793945,0.396484,0
51900,0.171387,-0.779297,0.380371,0
51920,0.14502,-0.793457,0.37207,0
51940,0.161621,-0.808594,0.370117,0
51960,0.172363,-0.822754,0.362305,0
51980,0.171387,-0.846191,0.356934,0
52000,0.17041,-0.845703,0.343262,0
52020,0.198242,-0.82666,0.322754,0
52040,0.209961,-0.847168,0.318848,0
52060,0.19043,-0.873047,0.305664,0
52080,0.189453,-0.878418,0.258301,0
52100,0.194824,-0.880371,0.245117,0
52130,0.26123,-0.950684,0.158203,0
52150,0.236816,-0.931641,0.155762,0
52170,0.23584,-0.959473,0.144043,0
52190,0.270508,-0.950684,0.132812,0
52210,0.282715,-0.948242,0.0966797,0
52230,0.295898,-0.942871,0.105469,0
52250,0.319824,-0.942871,0.10498,0
52270,0.351562,-0.928711,0.0849609,0
52290,0.370605,-0.906738,0.046875,0
52310,0.358887,-0.895996,0.0385742,0
52330,0.389648,-0.882324,0.0600586,0
52350,0.390625,-0.881348,0.0336914,0
52370,0.415039,-0.851562,0.00732422,0
52390,0.460938,-0.84082,0.0249023,0
52410,0.463379,-0.831055,0.0249023,0
52430,0.467285,-0.84375,-0.00390625,0
52450,0.509766,-0.855957,-0.0131836,0
52470,0.498535,-0.849121,-0.00537109,0
52490,0.498535,-0.829102,0.00195312,0
52510,0.535645,-0.835938,-0.0209961,0
52530,0.578125,-0.820801,-0.034668,0
52550,0.596191,-0.785645,-0.0253906,0
52570,0.580566,-0.749023,-0.0375977,0
52590,0.629883,-0.749512,-0.0439453,0
52610,0.707031,-0.780762,-0.0366211,0
52650,0.621582,-0.692871,-0.050293,0
52660,0.724121,-0.697266,-0.0561523,0
52680,0.723145,-0.705078,-0.0488281,0
52700,0.707031,-0.655273,-0.0522461,0
52720,0.733398,-0.622559,-0.065918,0
52740,0.802734,-0.625488,-0.0419922,0
52760,0.789062,-0.603027,-0.0371094,0
52780,0.768555,-0.567871,-0.043457,0
52800,0.788086,-0.553223,-0.0561523,0
52820,0.805176,-0.541016,-0.0283203,0
52840,0.804688,-0.524414,-0.00390625,0
52860,0.812988,-0.507812,-0.0273438,0
52880,0.852539,-0.495605,-0.0268555,0
52900,0.871094,-0.488281,0.00537109,0
52920,0.887695,-0.47168,0.0317383,0
52940,0.887695,-0.456055,0.0463867,0
52960,0.885254,-0.441406,0.0664062,0
52980,0.874023,-0.433594,0.0986328,0
53000,0.875,-0.428711,0.133789,0
53020,0.894531,-0.413086,0.144043,0
53040,0.884277,-0.40332,0.152832,0
53060,0.87207,-0.383789,0.198242,0
53080,0.894043,-0.365723,0.240234,0
53100,0.925781,-0.393066,0.275879,0
53120,0.880859,-0.413574,0.285645,0
53140,0.830078,-0.418457,0.342285,0
53160,0.828613,-0.412598,0.365234,0
53180,0.826172,-0.418457,0.387695,0
53200,0.811523,-0.439941,0.428223,0
53220,0.800293,-0.45166,0.45166,0
53240,0.730957,-0.442871,0.476562,0
53260,0.685059,-0.463867,0.51123,0
53280,0.683105,-0.47998,0.516602,0
53300,0.716797,-0.476074,0.51709,0
53320,0.683105,-0.45752,0.551758,0
53340,0.627441,-0.478516,0.55957,0
53360,0.618652,-0.486328,0.529297,0
53380,0.609375,-0.522949,0.553711,0
53400,0.555664,-0.560547,0.567383,0
53420,0.526367,-0.591309,0.524414,0
53440,0.515137,-0.631836,0.518066,0
53460,0.46875,-0.632324,0.535156,0
53480,0.40918,-0.644043,0.532715,0
53500,0.40332,-0.645996,0.50293,0
53520,0.421387,-0.651855,0.495605,0
53540,0.384766,-0.65625,0.487305,0
53560,0.37793,-0.671875,0.460449,0
53580,0.413574,-0.705566,0.436523,0
53600,0.41748,-0.730469,0.43457,0
53620,0.398926,-0.754883,0.405273,0
53640,0.419922,-0.765625,0.381836,0
53660,0.429688,-0.757812,0.364746,0
53680,0.394531,-0.766602,0.337402,0
53700,0.375977,-0.776855,0.317383,0
53720,0.398438,-0.796387,0.310547,0
53740,0.39502,-0.806641,0.301758,0
53760,0.379395,-0.811523,0.273438,0
53780,0.399902,-0.814941,0.243652,0
53790,0.425781,-0.82373,0.235352,0
53810,0.409668,-0.821777,0.213379,0
53830,0.380859,-0.823242,0.192871,0
53850,0.37793,-0.834961,0.158691,0
53870,0.379883,-0.844727,0.124023,0
53890,0.365723,-0.848633,0.101562,0
53910,0.368652,-0.848633,0.090332,0
53930,0.400879,-0.863281,0.0771484,0
53950,0.444336,-0.872559,0.0649414,0
53970,0.450195,-0.863281,0.050293,0
53990,0.460449,-0.853516,0.0351562,0
54010,0.506836,-0.871582,0.0302734,0
54030,0.527344,-0.866211,-0.000976562,0
54050,0.537109,-0.863281,-0.00585938,0
54070,0.550293,-0.849609,0.00195312,0
54090,0.556641,-0.839844,-0.0136719,0
54110,0.553711,-0.834473,-0.0478516,0
54130,0.546875,-0.8125,-0.0449219,0
54150,0.569336,-0.78125,-0.0429688,0
54170,0.608887,-0.766113,-0.0561523,0
54190,0.646484,-0.727539,-0.0810547,0
54210,0.643555,-0.712891,-0.0751953,0
54230,0.647461,-0.686035,-0.0615234,0
54250,0.67041,-0.67627,-0.0708008,0
54270,0.672852,-0.665527,-0.0766602,0
54290,0.66748,-0.644043,-0.0825195,0
54310,0.682129,-0.638184,-0.0761719,0
54330,0.693359,-0.625488,-0.0625,0
54350,0.69043,-0.603516,-0.0610352,0
54370,0.684082,-0.572754,-0.0600586,0
54390,0.728027,-0.54541,-0.0698242,0
54410,0.782227,-0.552246,-0.0766602,0
54430,0.796387,-0.537109,-0.0483398,0
54450,0.828125,-0.51709,-0.0537109,0
54470,0.861816,-0.509277,-0.0395508,0
54490,0.908203,-0.492188,-0.0249023,1001
54510,0.917969,-0.476562,-0.03125,0
54530,0.919434,-0.453613,-0.0415039,0
54550,0.92627,-0.445312,-0.046875,0
54570,0.92627,-0.432617,-0.0410156,0
54590,0.9375,-0.421387,-0.0419922,0
54610,0.93457,-0.412109,-0.0444336,0
54630,0.902832,-0.413574,-0.0366211,0
54650,0.866211,-0.414551,-0.0405273,0
54670,0.850586,-0.425293,-0.0424805,0
54690,0.818359,-0.463379,-0.0698242,0
54710,0.787109,-0.474609,-0.0512695,0
54730,0.753906,-0.496582,-0.0341797,0
54750,0.722656,-0.489746,-0.0371094,0
54770,0.702148,-0.484863,-0.0351562,0
54790,0.704102,-0.487793,-0.0327148,0
54810,0.681152,-0.51123,-0.019043,0
54830,0.676758,-0.523438,-0.00439453,0
54850,0.668457,-0.526367,-0.00292969,0
54870,0.69043,-0.530762,0.00341797,0
54890,0.712402,-0.528809,0.050293,0
54910,0.68457,-0.541992,0.0581055,0
54930,0.662109,-0.525391,0.0224609,0
54950,0.679199,-0.532715,0.00927734,0
54970,0.725586,-0.575195,0.0610352,0
54990,0.731445,-0.598145,0.101074,0
55010,0.739258,-0.575195,0.0761719,0
55030,0.794434,-0.562012,0.0307617,0
55050,0.837402,-0.619141,0.0869141,0
55070,0.764648,-0.637207,0.165039,0
55090,0.772949,-0.625,0.130859,0
55110,0.820801,-0.643555,0.0966797,0
55130,0.806152,-0.667969,0.160156,0
55150,0.772461,-0.661133,0.229004,0
55170,0.791992,-0.638672,0.17334,0
55190,0.823242,-0.649414,0.154297,0
55210,0.813965,-0.675293,0.222656,0
55230,0.761719,-0.663574,0.248047,0
55250,0.768066,-0.628418,0.177734,0
55270,0.766602,-0.628418,0.183594,0
55290,0.73877,-0.669922,0.23877,0
55310,0.716797,-0.699219,0.23877,0
55330,0.720215,-0.687012,0.225586,0
55350,0.710938,-0.697266,0.236328,0
55370,0.699219,-0.694824,0.229004,0
55390,0.689453,-0.718262,0.21582,0
55410,0.661621,-0.741211,0.228516,0
55430,0.616699,-0.776855,0.247559,0
55450,0.581055,-0.826172,0.258301,0
55470,0.5625,-0.853516,0.235352,0
55490,0.518555,-0.862305,0.265137,0
55510,0.444336,-0.871094,0.290527,0
55530,0.411133,-0.862305,0.291504,0
55550,0.330078,-0.87793,0.299805,0
55570,0.283691,-0.896484,0.298828,0
55590,0.259277,-0.909668,0.306641,0
55610,0.218262,-0.921875,0.293457,0
55630,0.178223,-0.915527,0.276855,0
55650,0.141602,-0.917969,0.287109,0
55670,0.103516,-0.916504,0.279785,0
55690,0.0874023,-0.940918,0.265137,0
55710,0.0791016,-0.925781,0.267578,0
55730,0.0820312,-0.908691,0.273438,0
55750,0.0947266,-0.938965,0.27832,0
55770,0.138184,-0.970215,0.256348,0
55790,0.158691,-0.966797,0.234863,0
55810,0.150391,-0.942871,0.241211,0
55830,0.13623,-0.946777,0.244629,1000
55850,0.147949,-0.956055,0.255859,0
55870,0.15332,-0.945312,0.257324,0
55890,0.154297,-0.935547,0.243164,0
55920,0.131836,-0.946777,0.280273,0
55940,0.135742,-0.965332,0.264648,0
55960,0.14209,-0.958496,0.274414,0
56000,0.144531,-0.942871,0.290527,0
56020,0.144531,-0.945801,0.293457,0
56040,0.140137,-0.914551,0.307617,0
56060,0.125977,-0.912109,0.298828,0
56090,0.185059,-0.95166,0.322266,0
56110,0.196289,-0.938965,0.288086,0
56130,0.195801,-0.939453,0.287109,0
56150,0.174316,-0.936035,0.273926,0
56170,0.145996,-0.930664,0.271484,0
56190,0.129395,-0.931641,0.269531,0
56210,0.112305,-0.93457,0.273926,0
56230,0.0917969,-0.95459,0.287598,0
56250,0.0742188,-0.927734,0.268066,0
56270,0.0761719,-0.914062,0.239746,0
56290,0.0869141,-0.90332,0.247559,0
56310,0.090332,-0.909668,0.250488,0
56330,0.10498,-0.924805,0.216309,0
56350,0.125,-0.936035,0.203613,0
56370,0.131348,-0.943848,0.202148,0
56390,0.151367,-0.938965,0.206055,0
56410,0.163086,-0.937988,0.210449,0
56430,0.174805,-0.953125,0.19873,0
56450,0.219238,-0.940918,0.176758,0
56470,0.245605,-0.938965,0.199219,0
56490,0.217773,-0.923828,0.19043,0
56510,0.219238,-0.915527,0.199707,0
56530,0.237793,-0.905762,0.212402,0
56550,0.242188,-0.916504,0.202637,0
56570,0.274414,-0.919434,0.210938,0
56590,0.249512,-0.902832,0.193848,0
56610,0.276855,-0.89502,0.176758,0
56630,0.29834,-0.887207,0.199707,0
56650,0.286133,-0.877441,0.207031,0
56670,0.260254,-0.850098,0.206055,0
56690,0.289551,-0.858887,0.191406,0
56710,0.310547,-0.872559,0.184082,0
56730,0.343262,-0.890137,0.210938,0
56750,0.35498,-0.859863,0.212402,0
56770,0.359375,-0.844727,0.203125,0
56790,0.39209,-0.845215,0.218262,0
56820,0.467773,-0.852539,0.21875,0
56850,0.510742,-0.816895,0.219727,0
56880,0.590332,-0.813477,0.219238,0
56900,0.621582,-0.788574,0.228516,0
56920,0.633301,-0.779785,0.243164,0
56940,0.639648,-0.771973,0.259277,0
56960,0.643555,-0.741211,0.26709,0
56970,0.651855,-0.708496,0.276367,0
56990,0.677734,-0.697266,0.284668,0
57010,0.750977,-0.68457,0.299316,0
57030,0.666504,-0.706543,0.344238,0
57050,0.589844,-0.669434,0.367676,0
57060,0.592285,-0.633789,0.388672,0
57080,0.637207,-0.63623,0.418945,0
57100,0.581543,-0.660156,0.426758,0
57120,0.541992,-0.676758,0.452637,0
57130,0.5,-0.680176,0.504395,0
57150,0.498535,-0.686523,0.529785,0
57170,0.572754,-0.672852,0.575195,0
57190,0.515137,-0.68457,0.561035,0
57210,0.416992,-0.653809,0.553711,0
57230,0.431641,-0.609863,0.612793,0
57250,0.471191,-0.648438,0.652832,0
57270,0.465332,-0.675293,0.608398,0
57290,0.402344,-0.641602,0.604492,0
57310,0.370605,-0.61377,0.61084,0
57330,0.370605,-0.601074,0.657227,0
57350,0.354004,-0.625977,0.665527,0
57370,0.315918,-0.62207,0.615723,0
57390,0.30127,-0.620605,0.654297,0
57410,0.282227,-0.662109,0.692383,0
57430,0.262695,-0.639648,0.661133,0
57450,0.250977,-0.643555,0.621094,0
57470,0.234863,-0.632324,0.652832,0
57490,0.175781,-0.629883,0.669434,0
57510,0.123047,-0.648438,0.638672,0
57530,0.125488,-0.667969,0.594238,0
57550,0.162109,-0.698242,0.568359,0
57570,0.17627,-0.708496,0.611328,0
57590,0.115723,-0.720703,0.587402,0
57610,0.0917969,-0.719727,0.538086,0
57630,0.132324,-0.755859,0.534668,0
57650,0.131836,-0.771484,0.543457,0
57670,0.0898438,-0.772461,0.483398,0
57690,0.0844727,-0.771973,0.439453,0
57710,0.122559,-0.803711,0.462402,0
57730,0.105957,-0.797852,0.464355,0
57750,0.0917969,-0.797363,0.39502,0
57770,0.104004,-0.828613,0.36377,0
57790,0.106445,-0.868652,0.37207,0
57810,0.0800781,-0.894531,0.323242,0
57830,0.0722656,-0.875977,0.269531,0
57850,0.111816,-0.883789,0.249023,0
57870,0.130371,-0.894043,0.258301,0
57890,0.131348,-0.893066,0.237305,0
57910,0.13916,-0.865234,0.224609,0
57930,0.15332,-0.86377,0.23584,0
57950,0.179199,-0.895508,0.249023,0
57970,0.216309,-0.896973,0.195801,0
57990,0.254883,-0.880371,0.186523,0
58010,0.303711,-0.886719,0.197266,0
58030,0.308594,-0.912598,0.174805,0
58050,0.339355,-0.89209,0.132812,0
58070,0.353027,-0.896973,0.140625,0
58090,0.37207,-0.911133,0.155762,0
58110,0.388672,-0.921387,0.179199,0
58130,0.42041,-0.910645,0.157227,0
58150,0.419922,-0.887695,0.168457,0
58170,0.482422,-0.849609,0.223145,0
58190,0.493164,-0.828613,0.208496,0
58210,0.522461,-0.773438,0.20166,0
58230,0.544922,-0.750977,0.18457,0
58250,0.557129,-0.754883,0.187988,0
58270,0.620117,-0.762207,0.20459,0
58290,0.647461,-0.748535,0.220703,0
58310,0.662109,-0.714355,0.220215,0
58330,0.693359,-0.677734,0.214355,0
58350,0.724121,-0.645508,0.241211,0
58370,0.731934,-0.62207,0.257812,0
58390,0.731934,-0.586426,0.25293,0
58410,0.773438,-0.561523,0.248047,0
58430,0.816406,-0.547363,0.269531,0
58450,0.819824,-0.538086,0.299805,0
58470,0.819336,-0.520508,0.296875,0
58490,0.809082,-0.503418,0.297852,0
58510,0.833496,-0.469238,0.313965,0
58530,0.867676,-0.473633,0.344238,0
58550,0.893555,-0.458008,0.361816,0
58570,0.863281,-0.456543,0.399414,0
58590,0.810547,-0.456055,0.432129,0
58610,0.802734,-0.464355,0.43457,0
58630,0.827637,-0.440918,0.447266,0
58650,0.793945,-0.457031,0.477539,0
58670,0.723145,-0.461914,0.505371,0
58690,0.728516,-0.451172,0.51123,0
58710,0.715332,-0.429688,0.508789,0
58730,0.664551,-0.428711,0.525879,0
58750,0.654785,-0.399902,0.577148,0
58770,0.64502,-0.405762,0.558594,0
58790,0.621094,-0.413574,0.556152,0
58810,0.614746,-0.421387,0.652344,0
58830,0.566406,-0.457031,0.646484,0
58850,0.513672,-0.445312,0.594238,0
58870,0.462891,-0.479004,0.645508,0
58890,0.413086,-0.488281,0.667969,0
58910,0.414551,-0.528809,0.62793,0
58930,0.415527,-0.562988,0.602051,0
58950,0.387695,-0.558594,0.617676,0
58970,0.353516,-0.59375,0.615234,0
58990,0.371582,-0.607422,0.580078,0
59010,0.378418,-0.615234,0.573242,0
59030,0.346191,-0.631836,0.57666,0
59050,0.338379,-0.672852,0.544434,0
59070,0.325684,-0.699707,0.536621,0
59090,0.302734,-0.70166,0.524414,0
59100,0.316895,-0.694336,0.534668,0
59120,0.310547,-0.702148,0.496582,0
59140,0.268066,-0.738281,0.445312,0
59160,0.244629,-0.771484,0.435059,0
59180,0.229004,-0.793945,0.417969,0
59200,0.199219,-0.806152,0.377441,0
59220,0.153809,-0.777344,0.331055,0
59240,0.129883,-0.816406,0.29541,0
59260,0.137695,-0.842285,0.268555,0
59280,0.142578,-0.82666,0.246094,0
59300,0.18457,-0.815918,0.229004,0
59320,0.220703,-0.860352,0.221191,0
59340,0.241211,-0.891602,0.205566,0
59360,0.234863,-0.930176,0.175781,0
59380,0.260254,-0.949219,0.152832,0
59400,0.306641,-0.967285,0.154785,0
59420,0.33252,-0.928223,0.151855,0
59440,0.301758,-0.866699,0.13623,0
59460,0.286621,-0.844238,0.116699,0
59480,0.342285,-0.885254,0.10498,0
59500,0.446777,-0.882812,0.0986328,0
59520,0.51709,-0.869141,0.0922852,0
59540,0.553711,-0.837891,0.101074,0
59560,0.609375,-0.827148,0.110352,0
59580,0.637207,-0.798828,0.105957,0
59600,0.61084,-0.740723,0.090332,0
59620,0.604004,-0.739258,0.0712891,0
59640,0.677246,-0.783691,0.0458984,0
59660,0.743652,-0.789062,0.0537109,0
59680,0.706543,-0.732422,0.0551758,0
59700,0.697266,-0.681641,0.0385742,0
59720,0.759766,-0.64502,0.0629883,0
59740,0.800293,-0.623047,0.0454102,0
59760,0.756348,-0.594727,0.034668,0
59780,0.744629,-0.561523,0.0390625,0
59800,0.754883,-0.546875,0.0410156,0
59820,0.775391,-0.523438,0.0366211,0
59840,0.810547,-0.494629,0.0234375,0
59860,0.867676,-0.472168,0.0595703,0
59880,0.870605,-0.464355,0.0683594,0
59900,0.838379,-0.439941,0.0771484,0
59920,0.856445,-0.400879,0.119141,0
59940,0.878906,-0.396973,0.137695,0
59960,0.873047,-0.365234,0.143066,0
59980,0.883789,-0.322266,0.157715,0
60000,0.895508,-0.3125,0.184082,0
60020,0.905762,-0.298828,0.199219,0
60040,0.925781,-0.285156,0.210449,0
60060,0.979004,-0.241699,0.262695,0
60080,1.04199,-0.275391,0.305664,0
60100,1.02734,-0.288086,0.318848,0
60120,0.947266,-0.266113,0.325684,0
60140,0.900391,-0.260742,0.358398,0
60160,0.835449,-0.271973,0.402832,0
60180,0.845215,-0.283691,0.446777,0
60200,0.834473,-0.26123,0.456055,0
60220,0.773926,-0.242188,0.475098,0
60240,0.682617,-0.220215,0.558594,0
60260,0.638184,-0.237793,0.599609,0
60280,0.677246,-0.259766,0.601074,0
60300,0.633301,-0.274902,0.645996,0
60320,0.54834,-0.301758,0.66748,0
60340,0.566406,-0.380371,0.666504,0
60360,0.609863,-0.446289,0.659668,0
60380,0.567871,-0.50293,0.648926,0
60400,0.55957,-0.529785,0.618164,0
60420,0.567383,-0.544434,0.583496,0
60440,0.521484,-0.553711,0.58252,0
60460,0.477051,-0.543945,0.569824,0
60480,0.504883,-0.571289,0.541016,0
60500,0.492676,-0.618652,0.505859,0
60520,0.45166,-0.654297,0.506348,0
60540,0.446289,-0.708008,0.501465,0
60560,0.4375,-0.70459,0.481445,0
60580,0.423828,-0.714355,0.437012,0
60600,0.396973,-0.716797,0.397949,0
60620,0.393555,-0.746094,0.401367,0
60640,0.386719,-0.746094,0.378906,0
60660,0.380371,-0.751465,0.345215,0
60680,0.418457,-0.782715,0.324219,0
60700,0.45166,-0.779297,0.312012,0
60720,0.422363,-0.773438,0.303711,0
60740,0.411621,-0.796387,0.260742,0
60760,0.437012,-0.807617,0.209473,0
60780,0.450684,-0.80957,0.199707,0
60800,0.453125,-0.818848,0.189941,0
60820,0.463867,-0.807617,0.15332,0
60840,0.462402,-0.819336,0.13623,0
60860,0.450195,-0.813965,0.12793,0
60880,0.435059,-0.789062,0.116699,0
60900,0.466797,-0.791992,0.100586,0
60920,0.507324,-0.786133,0.0600586,0
60940,0.508301,-0.756836,0.0605469,0
60960,0.503418,-0.751953,0.0698242,0
60980,0.553223,-0.759766,0.0576172,0
61000,0.581543,-0.746582,0.0253906,0
61020,0.590332,-0.730469,0.015625,0
61040,0.626953,-0.708496,0.00927734,0
61060,0.663574,-0.688477,0.00976562,0
61080,0.662598,-0.663574,-0.00292969,0
61100,0.695312,-0.651855,-0.0551758,0
61120,0.787109,-0.657227,-0.0678711,0
61140,0.807617,-0.657227,-0.0546875,0
61160,0.78418,-0.649902,-0.0786133,0
61180,0.776855,-0.624023,-0.0625,0
61200,0.780762,-0.599121,-0.0571289,0
61220,0.781738,-0.589844,-0.074707,0
61240,0.797852,-0.569336,-0.0698242,0
61260,0.787598,-0.524414,-0.0532227,0
61280,0.785156,-0.501465,-0.0664062,0
61300,0.804688,-0.530273,-0.0859375,0
61320,0.782715,-0.513184,-0.0625,0
61340,0.766602,-0.476074,-0.0507812,0
61360,0.790527,-0.46582,-0.0737305,0
61380,0.817383,-0.460938,-0.0561523,0
61400,0.854492,-0.478516,-0.0664062,0
61420,0.878418,-0.489258,-0.0795898,0
61440,0.87793,-0.501953,-0.0668945,0
61460,0.872559,-0.541016,-0.0961914,1001
61480,0.847656,-0.564453,-0.0791016,0
61500,0.799805,-0.536133,-0.0703125,0
61520,0.756348,-0.510254,-0.0795898,0
61540,0.712402,-0.505859,-0.0644531,0
61560,0.65332,-0.513672,-0.0585938,0
61580,0.622559,-0.526855,-0.0678711,0
61600,0.637695,-0.556641,-0.0395508,0
61620,0.643555,-0.55957,-0.0180664,0
61640,0.654785,-0.57666,-0.0292969,0
61660,0.654297,-0.577148,-0.0273438,0
61680,0.657227,-0.594727,0.00195312,0
61700,0.656738,-0.611816,0.0571289,0
61720,0.625488,-0.645996,0.059082,0
61740,0.62207,-0.625,0.0410156,0
61760,0.662598,-0.653809,0.0976562,0
61780,0.636719,-0.682129,0.130371,0
61800,0.597168,-0.692871,0.104492,0
61820,0.642578,-0.724609,0.0927734,0
61840,0.688965,-0.753906,0.135254,0
61860,0.686523,-0.779785,0.175781,0
61880,0.664551,-0.765625,0.186035,0
61900,0.755859,-0.799805,0.147949,0
61920,0.777344,-0.811035,0.254883,0
61940,0.805176,-0.81543,0.313477,0
61960,0.854492,-0.839844,0.27002,0
61980,0.927246,-0.864258,0.208496,0
62000,0.967773,-0.869141,0.192871,0
62020,0.927246,-0.86377,0.190918,0
62040,0.852051,-0.870605,0.164062,0
62060,0.800781,-0.92041,0.155273,0
62080,0.753418,-0.805176,0.232422,0
62100,0.678711,-0.65332,0.259277,0
62120,0.609375,-0.469238,0.253906,0
62140,0.54834,-0.40625,0.214355,0
62160,0.519043,-0.424316,0.191895,0
62180,0.503906,-0.431152,0.152832,0
62200,0.495117,-0.443848,0.112793,0
62220,0.452637,-0.425293,0.131348,0
62240,0.437988,-0.476562,0.0913086,0
62260,0.491211,-0.527344,0.0712891,0
62280,0.543945,-0.634277,0.0737305,0
62300,0.519531,-0.764648,0.0839844,0
62320,0.470215,-0.811035,0.0864258,0
62340,0.50293,-0.872559,0.0571289,0
62360,0.510742,-0.909668,0.0546875,0
62380,0.546875,-0.915039,0.0537109,0
62400,0.501953,-0.933105,0.0688477,0
62420,0.42627,-0.942383,0.0917969,0
62440,0.398438,-0.987305,0.128418,0
62460,0.37793,-1.03613,0.138184,0
62480,0.343262,-1.03857,0.12793,0
62500,0.31543,-1.03125,0.127441,0
62510,0.289551,-0.997559,0.179688,0
62530,0.252441,-0.992188,0.168945,0
62550,0.254395,-1.01221,0.143555,0
62570,0.263184,-1.0249,0.169922,0
62590,0.280273,-1.01953,0.174805,0
62610,0.263184,-0.986328,0.15918,0
62630,0.226074,-0.971191,0.165039,0
62650,0.216309,-0.984375,0.17041,0
62670,0.236328,-0.971191,0.219727,0
62690,0.255859,-0.966309,0.228027,0
62710,0.262207,-0.940918,0.239746,0
62730,0.257324,-0.925293,0.25293,0
62750,0.253906,-0.918945,0.256836,0
62770,0.272461,-0.927734,0.255371,0
62790,0.284668,-0.93457,0.253418,0
62810,0.285156,-0.939453,0.271973,0
62830,0.282715,-0.899902,0.275879,1000
62850,0.273438,-0.896973,0.269043,0
62870,0.256348,-0.895996,0.269531,0
62890,0.239258,-0.897461,0.273926,0
62910,0.226562,-0.911133,0.286621,0
62930,0.227051,-0.925293,0.27832,0
62950,0.236328,-0.926758,0.29248,0
62970,0.238281,-0.91748,0.30957,0
62990,0.237305,-0.892578,0.29541,0
63010,0.239746,-0.894043,0.283203,0
63030,0.233398,-0.899902,0.274902,0
63050,0.222168,-0.903809,0.278809,0
63070,0.211914,-0.90918,0.294922,0
63090,0.195801,-0.905762,0.278809,0
63110,0.200195,-0.909668,0.272949,0
63130,0.182617,-0.889648,0.280273,0
63150,0.178711,-0.895508,0.291992,0
63170,0.200195,-0.895508,0.277832,0
63190,0.203125,-0.919434,0.274902,0
63210,0.201172,-0.92041,0.270508,0
63230,0.208008,-0.915527,0.277832,0
63250,0.199219,-0.92041,0.278809,0
63270,0.195801,-0.915039,0.265137,0
63290,0.216309,-0.904785,0.254395,0
63310,0.211426,-0.896973,0.260742,0
63330,0.223633,-0.908691,0.262695,0
63350,0.226074,-0.907227,0.242676,0
63370,0.213867,-0.890137,0.248047,0
63390,0.230469,-0.908691,0.241699,0
63410,0.23877,-0.90918,0.255371,0
63430,0.23291,-0.916992,0.238281,0
63450,0.253906,-0.938965,0.216797,0
63470,0.281738,-0.940918,0.234375,0
63490,0.24707,-0.918457,0.248535,0
63510,0.269531,-0.916016,0.234375,0
63530,0.299316,-0.913574,0.223145,0
63550,0.290039,-0.88916,0.22998,0
63570,0.291504,-0.88916,0.23291,0
63590,0.303223,-0.890625,0.228027,0
63610,0.301758,-0.88623,0.217773,0
63630,0.296875,-0.875977,0.224121,0
63650,0.28418,-0.859863,0.235352,0
63670,0.306641,-0.839844,0.239258,0
63690,0.32666,-0.836426,0.233398,0
63710,0.317871,-0.833008,0.224121,0
63730,0.328125,-0.821289,0.236328,0
63750,0.341797,-0.820801,0.260742,0
63770,0.366699,-0.808105,0.252441,0
63790,0.383789,-0.806152,0.23584,0
63810,0.395996,-0.787598,0.235352,0
63930,0.637207,-0.665039,0.412109,0
63950,0.641113,-0.648438,0.41748,0
63970,0.678223,-0.628906,0.442383,0
64000,0.643555,-0.621094,0.442871,0
64020,0.608398,-0.613281,0.468262,0
64040,0.604492,-0.613281,0.492676,0
64060,0.612793,-0.593262,0.503418,0
64080,0.619629,-0.573242,0.539551,0
64100,0.612305,-0.558105,0.530273,0
64120,0.572754,-0.533203,0.520508,0
64140,0.598633,-0.541016,0.5625,0
64160,0.540039,-0.558594,0.581543,0
64180,0.494141,-0.533691,0.595215,0
64200,0.532227,-0.538086,0.605469,0
64220,0.543457,-0.566406,0.616211,0
64240,0.522461,-0.552246,0.63916,0
64260,0.459473,-0.527832,0.661133,0
64280,0.430176,-0.537598,0.700195,0
64290,0.419434,-0.557129,0.700684,0
64310,0.422852,-0.547852,0.656738,0
64330,0.433105,-0.53125,0.668945,0
64350,0.378906,-0.522949,0.691406,0
64370,0.34375,-0.518555,0.663086,0
64390,0.361328,-0.53125,0.650391,0
64410,0.363281,-0.532715,0.662598,0
64430,0.333984,-0.536133,0.671875,0
64450,0.304688,-0.551758,0.627441,0
64470,0.324219,-0.560059,0.619629,0
64490,0.319336,-0.552246,0.637695,0
64510,0.28125,-0.560547,0.608887,0
64530,0.295898,-0.576172,0.60791,0
64550,0.30127,-0.596191,0.620117,0
64570,0.267578,-0.614746,0.592285,0
64590,0.246582,-0.633789,0.605957,0
64610,0.252441,-0.652832,0.609863,0
64630,0.273438,-0.665039,0.581055,0
64650,0.251465,-0.676758,0.554688,0
64670,0.243164,-0.684082,0.553223,0
64690,0.23877,-0.699707,0.544434,0
64710,0.224609,-0.701172,0.522949,0
64730,0.24707,-0.725586,0.530273,0
64750,0.279785,-0.729004,0.529785,0
64770,0.285645,-0.742676,0.521484,0
64790,0.264648,-0.750488,0.504883,0
64810,0.255859,-0.758301,0.498047,0
64830,0.270996,-0.774414,0.481445,0
64850,0.265625,-0.789062,0.451172,0
64870,0.273438,-0.791504,0.437988,0
64890,0.315918,-0.816406,0.452148,0
64910,0.319336,-0.807617,0.447754,0
64930,0.278809,-0.801758,0.427734,0
64950,0.251465,-0.800293,0.402832,0
64970,0.269531,-0.802734,0.384277,0
64990,0.293945,-0.820312,0.378418,0
65010,0.27832,-0.817871,0.361328,0
65030,0.272461,-0.804199,0.319336,0
65050,0.294434,-0.808105,0.329102,0
65070,0.30957,-0.816406,0.336426,0
65090,0.311035,-0.826172,0.325195,0
65110,0.324219,-0.837891,0.278809,0
65130,0.397461,-0.844238,0.29834,0
65150,0.427246,-0.86084,0.293945,0
65170,0.40918,-0.837402,0.26123,0
65190,0.383789,-0.82666,0.255859,0
65210,0.392578,-0.818359,0.275879,0
65230,0.44043,-0.839844,0.263672,0
65250,0.463379,-0.818359,0.250977,0
65270,0.447754,-0.793945,0.248047,0
65290,0.447266,-0.76709,0.260254,0
65310,0.515137,-0.770508,0.243164,0
65330,0.573242,-0.777344,0.224609,0
65350,0.537598,-0.75,0.227539,0
65370,0.524414,-0.741211,0.210449,0
65390,0.563477,-0.75293,0.19873,0
65410,0.608398,-0.763184,0.185059,0
65430,0.565918,-0.748047,0.187988,0
65450,0.561523,-0.719727,0.206055,0
65470,0.577637,-0.71875,0.182617,0
65490,0.61084,-0.720215,0.180664,0
65510,0.60498,-0.687012,0.202637,0
65530,0.609863,-0.67334,0.219238,0
65550,0.658691,-0.660645,0.236816,0
65570,0.692383,-0.655762,0.237305,0
65590,0.70752,-0.647949,0.248535,0
65610,0.688965,-0.637207,0.260742,0
65630,0.707031,-0.610352,0.250977,0
65650,0.712891,-0.612305,0.249512,0
65670,0.730957,-0.59375,0.265137,0
65690,0.73877,-0.582031,0.280762,0
65710,0.757324,-0.56543,0.291504,0
65730,0.78125,-0.550781,0.311035,0
65750,0.796387,-0.547363,0.334961,0
65770,0.783691,-0.521484,0.344238,0
65790,0.776855,-0.484375,0.376953,0
65810,0.795898,-0.447754,0.413086,0
65830,0.805176,-0.413574,0.44043,0
65850,0.806641,-0.395508,0.407227,0
65870,0.786621,-0.39502,0.412598,0
65890,0.786621,-0.399902,0.418945,0
65910,0.774902,-0.371094,0.456543,0
65930,0.783691,-0.348633,0.464355,0
65950,0.776855,-0.367676,0.461914,0
65970,0.754883,-0.363281,0.506836,0
65990,0.732422,-0.375977,0.547363,0
66010,0.720215,-0.382812,0.538574,0
66030,0.713379,-0.362305,0.536621,0
66050,0.691406,-0.375977,0.558105,0
66070,0.645996,-0.362305,0.57666,0
66090,0.602051,-0.350098,0.592773,0
66110,0.59082,-0.382324,0.605957,0
66130,0.628906,-0.403809,0.594727,0
66150,0.63916,-0.400879,0.615234,0
66170,0.591309,-0.398926,0.623047,0
66190,0.547852,-0.402344,0.61377,0
66210,0.54834,-0.421387,0.625488,0
66230,0.537109,-0.448242,0.615723,0
66250,0.503418,-0.470703,0.611328,0
66270,0.466309,-0.478516,0.623047,0
66290,0.473633,-0.499023,0.632812,0
66310,0.466309,-0.516113,0.575684,0
66330,0.439453,-0.513184,0.59082,0
