Timestamp, Acceleration x, Acceleration y, Acceleration z, Marker
40,-0.423828,-0.507812,0.709473,0
60,-0.447266,-0.524902,0.691406,0
80,-0.439453,-0.505859,0.682617,0
100,-0.435059,-0.501953,0.678223,0
120,-0.441895,-0.494629,0.689941,0
130,-0.481934,-0.504883,0.672363,0
130,-0.470703,-0.521973,0.669922,0
180,-0.45166,-0.51709,0.658203,0
200,-0.449219,-0.504395,0.677246,0
220,-0.438477,-0.492188,0.695312,0
240,-0.429688,-0.491211,0.693848,0
260,-0.428711,-0.508301,0.6875,0
280,-0.429199,-0.522461,0.69043,0
300,-0.425781,-0.515137,0.688477,0
310,-0.414062,-0.511719,0.680176,0
330,-0.425293,-0.500977,0.693848,0
350,-0.422852,-0.509277,0.674316,0
370,-0.408203,-0.51123,0.675293,0
390,-0.42627,-0.508301,0.685059,0
410,-0.430664,-0.521484,0.689941,0
430,-0.429688,-0.521973,0.686523,0
450,-0.430176,-0.515625,0.680176,0
470,-0.423828,-0.506348,0.696777,0
490,-0.416504,-0.505859,0.710938,0
510,-0.421875,-0.492188,0.70752,0
530,-0.431152,-0.491211,0.695312,0
550,-0.432617,-0.495117,0.699219,0
570,-0.426758,-0.484375,0.697266,0
590,-0.427246,-0.505859,0.696777,0
610,-0.426758,-0.504395,0.70459,0
630,-0.428711,-0.493652,0.693359,0
650,-0.430176,-0.486328,0.699707,0
670,-0.439941,-0.48291,0.709473,0
690,-0.440918,-0.502441,0.703125,0
710,-0.42041,-0.480469,0.712891,0
730,-0.443848,-0.467285,0.711914,0
750,-0.420898,-0.480469,0.709961,0
770,-0.406738,-0.475098,0.717773,0
790,-0.397461,-0.47998,0.718262,0
810,-0.410645,-0.475098,0.731934,0
830,-0.404297,-0.460938,0.718262,0
850,-0.408203,-0.475098,0.726074,0
870,-0.387207,-0.478027,0.734863,0
890,-0.405273,-0.464844,0.73291,0
910,-0.402344,-0.472168,0.725586,0
930,-0.39502,-0.48877,0.720703,0
950,-0.408203,-0.469238,0.724121,0
970,-0.404785,-0.474609,0.720703,0
990,-0.409668,-0.486816,0.720215,0
1010,-0.40332,-0.472168,0.726074,0
1030,-0.414062,-0.469238,0.728027,0
1050,-0.412598,-0.470215,0.722656,0
1070,-0.407227,-0.49707,0.70166,0
1090,-0.397949,-0.490234,0.707031,0
1110,-0.387207,-0.485352,0.729492,0
1130,-0.381836,-0.486816,0.733398,0
1150,-0.378418,-0.430664,0.770508,0
1170,-0.393555,-0.407227,0.747559,0
1190,-0.40332,-0.449707,0.75,0
1210,-0.394531,-0.51123,0.711914,0
1230,-0.391113,-0.493652,0.719727,0
1250,-0.395508,-0.46875,0.712402,0
1270,-0.39209,-0.438965,0.732422,0
1290,-0.40332,-0.436523,0.755371,0
1310,-0.381836,-0.424316,0.799316,0
1330,-0.376953,-0.359375,0.788574,0
1350,-0.375488,-0.364258,0.758301,0
1370,-0.387207,-0.391602,0.765137,0
1390,-0.37207,-0.4375,0.76709,0
1410,-0.376465,-0.43457,0.753906,0
1430,-0.369141,-0.442383,0.759766,0
1450,-0.350098,-0.425781,0.769531,0
1470,-0.358887,-0.417969,0.788574,0
1490,-0.367188,-0.369141,0.787598,0
1510,-0.376465,-0.369141,0.780762,0
1530,-0.37207,-0.403809,0.779785,0
1550,-0.36377,-0.410156,0.773438,0
1570,-0.348633,-0.399902,0.791504,0
1590,-0.34082,-0.40332,0.791016,0
1610,-0.341309,-0.411621,0.785156,0
1630,-0.343262,-0.37793,0.789551,0
1650,-0.354492,-0.359863,0.795898,0
1670,-0.353027,-0.347168,0.79541,0
1690,-0.362793,-0.348145,0.787109,0
1710,-0.371094,-0.333496,0.788574,0
1730,-0.381348,-0.342773,0.79541,0
1750,-0.373535,-0.366699,0.799805,0
1770,-0.36084,-0.381836,0.787598,0
1790,-0.355957,-0.403809,0.785645,0
1810,-0.351074,-0.398926,0.776367,0
1830,-0.358887,-0.399414,0.785156,0
1850,-0.362793,-0.401855,0.780273,0
1870,-0.353027,-0.391602,0.779785,0
1890,-0.352539,-0.405273,0.779785,0
1910,-0.370605,-0.388184,0.782715,0
1930,-0.369141,-0.373535,0.789062,0
1950,-0.354004,-0.371094,0.791992,0
1970,-0.360352,-0.389648,0.790039,0
1990,-0.370605,-0.378906,0.793457,0
2010,-0.370117,-0.386719,0.786621,0
2030,-0.373047,-0.379883,0.777344,0
2050,-0.369629,-0.381348,0.783203,0
2070,-0.361328,-0.40625,0.782227,0
2090,-0.354492,-0.400879,0.788086,0
2110,-0.369141,-0.365723,0.781738,0
2130,-0.362793,-0.341797,0.802246,0
2150,-0.351562,-0.35498,0.808105,0
2170,-0.341797,-0.347168,0.799316,0
2190,-0.356934,-0.344238,0.806152,0
2210,-0.359375,-0.328125,0.805664,0
2230,-0.358887,-0.331543,0.807129,0
2250,-0.361328,-0.333008,0.816895,0
2270,-0.363281,-0.318848,0.814453,0
2290,-0.361816,-0.318359,0.814453,0
2310,-0.363281,-0.312012,0.805664,0
2330,-0.375488,-0.311035,0.806152,0
2350,-0.370605,-0.317383,0.814453,0
2370,-0.365234,-0.329102,0.810059,0
2390,-0.34375,-0.337402,0.800293,0
2410,-0.35791,-0.338867,0.803711,0
2430,-0.361328,-0.32959,0.809082,0
2450,-0.360352,-0.338867,0.811035,0
2470,-0.350098,-0.345703,0.804199,0
2490,-0.351562,-0.356934,0.805176,0
2510,-0.364258,-0.352539,0.798828,0
2530,-0.356445,-0.354004,0.79541,0
2550,-0.355469,-0.353516,0.791504,0
2570,-0.366699,-0.338379,0.796875,0
2590,-0.360352,-0.341797,0.797363,0
2610,-0.365723,-0.339355,0.795898,0
2630,-0.36377,-0.338867,0.802246,0
2650,-0.355469,-0.338867,0.809082,0
2670,-0.362793,-0.342285,0.800293,0
2690,-0.362305,-0.339844,0.801758,0
2710,-0.354004,-0.344238,0.797852,0
2730,-0.356934,-0.344238,0.794434,0
2750,-0.35498,-0.351562,0.811035,0
2770,-0.351074,-0.345703,0.805176,0
2790,-0.352051,-0.361816,0.799316,0
2810,-0.358887,-0.348145,0.812012,0
2830,-0.356445,-0.346191,0.804688,0
2850,-0.342285,-0.364258,0.804199,0
2870,-0.338867,-0.351562,0.803223,0
2890,-0.363281,-0.347168,0.807129,0
2910,-0.35498,-0.350586,0.802246,0
2930,-0.351074,-0.355957,0.792969,0
2950,-0.359863,-0.349121,0.795898,0
2970,-0.365234,-0.345215,0.802246,0
2990,-0.358398,-0.344727,0.792969,0
3010,-0.36377,-0.34668,0.796387,0
3020,-0.364258,-0.327637,0.808105,0
3040,-0.349609,-0.334961,0.806152,0
3060,-0.348145,-0.338867,0.800293,0
3080,-0.358398,-0.34082,0.806641,0
3100,-0.348633,-0.350098,0.806641,0
3120,-0.349609,-0.361816,0.807129,0
3140,-0.353516,-0.359863,0.803223,0
3160,-0.342285,-0.347656,0.796875,0
3180,-0.344238,-0.351074,0.799805,0
3200,-0.347656,-0.353516,0.806641,0
3220,-0.34668,-0.362305,0.800293,0
3240,-0.352539,-0.350586,0.794434,0
3260,-0.35791,-0.359863,0.802246,0
3280,-0.352051,-0.342773,0.811035,0
3300,-0.348633,-0.35498,0.789551,0
3320,-0.342285,-0.349121,0.805664,0
3340,-0.350586,-0.338379,0.808105,0
3360,-0.355957,-0.341309,0.812012,0
3380,-0.34668,-0.355469,0.804688,0
3400,-0.358887,-0.349609,0.803223,0
3420,-0.356445,-0.327148,0.794434,0
3440,-0.354004,-0.344238,0.804199,0
3460,-0.361816,-0.327637,0.812012,0
3480,-0.358887,-0.338379,0.805176,0
3500,-0.336914,-0.342773,0.809082,0
3520,-0.34082,-0.351074,0.8125,0
3540,-0.356934,-0.330566,0.820801,0
3560,-0.34082,-0.333496,0.814941,0
3580,-0.334961,-0.338867,0.803711,0
3600,-0.350586,-0.359375,0.79834,0
3620,-0.365234,-0.351562,0.809082,0
3640,-0.348633,-0.339355,0.793945,0
3660,-0.36084,-0.352051,0.792969,0
3680,-0.360352,-0.325684,0.79541,0
3700,-0.35791,-0.314941,0.8125,0
3720,-0.352051,-0.342285,0.800781,0
3740,-0.342285,-0.356934,0.826172,0
3760,-0.332031,-0.334961,0.842285,0
3780,-0.328613,-0.330078,0.859863,0
3800,-0.328613,-0.32959,0.851074,0
3820,-0.336914,-0.330566,0.82373,0
3840,-0.352539,-0.335449,0.809082,0
3860,-0.375977,-0.327148,0.801758,0
3880,-0.388184,-0.311035,0.791016,0
3900,-0.385742,-0.332031,0.76123,0
3920,-0.402344,-0.338867,0.762695,0
3940,-0.392578,-0.324707,0.786621,0
3960,-0.359863,-0.331543,0.760742,0
3980,-0.39209,-0.337891,0.787109,0
4000,-0.383301,-0.340332,0.810547,0
4020,-0.344727,-0.321289,0.791016,0
4040,-0.362793,-0.293945,0.81543,0
4060,-0.36377,-0.26709,0.844238,0
4080,-0.362793,-0.285645,0.845703,0
4100,-0.347656,-0.306641,0.831543,0
4120,-0.336914,-0.302734,0.82666,0
4140,-0.342285,-0.302246,0.82959,0
4160,-0.355469,-0.314941,0.814941,0
4180,-0.335938,-0.345215,0.813965,0
4200,-0.317871,-0.366211,0.804688,0
4220,-0.338379,-0.356445,0.813477,0
4240,-0.351074,-0.338379,0.80957,0
4260,-0.358398,-0.32959,0.814941,0
4280,-0.347168,-0.314453,0.80127,0
4300,-0.358398,-0.323242,0.790527,0
4320,-0.387695,-0.304688,0.807617,0
4340,-0.394531,-0.290527,0.828125,0
4360,-0.348145,-0.294434,0.829102,0
4380,-0.347656,-0.297363,0.832031,0
4400,-0.331055,-0.314941,0.824707,0
4420,-0.33252,-0.289062,0.830566,0
4440,-0.333008,-0.323242,0.821777,0
4460,-0.333496,-0.367676,0.8125,0
4480,-0.352051,-0.351074,0.784668,0
4500,-0.347656,-0.316895,0.79834,0
4520,-0.358887,-0.324707,0.8125,0
4540,-0.362793,-0.340332,0.808105,0
4560,-0.368164,-0.334473,0.796387,0
4580,-0.359863,-0.319336,0.799805,0
4600,-0.358887,-0.327148,0.825195,0
4620,-0.357422,-0.317871,0.824707,0
4640,-0.35498,-0.309082,0.824219,0
4660,-0.337402,-0.321777,0.812012,0
4680,-0.333008,-0.327637,0.808594,0
4700,-0.356445,-0.324707,0.803711,0
4720,-0.356934,-0.336914,0.804199,0
4740,-0.348145,-0.338867,0.800781,0
4760,-0.349609,-0.328613,0.821289,0
4780,-0.345215,-0.319824,0.831055,0
4800,-0.346191,-0.31543,0.823242,0
4820,-0.346191,-0.318848,0.815918,0
4840,-0.345703,-0.316406,0.816406,0
4860,-0.346191,-0.325195,0.815918,0
4880,-0.342773,-0.322754,0.812012,0
4900,-0.350586,-0.325684,0.814941,0
4920,-0.350098,-0.318848,0.810547,0
4940,-0.350098,-0.319824,0.824707,0
4960,-0.354004,-0.344727,0.802246,0
4980,-0.357422,-0.341797,0.804688,0
4990,-0.348633,-0.32666,0.812012,0
5010,-0.344238,-0.328125,0.810059,0
5030,-0.347168,-0.334473,0.814453,0
5050,-0.336914,-0.325684,0.818359,0
5070,-0.333984,-0.336426,0.816406,0
5090,-0.344238,-0.333496,0.809082,0
5110,-0.346191,-0.341309,0.8125,0
5130,-0.353516,-0.333496,0.807617,0
5150,-0.357422,-0.326172,0.811035,0
5170,-0.364258,-0.314453,0.822266,0
5190,-0.350586,-0.331543,0.816406,0
5210,-0.347656,-0.322266,0.807129,0
5230,-0.335938,-0.323242,0.808594,0
5250,-0.339844,-0.328613,0.812012,0
5270,-0.348633,-0.32959,0.816895,0
5290,-0.347168,-0.328125,0.805176,0
5310,-0.370605,-0.316406,0.814453,0
5330,-0.375977,-0.295898,0.820312,0
5350,-0.362793,-0.299316,0.809082,0
5370,-0.364746,-0.287598,0.814941,0
5390,-0.340332,-0.291016,0.822754,0
5410,-0.356445,-0.329102,0.819336,0
5430,-0.359863,-0.32666,0.830566,0
5450,-0.348633,-0.332031,0.8125,0
5470,-0.350098,-0.310059,0.814941,0
5490,-0.344238,-0.29248,0.831543,0
5510,-0.327148,-0.302246,0.833496,0
5530,-0.32373,-0.313965,0.824707,0
5550,-0.321289,-0.312012,0.820312,0
5570,-0.32373,-0.3125,0.82373,0
5590,-0.332031,-0.3125,0.822754,0
5610,-0.333008,-0.314941,0.826172,0
5630,-0.331055,-0.31543,0.82666,0
5650,-0.331543,-0.308105,0.822754,0
5670,-0.355957,-0.308105,0.829102,0
5690,-0.349121,-0.259766,0.84668,0
5710,-0.350098,-0.29248,0.820801,0
5730,-0.325195,-0.302246,0.828613,0
5750,-0.308594,-0.312012,0.831543,0
5770,-0.310547,-0.323242,0.838379,0
5790,-0.330078,-0.321289,0.845215,0
5810,-0.322266,-0.327148,0.82666,0
5830,-0.324707,-0.327148,0.819336,0
5850,-0.32373,-0.321777,0.810547,0
5870,-0.33252,-0.317871,0.808594,0
5890,-0.342285,-0.325195,0.809082,0
5910,-0.338379,-0.323242,0.80957,0
5930,-0.335938,-0.33252,0.805176,0
5950,-0.328125,-0.328125,0.815918,0
5970,-0.320312,-0.336426,0.825195,0
5990,-0.341797,-0.314453,0.833496,0
6010,-0.321777,-0.348145,0.800781,0
6030,-0.33252,-0.383789,0.805664,0
6050,-0.32666,-0.362305,0.800293,0
6070,-0.338867,-0.372559,0.791992,0
6090,-0.339844,-0.394531,0.798828,0
6110,-0.346191,-0.375977,0.787598,0
6130,-0.354492,-0.367188,0.803223,0
6150,-0.357422,-0.347656,0.822754,0
6170,-0.377441,-0.344727,0.818359,0
6190,-0.412598,-0.393066,0.797852,0
6210,-0.322266,-0.438477,0.833496,0
6230,-0.321777,-0.40918,0.827637,0
6250,-0.321289,-0.432129,0.786133,0
6270,-0.289551,-0.441406,0.747559,0
6290,-0.287598,-0.591797,0.812988,0
6310,-0.30957,-0.905273,0.913086,0
6330,-0.21582,-0.978027,0.831543,0
6350,-0.185547,-0.847656,0.763672,0
6370,-0.182617,-0.709961,0.788086,0
6390,-0.146484,-0.62207,0.779785,0
6410,-0.0830078,-0.65625,0.759277,0
6430,-0.0522461,-0.759766,0.739746,0
6450,-0.0366211,-0.834473,0.715332,0
6470,-0.0170898,-0.832031,0.689453,0
6490,0.0268555,-0.791016,0.711426,0
6510,0.0800781,-0.793457,0.67627,0
6530,0.14502,-0.775879,0.627441,0
6550,0.161621,-0.729004,0.625977,0
6570,0.166504,-0.704102,0.621582,0
6590,0.202148,-0.743652,0.572754,0
6610,0.256348,-0.772461,0.53418,0
6630,0.259766,-0.752441,0.508301,0
6650,0.291016,-0.714355,0.493164,0
6670,0.337402,-0.685547,0.476562,0
6690,0.361816,-0.70166,0.44873,0
6710,0.352539,-0.70752,0.42627,0
6730,0.358398,-0.699707,0.402344,0
6750,0.358887,-0.711426,0.391113,0
6770,0.353516,-0.69873,0.39209,0
6790,0.374023,-0.705078,0.350098,0
6810,0.39502,-0.728516,0.350098,0
6830,0.393066,-0.703125,0.334961,0
6850,0.418945,-0.686035,0.296875,0
6870,0.45752,-0.695801,0.259766,0
6890,0.482422,-0.702148,0.251465,0
6910,0.493164,-0.686523,0.257812,0
6930,0.484375,-0.693848,0.244141,0
6950,0.495117,-0.683594,0.219238,0
6970,0.513672,-0.701172,0.19873,0
6990,0.488281,-0.690918,0.225586,0
7010,0.480957,-0.675781,0.224609,0
7030,0.47998,-0.671875,0.219238,0
7050,0.501465,-0.677246,0.194336,0
7070,0.540527,-0.692871,0.147461,0
7090,0.538086,-0.742676,0.134277,0
7110,0.557617,-0.758301,0.140625,0
7130,0.551758,-0.73877,0.152832,0
7150,0.589355,-0.760254,0.148438,0
7170,0.67334,-0.79541,0.108887,0
7190,0.681641,-0.802734,0.102539,0
7210,0.683105,-0.802246,0.102051,0
7230,0.710449,-0.841797,0.117188,0
7250,0.713867,-0.85791,0.148926,0
7270,0.711914,-0.899414,0.108887,0
7290,0.841797,-0.942871,0.09375,0
7310,0.847656,-0.99707,0.195312,0
7330,0.745605,-0.924316,0.241211,0
7350,0.569824,-0.819824,0.262695,0
7370,0.528809,-0.748535,0.202637,0
7390,0.475586,-0.733398,0.148438,0
7410,0.39209,-0.80127,0.109863,0
7430,0.29248,-0.751953,0.0498047,0
7450,0.19043,-0.668457,-0.027832,0
7470,0.148438,-0.70459,-0.0922852,0
7490,0.130859,-0.79541,-0.120117,0
7510,0.0844727,-0.817383,-0.147949,0
7530,0.0947266,-0.871094,-0.142578,0
7550,0.12207,-0.932129,-0.166016,0
7570,0.175781,-0.935547,-0.196777,0
7590,0.211426,-0.918457,-0.165039,0
7610,0.23291,-0.919434,-0.138672,0
7630,0.260254,-0.943359,-0.12793,0
7650,0.262207,-0.999512,-0.109375,0
7670,0.265625,-1.01025,-0.124023,0
7690,0.268555,-0.95459,-0.12793,0
7710,0.275391,-0.960938,-0.123535,0
7730,0.262207,-0.952148,-0.120605,0
7750,0.256348,-0.94873,-0.13623,0
7770,0.26123,-0.959473,-0.138184,0
7790,0.269043,-0.983398,-0.129883,0
7810,0.269043,-0.944824,-0.0976562,0
7830,0.271484,-0.942383,-0.111328,0
7850,0.28125,-0.970703,-0.107422,0
7870,0.27002,-0.951172,-0.0996094,0
7890,0.279785,-0.902344,-0.100586,0
7910,0.292969,-0.932129,-0.0952148,0
7930,0.286621,-0.976562,-0.117676,0
7950,0.286621,-0.969727,-0.131836,0
7970,0.270508,-0.945801,-0.116211,0
7990,0.291016,-0.921387,-0.132812,0
8010,0.285645,-0.938965,-0.130371,0
8030,0.293457,-0.939941,-0.133789,0
8050,0.293945,-0.942871,-0.129883,0
8070,0.300293,-0.95166,-0.139648,0
8090,0.302734,-0.950684,-0.140137,0
8110,0.297852,-0.949707,-0.15918,0
8130,0.304199,-0.952637,-0.155762,0
8150,0.308594,-0.945312,-0.148438,0
8170,0.313965,-0.943848,-0.143555,0
8190,0.306152,-0.949219,-0.156738,0
8210,0.299805,-0.94873,-0.174805,0
8230,0.310547,-0.953125,-0.174316,0
8250,0.313477,-0.966797,-0.172852,0
8270,0.304199,-0.967285,-0.171387,0
8290,0.320312,-0.958008,-0.179199,0
8310,0.320312,-0.96582,-0.185059,0
8330,0.309082,-0.983887,-0.187012,0
8350,0.319824,-0.974609,-0.177246,0
8370,0.319336,-0.969238,-0.177734,0
8390,0.319336,-0.969727,-0.182617,0
8400,0.3125,-0.960938,-0.179688,0
8420,0.304199,-0.945801,-0.179199,0
8440,0.309082,-0.949707,-0.179199,0
8460,0.317383,-0.956543,-0.178223,0
8480,0.309082,-0.958984,-0.17627,0
8500,0.289551,-0.927246,-0.161133,0
8520,0.29541,-0.950195,-0.159668,0
8540,0.322754,-0.957031,-0.148926,0
8560,0.304199,-0.931641,-0.15332,0
8580,0.305664,-0.92334,-0.161621,0
8600,0.315918,-0.960449,-0.154785,0
8620,0.299316,-0.953125,-0.154785,0
8640,0.290527,-0.943848,-0.158691,0
8660,0.294434,-0.958496,-0.144043,0
8680,0.311523,-0.959961,-0.151367,0
8700,0.314453,-0.958984,-0.149902,0
8720,0.321777,-0.945801,-0.146973,0
8740,0.30957,-0.95166,-0.141602,0
8760,0.305176,-0.965332,-0.159668,0
8780,0.309082,-0.975098,-0.163574,0
8800,0.305664,-0.960449,-0.150391,0
8820,0.311035,-0.949219,-0.150391,0
8840,0.322266,-0.958008,-0.159668,0
8860,0.309082,-0.967773,-0.158691,0
8880,0.312988,-0.963379,-0.156738,0
8900,0.306641,-0.949219,-0.16748,0
8920,0.293945,-0.942383,-0.166992,0
8940,0.304199,-0.947754,-0.161133,0
8960,0.309082,-0.946289,-0.15332,0
8980,0.311035,-0.933105,-0.155762,0
9000,0.304688,-0.941406,-0.169434,0
9020,0.314453,-0.947754,-0.172852,0
9040,0.310547,-0.935547,-0.174316,0
9060,0.30957,-0.920898,-0.163574,0
9080,0.298828,-0.922852,-0.167969,0
9100,0.312988,-0.932617,-0.180664,0
9120,0.308105,-0.941406,-0.164551,0
9140,0.310547,-0.92627,-0.180176,0
9160,0.321777,-0.931152,-0.176758,0
9180,0.321777,-0.924805,-0.178711,0
9200,0.323242,-0.94043,-0.17627,0
9220,0.317383,-0.936035,-0.177734,0
9240,0.316406,-0.935547,-0.178711,0
9260,0.318359,-0.939941,-0.17627,0
9280,0.312012,-0.928223,-0.172363,0
9300,0.306152,-0.928223,-0.171387,0
9320,0.308594,-0.939453,-0.185547,0
9340,0.302246,-0.958496,-0.185547,0
9360,0.313965,-0.918457,-0.17627,0
9380,0.266113,-0.86084,-0.19043,0
9400,0.204102,-0.800781,-0.20166,0
9420,0.137695,-0.766602,-0.17041,0
9440,0.0654297,-0.630859,-0.124023,0
9460,0.108887,-0.657715,-0.0668945,0
9480,0.142578,-0.803223,0.0454102,0
9500,0.15625,-0.865234,0.0952148,0
9520,0.215332,-0.755859,0.0883789,0
9540,0.181641,-0.698242,0.13916,0
9560,0.23291,-0.811523,0.190918,0
9580,0.314453,-0.811035,0.20752,0
9600,0.251953,-0.779297,0.243652,0
9620,0.257324,-0.831055,0.344238,0
9640,0.40332,-0.845215,0.270996,0
9660,0.496094,-0.805664,0.305176,0
9680,0.443848,-0.841797,0.386719,0
9700,0.516113,-0.910645,0.396484,0
9720,0.641113,-0.933594,0.36084,0
9740,0.629883,-0.916992,0.412598,0
9760,0.597656,-0.891113,0.392578,0
9780,0.63916,-0.894043,0.296387,0
9800,0.681152,-0.945312,0.32959,0
9820,0.649414,-0.883301,0.425781,0
9840,0.594727,-0.835449,0.399414,0
9860,0.615234,-0.837891,0.319824,0
9880,0.623535,-0.81543,0.390137,0
9900,0.585938,-0.759766,0.482422,0
9920,0.583984,-0.749023,0.433594,0
9940,0.601562,-0.768066,0.376953,0
9960,0.59082,-0.716797,0.366699,0
9980,0.59375,-0.708984,0.409668,0
10000,0.594238,-0.708496,0.443848,0
10020,0.588867,-0.686035,0.390137,0
10040,0.589844,-0.664062,0.377441,0
10060,0.585938,-0.642578,0.394531,0
10080,0.567871,-0.646973,0.404785,0
10100,0.530762,-0.604492,0.414551,0
10120,0.524902,-0.584961,0.438965,0
10140,0.516113,-0.568359,0.447266,0
10160,0.504395,-0.560059,0.446777,0
10180,0.491699,-0.587891,0.441895,0
10200,0.513184,-0.572754,0.458496,0
10220,0.513672,-0.606934,0.455566,0
10240,0.511719,-0.595215,0.462402,0
10260,0.494141,-0.585938,0.465332,0
10280,0.535645,-0.65332,0.51416,0
10300,0.551758,-0.67041,0.479492,0
10320,0.533691,-0.640137,0.480957,0
10340,0.547363,-0.643066,0.470215,0
10360,0.586914,-0.682129,0.467285,0
10370,0.609375,-0.687988,0.460938,0
10390,0.621094,-0.694824,0.42627,0
10410,0.615723,-0.728027,0.413574,0
10430,0.475098,-0.680176,0.445312,0
10450,0.321777,-0.632324,0.46582,0
10470,0.347168,-0.698242,0.48877,0
10490,0.375,-0.70166,0.521484,0
10510,0.334961,-0.608398,0.516602,0
10530,0.330078,-0.571777,0.508789,0
10550,0.361328,-0.594727,0.547852,0
10570,0.361328,-0.634766,0.560059,0
10590,0.349609,-0.660645,0.559082,0
10610,0.367676,-0.652832,0.577148,0
10630,0.378906,-0.645996,0.588379,0
10650,0.369141,-0.629883,0.574707,0
10670,0.354004,-0.663574,0.575195,0
10690,0.374023,-0.6875,0.579102,0
10710,0.358398,-0.688477,0.577148,0
10730,0.358398,-0.669922,0.594238,0
10750,0.364258,-0.683105,0.583008,0
10770,0.34082,-0.683105,0.576172,0
10790,0.336914,-0.685547,0.587891,0
10810,0.348633,-0.690918,0.585938,0
10830,0.342285,-0.681152,0.57373,0
10850,0.32373,-0.680176,0.570312,0
10870,0.334473,-0.685547,0.572266,0
10890,0.34375,-0.6875,0.569336,0
10910,0.334473,-0.69043,0.573242,0
10930,0.331543,-0.686523,0.575684,0
10950,0.340332,-0.67627,0.561523,0
10970,0.338867,-0.674316,0.567871,0
10990,0.323242,-0.687988,0.559082,0
11010,0.319336,-0.692871,0.570801,0
11030,0.317383,-0.688477,0.565918,0
11050,0.320312,-0.689941,0.558594,0
11070,0.327148,-0.686523,0.55957,0
11090,0.328613,-0.693848,0.545898,0
11110,0.331543,-0.687012,0.544922,0
11130,0.33252,-0.696289,0.544434,0
11150,0.325684,-0.707031,0.551758,0
11170,0.326172,-0.685547,0.533203,0
11190,0.335449,-0.683105,0.541016,0
11210,0.337402,-0.692871,0.52832,0
11230,0.335449,-0.693848,0.543945,0
11250,0.329102,-0.700195,0.547852,0
11270,0.326172,-0.688477,0.530762,0
11290,0.342285,-0.691406,0.530762,0
11310,0.345215,-0.680664,0.541016,0
11330,0.329102,-0.671875,0.541504,0
11350,0.316895,-0.683594,0.532227,0
11370,0.325684,-0.695312,0.529297,0
11390,0.329102,-0.683594,0.53418,0
11410,0.317871,-0.674805,0.538086,0
11430,0.297363,-0.666504,0.534668,0
11450,0.258301,-0.64209,0.535156,0
11470,0.211914,-0.625488,0.543945,0
11490,0.151367,-0.622559,0.54541,0
11510,0.12793,-0.585449,0.553711,0
11530,0.155762,-0.553711,0.502441,0
11550,0.229492,-0.544434,0.479004,0
11570,0.239746,-0.544922,0.46582,0
11590,0.178223,-0.572266,0.507324,0
11610,0.0898438,-0.586914,0.486328,0
11630,0.097168,-0.630859,0.492188,0
11650,0.121094,-0.687988,0.610352,0
11670,0.0302734,-0.672363,0.682129,0
11690,-0.107422,-0.629395,0.682617,0
11710,-0.119141,-0.658691,0.697266,0
11730,-0.0537109,-0.670898,0.755859,0
11750,-0.0366211,-0.649902,0.809082,0
11770,-0.108398,-0.621094,0.791016,0
11790,-0.0986328,-0.654785,0.793945,0
11810,-0.0678711,-0.651855,0.755859,0
11830,-0.09375,-0.642578,0.749023,0
11850,-0.173828,-0.648438,0.772461,0
11870,-0.25,-0.662598,0.772949,0
11890,-0.287109,-0.670898,0.76709,0
11910,-0.359375,-0.724609,0.712402,0
11930,-0.489746,-0.863281,1.17236,0
11950,-0.322754,-1.06982,1.0498,0
11970,-0.130859,-0.59082,0.741211,0
11990,-0.361328,-0.545898,0.716309,0
12010,-0.348633,-0.563477,0.625,0
12030,-0.341797,-0.499512,0.585938,0
12050,-0.338867,-0.52002,0.524902,0
12070,-0.373535,-0.464844,0.568359,0
12090,-0.416504,-0.425781,0.629883,0
12110,-0.458984,-0.481445,0.723145,0
12130,-0.440918,-0.504395,0.808594,0
12150,-0.427246,-0.611328,0.739746,0
12170,-0.454102,-0.662109,0.687012,0
12190,-0.45459,-0.620605,0.649414,0
12210,-0.443848,-0.558105,0.609375,0
12230,-0.4375,-0.506348,0.60791,0
12250,-0.453613,-0.483398,0.621582,0
12270,-0.477051,-0.534668,0.682129,0
12290,-0.456543,-0.567383,0.709961,0
12310,-0.414551,-0.593262,0.686035,0
12330,-0.409668,-0.618164,0.681641,0
12350,-0.407715,-0.585449,0.657715,0
12370,-0.400879,-0.594238,0.642578,0
12390,-0.364258,-0.597656,0.619629,0
12410,-0.371582,-0.595215,0.632812,0
12430,-0.397949,-0.587891,0.637207,0
12450,-0.417969,-0.57959,0.640625,0
12470,-0.430176,-0.571777,0.664551,0
12490,-0.433594,-0.548828,0.668945,0
12510,-0.428223,-0.54834,0.652832,0
12530,-0.417969,-0.567871,0.633789,0
12550,-0.428711,-0.57666,0.634277,0
12570,-0.429688,-0.56543,0.666504,0
12590,-0.42334,-0.529297,0.684082,0
12610,-0.421875,-0.537109,0.669434,0
12630,-0.411621,-0.520508,0.690918,0
12650,-0.41748,-0.482422,0.704102,0
12670,-0.401855,-0.424805,0.719238,0
12690,-0.399414,-0.418945,0.729004,0
12710,-0.389648,-0.463379,0.736816,0
12730,-0.383789,-0.473633,0.74707,0
12750,-0.396973,-0.508789,0.755371,0
12770,-0.37793,-0.523438,0.760254,0
12790,-0.380859,-0.555664,0.726562,0
12810,-0.410156,-0.486328,0.699707,0
12830,-0.427734,-0.440918,0.684082,0
12850,-0.418945,-0.452148,0.680664,0
12870,-0.417969,-0.463867,0.681641,0
12890,-0.440918,-0.482422,0.706055,0
12910,-0.432129,-0.49707,0.711426,0
12930,-0.414062,-0.493164,0.713867,0
12950,-0.398438,-0.475586,0.708496,0
12970,-0.397461,-0.488281,0.71875,0
12990,-0.404297,-0.466309,0.736328,0
13010,-0.403809,-0.462402,0.731445,0
13030,-0.399414,-0.449219,0.723633,0
13050,-0.408691,-0.447266,0.71582,0
13070,-0.415527,-0.430176,0.73291,0
13090,-0.422363,-0.437012,0.731445,0
13110,-0.42334,-0.432617,0.716309,0
13120,-0.427246,-0.418945,0.726074,0
13140,-0.436035,-0.424805,0.72998,0
13160,-0.452148,-0.427246,0.734375,0
13180,-0.454102,-0.431641,0.735352,0
13200,-0.464355,-0.438965,0.727539,0
13220,-0.460449,-0.438965,0.746582,0
13240,-0.458008,-0.438477,0.754395,0
13260,-0.444824,-0.441895,0.751953,0
13280,-0.435059,-0.425781,0.732422,0
13300,-0.431152,-0.434082,0.746582,0
13320,-0.446777,-0.427734,0.756348,0
13340,-0.437012,-0.438965,0.726074,0
13360,-0.44043,-0.446289,0.700195,0
13380,-0.439941,-0.446777,0.708496,0
13400,-0.446777,-0.450195,0.714355,0
13420,-0.439453,-0.45166,0.708984,0
13440,-0.440918,-0.455566,0.709961,0
13460,-0.4375,-0.463867,0.721191,0
13480,-0.43457,-0.474609,0.720215,0
13500,-0.419922,-0.475586,0.719238,0
13520,-0.417969,-0.478516,0.716797,0
13540,-0.416992,-0.464844,0.705566,0
13560,-0.40625,-0.45752,0.709473,0
13580,-0.411621,-0.453125,0.719238,0
13600,-0.423828,-0.458008,0.716797,0
13620,-0.411133,-0.458984,0.723145,0
13640,-0.421875,-0.467285,0.73584,0
13660,-0.422363,-0.466309,0.736328,0
13680,-0.408691,-0.447266,0.716309,0
13700,-0.405273,-0.451172,0.719727,0
13720,-0.40918,-0.456543,0.734863,0
13740,-0.40625,-0.461914,0.749512,0
13760,-0.396973,-0.467773,0.754395,0
13780,-0.39209,-0.473633,0.748535,0
13790,-0.38916,-0.460938,0.744629,0
13810,-0.398926,-0.455078,0.73584,0
13830,-0.398926,-0.448242,0.730957,0
13850,-0.410156,-0.458496,0.731934,0
13870,-0.417969,-0.45166,0.733887,0
13890,-0.415527,-0.452637,0.738281,0
13910,-0.418457,-0.450195,0.73291,0
13930,-0.413086,-0.449707,0.731445,0
13950,-0.418945,-0.446289,0.729492,0
13970,-0.409668,-0.453125,0.727051,0
13990,-0.411621,-0.455078,0.734863,0
14010,-0.40918,-0.450195,0.740234,0
14030,-0.402344,-0.444824,0.757324,0
14050,-0.404785,-0.444824,0.740234,0
14070,-0.411621,-0.442871,0.729004,0
14090,-0.40625,-0.439941,0.714844,0
14110,-0.409668,-0.442871,0.708984,0
14130,-0.40918,-0.445801,0.717773,0
14150,-0.401367,-0.443848,0.734863,0
14170,-0.398438,-0.436035,0.751465,0
14190,-0.390137,-0.441895,0.74707,0
14210,-0.384766,-0.463867,0.741211,0
14230,-0.385254,-0.481934,0.738281,0
14250,-0.396973,-0.481445,0.737793,0
14270,-0.399902,-0.475586,0.739258,0
14290,-0.394043,-0.462402,0.744141,0
14310,-0.394043,-0.446777,0.758301,0
14330,-0.397949,-0.439941,0.741211,0
14350,-0.398926,-0.43457,0.733887,0
14370,-0.40625,-0.450684,0.730469,0
14390,-0.413574,-0.444336,0.731445,0
14410,-0.40625,-0.45166,0.73291,0
14430,-0.402344,-0.441895,0.727051,0
14450,-0.397461,-0.441406,0.743164,0
14470,-0.399414,-0.443359,0.757324,0
14490,-0.395508,-0.446289,0.748047,0
14510,-0.391113,-0.444824,0.73877,0
14530,-0.38916,-0.44873,0.744629,0
14550,-0.393066,-0.450195,0.755859,0
14570,-0.396484,-0.441406,0.762207,0
14590,-0.39209,-0.439453,0.759766,0
14610,-0.392578,-0.432129,0.745605,0
14630,-0.401367,-0.441406,0.749023,0
14650,-0.409668,-0.442383,0.744629,0
14670,-0.406738,-0.444824,0.742676,0
14690,-0.394043,-0.449707,0.745605,0
14710,-0.387695,-0.452637,0.739258,0
14730,-0.390137,-0.452637,0.741211,0
14750,-0.385742,-0.447754,0.741211,0
14770,-0.390625,-0.452637,0.734863,0
14790,-0.396973,-0.453125,0.726562,0
14810,-0.400879,-0.45752,0.729492,0
14830,-0.398926,-0.45752,0.72998,0
14850,-0.400391,-0.453613,0.736328,0
14870,-0.394531,-0.455078,0.73877,0
14890,-0.391602,-0.456055,0.739746,0
14910,-0.394043,-0.452148,0.748535,0
14930,-0.393066,-0.458008,0.742676,0
14950,-0.39502,-0.44873,0.732422,0
14970,-0.393066,-0.452148,0.73877,0
14990,-0.393555,-0.447266,0.732422,0
15010,-0.394043,-0.450195,0.729492,0
15030,-0.39209,-0.450195,0.736816,0
15050,-0.389648,-0.45166,0.741699,0
15070,-0.388672,-0.452637,0.725586,0
15090,-0.384766,-0.460938,0.741211,0
15110,-0.398926,-0.472168,0.748535,0
15130,-0.393555,-0.452637,0.746582,0
15150,-0.392578,-0.450684,0.754883,0
15170,-0.388184,-0.452148,0.762207,0
15190,-0.394043,-0.443359,0.746582,0
15210,-0.393555,-0.448242,0.734863,0
15220,-0.398438,-0.463867,0.732422,0
15240,-0.401367,-0.461426,0.736328,0
15260,-0.40332,-0.449219,0.742676,0
15280,-0.402832,-0.454102,0.732422,0
15300,-0.392578,-0.456055,0.733887,0
15320,-0.392578,-0.463867,0.740723,0
15340,-0.393066,-0.459473,0.736328,0
15360,-0.390625,-0.459961,0.736328,0
15380,-0.391602,-0.45752,0.73877,0
15400,-0.390137,-0.46582,0.741211,0
15420,-0.385742,-0.463379,0.737305,0
15440,-0.390625,-0.46582,0.73584,0
15460,-0.383301,-0.45459,0.737305,0
15480,-0.374023,-0.468262,0.74707,0
15500,-0.384277,-0.476074,0.749512,0
15520,-0.382812,-0.472168,0.751465,0
15540,-0.391602,-0.460938,0.72998,0
15560,-0.408203,-0.445801,0.71875,0
15580,-0.422852,-0.45752,0.708008,0
15600,-0.432129,-0.458496,0.705566,0
15620,-0.433594,-0.465332,0.705078,0
15640,-0.422852,-0.465332,0.707031,0
15660,-0.408203,-0.479492,0.710449,0
15680,-0.399902,-0.484863,0.732422,0
15700,-0.39209,-0.490723,0.72998,0
15720,-0.381836,-0.495117,0.73291,0
15740,-0.376953,-0.5,0.737305,0
15750,-0.375488,-0.493164,0.741699,0
15770,-0.376953,-0.479492,0.737793,0
15790,-0.379883,-0.464844,0.733398,0
15810,-0.381348,-0.458008,0.733887,0
15830,-0.385254,-0.45752,0.740234,0
15850,-0.389648,-0.450684,0.736816,0
15870,-0.393555,-0.461914,0.730469,0
15890,-0.397949,-0.462402,0.723145,0
15910,-0.400879,-0.470703,0.723633,0
15930,-0.407715,-0.466309,0.725586,0
15950,-0.40625,-0.469727,0.722656,0
15970,-0.404785,-0.459961,0.725586,0
15990,-0.402832,-0.46582,0.736328,0
16010,-0.398926,-0.459473,0.739258,0
16030,-0.395508,-0.467285,0.733398,0
16050,-0.395508,-0.46875,0.734375,0
16070,-0.394531,-0.473633,0.730957,0
16090,-0.396973,-0.476074,0.726562,0
16110,-0.397461,-0.463867,0.727051,0
16130,-0.401367,-0.467285,0.73584,0
16150,-0.393555,-0.462402,0.730469,0
16170,-0.392578,-0.470703,0.72998,0
16190,-0.392578,-0.46582,0.733887,0
16210,-0.399902,-0.459961,0.742676,0
16230,-0.403809,-0.45166,0.745117,0
16250,-0.401367,-0.45752,0.739258,0
16270,-0.40332,-0.459961,0.735352,0
16290,-0.400391,-0.456543,0.741211,0
16310,-0.397461,-0.454102,0.73291,0
16330,-0.390137,-0.452637,0.73584,0
16350,-0.39209,-0.455566,0.734375,0
16370,-0.401855,-0.458984,0.726074,0
16390,-0.411133,-0.467285,0.733887,0
16410,-0.416016,-0.473633,0.737305,0
16430,-0.415039,-0.479492,0.739746,0
16450,-0.401855,-0.469727,0.737305,0
16470,-0.399902,-0.464355,0.73877,0
16490,-0.395508,-0.46582,0.726074,0
16510,-0.40625,-0.471191,0.728516,0
16530,-0.42627,-0.458984,0.731445,0
16550,-0.416016,-0.44043,0.708496,0
16570,-0.432129,-0.459961,0.731445,0
16590,-0.405273,-0.478027,0.727539,0
16610,-0.398438,-0.460449,0.722168,0
16630,-0.378906,-0.462891,0.715332,0
16650,-0.370605,-0.46875,0.700684,0
16670,-0.375,-0.477051,0.70752,0
16690,-0.394531,-0.491211,0.722656,0
16710,-0.414062,-0.488281,0.740234,0
16730,-0.422852,-0.462891,0.729004,0
16750,-0.434082,-0.461426,0.716797,0
16770,-0.442383,-0.463867,0.71582,0
16790,-0.438965,-0.466797,0.713379,0
16810,-0.431641,-0.46582,0.720703,0
16830,-0.414062,-0.456543,0.736816,0
16850,-0.405762,-0.456543,0.728027,0
16870,-0.395996,-0.453125,0.731934,0
16890,-0.402344,-0.469727,0.728516,0
16910,-0.410645,-0.479004,0.727051,0
16930,-0.410156,-0.487793,0.727051,0
16950,-0.412109,-0.480469,0.725586,0
16970,-0.400391,-0.478027,0.720215,0
16990,-0.399902,-0.473145,0.710938,0
17010,-0.390137,-0.474121,0.711914,0
17030,-0.387695,-0.472656,0.720215,0
17050,-0.393066,-0.472168,0.728027,0
17070,-0.404785,-0.472168,0.721191,0
17090,-0.407227,-0.465332,0.722656,0
17110,-0.411621,-0.467773,0.709961,0
17130,-0.419922,-0.462891,0.713867,0
17150,-0.428711,-0.472168,0.723145,0
17170,-0.43457,-0.47168,0.717773,0
17190,-0.432617,-0.478027,0.713867,0
17210,-0.428223,-0.479004,0.712402,0
17230,-0.42041,-0.480957,0.711914,0
17250,-0.407715,-0.478516,0.702148,0
17270,-0.405762,-0.487305,0.711426,0
17290,-0.398926,-0.477539,0.726074,0
17310,-0.395996,-0.481445,0.730469,0
17330,-0.401367,-0.486328,0.73291,0
17350,-0.401367,-0.481445,0.720703,0
17370,-0.398438,-0.487793,0.718262,0
17390,-0.399414,-0.489746,0.719727,0
17410,-0.402832,-0.483398,0.723633,0
17430,-0.404785,-0.459473,0.715332,0
17450,-0.399902,-0.483887,0.710938,0
17470,-0.393555,-0.494141,0.704102,0
17490,-0.404785,-0.480469,0.707031,0
17510,-0.403809,-0.474609,0.71875,0
17530,-0.404297,-0.471191,0.71582,0
17550,-0.40625,-0.486328,0.731445,0
17570,-0.408691,-0.482422,0.730957,0
17590,-0.413086,-0.499023,0.713379,0
17610,-0.413086,-0.503418,0.708008,0
17630,-0.416992,-0.495605,0.707031,0
17650,-0.419434,-0.488281,0.715332,0
17670,-0.42334,-0.486816,0.710449,0
17690,-0.418457,-0.484375,0.708984,0
17710,-0.412109,-0.488281,0.712402,0
17730,-0.408691,-0.492188,0.70752,0
17750,-0.401367,-0.500977,0.711426,0
17770,-0.396973,-0.497559,0.708496,0
17790,-0.396973,-0.497559,0.709961,0
17810,-0.395508,-0.495605,0.707031,0
17830,-0.393555,-0.498535,0.713379,0
17850,-0.400391,-0.493652,0.719238,0
17870,-0.399902,-0.479492,0.720703,0
17890,-0.40625,-0.490723,0.712402,0
17910,-0.405762,-0.493164,0.707031,0
17930,-0.410156,-0.494141,0.709473,0
17950,-0.40918,-0.486328,0.70752,0
17970,-0.400879,-0.493652,0.705078,0
17990,-0.403809,-0.487793,0.712402,0
18010,-0.404297,-0.479004,0.711426,0
18030,-0.396973,-0.485352,0.712402,0
18050,-0.402344,-0.496582,0.716797,0
18070,-0.397949,-0.495605,0.714844,0
18090,-0.397461,-0.496582,0.71875,0
18110,-0.396973,-0.500977,0.714355,0
18130,-0.396973,-0.489746,0.719727,0
18150,-0.399902,-0.495117,0.716309,0
18170,-0.398926,-0.49707,0.720703,0
18190,-0.398438,-0.499512,0.708984,0
18210,-0.398926,-0.486816,0.709473,0
18230,-0.395996,-0.488281,0.713867,0
18250,-0.402832,-0.481934,0.713867,0
18270,-0.40332,-0.487305,0.71582,0
18290,-0.405273,-0.484375,0.717773,0
18310,-0.402832,-0.488281,0.722656,0
18330,-0.400391,-0.487793,0.723633,0
18350,-0.396484,-0.494629,0.720215,0
18370,-0.397949,-0.483398,0.720215,0
18390,-0.397949,-0.488281,0.725098,0
18410,-0.398438,-0.484863,0.723145,0
18430,-0.394043,-0.487305,0.721191,0
18450,-0.401855,-0.489258,0.717773,0
18470,-0.398438,-0.476562,0.721191,0
18490,-0.399414,-0.486816,0.716797,0
18510,-0.396973,-0.489746,0.729492,0
18530,-0.40332,-0.472656,0.720703,0
18550,-0.398926,-0.481445,0.722656,0
18570,-0.402832,-0.480469,0.729004,0
18590,-0.39502,-0.480469,0.714844,0
18610,-0.390625,-0.490234,0.724121,0
18630,-0.381348,-0.498047,0.723145,0
18650,-0.394531,-0.478516,0.725098,0
18670,-0.402344,-0.488281,0.720215,0
18690,-0.403809,-0.48877,0.719727,0
18710,-0.399414,-0.491211,0.714844,0
18730,-0.400879,-0.489746,0.708496,0
18750,-0.398926,-0.507324,0.700684,0
18770,-0.39209,-0.503906,0.699219,0
18790,-0.391113,-0.511719,0.702637,0
18810,-0.396484,-0.506348,0.711426,0
18830,-0.39209,-0.497559,0.713379,0
18850,-0.388672,-0.503418,0.71582,0
18870,-0.39502,-0.493652,0.718262,0
18890,-0.394531,-0.494141,0.717773,0
18910,-0.389648,-0.505371,0.714844,0
18930,-0.392578,-0.501465,0.710449,0
18950,-0.400391,-0.497559,0.713867,0
18970,-0.400879,-0.492676,0.719727,0
18990,-0.396973,-0.489746,0.71582,0
19010,-0.401367,-0.512207,0.706543,0
19030,-0.394531,-0.500488,0.716309,0
19050,-0.393066,-0.506348,0.705078,0
19070,-0.39502,-0.510254,0.697754,0
19090,-0.394531,-0.51709,0.711914,0
19110,-0.39209,-0.50293,0.709473,0
19130,-0.382324,-0.501465,0.700195,0
19150,-0.394531,-0.500488,0.711914,0
19160,-0.392578,-0.506348,0.704102,0
19180,-0.395996,-0.505371,0.709473,0
19200,-0.39502,-0.500488,0.711914,0
19220,-0.396484,-0.500977,0.709961,0
19240,-0.396973,-0.500977,0.709961,0
19260,-0.403809,-0.509277,0.714355,0
19280,-0.39209,-0.503418,0.719238,0
19300,-0.395508,-0.510254,0.704102,0
19320,-0.394043,-0.502441,0.711426,0
19340,-0.393555,-0.506348,0.703613,0
19360,-0.394531,-0.503906,0.710449,0
19380,-0.39502,-0.494141,0.712891,0
19400,-0.395996,-0.496094,0.711914,0
19420,-0.390625,-0.503418,0.708984,0
19440,-0.399902,-0.506836,0.713379,0
19460,-0.395996,-0.496094,0.718262,0
19480,-0.395996,-0.509766,0.711914,0
19500,-0.397461,-0.494629,0.712402,0
19520,-0.396973,-0.5,0.716309,0
19540,-0.395996,-0.506348,0.706543,0
19560,-0.397461,-0.506836,0.713379,0
19580,-0.397461,-0.5,0.706543,0
19600,-0.395508,-0.502441,0.719238,0
19620,-0.393066,-0.498535,0.711426,0
19640,-0.392578,-0.506348,0.713867,0
19660,-0.397949,-0.504883,0.71582,0
19680,-0.395996,-0.498047,0.713379,0
19700,-0.393555,-0.509766,0.710449,0
19720,-0.399414,-0.507812,0.708984,0
19740,-0.39502,-0.509277,0.706055,0
19760,-0.396973,-0.498047,0.711426,0
19780,-0.398926,-0.495605,0.712891,0
19800,-0.396973,-0.501953,0.708496,0
19820,-0.394043,-0.504883,0.705566,0
19840,-0.392578,-0.500488,0.706055,0
19860,-0.39209,-0.508789,0.708496,0
19880,-0.395508,-0.507812,0.711914,0
19900,-0.389648,-0.495117,0.713867,0
19920,-0.392578,-0.505371,0.707031,0
19940,-0.396973,-0.507324,0.709473,0
19960,-0.397461,-0.508301,0.708984,0
19980,-0.393066,-0.494629,0.708984,0
20000,-0.392578,-0.511719,0.708008,0
20020,-0.394043,-0.505371,0.70752,0
20040,-0.399902,-0.505371,0.712891,0
20060,-0.399902,-0.505859,0.705078,0
20080,-0.399902,-0.50293,0.706543,0
20100,-0.394531,-0.498047,0.711426,0
20120,-0.39502,-0.509766,0.708984,0
20140,-0.397949,-0.498535,0.703125,0
20160,-0.397461,-0.499023,0.711914,0
20180,-0.396484,-0.509766,0.704102,0
20200,-0.394043,-0.507324,0.711426,0
20220,-0.399902,-0.506348,0.710938,0
20240,-0.39502,-0.505859,0.712891,0
20260,-0.397461,-0.507812,0.706543,0
20280,-0.393555,-0.503906,0.704102,0
20300,-0.398926,-0.50293,0.708984,0
20320,-0.392578,-0.502441,0.70459,0
20340,-0.39502,-0.503906,0.703613,0
20360,-0.388184,-0.497559,0.709961,0
20380,-0.39209,-0.496094,0.716797,0
20400,-0.398438,-0.493652,0.720215,0
20420,-0.395508,-0.494141,0.713867,0
20440,-0.402344,-0.509766,0.711914,0
20460,-0.404785,-0.510254,0.707031,0
20480,-0.401855,-0.520508,0.697266,0
20500,-0.404297,-0.516602,0.703125,0
20520,-0.401367,-0.508301,0.702637,0
20540,-0.40332,-0.506836,0.699707,0
20560,-0.402344,-0.505371,0.700195,0
20580,-0.40625,-0.501465,0.705078,0
20600,-0.402832,-0.503906,0.705566,0
20620,-0.399414,-0.502441,0.710938,0
20640,-0.400879,-0.499023,0.701172,0
20660,-0.397949,-0.505859,0.708496,0
20680,-0.401367,-0.506348,0.708008,0
20700,-0.406738,-0.506836,0.708496,0
20720,-0.399902,-0.501953,0.710938,0
20740,-0.404297,-0.503906,0.707031,0
20760,-0.408203,-0.496094,0.708008,0
20780,-0.40332,-0.509277,0.699219,0
20800,-0.407227,-0.506348,0.703125,0
20820,-0.407715,-0.505859,0.703125,0
20840,-0.407227,-0.501953,0.709473,0
20860,-0.410645,-0.510254,0.702148,0
20880,-0.405762,-0.504883,0.703613,0
20900,-0.40625,-0.498047,0.702148,0
20920,-0.404297,-0.492188,0.702637,0
20940,-0.405762,-0.507812,0.707031,0
20960,-0.40625,-0.496582,0.702637,0
20980,-0.407715,-0.507812,0.703613,0
21000,-0.407715,-0.498535,0.710449,0
21020,-0.405762,-0.504883,0.70459,0
21040,-0.413086,-0.508789,0.707031,0
21060,-0.413086,-0.513672,0.696289,0
21080,-0.404785,-0.508301,0.702637,0
21090,-0.404297,-0.498047,0.70166,0
21110,-0.404785,-0.500488,0.698242,0
21130,-0.402344,-0.503418,0.70752,0
21150,-0.398438,-0.490234,0.718262,0
21170,-0.399414,-0.498535,0.709961,0
21190,-0.404297,-0.498535,0.717773,0
21210,-0.404297,-0.498047,0.70459,0
21230,-0.404785,-0.503418,0.705566,0
21250,-0.415039,-0.495117,0.705078,0
21260,-0.413574,-0.504395,0.708984,0
21280,-0.406738,-0.496094,0.711914,0
21300,-0.404785,-0.498535,0.706055,0
21320,-0.405273,-0.49707,0.713379,0
21340,-0.397949,-0.494141,0.711426,0
21360,-0.400391,-0.485352,0.711914,0
21380,-0.401855,-0.485352,0.717773,0
21400,-0.401367,-0.493164,0.714844,0
21420,-0.397949,-0.494141,0.708984,0
21440,-0.395996,-0.492676,0.713379,0
21460,-0.400391,-0.495605,0.712891,0
21480,-0.40332,-0.495117,0.718262,0
21500,-0.40625,-0.492188,0.710449,0
21520,-0.404297,-0.494141,0.710449,0
21540,-0.405762,-0.489258,0.71582,0
21560,-0.406738,-0.492676,0.71582,0
21580,-0.407227,-0.484863,0.71875,0
21600,-0.40625,-0.492188,0.715332,0
21620,-0.397949,-0.490723,0.716309,0
21640,-0.399414,-0.495117,0.714355,0
21660,-0.405273,-0.492188,0.71582,0
21680,-0.400391,-0.48877,0.71875,0
21700,-0.400879,-0.491699,0.716309,0
21720,-0.405762,-0.492676,0.717285,0
21740,-0.400879,-0.493164,0.719238,0
21760,-0.401367,-0.489746,0.716309,0
21780,-0.40332,-0.49707,0.708984,0
21800,-0.399902,-0.48877,0.715332,0
21820,-0.399414,-0.5,0.714355,0
21840,-0.399902,-0.487305,0.715332,0
21860,-0.40332,-0.495117,0.720703,0
21880,-0.400879,-0.493652,0.727539,0
21900,-0.40625,-0.488281,0.726074,0
21920,-0.401367,-0.502441,0.714844,0
21940,-0.402832,-0.50293,0.72168,0
21960,-0.402344,-0.495117,0.724609,0
21980,-0.404297,-0.500488,0.719238,0
22000,-0.402344,-0.501953,0.697754,0
22020,-0.406738,-0.499023,0.699707,0
22040,-0.415039,-0.499512,0.705078,0
22060,-0.405273,-0.489746,0.706055,0
22080,-0.413574,-0.493652,0.707031,0
22100,-0.411133,-0.474609,0.705566,0
22120,-0.412109,-0.480957,0.706543,0
22140,-0.411133,-0.486328,0.695312,0
22160,-0.418945,-0.482422,0.690918,0
22180,-0.416016,-0.480957,0.692871,0
22200,-0.407227,-0.483398,0.694336,0
22220,-0.405762,-0.491699,0.710449,0
22240,-0.408691,-0.496582,0.727539,0
22260,-0.403809,-0.498047,0.730957,0
22280,-0.401855,-0.488281,0.733887,0
22300,-0.400391,-0.492188,0.722168,0
22320,-0.401367,-0.492676,0.717285,0
22340,-0.407715,-0.492676,0.728027,0
22360,-0.40625,-0.491211,0.715332,0
22380,-0.403809,-0.498535,0.705078,0
22400,-0.402344,-0.489746,0.704102,0
22420,-0.400879,-0.491211,0.696777,0
22440,-0.410645,-0.494629,0.707031,0
22460,-0.412109,-0.488281,0.709473,0
22480,-0.40918,-0.487305,0.714355,0
22500,-0.412598,-0.487305,0.724609,0
22520,-0.404297,-0.483887,0.71875,0
22540,-0.405273,-0.487793,0.717773,0
22560,-0.400879,-0.494141,0.712402,0
22580,-0.394531,-0.493652,0.706543,0
22600,-0.397461,-0.496582,0.707031,0
22620,-0.400879,-0.486328,0.710938,0
22640,-0.406738,-0.489258,0.709473,0
22660,-0.40918,-0.487793,0.712891,0
22680,-0.40918,-0.489746,0.71582,0
22700,-0.409668,-0.48877,0.716309,0
22720,-0.408691,-0.48291,0.72168,0
22740,-0.400879,-0.486328,0.710938,0
22760,-0.395996,-0.483398,0.714355,0
22780,-0.402832,-0.486328,0.71875,0
22800,-0.397949,-0.48291,0.719727,0
22820,-0.398926,-0.48584,0.719727,0
22830,-0.39502,-0.482422,0.720703,0
22850,-0.395996,-0.48584,0.722168,0
22870,-0.397461,-0.48291,0.717773,0
22890,-0.396484,-0.491699,0.717773,0
22900,-0.401855,-0.486328,0.722656,0
22920,-0.399414,-0.481445,0.723633,0
22940,-0.398926,-0.476074,0.725586,0
22960,-0.395508,-0.470703,0.716797,0
22980,-0.399902,-0.484863,0.720703,0
23000,-0.397461,-0.482422,0.71875,0
23020,-0.396484,-0.483887,0.719238,0
23040,-0.396484,-0.477539,0.724121,0
23060,-0.401855,-0.484375,0.720703,0
23080,-0.398926,-0.474121,0.720703,0
23100,-0.396484,-0.481934,0.728027,0
23120,-0.398438,-0.483887,0.728516,0
23140,-0.399902,-0.484375,0.722168,0
23160,-0.395996,-0.481934,0.720215,0
23180,-0.39502,-0.477051,0.723145,0
23200,-0.398438,-0.479492,0.721191,0
23220,-0.397461,-0.473145,0.72998,0
23240,-0.394043,-0.473633,0.724121,0
23260,-0.394531,-0.47998,0.728027,0
23280,-0.397461,-0.48584,0.722656,0
23300,-0.391113,-0.485352,0.72168,0
23320,-0.396484,-0.488281,0.720703,0
23340,-0.399902,-0.479492,0.724609,0
23360,-0.395508,-0.47998,0.712402,0
23380,-0.390137,-0.477051,0.715332,0
23400,-0.391602,-0.47998,0.711426,0
23420,-0.398438,-0.473145,0.722656,0
23440,-0.399414,-0.475586,0.725098,0
23460,-0.39502,-0.473633,0.718262,0
23480,-0.398438,-0.480469,0.73584,0
23500,-0.397949,-0.481445,0.739746,0
23520,-0.397461,-0.473633,0.72998,0
23540,-0.396484,-0.47998,0.716309,0
23560,-0.394531,-0.484863,0.713867,0
23580,-0.395996,-0.495605,0.716309,0
23600,-0.398926,-0.480957,0.72998,0
23620,-0.400391,-0.466797,0.737305,0
23640,-0.395996,-0.470215,0.731445,0
23660,-0.394043,-0.481445,0.723633,0
23680,-0.386719,-0.489746,0.726562,0
23710,-0.387207,-0.476074,0.720703,0
23730,-0.387207,-0.487305,0.717773,0
23750,-0.39502,-0.486816,0.720703,0
23770,-0.401855,-0.490234,0.701172,0
23790,-0.403809,-0.487305,0.711426,0
23810,-0.39502,-0.491699,0.708984,0
23830,-0.395508,-0.477051,0.712402,0
23850,-0.386719,-0.490723,0.722656,0
23870,-0.387207,-0.480957,0.717773,0
23890,-0.384766,-0.498535,0.731934,0
23910,-0.384766,-0.48291,0.726562,0
23930,-0.385742,-0.484375,0.736816,0
23950,-0.393066,-0.476074,0.733398,0
23970,-0.391602,-0.479492,0.732422,0
23990,-0.396973,-0.483887,0.725586,0
24010,-0.401367,-0.474609,0.730957,0
24030,-0.402832,-0.491211,0.719238,0
24050,-0.398438,-0.484375,0.722168,0
24070,-0.401367,-0.487793,0.72168,0
24090,-0.395508,-0.481934,0.723633,0
24110,-0.390625,-0.484375,0.724609,0
24130,-0.387695,-0.483398,0.728516,0
24150,-0.388184,-0.491211,0.731445,0
24170,-0.385742,-0.497559,0.722168,0
24190,-0.380371,-0.495605,0.724121,0
24210,-0.385254,-0.492676,0.722168,0
24230,-0.379883,-0.494141,0.723633,0
24250,-0.387695,-0.492676,0.727539,0
24270,-0.384277,-0.487793,0.716309,0
24290,-0.394531,-0.500488,0.711426,0
24310,-0.391602,-0.491699,0.708984,0
24330,-0.400391,-0.49707,0.714355,0
24350,-0.40332,-0.490234,0.719238,0
24370,-0.404297,-0.48291,0.723145,0
24390,-0.397949,-0.466309,0.725098,0
24410,-0.399902,-0.475586,0.719238,0
24430,-0.408203,-0.490234,0.714844,0
24450,-0.405273,-0.49707,0.707031,0
24460,-0.398926,-0.503418,0.702148,0
24480,-0.397461,-0.515137,0.698242,0
24500,-0.397949,-0.524902,0.703613,0
24520,-0.390137,-0.52002,0.705078,0
24540,-0.389648,-0.520508,0.703613,0
24560,-0.385742,-0.507812,0.712402,0
24580,-0.392578,-0.51123,0.706055,0
24600,-0.391113,-0.516602,0.700684,0
24620,-0.395508,-0.517578,0.702148,0
24640,-0.395508,-0.512695,0.695801,0
24660,-0.400879,-0.509766,0.703613,0
24680,-0.403809,-0.511719,0.706055,0
24700,-0.396484,-0.510254,0.700684,0
24720,-0.400879,-0.506836,0.700195,0
24740,-0.395996,-0.511719,0.69873,0
24760,-0.394531,-0.517578,0.700195,0
24780,-0.394531,-0.516113,0.703125,0
24800,-0.392578,-0.51709,0.70166,0
24820,-0.400391,-0.51416,0.702148,0
24840,-0.40332,-0.513672,0.706055,0
24860,-0.398438,-0.508301,0.697754,0
24880,-0.387695,-0.516113,0.695801,0
24900,-0.387207,-0.509277,0.70166,0
24920,-0.385254,-0.515137,0.699707,0
24940,-0.387207,-0.513184,0.705566,0
24960,-0.394043,-0.510254,0.706543,0
24980,-0.398438,-0.507324,0.714844,0
25000,-0.401855,-0.502441,0.712891,0
25020,-0.398926,-0.508789,0.708496,0
25040,-0.396484,-0.511719,0.706055,0
25060,-0.39209,-0.51123,0.702637,0
25080,-0.388672,-0.503906,0.709961,0
25100,-0.397949,-0.507324,0.70752,0
25120,-0.400391,-0.506836,0.710938,0
25140,-0.40332,-0.513672,0.705078,0
25160,-0.406738,-0.500977,0.710938,0
25180,-0.396973,-0.5,0.71582,0
25200,-0.386719,-0.497559,0.710938,0
25220,-0.382812,-0.491699,0.708008,0
25240,-0.371094,-0.49707,0.720703,0
25260,-0.372559,-0.50293,0.716309,0
25280,-0.373047,-0.51123,0.715332,0
25300,-0.374512,-0.508301,0.706543,0
25320,-0.378418,-0.520508,0.708008,0
25340,-0.385742,-0.522949,0.700684,0
25360,-0.383789,-0.521484,0.706055,0
25380,-0.384277,-0.513672,0.70752,0
25400,-0.384766,-0.505371,0.706543,0
25420,-0.389648,-0.509277,0.713379,0
25440,-0.379395,-0.522461,0.714355,0
25460,-0.381348,-0.513672,0.713867,0
25480,-0.375488,-0.513184,0.712891,0
25500,-0.376465,-0.515625,0.714355,0
25520,-0.376465,-0.508789,0.711914,0
25540,-0.376465,-0.51416,0.717285,0
25560,-0.375977,-0.510254,0.718262,0
25580,-0.380859,-0.513672,0.716309,0
25600,-0.380371,-0.505371,0.723633,0
25620,-0.376953,-0.513184,0.70752,0
25640,-0.374512,-0.515137,0.713867,0
25660,-0.377441,-0.515137,0.716797,0
25680,-0.376953,-0.508301,0.708008,0
25700,-0.368652,-0.509766,0.708008,0
25720,-0.367676,-0.519043,0.705078,0
25740,-0.375488,-0.51416,0.708984,0
25760,-0.380371,-0.512695,0.716309,0
25780,-0.384277,-0.507812,0.718262,0
25800,-0.371582,-0.515137,0.710449,0
25820,-0.37793,-0.52002,0.711914,0
25840,-0.379883,-0.515137,0.71582,0
25860,-0.380859,-0.515137,0.709961,0
25880,-0.378906,-0.519043,0.706543,0
25900,-0.376465,-0.519531,0.70752,0
25920,-0.381348,-0.518066,0.708984,0
25940,-0.380371,-0.512695,0.711426,0
25960,-0.375,-0.517578,0.708008,0
25980,-0.375,-0.509277,0.708984,0
26000,-0.370117,-0.51416,0.708496,0
26020,-0.375488,-0.522461,0.708008,0
26040,-0.375977,-0.518066,0.709473,0
26060,-0.375977,-0.521973,0.699707,0
26080,-0.370117,-0.519531,0.704102,0
26100,-0.376465,-0.529785,0.705566,0
26120,-0.375977,-0.521973,0.704102,0
26140,-0.379883,-0.520508,0.706055,0
26160,-0.374023,-0.520508,0.706055,0
26180,-0.375977,-0.527832,0.702637,0
26200,-0.380371,-0.521973,0.703125,0
26220,-0.376465,-0.526855,0.703613,0
26240,-0.380371,-0.518066,0.711426,0
26260,-0.380371,-0.521484,0.697266,0
26280,-0.377441,-0.530273,0.70166,0
26300,-0.375977,-0.519043,0.708496,0
26320,-0.37793,-0.521973,0.711426,0
26340,-0.373047,-0.520996,0.708008,0
26360,-0.376465,-0.523926,0.703125,0
26380,-0.380371,-0.531738,0.702637,0
26400,-0.378418,-0.540527,0.699707,0
26420,-0.37207,-0.53418,0.699707,0
26440,-0.376953,-0.523926,0.707031,0
26450,-0.376953,-0.521973,0.700684,0
26470,-0.374512,-0.532715,0.698242,0
26490,-0.381348,-0.528809,0.70166,0
26510,-0.375488,-0.523926,0.705078,0
26530,-0.378418,-0.517578,0.710449,0
26550,-0.378418,-0.522949,0.702637,0
26570,-0.375,-0.537109,0.699707,0
26590,-0.378906,-0.535156,0.701172,0
26610,-0.380371,-0.530273,0.695312,0
26630,-0.370605,-0.53125,0.701172,0
26650,-0.379395,-0.533691,0.704102,0
26670,-0.379395,-0.529297,0.699219,0
26690,-0.378906,-0.527344,0.692871,0
26710,-0.374512,-0.522949,0.694336,0
26730,-0.378418,-0.53125,0.70459,0
26750,-0.375488,-0.525391,0.706055,0
26770,-0.371094,-0.537109,0.698242,0
26790,-0.373535,-0.538574,0.695801,0
26810,-0.376465,-0.529297,0.705078,0
26830,-0.376465,-0.533203,0.696289,0
26850,-0.376465,-0.530273,0.705078,0
26870,-0.37793,-0.530273,0.699219,0
26890,-0.375977,-0.532227,0.699707,0
26910,-0.377441,-0.541016,0.697754,0
26930,-0.375977,-0.524902,0.695801,0
26950,-0.383789,-0.527832,0.700195,0
26970,-0.37793,-0.52832,0.702148,0
26990,-0.382812,-0.535156,0.70166,0
27010,-0.379883,-0.524414,0.697266,0
27030,-0.373047,-0.537109,0.700195,0
27050,-0.37793,-0.540039,0.69043,0
27070,-0.376465,-0.536133,0.696777,0
27090,-0.373047,-0.535156,0.695801,0
27110,-0.371582,-0.535645,0.696777,0
27130,-0.382812,-0.53125,0.69873,0
27150,-0.377441,-0.53418,0.69873,0
27170,-0.376953,-0.537598,0.702148,0
27190,-0.376465,-0.527832,0.696777,0
27210,-0.381348,-0.534668,0.696777,0
27220,-0.380371,-0.536621,0.708984,0
27240,-0.376465,-0.541992,0.688965,0
27260,-0.375,-0.543457,0.696777,0
27280,-0.371094,-0.534668,0.685059,0
27300,-0.380371,-0.540527,0.692871,0
27320,-0.380371,-0.536621,0.698242,0
27340,-0.380859,-0.537598,0.69873,0
27360,-0.370605,-0.546387,0.692383,0
27380,-0.374512,-0.54541,0.692871,0
27400,-0.375,-0.533203,0.696777,0
27420,-0.376953,-0.543457,0.692383,0
27440,-0.382812,-0.541016,0.696777,0
27460,-0.384766,-0.542969,0.689453,0
27480,-0.37793,-0.541504,0.696777,0
27500,-0.378906,-0.544434,0.694824,0
27520,-0.375,-0.535156,0.695312,0
27540,-0.369629,-0.546875,0.69043,0
27560,-0.368652,-0.546387,0.686523,0
27580,-0.374512,-0.543457,0.689453,0
27600,-0.375977,-0.54541,0.688965,0
27620,-0.376465,-0.53418,0.700684,0
27640,-0.382812,-0.534668,0.699219,0
27660,-0.378418,-0.537109,0.694824,0
27680,-0.380859,-0.543457,0.693848,0
27700,-0.387695,-0.537598,0.700684,0
27720,-0.382812,-0.53125,0.698242,0
27740,-0.376465,-0.541992,0.693848,0
27760,-0.382324,-0.545898,0.689453,0
27780,-0.381836,-0.524902,0.702637,0
27800,-0.374023,-0.549316,0.693848,0
27820,-0.396973,-0.535645,0.68457,0
27840,-0.374023,-0.546875,0.677246,0
27860,-0.374512,-0.549805,0.686035,0
27880,-0.379883,-0.547363,0.693359,0
27900,-0.376953,-0.547363,0.689453,0
27920,-0.379883,-0.54248,0.691406,0
27940,-0.382812,-0.54541,0.685059,0
27960,-0.381836,-0.55127,0.680176,0
27980,-0.382812,-0.556641,0.680176,0
28000,-0.382324,-0.538086,0.688965,0
28020,-0.382324,-0.558105,0.681152,0
28040,-0.383789,-0.541016,0.687988,0
28060,-0.376953,-0.545898,0.680664,0
28100,-0.384766,-0.538574,0.691406,0
28120,-0.378906,-0.544434,0.686523,0
28140,-0.375488,-0.552734,0.691895,0
28160,-0.373047,-0.547363,0.688965,0
28180,-0.378418,-0.539551,0.690918,0
28200,-0.377441,-0.550293,0.688477,0
28220,-0.38623,-0.542969,0.682617,0
28240,-0.386719,-0.538086,0.687012,0
28260,-0.385254,-0.538086,0.687012,0
28280,-0.383301,-0.543945,0.693359,0
28300,-0.381348,-0.539062,0.686035,0
28320,-0.375488,-0.544922,0.700684,0
28340,-0.374023,-0.54541,0.692871,0
28360,-0.376953,-0.540039,0.697754,0
28380,-0.374512,-0.54834,0.697266,0
28400,-0.378418,-0.548828,0.681641,0
28420,-0.38623,-0.536133,0.69873,0
28440,-0.386719,-0.543457,0.682129,0
28460,-0.385742,-0.544922,0.688965,0
28480,-0.383301,-0.526367,0.697266,0
28500,-0.376465,-0.534668,0.698242,0
28520,-0.375488,-0.534668,0.696289,0
28540,-0.382812,-0.538574,0.690918,0
28560,-0.38623,-0.536133,0.701172,0
28580,-0.381836,-0.537598,0.693359,0
28600,-0.375,-0.541504,0.687988,0
28620,-0.374512,-0.542969,0.693359,0
28640,-0.381836,-0.530273,0.694336,0
28660,-0.375488,-0.533203,0.698242,0
28680,-0.380859,-0.540527,0.699707,0
28700,-0.382812,-0.531738,0.699707,0
28720,-0.382812,-0.537109,0.702148,0
28740,-0.380859,-0.535645,0.696289,0
28760,-0.379395,-0.536133,0.695801,0
28780,-0.380371,-0.547852,0.693359,0
28800,-0.378418,-0.542969,0.690918,0
28820,-0.383789,-0.546387,0.695801,0
28840,-0.369629,-0.54541,0.695312,0
28850,-0.370605,-0.529785,0.696777,0
28870,-0.382324,-0.533203,0.690918,0
28890,-0.386719,-0.540527,0.707031,0
28910,-0.391602,-0.539062,0.692871,0
28930,-0.388672,-0.525391,0.69873,0
28950,-0.380859,-0.527344,0.691406,0
28970,-0.370117,-0.540527,0.692871,0
28990,-0.369629,-0.540039,0.687012,0
29010,-0.384766,-0.538086,0.697754,0
29030,-0.375,-0.541992,0.695312,0
29050,-0.387695,-0.538574,0.698242,0
29070,-0.379883,-0.533691,0.687988,0
29090,-0.375488,-0.543945,0.692383,0
29110,-0.378418,-0.543457,0.696289,0
29130,-0.380371,-0.540039,0.699219,0
29150,-0.375977,-0.535156,0.697266,0
29170,-0.377441,-0.535156,0.702148,0
29190,-0.375488,-0.53418,0.704102,0
29210,-0.382324,-0.539551,0.690918,0
29230,-0.36377,-0.561035,0.69043,0
29250,-0.387695,-0.536621,0.711914,0
29270,-0.402344,-0.527344,0.702148,0
29290,-0.38623,-0.533691,0.69043,0
29310,-0.381836,-0.552246,0.691895,0
29330,-0.387207,-0.533691,0.704102,0
29350,-0.387207,-0.521484,0.688477,0
29370,-0.376953,-0.528809,0.694824,0
29390,-0.373047,-0.552246,0.679199,0
29410,-0.374023,-0.544434,0.681152,0
29430,-0.39502,-0.52002,0.688477,0
29450,-0.400879,-0.509277,0.691895,0
29470,-0.393066,-0.52832,0.692871,0
29490,-0.401855,-0.521484,0.698242,0
29510,-0.40332,-0.523438,0.699707,0
29530,-0.390625,-0.541504,0.70459,0
29550,-0.384766,-0.534668,0.688477,0
29570,-0.407715,-0.546387,0.703125,0
29590,-0.388672,-0.560547,0.70166,0
29610,-0.373535,-0.553223,0.675781,0
29630,-0.391602,-0.54834,0.671875,0
29650,-0.407227,-0.535156,0.682617,0
29670,-0.397949,-0.527832,0.671875,0
29690,-0.403809,-0.540039,0.662109,0
29710,-0.413574,-0.546387,0.678223,0
29730,-0.411621,-0.539551,0.685059,0
29750,-0.396973,-0.535645,0.655762,0
29770,-0.400391,-0.541504,0.668945,0
29790,-0.406738,-0.543945,0.683105,0
29810,-0.404785,-0.526855,0.693359,0
29830,-0.395996,-0.545898,0.680176,0
29840,-0.385742,-0.553223,0.685547,0
29860,-0.385742,-0.557617,0.6875,0
29880,-0.391602,-0.555176,0.685059,0
29900,-0.385254,-0.552734,0.683105,0
29920,-0.387207,-0.549316,0.688477,0
29940,-0.390137,-0.54248,0.668945,0
29960,-0.401367,-0.543457,0.67627,0
29980,-0.405762,-0.54541,0.675781,0
30000,-0.402344,-0.551758,0.676758,0
30020,-0.405273,-0.547852,0.666992,0
30040,-0.401855,-0.550293,0.665039,0
30060,-0.401367,-0.547852,0.682129,0
30080,-0.398438,-0.554199,0.682129,0
30100,-0.395996,-0.551758,0.686035,0
30120,-0.401855,-0.550781,0.682129,0
30140,-0.397949,-0.538574,0.675293,0
30160,-0.396484,-0.548828,0.675781,0
30180,-0.40918,-0.542969,0.683105,0
30200,-0.399414,-0.54248,0.677734,0
30220,-0.393066,-0.554199,0.677734,0
30240,-0.393555,-0.551758,0.681152,0
30260,-0.395996,-0.546387,0.671875,0
30280,-0.396973,-0.552734,0.679199,0
30300,-0.396484,-0.531738,0.694824,0
30320,-0.391602,-0.541504,0.664062,0
30340,-0.390625,-0.569824,0.677246,0
30360,-0.400879,-0.558105,0.680664,0
30380,-0.389648,-0.558594,0.674316,0
30400,-0.395996,-0.568848,0.677734,0
30420,-0.401855,-0.549805,0.679688,0
30440,-0.40332,-0.541992,0.681152,0
30460,-0.398926,-0.549316,0.681152,0
30480,-0.396973,-0.542969,0.679688,0
30500,-0.396484,-0.537598,0.678223,0
30520,-0.399414,-0.546387,0.677734,0
30540,-0.407227,-0.541504,0.693359,0
30560,-0.397461,-0.555176,0.680176,0
30580,-0.394043,-0.557617,0.674805,0
30600,-0.393555,-0.555176,0.674805,0
30620,-0.386719,-0.549805,0.681152,0
30640,-0.395508,-0.561035,0.676758,0
30660,-0.397461,-0.550781,0.675781,0
30680,-0.39502,-0.540527,0.686035,0
30700,-0.38916,-0.546387,0.679199,0
30720,-0.388672,-0.549805,0.679199,0
30720,-0.394043,-0.555664,0.672363,0
30740,-0.40625,-0.541992,0.688477,0
30760,-0.396973,-0.540527,0.672852,0
30780,-0.397949,-0.54834,0.683594,0
30800,-0.403809,-0.543457,0.682617,0
30820,-0.386719,-0.538086,0.685547,0
30840,-0.382812,-0.550293,0.68457,0
30860,-0.392578,-0.542969,0.677246,0
30880,-0.394531,-0.539551,0.689453,0
30900,-0.395508,-0.541504,0.685547,0
30920,-0.400391,-0.549805,0.68457,0
30940,-0.397461,-0.546875,0.684082,0
30960,-0.395508,-0.551758,0.689453,0
30980,-0.396484,-0.539062,0.681152,0
31000,-0.401367,-0.53418,0.6875,0
31020,-0.404785,-0.544922,0.685547,0
31040,-0.388672,-0.552734,0.6875,0
31060,-0.398438,-0.540527,0.671387,0
31080,-0.396484,-0.539551,0.672852,0
31100,-0.400391,-0.552734,0.686035,0
31120,-0.394043,-0.556641,0.682617,0
31140,-0.399902,-0.552246,0.685059,0
31160,-0.394043,-0.535156,0.684082,0
31180,-0.391113,-0.550781,0.683594,0
31200,-0.392578,-0.552246,0.677246,0
31220,-0.390625,-0.552734,0.675293,0
31240,-0.398438,-0.539551,0.683594,0
31260,-0.395508,-0.546387,0.67334,0
31280,-0.407227,-0.550781,0.678223,0
31300,-0.407227,-0.541504,0.680176,0
31320,-0.40332,-0.546875,0.673828,0
31340,-0.395996,-0.535156,0.674316,0
31360,-0.38623,-0.546387,0.679688,0
31380,-0.383789,-0.542969,0.69043,0
31400,-0.391602,-0.547363,0.677246,0
31420,-0.391602,-0.544434,0.678223,0
31440,-0.395508,-0.560059,0.681152,0
31460,-0.400879,-0.55127,0.683594,0
31480,-0.404785,-0.552734,0.669434,0
31500,-0.399902,-0.555664,0.675293,0
31520,-0.400391,-0.552246,0.67334,0
31540,-0.399414,-0.544922,0.680664,0
31560,-0.396973,-0.545898,0.677246,0
31580,-0.398926,-0.550781,0.675293,0
31600,-0.39502,-0.550293,0.675781,0
31620,-0.393066,-0.559082,0.673828,0
31640,-0.39502,-0.54834,0.675293,0
31660,-0.398926,-0.546387,0.680176,0
31680,-0.394531,-0.546875,0.685059,0
31700,-0.402344,-0.554688,0.674316,0
31720,-0.394531,-0.546387,0.675293,0
31740,-0.395508,-0.5625,0.675781,0
31760,-0.40332,-0.547363,0.674316,0
31780,-0.39209,-0.56543,0.666504,0
31790,-0.391602,-0.560059,0.682617,0
31810,-0.405762,-0.535156,0.674805,0
31830,-0.402344,-0.54834,0.681152,0
31850,-0.397461,-0.550781,0.669922,0
31870,-0.38916,-0.561523,0.669434,0
31890,-0.37793,-0.555176,0.682129,0
31910,-0.379395,-0.547852,0.684082,0
31930,-0.390137,-0.541992,0.6875,0
31950,-0.40332,-0.547363,0.692871,0
31970,-0.405762,-0.538574,0.676758,0
31990,-0.392578,-0.557617,0.68457,0
32010,-0.388184,-0.550293,0.673828,0
32030,-0.383789,-0.549316,0.671387,0
32050,-0.402344,-0.536621,0.693848,0
32070,-0.395996,-0.528809,0.686035,0
32090,-0.399414,-0.552246,0.672363,0
32110,-0.38916,-0.554199,0.676758,0
32130,-0.394043,-0.55127,0.68457,0
32150,-0.388184,-0.541504,0.679688,0
32170,-0.38623,-0.56543,0.66748,0
32190,-0.388184,-0.564453,0.683594,0
32210,-0.39502,-0.553223,0.686035,0
32230,-0.387207,-0.545898,0.67627,0
32250,-0.389648,-0.559082,0.685059,0
32270,-0.386719,-0.553223,0.685059,0
32290,-0.401367,-0.55957,0.663086,0
32310,-0.405273,-0.556641,0.67334,0
32330,-0.391602,-0.542969,0.666016,0
32350,-0.391602,-0.566406,0.677734,0
32370,-0.39209,-0.549316,0.683594,0
32390,-0.388184,-0.535156,0.686523,0
32410,-0.376465,-0.549316,0.683594,0
32430,-0.390625,-0.572754,0.686035,0
32450,-0.385742,-0.556641,0.669922,0
32470,-0.381836,-0.569824,0.665527,0
32490,-0.374023,-0.571289,0.674805,0
32510,-0.380859,-0.558105,0.666992,0
32530,-0.382812,-0.560547,0.680176,0
32550,-0.391113,-0.558594,0.675781,0
32570,-0.382812,-0.5625,0.688965,0
32590,-0.385742,-0.555664,0.686035,0
32610,-0.397949,-0.54541,0.68457,0
32630,-0.405273,-0.533203,0.674805,0
32650,-0.395508,-0.57959,0.670898,0
32670,-0.415039,-0.560059,0.670898,0
32690,-0.429688,-0.536621,0.666992,0
32710,-0.384766,-0.557617,0.685547,0
32730,-0.395996,-0.578613,0.705566,0
32750,-0.415527,-0.552734,0.722656,0
32770,-0.412598,-0.578613,0.700684,0
32790,-0.401855,-0.563965,0.726562,0
32810,-0.365234,-0.582031,0.786133,0
32830,-0.370117,-0.598633,0.775391,0
32850,-0.327148,-0.63623,0.78418,0
32870,-0.281738,-0.743164,0.887695,0
32890,-0.162598,-0.713379,0.958496,0
32910,-0.0498047,-0.693359,0.836426,0
32930,-0.0327148,-0.668945,0.847168,0
32950,-0.0161133,-0.689941,0.859375,0
32970,0.0546875,-0.75293,0.79834,0
32990,0.0649414,-0.73584,0.772949,0
33010,0.0522461,-0.666504,0.740234,0
33030,0.0610352,-0.670898,0.708008,0
33050,0.0673828,-0.65332,0.682617,0
33070,0.0737305,-0.633301,0.64209,0
33090,0.0883789,-0.641113,0.629395,0
33110,0.102539,-0.615723,0.612793,0
33130,0.0791016,-0.60498,0.607422,0
33150,0.0625,-0.604492,0.589355,0
33170,0.0585938,-0.632324,0.587891,0
33190,0.074707,-0.640625,0.566406,0
33210,0.0898438,-0.63623,0.548828,0
33230,0.0976562,-0.625488,0.562012,0
33250,0.127441,-0.618652,0.562012,0
33270,0.152344,-0.63623,0.549316,0
33290,0.17041,-0.640625,0.541992,0
33310,0.187012,-0.632324,0.54541,0
33330,0.20752,-0.63916,0.543457,0
33350,0.228027,-0.651367,0.536133,0
33370,0.238281,-0.654785,0.523926,0
33390,0.25293,-0.649414,0.529785,0
33410,0.270508,-0.647461,0.527344,0
33430,0.276855,-0.655762,0.546387,0
33450,0.274414,-0.667969,0.543945,0
33470,0.272461,-0.679199,0.525391,0
33490,0.274414,-0.677246,0.525391,0
33510,0.280762,-0.692871,0.527832,0
33530,0.292969,-0.69043,0.522949,0
33550,0.291016,-0.688477,0.53125,0
33570,0.290039,-0.697754,0.551758,0
33590,0.297852,-0.711914,0.54541,0
33610,0.295898,-0.710938,0.548828,0
33630,0.289551,-0.713379,0.55127,0
33650,0.293457,-0.712891,0.562012,0
33670,0.290527,-0.714844,0.550781,0
33690,0.271973,-0.719238,0.547363,0
33710,0.279297,-0.725098,0.550293,0
33730,0.265137,-0.736816,0.546875,0
33750,0.243652,-0.729004,0.552246,0
33770,0.243164,-0.755371,0.546387,0
33790,0.239746,-0.748535,0.562988,0
33810,0.213379,-0.730957,0.548828,0
33830,0.210938,-0.719727,0.530273,0
33850,0.217285,-0.733887,0.553223,0
33870,0.197754,-0.721191,0.560547,0
33890,0.196777,-0.721191,0.539062,0
33910,0.203613,-0.737305,0.536621,0
33930,0.1875,-0.729492,0.546875,0
33950,0.166504,-0.730957,0.558594,0
33970,0.185547,-0.72168,0.541992,0
33990,0.175781,-0.727539,0.5625,0
34010,0.177734,-0.76416,0.560059,0
34030,0.197266,-0.76709,0.549805,0
34050,0.180176,-0.742676,0.567383,0
34070,0.201172,-0.744629,0.538574,0
34090,0.220215,-0.749512,0.541016,0
34110,0.22168,-0.757324,0.552734,0
34140,0.219238,-0.744141,0.563477,0
34160,0.216797,-0.73877,0.541504,0
34180,0.234375,-0.746582,0.537109,0
34200,0.241699,-0.73291,0.534668,0
34220,0.230469,-0.754883,0.536621,0
34240,0.250488,-0.752441,0.533203,0
34260,0.237793,-0.740234,0.535645,0
34280,0.231445,-0.725098,0.538574,0
34300,0.234863,-0.725098,0.534668,0
34320,0.238281,-0.749023,0.520508,0
34340,0.226074,-0.743652,0.533203,0
34360,0.23877,-0.744629,0.530273,0
34380,0.247559,-0.750488,0.518555,0
34400,0.231445,-0.731445,0.541016,0
34420,0.236328,-0.731445,0.541504,0
34440,0.248047,-0.759766,0.535156,0
34460,0.24707,-0.752441,0.543945,0
34480,0.234375,-0.740723,0.541016,0
34500,0.243652,-0.740234,0.520996,0
34520,0.240234,-0.760254,0.529785,0
34540,0.246582,-0.759277,0.53125,0
34560,0.254883,-0.754395,0.52832,0
34580,0.247559,-0.739258,0.534668,0
34600,0.231445,-0.747559,0.533691,0
34620,0.227539,-0.764648,0.543945,0
34640,0.241211,-0.76709,0.509277,0
34660,0.240234,-0.744629,0.523438,0
34680,0.246582,-0.737793,0.538086,0
34700,0.237305,-0.766602,0.536133,0
34720,0.24707,-0.74707,0.526855,0
34740,0.238281,-0.74707,0.532227,0
34760,0.249512,-0.742676,0.525391,0
34780,0.235352,-0.757324,0.520996,0
34800,0.241211,-0.744141,0.525879,0
34820,0.241699,-0.750977,0.514648,0
34840,0.240234,-0.740234,0.532715,0
34860,0.23877,-0.755859,0.536133,0
34880,0.242188,-0.751953,0.525879,0
34900,0.241699,-0.749512,0.520508,0
34920,0.230469,-0.730957,0.54248,0
34940,0.23584,-0.748047,0.538086,0
34960,0.250488,-0.750488,0.529785,0
34980,0.239746,-0.74707,0.534668,0
35000,0.241211,-0.750977,0.525391,0
35020,0.250977,-0.748047,0.521973,0
35040,0.25,-0.750488,0.529785,0
35060,0.245605,-0.72998,0.536621,0
35080,0.238281,-0.756836,0.526367,0
35100,0.237793,-0.737793,0.54248,0
35120,0.239258,-0.746582,0.538574,0
35140,0.243164,-0.742188,0.527344,0
35160,0.250977,-0.739746,0.524902,0
35180,0.241211,-0.741211,0.540039,0
35190,0.245605,-0.760254,0.541016,0
35210,0.25,-0.746582,0.535645,0
35230,0.23877,-0.723633,0.510742,0
35250,0.231445,-0.733887,0.524414,0
35270,0.249023,-0.756836,0.535156,0
35290,0.241699,-0.774414,0.536133,0
35310,0.248047,-0.724121,0.531738,0
35340,0.241211,-0.753418,0.51123,0
35360,0.231934,-0.753906,0.531738,0
35380,0.241699,-0.751953,0.550781,0
35400,0.255371,-0.75,0.518555,0
35420,0.243164,-0.743164,0.505859,0
35440,0.231934,-0.743164,0.541016,0
35460,0.242676,-0.748047,0.539062,0
35480,0.245605,-0.765137,0.53418,0
35500,0.243164,-0.742676,0.530762,0
35520,0.249512,-0.749512,0.525391,0
35540,0.251465,-0.748047,0.52002,0
35560,0.239258,-0.739746,0.532715,0
35580,0.227051,-0.753906,0.530273,0
35600,0.26416,-0.745605,0.52832,0
35620,0.254883,-0.747559,0.529297,0
35640,0.237793,-0.734863,0.546387,2000
35660,0.254883,-0.759277,0.522461,0
35680,0.242188,-0.766602,0.53418,0
35700,0.251465,-0.72998,0.521973,0
35720,0.246582,-0.731445,0.509766,0
35740,0.24707,-0.744141,0.532227,0
35760,0.249023,-0.755859,0.516113,0
35780,0.249512,-0.756836,0.516602,0
35800,0.245117,-0.774414,0.537598,0
35820,0.241699,-0.762695,0.506348,0
35840,0.251465,-0.718262,0.503418,0
35860,0.249023,-0.742188,0.507812,0
35880,0.232422,-0.738281,0.525391,0
35900,0.239258,-0.754883,0.534668,0
35920,0.233887,-0.770996,0.530762,0
35940,0.234375,-0.76123,0.522949,0
35960,0.234863,-0.738281,0.518555,0
35980,0.223145,-0.736328,0.515137,0
36000,0.212402,-0.760254,0.527832,0
36020,0.208984,-0.775391,0.521973,0
36040,0.215332,-0.757324,0.538086,0
36060,0.210938,-0.747559,0.523926,0
36080,0.213867,-0.728516,0.520996,0
36100,0.212402,-0.72998,0.509766,0
36120,0.217773,-0.751465,0.525391,0
36140,0.223145,-0.775391,0.518066,0
36160,0.219727,-0.758789,0.518555,0
36180,0.228516,-0.734375,0.513672,0
36200,0.23584,-0.741211,0.513672,0
36220,0.24707,-0.76709,0.537598,0
36240,0.227539,-0.77002,0.536133,0
36260,0.229004,-0.749023,0.531738,0
36280,0.266602,-0.761719,0.524902,0
36300,0.275879,-0.758789,0.52002,0
36320,0.250977,-0.757812,0.523438,0
36340,0.252441,-0.776855,0.50293,0
36360,0.259277,-0.767578,0.52002,0
36380,0.260254,-0.745117,0.506348,0
36400,0.259277,-0.752441,0.510742,0
36420,0.273926,-0.757324,0.517578,0
36440,0.269531,-0.770508,0.519531,0
36460,0.249512,-0.76709,0.506836,0
36480,0.259766,-0.754395,0.507812,0
36500,0.271973,-0.743164,0.509277,0
36520,0.260742,-0.749023,0.508789,0
36540,0.244141,-0.745117,0.503418,0
36560,0.244141,-0.734375,0.518066,0
36580,0.255371,-0.759277,0.508789,0
36600,0.264648,-0.752441,0.493164,0
36610,0.254883,-0.75293,0.507324,0
36630,0.253418,-0.735352,0.522461,0
36650,0.265625,-0.760254,0.51416,0
36670,0.268066,-0.758789,0.504395,0
36690,0.258789,-0.759277,0.506836,0
36710,0.271484,-0.738281,0.510254,0
36730,0.293457,-0.758301,0.49707,0
36750,0.290039,-0.756348,0.494629,0
36770,0.290527,-0.741699,0.503906,0
36790,0.292969,-0.753906,0.513672,0
36810,0.299805,-0.766602,0.492188,0
36830,0.30957,-0.75293,0.492676,0
36850,0.311035,-0.750977,0.498535,0
36870,0.305664,-0.755859,0.500488,0
36890,0.305176,-0.734863,0.496094,0
36910,0.31543,-0.736816,0.500488,0
36930,0.32373,-0.736816,0.507812,0
36950,0.302734,-0.721191,0.512695,0
36970,0.310547,-0.713867,0.505859,0
36990,0.325195,-0.719727,0.491211,0
37010,0.348633,-0.711914,0.500488,0
37030,0.347656,-0.71582,0.513184,0
37050,0.350586,-0.722168,0.496094,0
37070,0.35791,-0.714355,0.489258,0
37090,0.356445,-0.716797,0.48584,0
37110,0.363281,-0.723145,0.488281,0
37130,0.363281,-0.710938,0.49707,0
37140,0.363281,-0.708984,0.497559,0
37160,0.377441,-0.713379,0.499512,0
37180,0.394043,-0.709961,0.50293,0
37200,0.388184,-0.714355,0.493652,0
37220,0.380859,-0.702637,0.496094,0
37240,0.380371,-0.70166,0.499512,0
37260,0.402832,-0.712891,0.494141,0
37280,0.404297,-0.710449,0.48584,0
37300,0.414062,-0.69043,0.474121,0
37320,0.430176,-0.699219,0.488281,0
37340,0.442383,-0.710449,0.492188,0
37360,0.436523,-0.709961,0.480957,0
37380,0.444824,-0.699219,0.480469,0
37400,0.447754,-0.688477,0.461426,0
37420,0.438965,-0.679199,0.461914,0
37440,0.429688,-0.666992,0.474121,0
37460,0.427734,-0.689453,0.476562,0
37480,0.416504,-0.691895,0.478516,0
37500,0.39502,-0.675781,0.490234,0
37520,0.388184,-0.658203,0.501465,0
37540,0.397461,-0.661133,0.498047,0
37560,0.40332,-0.675781,0.494141,0
37580,0.420898,-0.677734,0.493652,0
37600,0.418945,-0.669434,0.505371,0
37620,0.414062,-0.682129,0.499512,0
37640,0.409668,-0.682129,0.499512,0
37660,0.417969,-0.666504,0.507324,0
37680,0.429199,-0.673828,0.501953,0
37700,0.425293,-0.669434,0.504883,0
37720,0.435547,-0.666504,0.508789,0
37740,0.442871,-0.669434,0.505371,0
37760,0.443359,-0.671387,0.504883,0
37780,0.444824,-0.661133,0.505859,0
37800,0.438477,-0.659668,0.519531,0
37820,0.450195,-0.660645,0.515625,0
37840,0.451172,-0.669922,0.513672,0
37860,0.438965,-0.643066,0.522949,0
37880,0.446777,-0.647461,0.526367,0
37900,0.445312,-0.649902,0.519531,0
37920,0.43457,-0.635742,0.522461,0
37940,0.422852,-0.641602,0.518555,0
37960,0.428711,-0.640625,0.530762,0
37980,0.445312,-0.635742,0.53125,0
38000,0.447266,-0.618652,0.526855,0
38020,0.436035,-0.617676,0.525391,0
38040,0.442871,-0.630371,0.530273,0
38060,0.461914,-0.651367,0.52832,0
38080,0.456543,-0.623535,0.520508,0
38100,0.457031,-0.608887,0.516113,0
38120,0.469238,-0.620605,0.537109,0
38140,0.482422,-0.630371,0.522461,0
38160,0.483887,-0.619141,0.521484,0
38180,0.48291,-0.612305,0.533691,0
38200,0.486328,-0.611328,0.530762,0
38220,0.488281,-0.599609,0.526367,0
38240,0.481445,-0.608398,0.539062,0
38260,0.485352,-0.601074,0.544434,0
38280,0.469727,-0.597168,0.537598,0
38300,0.46582,-0.57959,0.537109,0
38320,0.489746,-0.594727,0.539062,0
38340,0.503906,-0.591797,0.560547,0
38360,0.495605,-0.577637,0.555176,0
38380,0.491699,-0.571777,0.556152,0
38400,0.507324,-0.572754,0.560059,0
38420,0.491211,-0.5625,0.560059,0
38440,0.474121,-0.583984,0.559082,0
38460,0.483398,-0.583008,0.566895,0
38480,0.502441,-0.581055,0.560059,0
38500,0.503418,-0.561035,0.554199,0
38520,0.487793,-0.536133,0.560547,0
38540,0.497559,-0.556641,0.562012,0
38560,0.484375,-0.580566,0.559082,0
38580,0.48584,-0.567383,0.584961,0
38600,0.517578,-0.547852,0.584961,0
38620,0.525879,-0.544922,0.561523,0
38640,0.51416,-0.52832,0.558105,0
38660,0.517578,-0.511719,0.579102,0
38680,0.523438,-0.539551,0.578125,0
38700,0.523438,-0.530273,0.574219,0
38720,0.52002,-0.531738,0.583496,0
38740,0.516113,-0.523438,0.581543,0
38760,0.530273,-0.535645,0.567383,0
38780,0.544922,-0.512695,0.57666,0
38800,0.555176,-0.519043,0.581055,0
38820,0.54541,-0.529785,0.571289,0
38840,0.539062,-0.521484,0.582031,0
38860,0.53418,-0.526367,0.565918,0
38880,0.533691,-0.539551,0.556641,0
38900,0.523438,-0.537598,0.57959,0
38920,0.497559,-0.538086,0.604492,0
38940,0.474121,-0.526367,0.583008,0
38960,0.48877,-0.518555,0.601562,0
38980,0.477539,-0.54541,0.605469,0
39000,0.451172,-0.535156,0.600586,0
39020,0.475586,-0.533203,0.612305,0
39040,0.500977,-0.538574,0.60498,0
39060,0.495117,-0.523438,0.585449,0
39080,0.47998,-0.503418,0.595703,0
39100,0.456055,-0.52832,0.602539,0
39120,0.457031,-0.540527,0.592773,0
39140,0.48291,-0.531738,0.592285,0
39160,0.473633,-0.529297,0.590332,0
39180,0.454102,-0.515137,0.597168,0
39200,0.450684,-0.541016,0.600586,0
39220,0.457031,-0.560059,0.599609,0
39240,0.444824,-0.557129,0.596191,0
39260,0.44043,-0.536621,0.610352,0
39280,0.416016,-0.550781,0.611816,0
39300,0.392578,-0.549316,0.612793,0
39320,0.402344,-0.567383,0.612793,0
39340,0.401367,-0.56543,0.610352,0
39360,0.399414,-0.554688,0.614746,0
39380,0.416504,-0.558105,0.61084,0
39400,0.416016,-0.543945,0.615234,0
39420,0.400391,-0.554688,0.62207,0
39440,0.408203,-0.566895,0.624512,0
39460,0.408203,-0.559082,0.625488,0
39480,0.397949,-0.5625,0.622559,0
39500,0.389648,-0.574219,0.628906,0
39520,0.367676,-0.569824,0.622559,0
39540,0.384277,-0.57666,0.618652,0
39560,0.423828,-0.588379,0.621582,0
39580,0.412598,-0.594238,0.618164,0
39600,0.399902,-0.574707,0.61084,0
39620,0.432129,-0.599609,0.584473,0
39640,0.437012,-0.595215,0.589355,0
39660,0.407715,-0.572266,0.60498,0
39680,0.414062,-0.586426,0.590332,0
39700,0.429688,-0.615723,0.595215,0
39720,0.414062,-0.588379,0.610352,0
39740,0.414062,-0.595703,0.585449,0
39760,0.398926,-0.624023,0.576172,0
39780,0.358398,-0.587402,0.596191,0
39800,0.352539,-0.595703,0.609375,0
39820,0.38916,-0.611328,0.566895,0
39840,0.38623,-0.609375,0.576172,0
39860,0.374512,-0.595215,0.578613,0
39880,0.398438,-0.609375,0.569824,0
39900,0.401367,-0.614258,0.576172,0
39920,0.382324,-0.610352,0.57959,0
39940,0.379883,-0.623047,0.577148,0
39960,0.370605,-0.620605,0.584961,0
39980,0.356934,-0.611816,0.59668,0
40000,0.386719,-0.611816,0.580566,0
40020,0.399902,-0.617188,0.577148,0
40040,0.375488,-0.626953,0.586426,0
40060,0.393555,-0.643066,0.57373,0
40080,0.395508,-0.646484,0.581543,0
40100,0.383301,-0.62793,0.578613,0
40120,0.387695,-0.622559,0.563965,0
40140,0.394043,-0.630371,0.5625,0
40160,0.369629,-0.621582,0.573242,0
40180,0.359863,-0.625488,0.549805,0
40200,0.383301,-0.640137,0.546875,0
40220,0.359375,-0.64209,0.57666,0
40240,0.347656,-0.635254,0.575684,0
40260,0.350098,-0.639648,0.564941,0
40280,0.365234,-0.649414,0.54541,0
40300,0.376465,-0.628906,0.572754,0
40320,0.343262,-0.64502,0.574707,0
40340,0.334473,-0.650879,0.555664,0
40360,0.362305,-0.673828,0.536133,0
40380,0.349609,-0.665039,0.560059,0
40400,0.338379,-0.64502,0.560547,0
40420,0.36084,-0.651855,0.545898,0
40440,0.357422,-0.664062,0.554199,0
40460,0.345215,-0.661133,0.561523,0
40480,0.34375,-0.655762,0.556152,0
40500,0.337891,-0.67627,0.543945,0
40520,0.355957,-0.678223,0.539551,0
40540,0.37793,-0.681152,0.538574,0
40550,0.356934,-0.670898,0.551758,0
40570,0.339355,-0.679688,0.537598,0
40590,0.36377,-0.693848,0.530762,0
40610,0.35498,-0.669434,0.556152,0
40630,0.328613,-0.667969,0.537598,0
40650,0.368652,-0.712402,0.507324,0
40670,0.388672,-0.705078,0.530273,0
40690,0.380859,-0.694336,0.54541,0
40710,0.385254,-0.696289,0.525391,0
40730,0.389648,-0.699219,0.51416,0
40750,0.366211,-0.70459,0.516113,0
40760,0.400391,-0.703125,0.505371,0
40780,0.410645,-0.713867,0.513184,0
40820,0.350098,-0.708008,0.486816,0
40840,0.365723,-0.704102,0.49707,0
40860,0.350586,-0.686523,0.505859,0
40900,0.353516,-0.729492,0.473633,0
40920,0.351562,-0.716797,0.485352,0
40940,0.328125,-0.710449,0.490234,0
40960,0.328613,-0.715332,0.475098,0
40980,0.338867,-0.724121,0.473145,0
41000,0.324219,-0.722656,0.48877,0
41020,0.320312,-0.729004,0.481445,0
41040,0.336426,-0.733398,0.469727,0
41060,0.33252,-0.727051,0.474609,0
41080,0.326172,-0.737793,0.474609,0
41100,0.324707,-0.761719,0.465332,0
41120,0.32666,-0.766113,0.472656,0
41140,0.322754,-0.752441,0.475098,0
41160,0.347168,-0.75293,0.470703,0
41180,0.376465,-0.721191,0.470215,0
41200,0.379883,-0.72168,0.466309,0
41220,0.361816,-0.750977,0.444336,0
41240,0.373535,-0.773438,0.425781,0
41260,0.387207,-0.751953,0.446289,0
41280,0.400879,-0.741211,0.44043,0
41300,0.41748,-0.738281,0.412598,0
41320,0.428711,-0.729004,0.408691,0
41340,0.436035,-0.737305,0.425293,0
41360,0.45166,-0.730957,0.419922,0
41380,0.469238,-0.734863,0.429688,0
41400,0.48584,-0.710449,0.435547,0
41420,0.491211,-0.717285,0.421875,0
41440,0.490723,-0.717773,0.410156,0
41460,0.49707,-0.703125,0.413574,0
41480,0.479492,-0.705566,0.421875,0
41500,0.480957,-0.712891,0.407715,0
41520,0.491211,-0.70459,0.394531,0
41540,0.494141,-0.691406,0.396484,0
41560,0.480957,-0.704102,0.383789,0
41580,0.498535,-0.717773,0.388184,0
41600,0.492188,-0.706055,0.398438,0
41620,0.50293,-0.715332,0.379883,0
41640,0.510742,-0.719727,0.371582,0
41660,0.502441,-0.693359,0.376953,0
41680,0.500977,-0.723633,0.400879,0
41700,0.504395,-0.720215,0.391602,0
41720,0.512695,-0.707031,0.372559,0
41740,0.525391,-0.697266,0.371582,0
41760,0.512695,-0.676758,0.385254,0
41780,0.510742,-0.694824,0.371094,0
41800,0.523926,-0.718262,0.371582,0
41820,0.519531,-0.701172,0.384766,0
41840,0.521973,-0.669434,0.384766,0
41860,0.546875,-0.685059,0.357422,0
41880,0.544922,-0.667969,0.366211,0
41900,0.532715,-0.656738,0.364258,0
41920,0.543945,-0.673828,0.363281,0
41940,0.54834,-0.680664,0.37207,0
41960,0.557617,-0.668945,0.39502,0
41980,0.564941,-0.672363,0.342773,0
42000,0.582031,-0.65332,0.31543,0
42020,0.599121,-0.649414,0.344727,0
42040,0.620117,-0.642578,0.369629,0
42060,0.642578,-0.660156,0.344238,0
42080,0.613281,-0.657715,0.354492,0
42100,0.62207,-0.617188,0.372559,0
42120,0.632324,-0.650391,0.345703,0
42140,0.631348,-0.651855,0.332031,0
42160,0.632812,-0.631348,0.34375,0
42180,0.627441,-0.625,0.359863,0
42200,0.616699,-0.640137,0.334473,0
42220,0.633789,-0.637695,0.338867,0
42240,0.617188,-0.61084,0.344238,0
42260,0.602539,-0.617188,0.327148,0
42280,0.623535,-0.62793,0.337891,0
42320,0.614746,-0.60791,0.336426,0
42340,0.634277,-0.605957,0.329102,0
42360,0.666992,-0.619141,0.32373,0
42380,0.663574,-0.612305,0.32666,0
42400,0.654297,-0.592773,0.341309,0
42420,0.634766,-0.598633,0.341797,0
42440,0.649902,-0.59375,0.329102,0
42460,0.661621,-0.57959,0.335938,0
42480,0.634277,-0.539062,0.344727,0
42500,0.647461,-0.547852,0.353027,0
42510,0.677734,-0.578125,0.338379,0
42530,0.659668,-0.549316,0.341797,0
42550,0.652832,-0.505371,0.362305,0
42570,0.686523,-0.511719,0.352539,0
42590,0.690918,-0.527832,0.351562,0
42610,0.654785,-0.500977,0.364746,0
42620,0.687012,-0.513672,0.382324,0
42640,0.6875,-0.511719,0.354004,0
42660,0.692383,-0.489746,0.369141,0
42680,0.714355,-0.46875,0.390625,0
42700,0.726562,-0.466797,0.389648,0
42720,0.71582,-0.463379,0.397461,0
42740,0.721191,-0.464844,0.411133,0
42760,0.736816,-0.464844,0.415527,0
42780,0.743652,-0.447754,0.420898,0
42800,0.730957,-0.437012,0.424805,0
42820,0.738281,-0.443848,0.427246,0
42840,0.736328,-0.44873,0.443848,0
42860,0.743164,-0.439453,0.436035,0
42880,0.763672,-0.439941,0.431641,0
42900,0.774414,-0.448242,0.45752,0
42920,0.728516,-0.427246,0.464844,0
42940,0.722656,-0.439941,0.464844,0
42960,0.749512,-0.427246,0.475098,0
42980,0.76123,-0.418945,0.450195,0
43000,0.748047,-0.412598,0.4375,0
43020,0.719238,-0.407227,0.471191,0
43040,0.719727,-0.420898,0.473633,0
43060,0.712891,-0.435547,0.46582,0
43080,0.714355,-0.407715,0.479492,0
43100,0.716797,-0.396484,0.461914,0
43120,0.691406,-0.389648,0.464355,0
43140,0.666992,-0.381348,0.503418,0
43160,0.661621,-0.418457,0.514648,0
43180,0.674805,-0.412109,0.479492,0
43200,0.703125,-0.401855,0.491699,0
43220,0.713379,-0.403809,0.475586,0
43240,0.668457,-0.396484,0.483887,0
43260,0.656738,-0.404785,0.513672,0
43280,0.680176,-0.416016,0.506836,0
43300,0.70459,-0.394043,0.501465,0
43320,0.693848,-0.381836,0.499512,0
43340,0.643555,-0.40332,0.52832,0
43360,0.619141,-0.394043,0.561035,0
43380,0.63623,-0.425293,0.54541,0
43400,0.674805,-0.419434,0.502441,0
43420,0.669434,-0.396973,0.506348,0
43440,0.652344,-0.367676,0.516602,0
43460,0.650391,-0.398926,0.522461,0
43480,0.645996,-0.418457,0.528809,0
43500,0.641113,-0.405273,0.527344,0
43520,0.662598,-0.42041,0.500977,0
43540,0.63623,-0.425293,0.543457,0
43560,0.605957,-0.399902,0.545898,0
43580,0.632324,-0.408203,0.539551,0
43600,0.650391,-0.416016,0.515625,0
43620,0.59082,-0.398926,0.548828,0
43640,0.559082,-0.405273,0.566895,0
43660,0.602539,-0.439453,0.570801,0
43680,0.626953,-0.42627,0.561035,0
43700,0.618652,-0.395508,0.553711,0
43720,0.612793,-0.396484,0.563477,0
43740,0.628906,-0.42334,0.57373,0
43760,0.618652,-0.442871,0.561523,0
43780,0.586426,-0.431152,0.566406,0
43800,0.549805,-0.422852,0.570801,0
43820,0.55957,-0.449219,0.572266,0
43840,0.570801,-0.441406,0.561523,0
43860,0.572266,-0.430664,0.571289,0
43880,0.556641,-0.436523,0.57959,0
43900,0.550293,-0.473145,0.575195,0
43920,0.561523,-0.47998,0.572754,0
43940,0.556641,-0.47998,0.591797,0
43960,0.551758,-0.462891,0.592773,0
43980,0.540039,-0.472168,0.579102,0
44000,0.493164,-0.455078,0.581055,0
44020,0.512207,-0.474121,0.580078,0
44040,0.550293,-0.504395,0.571289,0
44060,0.517578,-0.470703,0.597168,0
44080,0.506348,-0.477539,0.567383,0
44100,0.566895,-0.492188,0.562012,0
44120,0.533691,-0.492188,0.581055,0
44140,0.512207,-0.484863,0.577637,0
44160,0.55127,-0.518555,0.562988,0
44180,0.563477,-0.516602,0.566895,0
44200,0.510254,-0.512207,0.580566,0
44220,0.48291,-0.498047,0.572754,0
44240,0.508301,-0.485352,0.600098,0
44260,0.520996,-0.508789,0.585938,0
44280,0.492676,-0.518066,0.570312,0
44300,0.489258,-0.503906,0.586426,0
44320,0.52002,-0.508789,0.576172,0
44340,0.523438,-0.528809,0.55957,0
44360,0.500977,-0.536621,0.578125,0
44380,0.491211,-0.523438,0.585449,0
44400,0.505859,-0.542969,0.55957,0
44420,0.470703,-0.560547,0.5625,0
44440,0.442383,-0.521484,0.574707,0
44460,0.490723,-0.543457,0.567383,0
44480,0.509766,-0.54834,0.582031,0
44500,0.45752,-0.534668,0.602051,0
44520,0.481934,-0.553711,0.580566,0
44540,0.522949,-0.586426,0.553711,0
44560,0.490723,-0.572266,0.59375,0
44580,0.48584,-0.560547,0.560547,0
44600,0.508301,-0.562012,0.552734,0
44620,0.477539,-0.554688,0.585449,0
44640,0.45166,-0.562012,0.57666,0
44660,0.479004,-0.569824,0.568848,0
44680,0.45459,-0.56543,0.584473,0
44700,0.428711,-0.563477,0.560547,0
44720,0.430664,-0.557617,0.564453,0
44740,0.425781,-0.553223,0.578125,0
44760,0.452148,-0.560547,0.559082,0
44780,0.481934,-0.576172,0.566895,0
44800,0.450684,-0.582031,0.578125,0
44820,0.458008,-0.577148,0.555664,0
44840,0.498047,-0.585938,0.543945,0
44860,0.462402,-0.57959,0.540527,0
44880,0.461426,-0.589844,0.543945,0
44900,0.47998,-0.620605,0.530762,0
44920,0.443848,-0.61084,0.547852,0
44940,0.442383,-0.600098,0.541504,0
44960,0.494629,-0.610352,0.523926,0
44980,0.445801,-0.60498,0.545898,0
45000,0.398438,-0.59668,0.561523,0
45020,0.477051,-0.634766,0.52002,0
45040,0.477539,-0.63916,0.544922,0
45060,0.41748,-0.624023,0.544434,0
45080,0.498047,-0.664551,0.508301,0
45100,0.485352,-0.65918,0.516113,0
45120,0.434082,-0.654297,0.508789,0
45140,0.472656,-0.679199,0.505371,0
45160,0.450684,-0.667969,0.494629,0
45180,0.396973,-0.634766,0.496582,0
45200,0.444336,-0.674805,0.491211,0
45220,0.446289,-0.679688,0.465332,0
45240,0.375977,-0.648438,0.463379,0
45260,0.38916,-0.664062,0.459961,0
45280,0.445801,-0.678223,0.438965,0
45300,0.407227,-0.68457,0.449219,0
45320,0.408691,-0.693848,0.436523,0
45340,0.437988,-0.686035,0.42041,0
45360,0.429688,-0.688965,0.430664,0
45380,0.400391,-0.685059,0.441895,0
45400,0.399902,-0.711426,0.396484,0
45420,0.428223,-0.732422,0.368164,0
45440,0.4375,-0.71875,0.40625,0
45460,0.416016,-0.707031,0.405273,0
45480,0.44043,-0.708984,0.369141,0
45500,0.485352,-0.758789,0.382324,0
45520,0.469727,-0.749023,0.40625,0
45540,0.433594,-0.750977,0.385742,0
45560,0.475098,-0.753906,0.374512,0
45580,0.516113,-0.744629,0.383301,0
45600,0.506348,-0.706055,0.361328,0
45620,0.510742,-0.701172,0.35791,0
45640,0.480957,-0.719727,0.359375,0
45660,0.463379,-0.728516,0.355957,0
45680,0.525391,-0.74707,0.338867,0
45700,0.563965,-0.695801,0.334961,0
45720,0.566895,-0.657227,0.343262,0
45740,0.584961,-0.668945,0.349121,0
45760,0.604004,-0.710449,0.355957,0
45780,0.609863,-0.723633,0.329102,0
45800,0.645996,-0.733887,0.30957,0
45820,0.626953,-0.691406,0.331055,0
45840,0.592773,-0.666992,0.321777,0
45860,0.587891,-0.686035,0.283203,0
45880,0.629883,-0.694336,0.294434,0
45890,0.638184,-0.681641,0.304199,0
45910,0.616211,-0.645508,0.268555,0
45930,0.626465,-0.665527,0.250977,0
45950,0.651367,-0.683105,0.289551,0
45970,0.643555,-0.677246,0.267578,0
45990,0.645996,-0.651855,0.228516,0
46010,0.65332,-0.643066,0.245117,0
46030,0.645996,-0.614258,0.250977,0
46050,0.640625,-0.637695,0.222656,0
46070,0.651367,-0.659668,0.208984,0
46090,0.647461,-0.645508,0.234375,0
46110,0.64502,-0.635254,0.217773,0
46130,0.668457,-0.634277,0.196289,0
46150,0.701172,-0.631836,0.193359,0
46170,0.705078,-0.614746,0.209473,0
46190,0.693359,-0.596191,0.211914,0
46210,0.693359,-0.618652,0.201172,0
46230,0.712402,-0.610352,0.214355,0
46250,0.739746,-0.60498,0.208496,0
46270,0.726074,-0.587891,0.185059,0
46290,0.72168,-0.59082,0.204102,0
46310,0.71875,-0.578613,0.207031,0
46330,0.73291,-0.567383,0.192871,0
46350,0.747559,-0.583008,0.186035,0
46370,0.731445,-0.552246,0.205078,0
46390,0.711426,-0.550293,0.21582,0
46410,0.729004,-0.537109,0.202637,0
46430,0.78418,-0.55957,0.199219,0
46450,0.808105,-0.547852,0.194824,0
46470,0.776367,-0.513672,0.216797,0
46490,0.791016,-0.530762,0.210449,0
46510,0.790527,-0.530762,0.194824,0
46530,0.804199,-0.518555,0.194824,0
46550,0.790527,-0.501953,0.20459,0
46570,0.786621,-0.493164,0.204102,0
46590,0.797852,-0.526855,0.182617,0
46610,0.788574,-0.523926,0.197266,0
46630,0.776855,-0.481445,0.209961,0
46650,0.79541,-0.480469,0.20166,0
46670,0.81543,-0.489746,0.196289,0
46690,0.817383,-0.489746,0.210938,0
46710,0.806641,-0.48291,0.213379,0
46730,0.807129,-0.48584,0.21875,0
46750,0.819336,-0.475098,0.220703,0
46770,0.83252,-0.453125,0.207031,0
46790,0.789551,-0.444336,0.237305,0
46810,0.786621,-0.418457,0.248047,0
46830,0.814453,-0.439453,0.240723,0
46850,0.845215,-0.40625,0.23291,0
46870,0.85498,-0.388184,0.227051,0
46890,0.847656,-0.390625,0.231445,0
46910,0.845215,-0.397949,0.251953,0
46930,0.849609,-0.381836,0.251465,0
46950,0.860352,-0.350098,0.237793,0
46970,0.859863,-0.341309,0.231934,0
46990,0.84668,-0.336426,0.233887,0
47010,0.844727,-0.338379,0.257812,0
47030,0.866699,-0.320312,0.275391,0
47050,0.882324,-0.318848,0.249023,0
47070,0.885742,-0.295898,0.250977,0
47090,0.875488,-0.282715,0.291016,0
47110,0.880371,-0.285156,0.29248,0
47130,0.875488,-0.306152,0.254883,0
47150,0.839355,-0.274902,0.282715,0
47170,0.836426,-0.277344,0.310059,0
47190,0.869629,-0.30957,0.296387,0
47210,0.858887,-0.294434,0.319336,0
47230,0.856445,-0.288086,0.335938,0
47250,0.847168,-0.299805,0.319336,0
47270,0.802734,-0.305664,0.354492,0
47290,0.817383,-0.313965,0.367188,0
47310,0.84375,-0.336426,0.335449,0
47330,0.835938,-0.317383,0.360352,0
47350,0.795898,-0.332031,0.39209,0
47370,0.77832,-0.327148,0.384766,0
47390,0.789551,-0.346191,0.40918,0
47410,0.809082,-0.36084,0.403809,0
47430,0.817383,-0.324707,0.383301,0
47450,0.796875,-0.333008,0.399414,0
47470,0.745605,-0.356934,0.415039,0
47490,0.733398,-0.365234,0.436035,0
47510,0.744629,-0.393066,0.421387,0
47530,0.740234,-0.374512,0.40918,0
47550,0.721191,-0.341797,0.409668,0
47570,0.760742,-0.351562,0.417969,0
47590,0.741211,-0.387207,0.423828,0
47610,0.677734,-0.387695,0.399414,0
47630,0.694336,-0.371094,0.421387,0
47650,0.768555,-0.392578,0.391113,0
47670,0.778809,-0.398926,0.382324,0
47690,0.751465,-0.40332,0.391602,0
47710,0.693359,-0.40625,0.401855,0
47730,0.687012,-0.451172,0.414062,0
47750,0.681641,-0.461914,0.419434,0
47770,0.704102,-0.404297,0.414551,0
47790,0.708496,-0.402832,0.413574,0
47810,0.6875,-0.42041,0.414551,0
47830,0.700195,-0.461914,0.41748,0
47850,0.696777,-0.480957,0.440918,0
47870,0.66748,-0.46582,0.442383,0
47880,0.705566,-0.425293,0.408691,0
47900,0.736328,-0.421875,0.43457,0
47920,0.66748,-0.449219,0.4375,0
47940,0.59375,-0.472168,0.438965,0
47960,0.63623,-0.481934,0.489746,0
47980,0.724121,-0.493652,0.454102,0
48000,0.722656,-0.438477,0.439453,0
48020,0.65625,-0.429688,0.444336,0
48040,0.686523,-0.480957,0.446289,0
48060,0.708984,-0.501953,0.456055,0
48080,0.645508,-0.493164,0.453613,0
48100,0.630371,-0.453125,0.416992,0
48120,0.664062,-0.467773,0.428711,0
48140,0.658691,-0.492676,0.442383,0
48160,0.624023,-0.48584,0.421875,0
48180,0.630859,-0.463379,0.413086,0
48200,0.724609,-0.495117,0.411621,0
48220,0.719727,-0.492188,0.400391,0
48240,0.619141,-0.494141,0.395508,0
48260,0.666504,-0.529785,0.382812,0
48280,0.72998,-0.554688,0.415039,0
48300,0.666016,-0.526855,0.420898,0
48320,0.652344,-0.521973,0.38916,0
48340,0.681641,-0.539551,0.395508,0
48360,0.662109,-0.54248,0.40332,0
48380,0.66748,-0.55127,0.387207,0
48400,0.681641,-0.550781,0.38916,0
48420,0.632812,-0.544922,0.416504,0
48440,0.65332,-0.549316,0.408203,0
48460,0.689453,-0.56543,0.383301,0
48480,0.64209,-0.535645,0.395996,0
48500,0.608887,-0.537109,0.400391,0
48520,0.655762,-0.551758,0.397949,0
48540,0.652832,-0.558105,0.415527,0
48560,0.587891,-0.561523,0.391113,0
48580,0.612793,-0.551758,0.383301,0
48600,0.64502,-0.562012,0.410645,0
48620,0.620605,-0.566895,0.403809,0
48640,0.614746,-0.575195,0.370605,0
48660,0.633789,-0.585938,0.381836,0
48680,0.619629,-0.573242,0.408203,0
48700,0.614258,-0.57959,0.394043,0
48720,0.622559,-0.600586,0.374023,0
48740,0.624023,-0.626953,0.388672,0
48760,0.612793,-0.621582,0.408203,0
48780,0.600586,-0.602051,0.391113,0
48800,0.618652,-0.60498,0.385742,0
48820,0.589355,-0.612793,0.395508,0
48840,0.577148,-0.620117,0.393066,0
48860,0.598633,-0.628906,0.390625,0
48880,0.569336,-0.606934,0.401367,0
48900,0.559082,-0.622559,0.399902,0
48920,0.562012,-0.630859,0.396484,0
48940,0.493164,-0.606445,0.398438,0
48960,0.492676,-0.603516,0.394043,0
48980,0.558105,-0.632324,0.376465,0
49000,0.533691,-0.628418,0.382324,0
49020,0.529297,-0.619629,0.36377,0
49040,0.56543,-0.611328,0.372559,0
49060,0.55957,-0.604004,0.384277,0
49080,0.575684,-0.623047,0.385254,0
49100,0.577637,-0.625977,0.380371,0
49120,0.57959,-0.637695,0.398438,0
49140,0.599121,-0.617188,0.39502,0
49160,0.618164,-0.620605,0.362793,0
49180,0.609863,-0.637695,0.353027,0
49200,0.623047,-0.638672,0.364258,0
49220,0.626465,-0.642578,0.344727,0
49240,0.634766,-0.634766,0.311035,0
49260,0.66748,-0.654785,0.307129,0
49280,0.690918,-0.642578,0.295898,0
49300,0.67041,-0.632324,0.292969,0
49320,0.67334,-0.643066,0.287598,0
49340,0.683594,-0.660156,0.260742,0
49360,0.686523,-0.665039,0.266602,0
49380,0.6875,-0.675781,0.257324,0
49400,0.681152,-0.64502,0.242676,0
49420,0.671875,-0.631348,0.226074,0
49440,0.677246,-0.62793,0.225098,0
49460,0.675781,-0.653809,0.219727,0
49480,0.649902,-0.662109,0.220703,0
49500,0.642578,-0.660645,0.202637,0
49520,0.671875,-0.645508,0.206543,0
49540,0.664551,-0.63916,0.212891,0
49560,0.634766,-0.640137,0.206543,0
49580,0.649414,-0.643555,0.210449,0
49600,0.682617,-0.658691,0.196777,0
49620,0.674316,-0.67041,0.174805,0
49640,0.661621,-0.644531,0.179688,0
49660,0.689453,-0.618652,0.187988,0
49680,0.69043,-0.630859,0.180664,0
49700,0.675781,-0.647949,0.167969,0
49720,0.685059,-0.646973,0.185059,0
49740,0.728027,-0.641602,0.154785,0
49760,0.703613,-0.609375,0.133789,0
49780,0.674316,-0.614258,0.115234,0
49800,0.696289,-0.653809,0.0981445,0
49820,0.692383,-0.626465,0.131348,0
49840,0.70166,-0.611328,0.114258,0
49860,0.715332,-0.621582,0.100586,0
49880,0.708496,-0.604492,0.117188,0
49900,0.712402,-0.611328,0.105957,0
49920,0.713379,-0.599609,0.109863,0
49940,0.749512,-0.62207,0.105469,0
49960,0.782715,-0.606934,0.0947266,0
49980,0.803711,-0.595703,0.0888672,0
50000,0.813477,-0.591309,0.0708008,0
50020,0.801758,-0.599609,0.0688477,0
50040,0.786621,-0.569336,0.0942383,0
50060,0.802246,-0.557129,0.0981445,0
50080,0.811523,-0.570801,0.0620117,0
50100,0.819824,-0.552246,0.0566406,0
50120,0.81543,-0.589355,0.0688477,2001
50140,0.754883,-0.539551,0.0786133,0
50160,0.77002,-0.553223,0.0600586,0
50180,0.807129,-0.541504,0.0532227,0
50200,0.798828,-0.52002,0.0483398,0
50220,0.817871,-0.541016,0.0185547,0
50240,0.839355,-0.586426,0.0483398,0
50260,0.843262,-0.568848,0.059082,0
50280,0.806152,-0.51709,0.03125,0
50300,0.760742,-0.48584,0.0498047,0
50320,0.67627,-0.480469,0.0839844,0
50340,0.54541,-0.45166,0.11377,0
50360,0.483887,-0.430176,0.166504,0
50380,0.525391,-0.478027,0.141602,0
50400,0.571777,-0.471191,0.108398,0
50420,0.58252,-0.496582,0.125488,0
50440,0.618652,-0.5,0.154785,0
50460,0.663086,-0.550781,0.134766,0
50480,0.757812,-0.648438,0.0717773,0
50500,0.723633,-0.647949,0.117676,0
50520,0.659668,-0.581055,0.174805,0
50540,0.725586,-0.617188,0.211426,0
50560,0.791016,-0.659668,0.221191,0
50580,0.795898,-0.619629,0.257324,0
50600,0.712891,-0.566406,0.270996,0
50620,0.741211,-0.575684,0.268066,0
50640,0.802246,-0.620605,0.313477,0
50660,0.841309,-0.621582,0.345215,0
50680,0.851562,-0.631348,0.366211,0
50700,0.844238,-0.647949,0.358398,0
50720,0.854492,-0.678711,0.373535,0
50740,0.82959,-0.722656,0.408691,0
50760,0.730469,-0.712891,0.456055,0
50780,0.629883,-0.746582,0.486816,0
50800,0.602539,-0.79834,0.443848,0
50820,0.611328,-0.772949,0.4375,0
50840,0.59375,-0.762207,0.419922,0
50860,0.536621,-0.745117,0.429688,0
50880,0.480957,-0.723145,0.457031,0
50900,0.456055,-0.775879,0.455566,0
50920,0.426758,-0.758301,0.4375,0
50940,0.365723,-0.730957,0.467773,0
50960,0.313965,-0.708984,0.491211,0
50980,0.292969,-0.738281,0.475586,0
51000,0.315918,-0.773926,0.423828,0
51020,0.325195,-0.771973,0.442871,0
51040,0.268066,-0.753418,0.484375,0
51060,0.263184,-0.771484,0.460449,0
51080,0.283203,-0.787109,0.445801,0
51100,0.290527,-0.79541,0.452148,0
51120,0.273438,-0.762695,0.465332,0
51140,0.266113,-0.746094,0.453125,0
51160,0.292969,-0.790039,0.431152,0
51180,0.303711,-0.788574,0.461914,0
51200,0.293945,-0.771484,0.466309,0
51220,0.329102,-0.789062,0.443848,0
51240,0.374512,-0.767578,0.444336,0
51260,0.341309,-0.733398,0.461426,0
51280,0.303223,-0.745117,0.43457,0
51290,0.332031,-0.76416,0.415527,2000
51310,0.333008,-0.77832,0.486816,0
51330,0.307129,-0.748047,0.456543,0
51350,0.301758,-0.683105,0.433105,0
51370,0.330078,-0.750977,0.462402,0
51390,0.345215,-0.794434,0.464355,0
51410,0.336426,-0.76416,0.449707,0
51430,0.333008,-0.755859,0.445801,0
51450,0.321777,-0.781738,0.469727,0
51470,0.27832,-0.760254,0.451172,0
51490,0.260742,-0.752441,0.464844,0
51510,0.285156,-0.767578,0.464355,0
51530,0.284668,-0.765625,0.447754,0
51550,0.259277,-0.758789,0.471191,0
51570,0.260742,-0.756348,0.472168,0
51590,0.285156,-0.785156,0.476074,0
51610,0.317383,-0.764648,0.484863,0
51630,0.318848,-0.76123,0.470215,0
51650,0.311523,-0.74707,0.461914,0
51670,0.314453,-0.763672,0.464844,0
51690,0.340332,-0.785156,0.445312,0
51710,0.341797,-0.769531,0.455078,0
51730,0.334473,-0.749512,0.448242,0
51750,0.339844,-0.761719,0.438965,0
51770,0.357422,-0.749023,0.45166,0
51790,0.35498,-0.754395,0.442871,0
51810,0.352539,-0.762207,0.426758,0
51830,0.375,-0.758789,0.45166,0
51850,0.390137,-0.755859,0.45752,0
51870,0.37793,-0.762207,0.41748,0
51890,0.374023,-0.75,0.416504,0
51910,0.365723,-0.737793,0.430664,0
51930,0.366211,-0.748535,0.457031,0
51950,0.36084,-0.741699,0.430176,0
51970,0.355469,-0.732422,0.421387,0
51990,0.36084,-0.73291,0.445801,0
52010,0.383301,-0.75,0.439941,0
52030,0.396484,-0.731445,0.419922,0
52050,0.38916,-0.742676,0.425781,0
52070,0.391113,-0.740723,0.436523,0
52090,0.390625,-0.726074,0.448242,0
52110,0.400391,-0.724121,0.436523,0
52130,0.413086,-0.730469,0.420898,0
52150,0.418945,-0.720215,0.452637,0
52170,0.434082,-0.717285,0.466797,0
52190,0.443359,-0.723145,0.433594,0
52210,0.472656,-0.688477,0.419434,0
52230,0.489746,-0.711426,0.424316,0
52250,0.477051,-0.714844,0.450195,0
52270,0.466797,-0.70752,0.427246,0
52290,0.483887,-0.717773,0.405273,0
52310,0.52002,-0.691895,0.432617,0
52330,0.532227,-0.681152,0.446777,0
52350,0.52002,-0.666504,0.431152,0
52370,0.497559,-0.679199,0.416504,0
52390,0.509277,-0.690918,0.417969,0
52410,0.50293,-0.683594,0.4375,0
52430,0.486816,-0.659668,0.439941,0
52450,0.511719,-0.673828,0.398926,0
52470,0.554688,-0.679688,0.412109,0
52490,0.530762,-0.655273,0.42041,0
52510,0.512207,-0.633301,0.438477,0
52530,0.538086,-0.67627,0.419922,0
52550,0.546387,-0.674805,0.409668,0
52570,0.535156,-0.648926,0.416016,0
52590,0.557129,-0.640137,0.416992,0
52610,0.565918,-0.661621,0.419922,0
52630,0.54834,-0.64209,0.424316,0
52650,0.544434,-0.615234,0.41748,0
52670,0.557617,-0.624512,0.408203,0
52690,0.545898,-0.616699,0.391113,0
52710,0.567383,-0.612793,0.422852,0
52730,0.567871,-0.61084,0.433594,0
52750,0.574707,-0.611816,0.410156,0
52770,0.584961,-0.616699,0.404297,0
52790,0.598633,-0.606445,0.436035,0
52810,0.597656,-0.624023,0.444336,0
52830,0.580566,-0.610352,0.422852,0
52850,0.604004,-0.602051,0.418457,0
52870,0.594727,-0.599609,0.438477,0
52890,0.57666,-0.588867,0.450684,0
52910,0.594727,-0.600098,0.44873,0
52930,0.604492,-0.60791,0.447266,0
52950,0.577148,-0.565918,0.451172,0
52970,0.591309,-0.561523,0.459473,0
52990,0.619141,-0.584473,0.447754,0
53010,0.614746,-0.568848,0.430176,0
53030,0.621582,-0.532227,0.456055,0
53050,0.621582,-0.561035,0.44873,0
53070,0.612793,-0.558594,0.445801,0
53090,0.615234,-0.536133,0.45166,0
53110,0.618652,-0.519531,0.453125,0
53130,0.628906,-0.532715,0.445801,0
53150,0.630859,-0.529297,0.443848,0
53170,0.63916,-0.533203,0.449219,0
53190,0.63623,-0.530762,0.440918,0
53210,0.649902,-0.527344,0.439941,0
53230,0.641602,-0.530273,0.448242,0
53250,0.624512,-0.503906,0.47168,0
53270,0.640137,-0.518066,0.455078,0
53280,0.674805,-0.524902,0.455078,0
53300,0.672363,-0.511719,0.473633,0
53320,0.665527,-0.493652,0.459961,0
53340,0.652832,-0.506836,0.44873,0
53360,0.666016,-0.51709,0.458008,0
53380,0.679688,-0.502441,0.482422,0
53400,0.681152,-0.491699,0.475586,0
53420,0.692871,-0.502441,0.47168,0
53440,0.677734,-0.504883,0.490234,0
53460,0.647461,-0.478516,0.506348,0
53480,0.63623,-0.473145,0.50293,0
53500,0.643555,-0.477051,0.5,0
53520,0.63916,-0.454102,0.505859,0
53540,0.645996,-0.438965,0.505371,0
53560,0.645508,-0.457031,0.519531,0
53580,0.601562,-0.443359,0.53418,0
53600,0.568359,-0.431152,0.558594,0
53620,0.59082,-0.465332,0.557129,0
53640,0.62207,-0.445312,0.552246,0
53660,0.59668,-0.41748,0.54541,0
53680,0.593262,-0.422363,0.533203,0
53700,0.621582,-0.450684,0.549805,0
53720,0.633789,-0.444336,0.543945,0
53740,0.621582,-0.429199,0.537598,0
53760,0.612305,-0.410156,0.569336,0
53780,0.639648,-0.434082,0.560059,0
53800,0.664551,-0.421387,0.531738,0
53820,0.651855,-0.400391,0.537109,0
53840,0.659668,-0.402832,0.524902,0
53860,0.678711,-0.42041,0.523438,0
53880,0.668945,-0.403809,0.536133,0
53900,0.672363,-0.37793,0.508789,0
53920,0.693359,-0.397461,0.495117,0
53940,0.674316,-0.395508,0.529297,0
53960,0.637695,-0.396973,0.564941,0
53980,0.660156,-0.418457,0.523438,0
54000,0.678711,-0.416016,0.514648,0
54020,0.645508,-0.381836,0.549316,0
54040,0.628906,-0.394531,0.560547,0
54060,0.664062,-0.42334,0.518555,0
54080,0.64209,-0.408203,0.536621,0
54100,0.606445,-0.381348,0.55957,0
54120,0.62207,-0.407715,0.536133,0
54140,0.651367,-0.419434,0.52002,0
54160,0.624512,-0.409668,0.552246,0
54180,0.571777,-0.404297,0.535156,0
54200,0.591309,-0.425293,0.534668,0
54220,0.625,-0.452637,0.55127,0
54240,0.612305,-0.429199,0.563477,0
54260,0.589355,-0.426758,0.541504,0
54280,0.57959,-0.432129,0.52832,0
54300,0.560547,-0.428711,0.568359,0
54320,0.558105,-0.446777,0.565918,0
54340,0.570312,-0.462891,0.547852,0
54360,0.587402,-0.450195,0.562988,0
54380,0.570312,-0.448242,0.552734,0
54400,0.532715,-0.453613,0.536133,0
54420,0.550781,-0.461914,0.577637,0
54440,0.570801,-0.484375,0.567383,0
54460,0.551758,-0.472656,0.543945,0
54480,0.535156,-0.474121,0.561035,0
54500,0.525391,-0.486328,0.580566,0
54520,0.519531,-0.492188,0.59082,0
54540,0.51123,-0.498047,0.583008,0
54560,0.524414,-0.504395,0.554199,0
54580,0.558594,-0.51709,0.558594,0
54600,0.544434,-0.492676,0.597656,0
54620,0.495605,-0.512695,0.562012,0
54640,0.501465,-0.520508,0.574707,0
54660,0.509277,-0.51709,0.598145,0
54680,0.491211,-0.520508,0.57959,0
54700,0.478516,-0.524902,0.572266,0
54720,0.503418,-0.526855,0.576172,0
54740,0.519531,-0.537109,0.57666,0
54760,0.479492,-0.535156,0.584473,0
54780,0.467773,-0.547363,0.592285,0
54800,0.507324,-0.542969,0.584473,0
54820,0.510254,-0.546875,0.581543,0
54840,0.455078,-0.530762,0.585449,0
54860,0.459473,-0.531738,0.591797,0
54880,0.493164,-0.541016,0.586914,0
54900,0.466309,-0.542969,0.586426,0
54920,0.454102,-0.561523,0.571289,0
54940,0.480957,-0.566895,0.587402,0
54960,0.463867,-0.562988,0.584473,0
54980,0.484375,-0.557617,0.5625,0
55000,0.484863,-0.550781,0.584473,0
55020,0.457031,-0.525391,0.603516,0
55040,0.480957,-0.57666,0.569336,0
55060,0.507324,-0.590332,0.561523,0
55080,0.455566,-0.562988,0.586426,0
55100,0.471191,-0.574219,0.55957,0
55120,0.506348,-0.58252,0.539062,0
55140,0.480957,-0.570801,0.561035,0
55160,0.439941,-0.562012,0.565918,0
55180,0.460938,-0.577148,0.533691,0
55200,0.481934,-0.576172,0.526367,0
55220,0.456543,-0.566895,0.536621,0
55240,0.47168,-0.590332,0.525879,0
55260,0.491211,-0.615723,0.513184,0
55280,0.459473,-0.596191,0.530273,0
55300,0.449707,-0.599609,0.512695,0
55320,0.492188,-0.592773,0.508789,0
55340,0.469727,-0.602051,0.537598,0
55360,0.45166,-0.617676,0.516113,0
55380,0.470215,-0.612305,0.512207,0
55400,0.45752,-0.601562,0.522461,0
55420,0.482422,-0.616699,0.516602,0
55440,0.507324,-0.632812,0.515625,0
55460,0.453125,-0.637695,0.516602,0
55480,0.452148,-0.649902,0.511719,0
55500,0.509277,-0.638184,0.513672,0
55520,0.462891,-0.620117,0.523926,0
55540,0.402832,-0.634277,0.503418,0
55560,0.430664,-0.663574,0.494141,0
55580,0.44873,-0.662109,0.507812,0
55600,0.42041,-0.641602,0.513672,0
55620,0.437012,-0.640625,0.475098,0
55640,0.443359,-0.664062,0.479004,0
55660,0.425293,-0.666992,0.490234,0
55680,0.439453,-0.674316,0.47168,0
55700,0.454102,-0.674316,0.465332,0
55720,0.426758,-0.668945,0.468262,0
55740,0.429199,-0.679688,0.435059,0
55760,0.461426,-0.693359,0.450684,0
55780,0.458008,-0.688965,0.445801,0
55800,0.445801,-0.684082,0.432129,0
55820,0.450195,-0.691406,0.424316,0
55840,0.476562,-0.69043,0.435059,0
55860,0.487305,-0.686035,0.40918,0
55880,0.476562,-0.67334,0.381348,0
55900,0.482422,-0.681152,0.405762,0
55920,0.503906,-0.702637,0.424805,0
55940,0.504883,-0.726074,0.400879,0
55960,0.53125,-0.70459,0.392578,0
55980,0.543945,-0.70752,0.378906,0
56000,0.537598,-0.712402,0.387207,0
56020,0.524902,-0.691895,0.402832,0
56040,0.532227,-0.716309,0.369629,0
56060,0.539062,-0.699707,0.35791,0
56080,0.531738,-0.683105,0.369141,0
56100,0.529297,-0.685059,0.371582,0
56120,0.552246,-0.708984,0.348633,0
56140,0.560059,-0.696289,0.353516,0
56160,0.560059,-0.658203,0.348633,0
56180,0.552246,-0.660156,0.339355,0
56200,0.562988,-0.681641,0.336426,0
56220,0.570801,-0.680176,0.352051,0
56240,0.570801,-0.666504,0.330566,0
56260,0.588379,-0.673828,0.304199,0
56280,0.603027,-0.676758,0.305664,0
56300,0.572754,-0.651855,0.319824,0
56320,0.567383,-0.651855,0.328613,0
56340,0.573242,-0.686523,0.276855,0
56360,0.596191,-0.682129,0.269531,0
56380,0.620117,-0.664551,0.297363,0
56400,0.619629,-0.655273,0.29541,0
56420,0.631836,-0.689453,0.249512,0
56440,0.672852,-0.713867,0.262207,0
56460,0.670898,-0.691406,0.288574,0
56480,0.622559,-0.654297,0.28125,0
56500,0.650879,-0.675781,0.26416,0
56520,0.670898,-0.694824,0.260254,0
56540,0.656738,-0.659668,0.249512,0
56560,0.66748,-0.669922,0.244141,0
56580,0.677734,-0.674805,0.223633,0
56600,0.698242,-0.669434,0.228027,0
56620,0.677734,-0.65918,0.214355,0
56640,0.654297,-0.611328,0.246582,0
56660,0.660156,-0.616211,0.237793,0
56680,0.681641,-0.62207,0.216309,0
56690,0.680176,-0.613281,0.206543,0
56710,0.669434,-0.629395,0.20459,0
56730,0.685059,-0.625,0.209473,0
56750,0.709473,-0.62207,0.191406,0
56770,0.705078,-0.60498,0.189453,0
56790,0.720703,-0.597168,0.196289,0
56810,0.722656,-0.60498,0.211914,0
56830,0.659668,-0.589844,0.231445,0
56850,0.652344,-0.589844,0.212402,0
56870,0.719727,-0.630859,0.17334,0
56890,0.742676,-0.592773,0.173828,0
56910,0.726074,-0.577637,0.195801,0
56930,0.736328,-0.603516,0.178711,0
56950,0.766113,-0.637207,0.155762,0
56970,0.769531,-0.575684,0.179199,0
56990,0.762207,-0.573242,0.190918,0
57010,0.742188,-0.564453,0.154297,0
57030,0.774902,-0.538086,0.171387,0
57050,0.752441,-0.529297,0.164062,0
57070,0.736816,-0.534668,0.171875,0
57090,0.766113,-0.533203,0.183105,0
57110,0.782227,-0.541016,0.153809,0
57130,0.777344,-0.511719,0.17334,0
57150,0.785156,-0.503418,0.162109,0
57170,0.759277,-0.520508,0.168945,0
57190,0.742676,-0.525391,0.211914,0
57210,0.770508,-0.518066,0.21582,0
57230,0.783691,-0.521973,0.178711,0
57250,0.785156,-0.499512,0.188965,0
57270,0.794434,-0.487305,0.220703,0
57290,0.791016,-0.48877,0.225586,0
57310,0.814453,-0.492676,0.225586,0
57330,0.803711,-0.491211,0.244141,0
57350,0.799805,-0.467773,0.259766,0
57370,0.800781,-0.475098,0.26416,0
57390,0.813477,-0.463379,0.257812,0
57410,0.80957,-0.464844,0.253418,0
57430,0.799316,-0.464355,0.276367,0
57450,0.76709,-0.478027,0.307617,0
57470,0.770508,-0.462891,0.311035,0
57490,0.803223,-0.450684,0.296387,0
57510,0.822754,-0.42627,0.279785,0
57530,0.839844,-0.429199,0.283203,0
57550,0.826172,-0.445312,0.288086,0
57570,0.816406,-0.448242,0.327637,0
57590,0.807617,-0.458496,0.341309,0
57610,0.795898,-0.396973,0.347656,0
57630,0.798828,-0.401855,0.342773,0
57650,0.787598,-0.389648,0.332031,0
57670,0.782227,-0.398926,0.338867,0
57690,0.788574,-0.408691,0.34668,0
57710,0.812988,-0.405273,0.342773,0
57730,0.833496,-0.404297,0.317383,0
57750,0.822266,-0.371582,0.347656,0
57770,0.812012,-0.373535,0.339844,0
57790,0.78125,-0.390137,0.322266,0
57810,0.73291,-0.391602,0.369141,0
57830,0.719727,-0.390625,0.391602,0
57850,0.735352,-0.400879,0.333984,0
57870,0.773926,-0.354492,0.341309,0
57890,0.79541,-0.351074,0.32666,0
57910,0.786621,-0.39502,0.32373,0
57930,0.77002,-0.412109,0.373535,0
57950,0.774902,-0.435547,0.365234,0
57970,0.768555,-0.422852,0.337891,0
57990,0.771973,-0.385254,0.381836,0
58010,0.79834,-0.390137,0.368164,0
58030,0.791016,-0.401367,0.335938,0
58050,0.786133,-0.413574,0.374512,0
58070,0.766602,-0.410645,0.370117,0
58090,0.758301,-0.405273,0.400879,0
58110,0.758301,-0.414551,0.401367,0
58130,0.743652,-0.418457,0.369141,0
58150,0.699707,-0.40918,0.397461,0
58170,0.712891,-0.413086,0.404785,0
58190,0.769531,-0.432617,0.370605,0
58210,0.766602,-0.427734,0.383301,0
58230,0.713867,-0.421387,0.407227,0
58250,0.705078,-0.436035,0.376953,0
58270,0.720703,-0.452148,0.387207,0
58290,0.69043,-0.442383,0.417969,0
58310,0.6875,-0.438477,0.371094,0
58330,0.682617,-0.442871,0.380859,0
58350,0.651367,-0.453613,0.406738,0
58370,0.687988,-0.486328,0.388184,0
58390,0.697266,-0.482422,0.406738,0
58410,0.651855,-0.450195,0.444336,0
58430,0.67041,-0.442871,0.435059,0
58450,0.703613,-0.468262,0.450684,0
58470,0.691895,-0.464355,0.460938,0
58490,0.662598,-0.45752,0.460938,0
58510,0.655273,-0.477051,0.435547,0
58530,0.643066,-0.476562,0.453125,0
58550,0.652344,-0.488281,0.456543,0
58570,0.680176,-0.459961,0.438965,0
58590,0.666504,-0.462402,0.456055,0
58610,0.665527,-0.462402,0.473633,0
58630,0.6875,-0.488281,0.461914,0
58650,0.681641,-0.490234,0.443359,0
58660,0.675293,-0.490723,0.435547,0
58680,0.663574,-0.486328,0.44873,0
58700,0.63916,-0.476074,0.456055,0
58720,0.677734,-0.487305,0.437988,0
58740,0.647461,-0.48584,0.446289,0
58760,0.586426,-0.485352,0.461426,0
58780,0.66748,-0.507812,0.43457,0
58800,0.697754,-0.500977,0.455566,0
58820,0.63623,-0.476074,0.444336,0
58840,0.64209,-0.490234,0.422852,0
58860,0.697754,-0.521973,0.464844,0
58880,0.671387,-0.502441,0.466309,0
58900,0.647949,-0.49707,0.4375,0
58920,0.662109,-0.53418,0.412598,0
58940,0.680176,-0.526367,0.447754,0
58960,0.627441,-0.526367,0.469238,0
58980,0.625,-0.516602,0.423828,0
59000,0.677734,-0.536133,0.40332,0
59020,0.64209,-0.536621,0.435547,0
59040,0.599609,-0.52832,0.441406,0
59060,0.638672,-0.554199,0.40918,0
59080,0.650879,-0.536621,0.426758,0
59100,0.594238,-0.527344,0.443359,0
59120,0.589355,-0.539062,0.40332,0
59140,0.621094,-0.569336,0.438477,0
59160,0.603027,-0.557617,0.445312,0
59180,0.584961,-0.551758,0.423828,0
59200,0.586426,-0.567383,0.408203,0
59220,0.599121,-0.57959,0.438477,0
59240,0.59668,-0.569336,0.452148,0
59260,0.611328,-0.551758,0.430664,0
59280,0.603516,-0.557617,0.422852,0
59300,0.607422,-0.580078,0.438965,0
59320,0.60791,-0.619629,0.446777,0
59340,0.595703,-0.60498,0.432617,0
59360,0.633789,-0.587402,0.415039,0
59380,0.625,-0.588379,0.427734,0
59400,0.586914,-0.59082,0.418457,0
59420,0.631348,-0.602539,0.408203,0
59440,0.638672,-0.610352,0.431152,0
59460,0.570312,-0.60791,0.415039,0
59480,0.574219,-0.590332,0.420898,0
59500,0.639648,-0.603516,0.444336,0
59520,0.602051,-0.600098,0.445312,0
59540,0.527832,-0.583008,0.404785,0
59560,0.537109,-0.581543,0.372559,0
59580,0.607422,-0.595703,0.412109,0
59600,0.618652,-0.583008,0.424805,0
59620,0.568359,-0.597168,0.396973,0
59640,0.563477,-0.623535,0.376465,0
59660,0.626953,-0.640137,0.42041,0
59680,0.606934,-0.630371,0.441406,0
59700,0.55957,-0.606934,0.402344,0
59720,0.568359,-0.612305,0.376953,0
59740,0.602539,-0.646973,0.426758,0
59760,0.585449,-0.628906,0.416992,0
59780,0.570801,-0.611816,0.383301,0
59800,0.591309,-0.625488,0.387207,0
59820,0.611816,-0.646484,0.406738,0
59840,0.569336,-0.65625,0.407715,0
59860,0.561523,-0.625488,0.36377,0
59880,0.55957,-0.620605,0.374512,0
59900,0.521973,-0.61377,0.406738,0
59920,0.506836,-0.625,0.373535,0
59940,0.52002,-0.632324,0.363281,0
59960,0.532715,-0.633301,0.37207,0
59980,0.558594,-0.647461,0.373535,0
60000,0.585449,-0.646484,0.362305,0
60020,0.587891,-0.638184,0.355957,0
60040,0.55957,-0.643066,0.354004,0
60060,0.557129,-0.670898,0.347656,0
60080,0.563965,-0.654297,0.344727,0
60100,0.55127,-0.656738,0.349121,0
60120,0.553223,-0.667969,0.342285,0
60140,0.561035,-0.680176,0.3125,0
60160,0.57373,-0.681152,0.299805,0
60180,0.585938,-0.689941,0.306152,0
60200,0.59082,-0.695801,0.305176,0
60220,0.583008,-0.705078,0.311035,0
60240,0.582031,-0.697266,0.313477,0
60260,0.606934,-0.702148,0.321777,0
60280,0.597656,-0.693359,0.310547,0
60300,0.589355,-0.706543,0.255371,0
60320,0.643066,-0.717285,0.25293,0
60340,0.638672,-0.698242,0.29541,0
60360,0.587402,-0.724609,0.27832,0
60380,0.580566,-0.734375,0.258301,0
60400,0.607422,-0.745605,0.274902,0
60420,0.628906,-0.741699,0.263184,0
60440,0.608887,-0.709961,0.22168,0
60460,0.586914,-0.681152,0.226074,0
60480,0.586426,-0.686523,0.227539,0
60500,0.579102,-0.70459,0.224609,0
60520,0.589355,-0.736328,0.208496,0
60540,0.591309,-0.721191,0.210449,0
60560,0.58252,-0.682617,0.195801,0
60580,0.621582,-0.720703,0.18457,0
60600,0.63623,-0.706543,0.203125,0
60620,0.59668,-0.686035,0.203613,0
60640,0.604492,-0.703125,0.181152,0
60660,0.629395,-0.711426,0.174805,0
60680,0.639648,-0.696289,0.166016,0
60700,0.630371,-0.688965,0.169434,0
60720,0.648438,-0.691406,0.171875,0
60740,0.679199,-0.693848,0.169434,0
60760,0.679688,-0.709473,0.150391,0
60780,0.669434,-0.694336,0.134277,0
60800,0.669922,-0.658691,0.0913086,0
60820,0.677734,-0.653809,0.0732422,0
60840,0.681641,-0.681152,0.0883789,0
60860,0.657227,-0.675781,0.120117,0
60880,0.657227,-0.672852,0.0947266,0
60900,0.706055,-0.669434,0.0771484,0
60920,0.712891,-0.649414,0.0771484,0
60940,0.71875,-0.612305,0.0864258,0
60960,0.704102,-0.619141,0.0966797,0
60980,0.739258,-0.641602,0.0766602,0
61000,0.749512,-0.665527,0.0771484,0
61020,0.744141,-0.638184,0.0786133,0
61040,0.745605,-0.605469,0.0668945,0
61060,0.772461,-0.617676,0.0610352,0
61080,0.79541,-0.602051,0.0463867,0
61100,0.784668,-0.598633,0.0371094,0
61120,0.769043,-0.595703,0.0610352,0
61140,0.777832,-0.607422,0.0458984,0
61160,0.79248,-0.59668,0.0258789,0
61180,0.768555,-0.613281,0.0283203,0
61200,0.75293,-0.587891,0.0249023,0
61220,0.794922,-0.565918,0.0322266,0
61240,0.802246,-0.557129,0.0244141,0
61260,0.787109,-0.539551,0.0253906,0
61280,0.790527,-0.560547,0.0317383,0
61300,0.794434,-0.563965,0.0268555,0
61320,0.789551,-0.540039,0.0175781,0
61340,0.779785,-0.533203,0.0151367,0
61360,0.795898,-0.529785,0.019043,0
61380,0.800781,-0.529297,0.0249023,0
61400,0.80957,-0.535156,0.0297852,0
61420,0.804199,-0.538086,0.00927734,0
61440,0.812988,-0.528809,0.00244141,0
61460,0.834473,-0.513184,-0.00585938,0
61480,0.838379,-0.518555,-0.0078125,0
61500,0.824707,-0.522461,-0.00439453,0
61520,0.824219,-0.512695,0.00195312,0
61540,0.828125,-0.508789,-0.00341797,0
61560,0.864746,-0.516113,-0.0317383,0
61580,0.855957,-0.484375,-0.0112305,0
61600,0.842285,-0.470703,0.012207,0
61620,0.834961,-0.464844,0.00488281,0
61640,0.84668,-0.470703,0.0180664,0
61660,0.875488,-0.468262,-0.00732422,0
61680,0.868164,-0.440918,-0.0209961,0
61700,0.866699,-0.437012,0.0117188,0
61720,0.891602,-0.447266,0.00390625,0
61740,0.888184,-0.424805,0.0141602,0
61760,0.85791,-0.397461,0.0078125,0
61780,0.861816,-0.420898,0.00585938,0
61800,0.879395,-0.437012,0.0219727,0
61820,0.868164,-0.424316,0.0229492,0
61840,0.867188,-0.405762,0.0219727,0
61860,0.878906,-0.386719,0.00683594,0
61880,0.885742,-0.39209,0.000488281,0
61900,0.893066,-0.392578,0.03125,0
61920,0.899902,-0.395508,0.0410156,0
61940,0.916016,-0.387207,0.0185547,0
61960,0.914551,-0.369629,0.03125,0
61980,0.900879,-0.362793,0.0478516,0
62000,0.914062,-0.401855,0.0366211,0
62020,0.894531,-0.408691,0.0722656,0
62040,0.883301,-0.368652,0.0961914,0
62060,0.885742,-0.355957,0.0766602,0
62070,0.907715,-0.362305,0.0898438,0
62090,0.88623,-0.358398,0.126953,0
62110,0.891602,-0.369629,0.125977,0
62130,0.922363,-0.411133,0.112793,0
62150,0.916504,-0.392578,0.150391,0
62170,0.879395,-0.378906,0.167969,0
62190,0.883789,-0.387207,0.155273,0
62210,0.881836,-0.385742,0.187012,0
62230,0.86084,-0.383789,0.191406,0
62250,0.873047,-0.40918,0.175781,0
62270,0.876953,-0.424805,0.210938,0
62290,0.825195,-0.399414,0.256348,0
62310,0.813965,-0.408691,0.222168,0
62330,0.825684,-0.394043,0.211426,0
62350,0.799805,-0.379395,0.244629,0
62370,0.777344,-0.376953,0.248535,0
62390,0.791992,-0.391113,0.228516,0
62410,0.800781,-0.383301,0.248535,0
62430,0.791016,-0.366699,0.26416,0
62450,0.807617,-0.362793,0.230469,0
62470,0.807129,-0.40918,0.261719,0
62490,0.806152,-0.435059,0.274902,0
62510,0.775391,-0.441895,0.27832,0
62530,0.76709,-0.398438,0.288574,0
62550,0.82373,-0.405273,0.287598,0
62570,0.828613,-0.385742,0.276367,0
62590,0.779297,-0.377441,0.289551,0
62610,0.807617,-0.413086,0.292969,0
62630,0.835938,-0.429688,0.311035,0
62650,0.790039,-0.409668,0.339844,0
62670,0.77832,-0.400391,0.286621,0
62690,0.834473,-0.389648,0.282715,0
62710,0.808105,-0.372559,0.330566,0
62730,0.800293,-0.406738,0.296875,0
62750,0.788086,-0.416016,0.291016,0
62770,0.750488,-0.414062,0.310547,0
62790,0.800293,-0.414062,0.280762,0
62810,0.832031,-0.436523,0.272949,0
62830,0.800781,-0.428711,0.324707,0
62850,0.76709,-0.421387,0.318359,0
62870,0.784668,-0.439941,0.302246,0
62890,0.766602,-0.458008,0.32373,0
62910,0.769531,-0.447266,0.312988,0
62930,0.78418,-0.418457,0.300293,0
62950,0.750977,-0.418457,0.329102,0
62970,0.762695,-0.447754,0.324707,0
62990,0.780762,-0.461914,0.341797,0
63010,0.704102,-0.443359,0.364746,0
63030,0.706543,-0.464355,0.301758,0
63050,0.76123,-0.468262,0.345703,0
63070,0.737793,-0.46875,0.364258,0
63090,0.731934,-0.463379,0.31543,0
63110,0.745117,-0.470703,0.31543,0
63130,0.699707,-0.46582,0.351074,0
63150,0.73584,-0.472656,0.361816,0
63170,0.788086,-0.509277,0.361328,0
63190,0.730957,-0.493652,0.366699,0
63210,0.685547,-0.466309,0.331543,0
63230,0.741699,-0.504395,0.330566,0
63250,0.71582,-0.508301,0.355957,0
63270,0.681152,-0.499023,0.354492,0
63290,0.698242,-0.492676,0.328125,0
63310,0.705566,-0.496094,0.350586,0
63330,0.727539,-0.520996,0.370605,0
63350,0.705566,-0.513672,0.37793,0
63370,0.6875,-0.513184,0.367188,0
63390,0.688965,-0.52002,0.352051,0
63410,0.671387,-0.541504,0.362793,0
63430,0.654297,-0.540527,0.365234,0
63450,0.710938,-0.526367,0.376953,0
63470,0.714844,-0.540527,0.371582,0
63490,0.67334,-0.518066,0.35791,0
63510,0.668457,-0.54834,0.354004,0
63530,0.716309,-0.559082,0.37207,0
63550,0.702148,-0.555176,0.379395,0
63570,0.671387,-0.522461,0.35791,0
63590,0.70166,-0.542969,0.337891,0
63610,0.685059,-0.558594,0.368164,0
63630,0.69043,-0.577637,0.351562,0
63650,0.731934,-0.573242,0.336914,0
63670,0.665527,-0.552734,0.348145,0
63690,0.634277,-0.543945,0.333496,0
63710,0.701172,-0.557129,0.329102,0
63730,0.675781,-0.560059,0.353027,0
63750,0.642578,-0.561523,0.344727,0
63770,0.683594,-0.59375,0.349609,0
63790,0.685059,-0.580078,0.345703,0
63810,0.639648,-0.547363,0.327148,0
63830,0.637695,-0.553711,0.312012,0
63850,0.669922,-0.588379,0.318848,0
63870,0.683105,-0.603027,0.32666,0
63890,0.655762,-0.586914,0.316406,0
63910,0.65332,-0.564453,0.306152,0
63930,0.664551,-0.563965,0.316895,0
63950,0.666992,-0.580566,0.340332,0
63970,0.669434,-0.596191,0.328125,0
63990,0.626953,-0.604492,0.321289,0
64010,0.654785,-0.598145,0.322266,0
64030,0.673828,-0.602051,0.333008,0
64050,0.629883,-0.585449,0.3125,0
64060,0.622559,-0.605469,0.304688,0
64080,0.655762,-0.640625,0.321777,0
64100,0.651855,-0.63623,0.333496,0
64120,0.631836,-0.619629,0.316895,0
64140,0.661133,-0.629395,0.305664,0
64160,0.668457,-0.631836,0.313477,0
64180,0.630371,-0.635254,0.306152,0
64200,0.633301,-0.638184,0.290039,0
64220,0.642578,-0.645508,0.293457,0
64240,0.615234,-0.644043,0.309082,0
64260,0.598633,-0.626465,0.310547,0
64280,0.635254,-0.647461,0.302246,0
64300,0.634766,-0.641113,0.303711,0
64320,0.615723,-0.641113,0.302734,0
64340,0.611328,-0.642578,0.279297,0
64360,0.624023,-0.645996,0.279297,0
64380,0.615234,-0.627441,0.271973,0
64400,0.599609,-0.632324,0.273926,0
64420,0.59375,-0.662109,0.264648,0
64440,0.60791,-0.650391,0.251953,0
64460,0.633789,-0.624512,0.258301,0
64480,0.626953,-0.613281,0.254883,0
64500,0.609375,-0.648926,0.238281,0
64520,0.625488,-0.672852,0.23584,0
64540,0.640625,-0.691406,0.225098,0
64560,0.642578,-0.683105,0.220215,0
64580,0.627441,-0.687012,0.220703,0
64600,0.628418,-0.667969,0.208008,0
64620,0.645996,-0.681152,0.213379,0
64640,0.65625,-0.703125,0.204102,0
64660,0.625488,-0.710449,0.186523,0
64680,0.619629,-0.688477,0.177734,0
64700,0.65625,-0.674316,0.174316,0
64720,0.693359,-0.695801,0.192871,0
64740,0.652832,-0.693359,0.17041,0
64760,0.621582,-0.671387,0.154785,0
64780,0.648926,-0.686035,0.14502,0
64800,0.664062,-0.676758,0.151367,0
64820,0.649414,-0.651367,0.138184,0
64840,0.668457,-0.683105,0.118164,0
64860,0.70166,-0.674805,0.125,0
64880,0.708496,-0.688477,0.118652,0
64900,0.720215,-0.666016,0.0957031,0
64920,0.736328,-0.654297,0.0864258,0
64940,0.716797,-0.663086,0.0927734,0
64960,0.694336,-0.678223,0.0786133,0
64980,0.69873,-0.668457,0.0693359,0
65000,0.750488,-0.657227,0.0605469,0
65020,0.757324,-0.646484,0.0341797,0
65040,0.744141,-0.626953,0.0297852,0
65060,0.738281,-0.625977,0.0463867,0
65080,0.735352,-0.655273,0.0375977,0
65100,0.755371,-0.654297,0.00976562,0
65120,0.768066,-0.622559,-0.00439453,0
65140,0.746582,-0.595215,0.00927734,0
65160,0.735352,-0.606934,0.0161133,0
65180,0.749023,-0.618164,-0.0209961,0
65200,0.77832,-0.607422,-0.00244141,0
65220,0.76709,-0.579102,-0.0185547,0
65240,0.749023,-0.598145,-0.0390625,0
65260,0.737793,-0.589355,-0.0283203,0
65280,0.753906,-0.603516,-0.03125,0
65300,0.762695,-0.604004,-0.0639648,0
65320,0.773926,-0.57666,-0.0751953,0
65340,0.803711,-0.609375,-0.0556641,0
65360,0.756836,-0.575195,-0.0449219,0
65380,0.760254,-0.554688,-0.0400391,2001
65400,0.808105,-0.582031,-0.0786133,0
65420,0.817871,-0.553711,-0.0800781,0
65440,0.789551,-0.55127,-0.09375,0
65460,0.783691,-0.563477,-0.0913086,0
65480,0.769043,-0.567383,-0.0708008,0
65500,0.76709,-0.542969,-0.074707,0
65520,0.766602,-0.530273,-0.0917969,0
65540,0.785156,-0.537109,-0.102051,0
65560,0.814941,-0.568359,-0.097168,0
65580,0.780762,-0.550781,-0.0834961,0
65600,0.743652,-0.505371,-0.078125,0
65620,0.680176,-0.491211,-0.0375977,0
65640,0.644043,-0.488281,-0.03125,0
65660,0.628418,-0.524414,-0.0776367,0
65680,0.567383,-0.498047,-0.0161133,0
65700,0.572754,-0.461426,-0.0209961,0
65720,0.658203,-0.526367,-0.0561523,0
65740,0.721191,-0.543457,-0.0356445,0
65760,0.724609,-0.540527,-0.0351562,0
65780,0.731445,-0.545898,-0.0522461,0
65800,0.783691,-0.585938,-0.000488281,0
65820,0.836914,-0.580566,0.0375977,0
65840,0.759277,-0.533691,0.0410156,0
65860,0.788574,-0.55127,0,0
65880,0.820312,-0.5625,0.0292969,0
65900,0.804688,-0.520996,0.0834961,0
65920,0.77832,-0.517578,0.0776367,0
65940,0.791016,-0.566895,0.081543,0
65960,0.808105,-0.619629,0.125488,0
65980,0.831055,-0.562012,0.146484,0
66000,0.876465,-0.575684,0.147949,0
66020,0.89209,-0.612793,0.168945,0
66040,0.786133,-0.599609,0.255859,0
66060,0.740234,-0.655762,0.23291,0
66080,0.807129,-0.712891,0.224121,0
66100,0.841309,-0.791016,0.267578,0
66120,0.787598,-0.743164,0.381348,0
66140,0.70459,-0.743164,0.337891,0
66160,0.651855,-0.768066,0.304199,0
66180,0.611816,-0.80957,0.345215,0
66200,0.583984,-0.791016,0.38916,0
66220,0.519531,-0.79834,0.379395,0
66240,0.432617,-0.745605,0.392578,0
66260,0.403809,-0.788086,0.416016,0
66280,0.380371,-0.849121,0.400391,0
66300,0.317871,-0.825195,0.428223,0
66320,0.301758,-0.807617,0.446777,0
66340,0.313477,-0.803223,0.427246,0
66360,0.299805,-0.80127,0.435059,0
66380,0.27002,-0.819824,0.444824,0
66400,0.273438,-0.829102,0.454102,0
