Timestamp, Acceleration x, Acceleration y, Acceleration z, Marker
40,0.57666,0.179199,-0.882812,0
60,0.559082,0.149414,-0.922852,0
80,0.583008,0.0541992,-0.80957,0
100,0.772949,0.158203,-0.661621,0
120,0.724609,0.128418,-0.824707,0
140,0.734863,0.00537109,-0.84668,0
140,0.726562,0.0380859,-0.835938,0
150,0.649414,0.104492,-0.730957,0
190,0.512695,0.0512695,-0.73877,0
210,0.411621,0.0932617,-0.853027,0
230,0.379883,0.277832,-0.803223,0
250,0.383789,0.275879,-0.82373,0
270,0.309082,0.272461,-0.830078,0
290,0.332031,0.284668,-0.882324,0
310,0.383301,0.344727,-0.87207,0
330,0.425781,0.326172,-0.928223,0
350,0.45166,0.354004,-0.856934,0
370,0.54834,0.287109,-0.870605,0
390,0.567871,0.229004,-0.857422,0
410,0.527832,0.194824,-0.905273,0
430,0.508301,0.165527,-0.847656,0
450,0.533691,0.242188,-0.787109,0
470,0.539062,0.212402,-0.8125,0
490,0.469238,0.191406,-0.845703,0
510,0.460938,0.205566,-0.790527,0
530,0.525879,0.21582,-0.811035,0
550,0.47998,0.254395,-0.804199,0
570,0.334961,0.361328,-0.755371,0
590,0.349609,0.19873,-0.771973,0
610,0.358398,0.231934,-0.839355,0
630,0.456543,0.196289,-0.906738,0
650,0.376465,0.33252,-0.836914,0
670,0.413574,0.328613,-0.881836,0
690,0.403809,0.376465,-0.956543,0
710,0.347168,0.334961,-0.925293,0
730,0.322754,0.276367,-0.959961,0
750,0.317383,0.265137,-0.952637,0
770,0.306641,0.306152,-0.924316,0
790,0.279785,0.334961,-0.89209,0
810,0.3125,0.355469,-0.87207,0
830,0.331543,0.366211,-0.931641,0
850,0.378418,0.325195,-0.933105,0
870,0.436523,0.356934,-0.828125,0
890,0.521484,0.397461,-0.824219,0
910,0.53418,0.390137,-0.841309,0
930,0.51416,0.366699,-0.875,0
950,0.54834,0.370605,-0.8125,0
970,0.583496,0.372559,-0.812012,0
990,0.615234,0.341797,-0.800293,0
1010,0.568359,0.291992,-0.877441,0
1030,0.539062,0.252441,-0.847656,0
1050,0.492676,0.227051,-0.785156,0
1070,0.476562,0.211914,-0.817871,0
1090,0.459961,0.227539,-0.834961,0
1110,0.476074,0.213867,-0.849609,0
1130,0.445801,0.20166,-0.834473,0
1150,0.398438,0.21875,-0.862305,0
1170,0.404297,0.291016,-0.864746,0
1190,0.4375,0.335938,-0.858398,0
1210,0.425293,0.354492,-0.83252,0
1230,0.446777,0.365234,-0.847656,0
1250,0.445312,0.400391,-0.902344,0
1270,0.491699,0.385254,-0.94043,0
1290,0.542969,0.375977,-0.973145,0
1310,0.525391,0.277832,-0.950195,0
1330,0.540039,0.239258,-0.816406,0
1350,0.542969,0.25293,-0.663574,0
1370,0.537598,0.270996,-0.649414,0
1390,0.536621,0.263672,-0.791504,0
1410,0.490723,0.33252,-0.805664,0
1430,0.519531,0.331543,-0.73584,0
1450,0.444824,0.320801,-0.632812,0
1470,0.472656,0.270996,-0.672363,0
1490,0.48877,0.255371,-0.775391,0
1510,0.507324,0.286133,-0.820801,0
1530,0.539062,0.272461,-0.928711,0
1550,0.528809,0.274902,-0.847656,0
1570,0.543457,0.339844,-0.828613,0
1590,0.563477,0.345215,-0.821777,0
1610,0.525391,0.349609,-0.820312,0
1630,0.504395,0.350098,-0.825195,0
1650,0.503418,0.297852,-0.800293,0
1670,0.535156,0.276855,-0.804199,0
1690,0.564941,0.220703,-0.887207,0
1710,0.544434,0.297363,-0.787109,0
1730,0.571289,0.396973,-0.744629,0
1750,0.555664,0.380371,-0.754395,0
1770,0.529785,0.375977,-0.745117,0
1790,0.54541,0.271973,-0.775879,0
1810,0.519043,0.248535,-0.796387,0
1830,0.5,0.317871,-0.733887,0
1850,0.493652,0.354492,-0.786621,0
1870,0.466309,0.380371,-0.770996,0
1890,0.445801,0.345703,-0.811035,0
1910,0.438965,0.303223,-0.842285,0
1930,0.469727,0.322754,-0.859375,0
1950,0.477539,0.348633,-0.808594,0
1970,0.457031,0.378418,-0.801758,0
1990,0.460449,0.369141,-0.79834,0
2010,0.478516,0.358887,-0.844238,0
2030,0.509766,0.353027,-0.820312,0
2050,0.490234,0.388184,-0.80957,0
2070,0.455566,0.420898,-0.788574,0
2090,0.446289,0.436523,-0.789062,0
2110,0.435059,0.413086,-0.754395,0
2130,0.383789,0.399902,-0.760254,0
2150,0.36377,0.351074,-0.805176,0
2170,0.374023,0.293945,-0.805664,0
2190,0.381348,0.314941,-0.774902,0
2210,0.425293,0.322266,-0.832031,0
2230,0.44873,0.321289,-0.855469,0
2250,0.461426,0.303711,-0.858398,0
2270,0.489746,0.29248,-0.844727,0
2290,0.5,0.353027,-0.854492,0
2310,0.514648,0.34375,-0.863281,0
2330,0.496094,0.387695,-0.787109,0
2340,0.481445,0.389648,-0.758301,0
2360,0.418457,0.375488,-0.761719,0
2380,0.503906,0.35498,-0.82373,0
2400,0.460938,0.34082,-0.797852,0
2420,0.443359,0.32959,-0.885254,0
2440,0.416504,0.345703,-0.811523,0
2460,0.378418,0.398926,-0.796875,0
2480,0.408691,0.403809,-0.810547,0
2500,0.391602,0.437988,-0.848633,0
2520,0.429688,0.32666,-0.830078,0
2540,0.437012,0.325684,-0.87207,0
2560,0.477051,0.360352,-0.881836,0
2580,0.46875,0.408691,-0.826172,0
2600,0.4375,0.404297,-0.824707,0
2620,0.42334,0.373535,-0.848145,0
2640,0.430664,0.335938,-0.879395,0
2660,0.430664,0.28125,-0.878906,0
2680,0.453125,0.28125,-0.868164,0
2700,0.496582,0.325195,-0.824219,0
2720,0.559082,0.319336,-0.811035,0
2740,0.491699,0.304199,-0.78125,0
2760,0.495117,0.245117,-0.875488,0
2780,0.449219,0.266113,-0.82666,0
2800,0.441406,0.250488,-0.831055,0
2820,0.493164,0.26123,-0.8125,0
2840,0.481934,0.170898,-0.941406,0
2860,0.4375,0.286133,-0.821289,0
2880,0.433594,0.326172,-0.821289,0
2900,0.407715,0.349609,-0.86084,0
2920,0.419922,0.403809,-0.890625,0
2940,0.40625,0.413086,-0.854492,0
2960,0.37207,0.414062,-0.858398,0
2980,0.358398,0.411621,-0.837891,0
3000,0.357422,0.355469,-0.858398,0
3020,0.361328,0.317383,-0.862305,0
3040,0.313477,0.316895,-0.884277,0
3060,0.293457,0.370117,-0.839844,0
3080,0.275391,0.363281,-0.818848,0
3100,0.335449,0.282227,-0.897461,0
3120,0.295898,0.312012,-0.861328,0
3140,0.277832,0.269531,-0.881836,0
3160,0.22998,0.294434,-0.928223,0
3180,0.20752,0.374512,-0.92041,0
3200,0.208008,0.462402,-0.85498,0
3220,0.140625,0.469238,-0.748535,0
3240,0.125977,0.364258,-0.626953,0
3260,0.157227,0.23877,-0.625,0
3280,0.171387,0.170898,-0.771973,0
3300,0.224121,0.210449,-0.812988,0
3320,0.257812,0.305176,-0.690918,0
3340,0.403809,0.301758,-0.651855,0
3360,0.566895,0.19873,-0.800781,0
3380,0.719727,0.154785,-0.859863,0
3420,0.970703,0.194824,-0.529297,0
3440,1.03564,0.143066,-0.464355,0
3460,1.07959,0.116211,-0.336914,0
3480,1.08203,0.0112305,-0.205078,0
3500,1.03076,-0.120117,-0.105469,0
3520,1.11182,-0.239746,-0.0566406,0
3540,1.06445,-0.24707,0.0454102,0
3560,0.980469,-0.177734,0.0493164,0
3580,1.00928,-0.343262,0.00146484,0
3600,1.04785,-0.467773,-0.0644531,0
3620,1.09766,-0.595703,-0.111328,0
3640,1.1167,-0.610352,-0.179199,0
3660,1.18359,-0.521973,-0.152832,0
3680,1.16992,-0.410645,-0.20752,0
3700,1.1333,-0.396484,-0.348633,0
3720,0.871094,-0.408203,-0.316895,0
3740,0.820801,-0.478516,-0.283691,0
3760,0.577148,-0.635254,-0.37207,0
3780,0.265625,-0.768066,-0.256348,0
3800,0.46875,-0.720703,-0.20752,0
3820,0.714844,-0.605957,-0.227051,0
3840,0.963379,-0.527832,-0.274902,0
3860,1.13916,-0.581543,-0.260742,0
3880,1.04932,-0.564941,-0.183105,0
3900,0.979492,-0.598145,-0.201172,0
3920,0.993164,-0.57959,-0.278809,0
3940,1.03271,-0.461914,-0.290039,0
3960,1.04248,-0.400391,-0.234375,0
3980,1.00195,-0.388184,-0.214355,0
4000,0.963379,-0.402832,-0.225586,0
4020,0.815918,-0.416992,-0.268555,0
4040,0.745605,-0.452637,-0.290527,0
4060,0.755371,-0.437012,-0.300293,0
4080,0.799316,-0.449707,-0.29834,0
4100,0.869629,-0.42627,-0.258789,0
4120,0.93457,-0.407715,-0.265625,0
4140,0.906738,-0.416016,-0.285645,0
4160,0.809082,-0.438477,-0.275391,0
4180,0.829102,-0.449707,-0.21875,0
4200,0.849609,-0.480469,-0.197754,0
4220,0.861816,-0.479004,-0.212402,0
4240,0.828125,-0.447754,-0.19043,0
4260,0.750488,-0.434082,-0.177246,0
4280,0.688477,-0.34375,-0.149414,0
4300,0.641113,-0.245117,-0.118652,0
4320,0.574707,-0.240234,-0.104004,0
4340,0.584961,-0.25,-0.0600586,0
4360,0.482422,-0.247559,-0.043457,0
4380,0.47998,-0.202637,0.00634766,0
4400,0.510742,-0.200195,0.0581055,0
4420,0.5,-0.220215,0.0893555,0
4440,0.509277,-0.271973,0.141602,0
4460,0.557617,-0.353516,0.123047,0
4480,0.609863,-0.54541,0.10791,0
4500,0.734375,-0.695312,0.193848,0
4520,0.890625,-0.765625,0.346191,0
4540,1.01318,-0.662109,0.572266,0
4560,1.17773,-0.536133,0.95752,0
4580,1.33447,-0.585938,1.18604,0
4600,1.25879,-0.65625,1.16895,0
4620,1.00488,-0.68457,1.25439,0
4640,0.460938,-0.0244141,0.95166,0
4660,-0.485352,0.0136719,0.552734,0
4680,-1.42188,-0.546875,0.863281,0
4700,-1.66895,-1.19238,1.35889,0
4720,-0.949219,-1.71387,1.32422,0
4740,-0.293457,-1.51221,1.07959,0
4760,-0.263184,-1.0918,0.964844,0
4780,-0.496582,-0.819824,0.850098,0
4800,-0.378906,-0.82373,0.755859,0
4820,-0.239746,-1.06836,0.76123,0
4840,-0.268066,-1.3125,0.719238,0
4860,-0.338379,-1.50439,0.604492,0
4880,-0.355469,-1.65137,0.48877,0
4900,-0.203125,-1.8501,0.513184,0
4920,0.101074,-1.8291,0.736816,0
4940,0.316895,-1.69141,0.783203,0
4960,0.414062,-1.44336,0.712402,0
4980,0.524902,-1.09229,0.567383,0
5000,0.62207,-0.725586,0.512695,0
5020,0.753906,-0.412598,0.572266,0
5040,0.76416,-0.283691,0.596191,0
5060,0.51416,-0.0683594,0.371094,0
5080,0.410156,0.105957,0.297852,0
5100,0.288086,0.136719,0.081543,0
5120,0.209473,-0.00390625,-0.0380859,0
5140,0.153809,-0.168457,-0.135742,0
5160,0.129883,-0.25293,-0.295898,0
5180,0.0332031,-0.238281,-0.315918,0
5200,0.0605469,-0.214355,-0.248047,0
5220,0.0996094,-0.325195,-0.164062,0
5240,0.0688477,-0.383789,-0.0952148,0
5260,-0.00927734,-0.431641,-0.097168,0
5280,-0.0126953,-0.40332,0.000488281,0
5300,0.0722656,-0.401367,0.222656,0
5310,0.00927734,-0.855957,0.734375,0
5330,0.0595703,-1.04834,1.01367,0
5350,0.0112305,-1.31348,0.953125,0
5370,0.102539,-1.37061,0.992676,0
5390,0.29541,-1.37207,1.09131,0
5410,0.40332,-1.53076,1.08887,0
5430,0.518066,-1.82227,0.911133,0
5450,0.711914,-2.08789,0.667969,0
5470,0.666016,-2.53662,0.745117,0
5490,0.307617,-2.24463,0.833008,0
5500,0.487305,-1.1543,0.699707,0
5520,0.18457,-1.03857,0.749023,0
5540,-0.102539,-1.20898,1.0083,0
5560,-0.220703,-1.47363,1.07178,0
5580,-0.147461,-1.396,0.905273,0
5600,-0.0673828,-1.07861,0.65332,0
5620,-0.0732422,-0.639648,0.641113,0
5640,0.074707,-0.443359,0.706543,0
5660,0.180176,-0.360352,0.702148,0
5680,0.187012,-0.285645,0.638672,0
5700,0.223633,-0.135742,0.625977,0
5720,0.339844,0.0195312,0.56543,0
5740,0.376465,0.0380859,0.455078,0
5760,0.455078,0.0488281,0.437012,0
5780,0.626465,-0.097168,0.598145,0
5800,0.619141,-0.470703,0.663086,0
5820,0.598145,-0.875977,0.609375,0
5840,0.597168,-1.13037,0.650391,0
5860,0.5625,-1.24707,0.737793,0
5880,0.392578,-1.18066,0.757324,0
5900,0.267578,-1.09229,0.751953,0
5920,0.201172,-1.01416,0.733887,0
5940,0.147461,-1.05908,0.716797,0
5960,0.16748,-1.06201,0.764648,0
5980,0.200684,-1.01416,0.816406,0
6000,0.1875,-0.946777,0.810547,0
6020,0.172363,-1.00049,0.669434,0
6040,0.163574,-1.00928,0.599121,0
6060,0.160645,-0.909668,0.628906,0
6080,0.16748,-0.849121,0.768555,0
6100,0.0791016,-0.89502,0.791992,0
6120,-0.0625,-0.996094,0.822266,0
6140,-0.293945,-0.900879,0.753418,0
6160,-0.479492,-0.833496,0.712402,0
6180,-0.521973,-0.686035,0.624512,0
6200,-0.492188,-0.690918,0.477539,0
6220,-0.518066,-0.716797,0.419922,0
6240,-0.471191,-0.671875,0.428223,0
6260,-0.374512,-0.658203,0.384277,0
6280,-0.283691,-0.70166,0.379883,0
6300,-0.164062,-0.755371,0.425781,0
6320,-0.0610352,-0.741211,0.52002,0
6340,0.00341797,-0.730469,0.61084,0
6360,0.0722656,-0.768066,0.60791,0
6380,0.0605469,-0.781738,0.464844,0
6400,0.0756836,-0.820312,0.294434,0
6420,0.210449,-0.814453,0.299805,0
6440,0.365723,-0.807129,0.341797,0
6460,0.473633,-0.908203,0.451172,0
6480,0.411133,-1.00732,0.48291,0
6500,0.375977,-1.11377,0.429688,0
6520,0.382324,-1.08643,0.447754,0
6540,0.367188,-1.07471,0.486328,0
6560,0.302734,-0.984863,0.447266,0
6580,0.268066,-0.944824,0.447754,0
6600,0.240723,-0.893555,0.483887,0
6620,0.213867,-0.919922,0.474609,0
6640,0.222168,-0.94043,0.467285,0
6660,0.228027,-0.880371,0.459961,0
6680,0.219727,-0.871094,0.482422,0
6700,0.201172,-0.940918,0.496582,0
6720,0.129883,-0.968262,0.461914,0
6740,0.0952148,-0.939941,0.445312,0
6760,0.0683594,-0.876953,0.444336,0
6780,0.059082,-0.898438,0.486816,0
6800,0.0371094,-0.93457,0.552734,0
6820,0.00195312,-0.82959,0.552734,0
6840,0.0107422,-0.749023,0.606445,0
6860,-0.0317383,-0.775391,0.624023,0
6880,-0.0517578,-0.774414,0.562988,0
6900,-0.043457,-0.768066,0.515137,0
6920,-0.0288086,-0.749512,0.538086,0
6940,-0.0444336,-0.726562,0.536133,0
6960,-0.0986328,-0.70752,0.479004,0
6980,-0.0927734,-0.720215,0.456055,0
7000,-0.0566406,-0.70752,0.453613,0
7020,-0.0249023,-0.803711,0.44873,0
7040,-0.00439453,-0.817871,0.491699,0
7060,0.00976562,-0.801758,0.54541,0
7080,-0.0166016,-0.797852,0.610352,0
7100,-0.0332031,-0.848633,0.577637,0
7120,-0.00292969,-0.905762,0.577637,0
7140,0.0327148,-0.872559,0.601562,0
7160,0.0483398,-0.844238,0.608887,0
7180,0.0546875,-0.845215,0.616699,0
7200,0.0429688,-0.896973,0.650879,0
7220,0.059082,-0.919922,0.666992,0
7240,0.109375,-0.975098,0.682617,0
7260,0.174316,-1.021,0.748047,0
7280,0.156738,-1.02539,0.820801,0
7300,0.0830078,-0.946289,0.8125,0
7330,0.0405273,-0.876953,0.580078,0
7350,0.0234375,-0.759766,0.54834,0
7370,-0.0180664,-0.682617,0.57666,0
7390,-0.034668,-0.646973,0.617188,0
7410,-0.0493164,-0.612305,0.591309,0
7430,-0.0869141,-0.61377,0.583496,0
7450,-0.143066,-0.555176,0.572754,0
7470,-0.221191,-0.536133,0.57959,0
7490,-0.233887,-0.539551,0.57373,0
7510,-0.209473,-0.563477,0.579102,0
7530,-0.216797,-0.613281,0.54541,0
7550,-0.208008,-0.642578,0.57373,0
7570,-0.260742,-0.68457,0.630859,0
7590,-0.419434,-0.71875,0.581055,0
7610,-0.64502,-0.794922,0.664062,0
7630,-0.62793,-0.688477,0.745605,0
7650,-0.622559,-0.807129,0.82373,0
7670,-0.490723,-1.21143,0.80127,0
7690,-0.19043,-1.37158,0.480469,0
7710,-0.248535,-1.09033,0.398926,0
7730,-0.287109,-0.930664,0.448242,0
7750,-0.247559,-0.834473,0.476074,0
7770,-0.297363,-0.745117,0.533691,0
7790,-0.381836,-0.691895,0.638672,0
7810,-0.390625,-0.637695,0.696777,0
7830,-0.356934,-0.606445,0.685059,0
7850,-0.362793,-0.60791,0.672852,0
7870,-0.37207,-0.634277,0.700195,0
7890,-0.370117,-0.666016,0.712891,0
7910,-0.398438,-0.692383,0.713867,0
7930,-0.405273,-0.731934,0.677246,0
7950,-0.368164,-0.745605,0.598633,0
7970,-0.387207,-0.692383,0.587891,0
7990,-0.436035,-0.650391,0.609863,0
8010,-0.451172,-0.674316,0.608398,0
8030,-0.443359,-0.722656,0.597656,0
8050,-0.423828,-0.746582,0.60791,0
8070,-0.375,-0.76123,0.57666,0
8090,-0.297363,-0.795898,0.51123,0
8110,-0.233398,-0.815918,0.477051,0
8130,-0.242188,-0.771484,0.469238,0
8150,-0.258789,-0.754883,0.485352,0
8170,-0.344238,-0.750488,0.514648,0
8190,-0.470215,-0.73877,0.570312,0
8210,-0.706543,-0.691406,0.638184,0
8230,-0.812012,-0.673828,0.702148,0
8250,-0.525391,-0.693359,0.647949,0
8270,-0.238281,-0.766113,0.543457,0
8290,-0.178711,-0.737305,0.491699,0
8310,-0.262695,-0.67627,0.512695,0
8330,-0.407715,-0.65918,0.597168,0
8350,-0.452148,-0.67627,0.643066,0
8370,-0.412598,-0.75,0.634766,0
8390,-0.380371,-0.812012,0.587402,0
8410,-0.392578,-0.788574,0.573242,0
8430,-0.394043,-0.717285,0.587402,0
8450,-0.373535,-0.674805,0.588867,0
8470,-0.367188,-0.656738,0.59375,0
8480,-0.391602,-0.666504,0.62207,0
8500,-0.419922,-0.703125,0.621094,0
8520,-0.419434,-0.767578,0.602539,0
8540,-0.395508,-0.793457,0.583008,0
8560,-0.372559,-0.772461,0.563965,0
8580,-0.37793,-0.731445,0.587891,0
8600,-0.390625,-0.698242,0.62207,0
8620,-0.42041,-0.705078,0.642578,0
8640,-0.440918,-0.712402,0.629883,0
8660,-0.425293,-0.733398,0.656738,0
8680,-0.390137,-0.757812,0.623047,0
8700,-0.390137,-0.775879,0.64209,0
8720,-0.375977,-0.820312,0.654297,0
8740,-0.339355,-0.812012,0.641602,0
8760,-0.286621,-0.726562,0.638672,0
8780,-0.32666,-0.692871,0.606445,0
8800,-0.308594,-0.625488,0.594238,0
8820,-0.269531,-0.628418,0.571777,0
8840,-0.26709,-0.630371,0.540527,0
8860,-0.310547,-0.674316,0.500977,0
8870,-0.316895,-0.766602,0.477539,0
8890,-0.338379,-0.764648,0.475098,0
8910,-0.348633,-0.765137,0.467285,0
8930,-0.405273,-0.779297,0.535156,0
8950,-0.474121,-0.75293,0.636719,0
8970,-0.476562,-0.717285,0.685547,0
8990,-0.424805,-0.729492,0.687012,0
9010,-0.388672,-0.718262,0.674805,0
9030,-0.364746,-0.67334,0.64209,0
9050,-0.354492,-0.661621,0.631836,0
9070,-0.334961,-0.70459,0.640137,0
9090,-0.325195,-0.73584,0.634766,0
9120,-0.375,-0.725098,0.618652,0
9140,-0.380859,-0.708008,0.614258,0
9160,-0.381836,-0.713379,0.621582,0
9180,-0.384277,-0.708496,0.616211,0
9200,-0.378418,-0.694824,0.620605,0
9220,-0.374023,-0.696777,0.61377,0
9240,-0.363281,-0.699219,0.616699,0
9260,-0.36377,-0.709473,0.626953,0
9280,-0.359863,-0.710938,0.623047,0
9300,-0.366699,-0.707031,0.627441,0
9320,-0.373047,-0.703125,0.625977,0
9340,-0.375488,-0.698242,0.620605,0
9360,-0.380859,-0.701172,0.628906,0
9380,-0.37793,-0.697754,0.619141,0
9400,-0.380859,-0.699219,0.620605,0
9420,-0.377441,-0.696289,0.618652,0
9440,-0.378418,-0.699707,0.620605,0
9460,-0.374512,-0.694336,0.618164,0
9480,-0.379395,-0.696289,0.621582,0
9500,-0.382324,-0.697754,0.629883,0
9520,-0.375977,-0.694336,0.632812,0
9540,-0.373047,-0.692871,0.629395,0
9560,-0.373047,-0.686523,0.635254,0
9580,-0.374512,-0.686523,0.644531,0
9600,-0.371094,-0.687012,0.644531,0
9620,-0.369141,-0.685547,0.645996,0
9640,-0.37207,-0.689453,0.641602,0
9660,-0.374512,-0.683594,0.628906,0
9680,-0.381348,-0.682617,0.632324,0
9700,-0.375,-0.681641,0.644531,0
9720,-0.383789,-0.685059,0.650391,0
9740,-0.381836,-0.681641,0.641602,0
9760,-0.373535,-0.690918,0.634766,0
9780,-0.375,-0.691406,0.633301,0
9800,-0.369141,-0.683105,0.625488,0
9820,-0.378906,-0.679688,0.630859,0
9840,-0.376953,-0.68457,0.631348,0
9860,-0.376465,-0.68457,0.627441,0
9880,-0.375,-0.6875,0.632812,0
9900,-0.369629,-0.681152,0.634277,0
9920,-0.37207,-0.680176,0.63916,0
9940,-0.375488,-0.689941,0.645508,0
9960,-0.378906,-0.6875,0.638672,0
9980,-0.374512,-0.686523,0.63623,0
10000,-0.375977,-0.681152,0.635254,0
10020,-0.378418,-0.682129,0.641602,0
10040,-0.375488,-0.686523,0.640137,0
10060,-0.378906,-0.68457,0.640137,0
10080,-0.373047,-0.686523,0.639648,0
10100,-0.371582,-0.686523,0.63916,0
10120,-0.373047,-0.685547,0.642578,0
10140,-0.380859,-0.67627,0.63916,0
10160,-0.376465,-0.682129,0.638184,0
10180,-0.369629,-0.685059,0.644531,0
10200,-0.37793,-0.682129,0.639648,0
10220,-0.373047,-0.683594,0.639648,0
10240,-0.381348,-0.692383,0.644043,0
10260,-0.372559,-0.690918,0.632812,0
10280,-0.370117,-0.688477,0.621582,0
10300,-0.366211,-0.69043,0.641602,0
10330,-0.376465,-0.693848,0.651367,0
10350,-0.379883,-0.689941,0.643066,0
10370,-0.368164,-0.694824,0.631836,0
10390,-0.362305,-0.694824,0.628906,0
10410,-0.364746,-0.688965,0.624023,0
10430,-0.384277,-0.68457,0.61377,0
10450,-0.391113,-0.681152,0.611328,0
10470,-0.393066,-0.693848,0.614746,0
10490,-0.392578,-0.703125,0.615723,0
10500,-0.378906,-0.699219,0.613281,0
10520,-0.368164,-0.697266,0.608887,0
10540,-0.355469,-0.703613,0.626953,0
10560,-0.357422,-0.707031,0.641602,0
10580,-0.37207,-0.709473,0.638184,0
10600,-0.375977,-0.702637,0.634277,0
10620,-0.378418,-0.702148,0.621582,0
10640,-0.382324,-0.696777,0.625488,0
10660,-0.384766,-0.693848,0.620605,0
10680,-0.374023,-0.676758,0.609375,0
10700,-0.366699,-0.676758,0.602539,0
10720,-0.360352,-0.692871,0.615234,0
10740,-0.347168,-0.707031,0.633789,0
10760,-0.336914,-0.716797,0.650391,0
10780,-0.347168,-0.70459,0.626953,0
10800,-0.356934,-0.697754,0.631348,0
10820,-0.356445,-0.696289,0.62793,0
10840,-0.364258,-0.706055,0.628906,0
10860,-0.372559,-0.708496,0.63916,0
10880,-0.377441,-0.696777,0.626465,0
10900,-0.371582,-0.685547,0.632324,0
10920,-0.355469,-0.683105,0.655762,0
10940,-0.357422,-0.686523,0.654297,0
10960,-0.359375,-0.689453,0.660156,0
10980,-0.351562,-0.684082,0.664062,0
11000,-0.358887,-0.674805,0.646484,0
11020,-0.366699,-0.671387,0.653809,0
11040,-0.367676,-0.678711,0.655762,0
11060,-0.377441,-0.681152,0.637695,0
11080,-0.373047,-0.687012,0.634277,0
11100,-0.365723,-0.689453,0.642578,0
11120,-0.361328,-0.694824,0.654297,0
11140,-0.359375,-0.694336,0.646973,0
11160,-0.358887,-0.698242,0.648926,0
11180,-0.36084,-0.698242,0.645508,0
11200,-0.362793,-0.698242,0.630371,0
11220,-0.362793,-0.702148,0.631348,0
11240,-0.364258,-0.699219,0.637695,0
11260,-0.366699,-0.693359,0.625977,0
11280,-0.364258,-0.692383,0.620117,0
11300,-0.362305,-0.694824,0.615234,0
11320,-0.361816,-0.698242,0.624023,0
11340,-0.361816,-0.705566,0.625,0
11360,-0.356934,-0.714355,0.616699,0
11380,-0.357422,-0.712891,0.604492,0
11400,-0.359375,-0.714844,0.591797,0
11420,-0.365723,-0.712891,0.604004,0
11440,-0.371094,-0.71582,0.611328,0
11460,-0.370117,-0.710938,0.608887,0
11480,-0.371582,-0.708984,0.615723,0
11500,-0.380859,-0.709961,0.625488,0
11520,-0.380371,-0.708496,0.616211,0
11540,-0.379883,-0.702148,0.612793,0
11560,-0.378418,-0.697266,0.621094,0
11580,-0.379883,-0.696777,0.621094,0
11590,-0.37793,-0.698242,0.625488,0
11610,-0.370605,-0.700195,0.625,0
11630,-0.372559,-0.698242,0.635254,0
11650,-0.371094,-0.701172,0.627441,0
11670,-0.375977,-0.703613,0.632324,0
11690,-0.375977,-0.695801,0.630859,0
11710,-0.376953,-0.697754,0.631836,0
11730,-0.374023,-0.704102,0.622559,0
11750,-0.366699,-0.704102,0.619629,0
11770,-0.367676,-0.699707,0.627441,0
11790,-0.371094,-0.702148,0.624023,0
11810,-0.369141,-0.701172,0.623047,0
11830,-0.376953,-0.70752,0.622559,0
11850,-0.379883,-0.703613,0.623535,0
11870,-0.37793,-0.69873,0.622559,0
11890,-0.379883,-0.700195,0.623047,0
11910,-0.37793,-0.699707,0.615234,0
11930,-0.375977,-0.702148,0.621094,0
11950,-0.373535,-0.704102,0.619141,0
11970,-0.374512,-0.705078,0.625977,0
11990,-0.37793,-0.70166,0.625977,0
12010,-0.385254,-0.699219,0.627441,0
12030,-0.386719,-0.703125,0.619141,0
12050,-0.390625,-0.724121,0.613281,0
12070,-0.390137,-0.758789,0.620117,0
12090,-0.385254,-0.781738,0.616699,0
12110,-0.38623,-0.769531,0.645508,0
12130,-0.373047,-0.91748,0.671387,0
12140,-0.364258,-1.15479,0.688477,0
12160,-0.306641,-1.10742,0.656738,0
12180,-0.13623,-1.12158,0.76416,0
12200,0.0336914,-1.09912,0.804199,0
12220,0.0268555,-1.15625,0.773438,0
12240,-0.0239258,-1.19922,0.807617,0
12260,-0.0136719,-1.16357,0.765625,0
12280,-0.034668,-1.12695,0.815918,0
12300,-0.0966797,-1.01465,0.901855,0
12320,-0.078125,-0.861328,0.918945,0
12340,-0.0415039,-0.87793,0.771484,0
12360,-0.0830078,-0.779297,0.695801,0
12380,-0.11084,-0.616211,0.751953,0
12400,-0.081543,-0.577637,0.681641,0
12450,-0.0239258,-1.19922,0.807617,0
12450,-0.0444336,-0.51123,0.470703,0
12470,-0.0439453,-0.42334,0.474121,0
12490,0.0107422,-0.438965,0.513184,0
12510,0.0415039,-0.478027,0.556641,0
12530,0.109375,-0.54541,0.504395,0
12550,0.141602,-0.486816,0.473145,0
12570,0.172363,-0.472656,0.470703,0
12590,0.266113,-0.515137,0.410156,0
12610,0.291992,-0.561523,0.481934,0
12630,0.322266,-0.629883,0.520996,0
12650,0.396973,-0.680176,0.469727,0
12670,0.452637,-0.654297,0.464355,0
12690,0.462402,-0.656738,0.462402,0
12710,0.469727,-0.680176,0.478027,0
12730,0.469727,-0.664062,0.493652,0
12750,0.487305,-0.655762,0.493652,0
12770,0.515625,-0.661621,0.462891,0
12790,0.529785,-0.671387,0.502441,0
12810,0.534668,-0.687012,0.535156,0
12830,0.529297,-0.736816,0.532227,0
12850,0.52832,-0.751465,0.544922,0
12870,0.540527,-0.740234,0.547852,0
12890,0.519531,-0.700195,0.546387,0
12910,0.510742,-0.689941,0.554199,0
12930,0.512207,-0.698242,0.546387,0
12950,0.51416,-0.707031,0.552734,0
12970,0.512695,-0.715332,0.546387,0
12990,0.489258,-0.705078,0.543457,0
13010,0.484863,-0.688477,0.549316,0
13030,0.487305,-0.692871,0.54248,0
13050,0.494141,-0.682129,0.543945,0
13070,0.499023,-0.695801,0.53418,0
13090,0.487305,-0.692383,0.541992,0
13110,0.48291,-0.691895,0.543945,0
13130,0.499023,-0.683105,0.539062,0
13150,0.518066,-0.688477,0.530273,0
13170,0.518066,-0.693359,0.535645,0
13190,0.509277,-0.717773,0.543457,0
13210,0.524902,-0.722656,0.541016,0
13230,0.530762,-0.70166,0.544434,0
13250,0.527344,-0.693359,0.54248,0
13270,0.511719,-0.698242,0.537598,0
13290,0.506348,-0.696289,0.539062,0
13310,0.507812,-0.708984,0.556641,0
13330,0.509277,-0.70166,0.562012,0
13350,0.510742,-0.691895,0.561035,0
13370,0.50293,-0.681152,0.546387,0
13390,0.507324,-0.662598,0.541992,0
13410,0.501953,-0.671387,0.543457,0
13430,0.472168,-0.674316,0.513184,0
13450,0.44873,-0.674316,0.473633,0
13470,0.40332,-0.688965,0.492188,0
13490,0.309082,-0.630371,0.520508,0
13510,0.296387,-0.631836,0.401855,0
13530,0.245117,-0.612793,0.392578,0
13550,0.186035,-0.605957,0.420898,0
13570,0.172363,-0.595703,0.412598,0
13590,0.179199,-0.614258,0.36377,0
13610,0.259766,-0.645996,0.414551,0
13630,0.379395,-0.665039,0.487305,0
13650,0.422363,-0.701172,0.524414,0
13670,0.315918,-0.706055,0.540039,0
13690,0.230957,-0.720215,0.611816,0
13710,0.271973,-0.723145,0.677734,0
13730,0.303711,-0.724609,0.720215,0
13750,0.235352,-0.706543,0.706055,0
13770,0.225586,-0.70459,0.713379,0
13790,0.280762,-0.739746,0.789062,0
13810,0.354004,-0.836914,0.931641,0
13830,0.379395,-0.80957,1.03564,0
13850,0.39209,-0.838379,1.09717,0
13870,0.419922,-0.945312,1.16797,0
13890,0.462891,-1.0332,1.21826,0
13910,0.580566,-1.07178,1.27393,0
13930,0.728516,-1.03809,1.24707,0
13950,0.78125,-0.979004,1.18848,0
13970,0.814453,-0.941406,1.20068,0
13990,0.812012,-0.834961,1.23242,0
14010,0.69873,-0.93457,1.19775,0
14030,0.755371,-1.01807,1.15869,0
14050,0.933105,-1.00293,1.0874,0
14070,0.83252,-0.865723,0.972168,0
14090,0.474121,-0.799805,0.837402,0
14110,0.0551758,-0.681641,0.839844,0
14130,-0.312988,-0.607422,0.741699,0
14150,-0.742188,-0.36377,0.604492,0
14170,-0.718262,-0.572266,-0.190918,0
14190,-0.0620117,-0.896973,-0.239746,0
14210,-0.802734,-0.332031,0.246094,0
14230,-1.23682,-0.304199,0.743652,0
14240,-0.209961,-0.848145,0.122559,0
14260,0.20166,-0.770508,0.109375,0
14280,0.0869141,-0.786621,0.0673828,0
14300,0.0893555,-0.97168,0.284668,0
14320,0.170898,-0.821777,0.310059,0
14340,0.210449,-0.676758,0.338867,0
14360,0.314453,-0.706055,0.429199,0
14380,0.500977,-0.826172,0.530273,0
14400,0.482422,-0.958008,0.558105,0
14420,0.449707,-0.874023,0.634277,0
14440,0.527344,-0.781738,0.562988,0
14460,0.602539,-0.727539,0.417969,0
14480,0.500488,-0.716309,0.414062,0
14500,0.307617,-0.828125,0.538086,0
14520,0.361816,-0.929199,0.558594,0
14540,0.539062,-0.705566,0.442871,0
14560,0.469727,-0.708008,0.44043,0
14580,0.277344,-0.853516,0.597656,0
14590,0.310059,-0.844238,0.519043,0
14610,0.414551,-0.708008,0.530273,0
14630,0.397949,-0.605469,0.547363,0
14650,0.309082,-0.57373,0.61084,0
14670,0.216309,-0.583984,0.649414,0
14690,0.281738,-0.573242,0.600098,0
14710,0.450684,-0.532715,0.458984,0
14730,0.387695,-0.40625,0.450195,0
14750,0.229492,-0.198242,0.706055,0
14770,0.249512,-0.0429688,0.846191,0
14790,0.373047,0.0366211,0.782715,0
14810,0.477539,-0.0522461,0.669922,0
14830,0.563477,-0.186523,0.634277,0
14850,0.69043,-0.148926,0.804688,0
14870,0.769043,-0.19873,0.841797,0
14890,0.839355,-0.40625,0.726074,0
14910,0.927734,-0.563965,0.865234,0
14930,1.05811,-0.749512,0.991211,0
14950,0.983398,-0.903809,0.862305,0
14970,0.702637,-0.900391,0.88623,0
14990,0.412109,-0.85498,1.03955,0
15010,0.334473,-0.814941,1.04883,0
15030,0.312012,-0.727051,1.02734,0
15050,0.179688,-0.596191,0.938477,0
15070,0.0947266,-0.503418,0.995117,0
15090,0.0869141,-0.600098,0.962402,0
15110,0.120117,-0.54834,0.97998,0
15130,0.222168,-0.366211,0.949219,0
15150,0.0126953,-0.20166,0.83252,0
15170,0.019043,-0.219238,1.01562,0
15190,0.305176,-0.446777,1.03467,0
15210,0.375977,-0.516602,0.92334,0
15230,0.368652,-0.573242,0.795898,0
15250,0.372559,-0.498535,0.74707,0
15270,0.135254,-0.573242,0.674316,0
15290,-0.00830078,-0.777344,0.737793,0
15310,0.0463867,-0.711426,0.777832,0
15330,0.0117188,-0.584961,0.816406,0
15350,-0.116211,-0.587891,0.874023,0
15370,0.0297852,-0.521973,0.845703,0
15390,0.12207,-0.527832,0.686523,0
15410,0.0908203,-0.515137,0.746094,0
15430,0.0810547,-0.361328,0.914551,0
15450,0.12207,-0.473633,0.892578,0
15470,0.230469,-0.556152,0.727539,0
15490,0.102051,-0.530762,0.833984,0
15510,-0.0112305,-0.546387,0.84082,0
15530,0.0625,-0.486328,0.834961,0
15550,0.12793,-0.409668,0.803223,0
15570,0.192871,-0.408691,0.799805,0
15590,0.174316,-0.378906,0.778809,0
15610,-0.0126953,-0.360352,0.760254,0
15630,-0.190918,-0.18457,0.799316,0
15650,-0.28125,-0.224121,0.848145,0
15670,-0.228516,-0.428711,0.82666,0
15690,-0.269531,-0.465332,0.8125,0
15710,-0.375977,-0.6875,0.817871,0
15730,-0.657715,-0.993652,0.949707,0
15750,-1.04492,-0.963867,1.29443,0
15770,-0.402832,-0.312012,0.966797,0
15790,-0.545898,-0.116211,0.914062,0
15810,-0.566406,-0.442383,0.774902,0
15830,-0.349609,-0.54834,0.63623,0
15850,-0.151367,-0.507812,0.622559,0
15870,-0.258789,-0.543457,0.709961,0
15890,-0.29541,-0.44873,0.76709,0
15910,-0.25,-0.396484,0.774414,0
15930,-0.326172,-0.473633,0.824219,0
15950,-0.433105,-0.579102,0.847656,0
15970,-0.48877,-0.603027,0.808105,0
15990,-0.44873,-0.5625,0.76709,0
16010,-0.378906,-0.432617,0.866211,0
16030,-0.450195,-0.420898,0.861816,0
16050,-0.457031,-0.520996,0.825195,0
16070,-0.340332,-0.620605,0.821289,0
16090,-0.157227,-0.573242,0.926758,0
16110,-0.171875,-0.477539,0.979492,0
16130,-0.192871,-0.47168,0.958008,0
16150,-0.135254,-0.541016,0.90332,0
16170,-0.23291,-0.534668,0.884766,0
16190,-0.311035,-0.557129,0.840332,0
16210,-0.349609,-0.526855,0.80127,0
16230,-0.277832,-0.537109,0.728516,0
16250,-0.360352,-0.544922,0.811523,0
16270,-0.292969,-0.538574,0.751465,0
16290,-0.286621,-0.524414,0.782715,0
16310,-0.241699,-0.428711,0.79541,0
16330,-0.0493164,-0.302246,0.760254,0
16350,-0.0424805,-0.405762,0.733887,0
16370,-0.121094,-0.382812,0.783691,0
16390,-0.116211,-0.45166,0.834961,0
16410,-0.00585938,-0.494141,0.803711,0
16430,-0.0112305,-0.491699,0.845215,0
16450,-0.0341797,-0.526855,0.810547,0
16470,-0.0209961,-0.51123,0.812988,0
16490,-0.00146484,-0.452148,0.851074,0
16510,0.0268555,-0.397461,0.861816,0
16530,0.0527344,-0.384766,0.900879,0
16550,0.0527344,-0.395996,0.922363,0
16570,0.0644531,-0.413086,0.895996,0
16590,0.0751953,-0.412598,0.900391,0
16610,0.0620117,-0.419434,0.90332,0
16630,0.0556641,-0.470703,0.900879,0
16650,0.043457,-0.436523,0.903809,0
16670,0.0576172,-0.401855,0.90332,0
16690,0.0151367,-0.414551,0.880859,0
16710,-0.03125,-0.438477,0.870605,0
16730,-0.0566406,-0.429199,0.890625,0
16750,-0.0302734,-0.414551,0.900879,0
16770,-0.0214844,-0.432617,0.913086,0
16790,-0.0078125,-0.456543,0.895508,0
16810,-0.0112305,-0.458496,0.901855,0
16830,-0.00488281,-0.446777,0.889648,0
16850,-0.0078125,-0.413574,0.914551,0
16870,0.0112305,-0.377441,0.92041,0
16890,0.0205078,-0.370117,0.922852,0
16910,0.0112305,-0.408691,0.902344,0
16930,0.0170898,-0.439941,0.891602,0
16950,0.0166016,-0.458008,0.891113,0
16970,0.0209961,-0.455566,0.899902,0
16990,0.0292969,-0.436523,0.899902,0
17010,0.0332031,-0.455078,0.883301,0
17030,0.0424805,-0.44873,0.875,0
17050,0.027832,-0.450195,0.869629,0
17070,0.0200195,-0.467773,0.873047,0
17090,0.03125,-0.46875,0.855957,0
17110,0.0336914,-0.476562,0.904297,0
17130,0.050293,-0.459473,0.90625,0
17150,0.0766602,-0.462891,0.882812,0
17170,0.0922852,-0.491699,0.87207,0
17190,0.10498,-0.532227,0.90332,0
17210,0.140137,-0.574707,0.94873,0
17230,0.181641,-0.571289,0.9375,0
17250,0.199219,-0.559082,0.901855,0
17270,0.224609,-0.548828,0.924316,0
17290,0.237305,-0.54248,0.974121,0
17310,0.263672,-0.636719,0.913086,0
17330,0.297852,-0.686035,0.800781,0
17350,0.262207,-0.60498,0.84668,0
17370,0.250488,-0.665527,0.885742,0
17390,0.268555,-0.724609,0.824219,0
17410,0.368652,-0.709961,0.681152,0
17430,0.302246,-0.570312,0.71875,0
17450,0.1875,-0.59668,0.777344,0
17470,0.213379,-0.662598,0.800781,0
17490,0.227539,-0.619629,0.755859,0
17510,0.219727,-0.539062,0.746582,0
17530,0.293457,-0.541016,0.681641,0
17550,0.356934,-0.571289,0.680176,0
17570,0.322266,-0.583008,0.683594,0
17590,0.317871,-0.608887,0.598145,0
17610,0.330566,-0.589355,0.609375,0
17630,0.355469,-0.572266,0.629395,0
17650,0.388184,-0.614258,0.611816,0
17670,0.384277,-0.641602,0.603027,0
17690,0.402344,-0.581055,0.59082,0
17710,0.452148,-0.543945,0.571289,0
17730,0.476074,-0.569824,0.53418,0
17750,0.451172,-0.595215,0.536133,0
17770,0.446289,-0.597168,0.573242,0
17780,0.453613,-0.620605,0.586426,0
17800,0.499023,-0.624512,0.544922,0
17820,0.503906,-0.609375,0.518066,0
17840,0.506348,-0.637695,0.462891,0
17860,0.504883,-0.594238,0.493652,0
17880,0.46582,-0.474609,0.554688,0
17900,0.507812,-0.409668,0.561035,0
17920,0.555176,-0.398438,0.572266,0
17940,0.550781,-0.537109,0.580078,0
17960,0.495117,-0.682129,0.618164,0
17980,0.450195,-1.08887,0.613281,0
18000,0.466309,-1.14453,0.70166,0
18020,0.595215,-0.960449,0.527344,0
18040,0.479004,-0.680176,0.638184,0
18060,0.33252,-0.597168,0.790527,0
18080,0.588379,-0.825684,0.59082,0
18100,0.597656,-0.668945,0.524902,0
18120,0.422852,-0.617676,0.69873,0
18140,0.498047,-0.705566,0.643066,0
18160,0.529297,-0.678711,0.611816,0
18180,0.484863,-0.712891,0.66748,0
18200,0.535645,-0.748535,0.608398,0
18220,0.571289,-0.78125,0.604004,0
18240,0.621582,-0.696289,0.647461,0
18260,0.730469,-0.67041,0.591797,0
18280,0.741699,-0.736328,0.526855,0
18300,0.632812,-0.842773,0.548828,0
18320,0.670898,-0.986328,0.571777,0
18340,0.821289,-0.966797,0.524414,0
18360,0.971191,-0.903809,0.317383,0
18380,0.82959,-0.741211,0.354004,0
18400,0.301758,-0.466309,0.349609,0
18420,-0.168457,-0.175293,0.429199,0
18440,-0.40332,-0.0214844,0.38916,0
18460,-0.1875,-0.296387,0.363281,0
18480,0.20166,-0.749023,0.293945,0
18500,0.374023,-1.10254,0.395996,0
18520,0.340332,-1.16699,0.390137,0
18540,0.290039,-1.05078,0.334961,0
18560,0.263672,-0.854004,0.320312,0
18580,0.267578,-0.808594,0.367676,0
18600,0.347656,-0.886719,0.373535,0
18620,0.407227,-1.08984,0.318848,0
18640,0.346191,-1.16895,0.330078,0
18660,0.258301,-1.1333,0.312012,0
18680,0.253418,-1.01709,0.317383,0
18700,0.320312,-0.888672,0.324219,0
18720,0.372559,-0.853516,0.256836,0
18740,0.352539,-0.884277,0.25,0
18760,0.306152,-0.958984,0.276367,0
18770,0.296875,-0.932617,0.341797,0
18790,0.28125,-0.865234,0.334961,0
18810,0.287598,-0.847168,0.313477,0
18830,0.356445,-0.880371,0.289062,0
18850,0.355957,-0.945801,0.31543,0
18870,0.297363,-0.947754,0.33252,0
18890,0.269043,-0.914062,0.373047,0
18910,0.320801,-0.887207,0.396484,0
18930,0.388672,-0.873047,0.35498,0
18950,0.391602,-0.86084,0.330566,0
18970,0.333496,-0.899902,0.335449,0
18990,0.290527,-0.907227,0.354004,0
19010,0.336914,-0.878418,0.343262,0
19030,0.364258,-0.861328,0.359863,0
19050,0.345703,-0.859863,0.361328,0
19070,0.393555,-0.871582,0.361328,0
19090,0.418945,-0.885254,0.365234,0
19110,0.38916,-0.913086,0.366699,0
19130,0.370117,-0.941406,0.372559,0
19150,0.399414,-0.94873,0.384277,0
19170,0.396973,-0.935059,0.357422,0
19190,0.374023,-0.930176,0.365234,0
19210,0.356934,-0.933594,0.393066,0
19230,0.336426,-0.90332,0.430664,0
19250,0.306641,-0.879395,0.413574,0
19270,0.347656,-0.919922,0.349609,0
19290,0.369141,-0.919922,0.327148,0
19310,0.352539,-0.925293,0.363281,0
19330,0.342773,-0.908203,0.372559,0
19350,0.364746,-0.880371,0.375488,0
19370,0.41748,-0.883301,0.351562,0
19390,0.44043,-0.90918,0.30127,0
19410,0.394531,-0.878418,0.351562,2000
19430,0.320801,-0.866699,0.34082,0
19450,0.298828,-0.90918,0.34375,0
19470,0.195801,-0.916504,0.380859,0
19490,0.111816,-0.890625,0.291504,0
19510,-0.0249023,-0.840332,0.365234,0
19530,-0.140137,-0.759766,0.267578,0
19550,-0.213867,-0.917969,0.265137,0
19570,-0.149902,-0.93457,0.399414,0
19590,0.0473633,-0.881836,0.40918,0
19610,0.157715,-0.818848,0.379395,0
19630,0.0991211,-0.83252,0.409668,0
19650,0.152832,-0.892578,0.419434,0
19670,0.410645,-0.899902,0.42334,0
19690,0.46875,-0.824219,0.445312,0
19710,0.321289,-0.73877,0.443848,0
19730,0.391113,-0.733887,0.427734,0
19750,0.728027,-0.891113,0.32373,0
19770,0.671387,-0.87207,0.30957,0
19790,0.666016,-0.779785,0.364258,0
19810,0.852051,-0.694336,0.4375,0
19830,1.02637,-0.749512,0.331543,0
19850,1.0332,-0.800781,0.202148,0
19870,1.07129,-0.720703,0.206543,0
19890,0.961426,-0.58252,0.230957,0
19910,0.834473,-0.523926,0.254883,0
19930,0.806152,-0.605469,0.252441,0
19950,0.781738,-0.680664,0.189941,0
19970,0.827637,-0.660645,0.283691,0
19990,0.908691,-0.625,0.347656,0
20010,0.957031,-0.614746,0.337891,0
20030,1.06494,-0.571777,0.337402,0
20050,1.12109,-0.531738,0.459961,0
20070,1.17383,-0.556641,0.460449,0
20090,1.18896,-0.556641,0.494141,0
20110,1.17773,-0.49707,0.65332,0
20130,1.09131,-0.594238,0.674316,0
20150,0.962402,-0.616699,0.681641,0
20170,0.942383,-0.633789,0.765625,0
20190,0.866211,-0.587891,0.842773,0
20210,0.732422,-0.619629,0.856445,0
20230,0.588379,-0.546387,0.887695,0
20250,0.493652,-0.511719,0.897949,0
20270,0.486328,-0.482422,0.805176,0
20290,0.343262,-0.469727,0.834473,0
20310,0.0332031,-0.503906,0.793945,0
20330,-0.20166,-0.563965,0.714355,0
20350,-0.243164,-0.645996,0.527832,0
20370,-0.251953,-0.632324,0.388184,0
20390,-0.427734,-0.588867,0.202148,0
20410,-0.544922,-0.646484,0.161621,0
20440,-0.339844,-0.90625,-0.0117188,0
20460,-0.265137,-0.95752,0.0239258,0
20480,-0.163086,-0.979004,0.0844727,0
20500,-0.0546875,-0.89502,0.116699,0
20520,0.0751953,-0.837402,0.10791,0
20540,0.1875,-0.840332,0.0795898,0
20560,0.277832,-0.931641,0.109863,0
20580,0.482422,-0.904297,0.193848,0
20600,0.731445,-0.830566,0.193848,0
20620,0.862793,-0.80127,0.090332,0
20640,0.956055,-0.734863,0.0996094,0
20660,1.229,-0.706055,0.10498,0
20680,1.50439,-0.661133,0.105469,0
20700,1.56787,-0.499512,0.0957031,0
20720,1.55664,-0.274902,0.14502,0
20740,1.69141,-0.166504,0.165039,0
20760,1.74707,-0.220215,0.0800781,0
20780,1.57275,-0.126953,0.104004,0
20790,1.46387,-0.0932617,0.362305,0
20810,1.43799,-0.162598,0.427246,0
20830,1.41846,-0.23291,0.54834,0
20850,1.21729,-0.210449,0.776855,0
20870,0.998535,-0.352539,0.765137,0
20890,0.835449,-0.295898,0.863281,0
20910,0.474609,-0.189453,0.911621,0
20930,0.250977,-0.151855,0.924805,0
20950,0.273926,-0.284668,0.910645,0
20970,0.307129,-0.520996,0.88916,0
20990,0.291992,-0.657227,0.743164,0
21010,0.235352,-0.566406,0.72168,0
21030,0.0595703,-0.516113,0.61377,0
21050,-0.0947266,-0.601074,0.419922,0
21070,-0.224609,-0.885742,0.226562,0
21090,-0.19873,-1.02539,0.0410156,0
21110,-0.0712891,-0.938965,-0.0239258,0
21130,-0.0625,-0.852051,-0.0917969,0
21150,-0.0981445,-0.935547,-0.17627,0
21170,-0.0239258,-1.02783,-0.181152,0
21190,0.0874023,-0.981934,-0.143555,0
21210,0.161133,-0.880859,-0.0981445,0
21230,0.322266,-0.786133,-0.115234,0
21250,0.528809,-0.768555,-0.140137,0
21260,0.617676,-0.797852,-0.124512,0
21280,0.654785,-0.803223,-0.0991211,0
21300,0.758789,-0.65918,-0.0273438,0
21320,0.888672,-0.490234,-0.0209961,0
21340,1.04688,-0.365723,-0.0961914,0
21360,1.26123,-0.168945,-0.0161133,0
21380,1.55371,-0.0546875,0.182129,0
21400,1.9043,-0.0371094,0.0166016,0
21420,1.87109,0.117188,-0.0395508,0
21440,1.75293,0.173828,0.097168,0
21460,1.69141,0.0336914,0.25293,0
21480,1.58447,-0.0371094,0.325684,0
21500,1.46045,-0.0844727,0.446289,0
21520,1.32715,-0.128906,0.634766,0
21540,1.27393,-0.237305,0.598145,0
21560,1.25342,-0.286133,0.786621,0
21580,0.867188,-0.198242,0.891602,0
21600,0.377441,0.0395508,0.955078,0
21620,-0.0297852,0.162109,0.839844,0
21640,-0.229004,0.00927734,0.546875,0
21660,-0.317871,-0.415039,0.459961,0
21680,-0.301758,-0.706055,0.380859,0
21700,-0.0551758,-0.94043,0.392578,0
21720,0.200684,-0.9375,0.341309,0
21740,0.313477,-0.81543,0.275391,0
21760,0.387207,-0.802734,0.181641,0
21780,0.515625,-0.898926,0.11377,0
21800,0.644531,-0.882324,0.0302734,0
21820,0.664551,-0.800781,-0.0488281,0
21840,0.638672,-0.912109,-0.123535,0
21860,0.662109,-0.936523,-0.17041,0
21880,0.638672,-0.83252,-0.222168,0
21900,0.55957,-0.76123,-0.282715,0
21920,0.503418,-0.663574,-0.253418,0
21940,0.564941,-0.628906,-0.230957,0
21960,0.609863,-0.668945,-0.265625,0
21980,0.515625,-0.712402,-0.287598,0
22000,0.376953,-0.682129,-0.190918,0
22020,0.373047,-0.600586,-0.0830078,0
22040,0.689453,-0.575195,-0.0556641,0
22060,1.06104,-0.617188,-0.0444336,0
22080,1.04492,-0.731445,-0.000976562,0
22100,0.99707,-0.708496,0.10498,0
22120,1.15527,-0.603516,0.0498047,0
22140,1.17383,-0.57373,0.0483398,2001
22160,1.06299,-0.583984,0.0268555,0
22180,0.979492,-0.562988,-0.00878906,0
22200,0.82666,-0.506836,-0.00439453,0
22220,0.664062,-0.490234,-0.0366211,0
22240,0.46875,-0.450684,-0.0913086,0
22260,0.320312,-0.53418,-0.158203,0
22280,0.367676,-0.567383,-0.0986328,0
22300,0.570801,-0.523438,-0.0351562,0
22320,0.695312,-0.412109,0.152344,0
22340,0.641602,-0.425293,0.065918,0
22360,0.486816,-0.530762,-0.0390625,0
22380,0.429688,-0.634766,-0.0415039,0
22400,0.689453,-0.659668,0.0712891,0
22420,0.995605,-0.729492,0.188477,0
22440,0.942383,-0.588867,0.196777,0
22460,0.742676,-0.477051,0.204102,0
22480,0.636719,-0.513672,0.30957,0
22500,0.807617,-0.651367,0.280762,0
22520,0.927246,-0.793457,0.303223,0
22540,0.798828,-0.882324,0.346191,0
22560,0.795898,-1.00244,0.326172,0
22580,1.02539,-1.08203,0.219727,0
22600,1.05322,-1.09912,0.176758,0
22620,0.837402,-1.00488,0.194824,0
22640,0.705566,-1.01904,0.250488,0
22660,0.663574,-1.03516,0.307617,0
22680,0.630371,-0.981445,0.328125,0
22700,0.525879,-0.95459,0.283691,0
22720,0.399414,-0.938477,0.277832,0
22740,0.316406,-0.945801,0.318359,0
22760,0.335938,-0.938965,0.293945,0
22780,0.39502,-0.966797,0.275879,0
22800,0.400879,-0.971191,0.280273,0
22820,0.39502,-0.985352,0.302734,0
22840,0.394043,-0.999512,0.244629,0
22860,0.384766,-0.966309,0.219727,0
22880,0.374023,-0.914062,0.241699,0
22900,0.369629,-0.916016,0.255371,2000
22920,0.39209,-0.944824,0.220215,0
22940,0.393555,-0.933594,0.20459,0
22960,0.336914,-0.841309,0.193359,0
22980,0.234863,-0.794434,0.239746,0
23000,0.246094,-0.834961,0.272949,0
23020,0.299316,-0.921387,0.239258,0
23040,0.198242,-0.82666,0.294922,0
23060,-0.00390625,-0.643066,0.334473,0
23080,-0.143066,-0.660645,0.279785,0
23100,0.0380859,-0.62793,0.32666,0
23120,0.226562,-0.725586,0.239258,0
23140,0.386719,-0.809082,0.187988,0
23160,0.532227,-0.788086,0.388184,0
23180,0.78418,-0.924316,0.557617,0
23200,0.743164,-1.07178,0.452148,0
23230,1.0083,-0.87793,0.547852,0
23250,0.864746,-0.549316,0.425781,0
23260,0.902344,-0.509766,0.416504,0
23280,0.881348,-0.582031,0.389648,0
23300,0.8125,-0.610352,0.452148,0
23320,0.816406,-0.554199,0.518555,0
23340,0.782715,-0.578125,0.533691,0
23360,0.66748,-0.583496,0.554199,0
23380,0.706055,-0.598633,0.669434,0
23400,0.86084,-0.572266,0.731934,0
23420,0.939453,-0.5625,0.755371,0
23440,1.00635,-0.584961,0.763184,0
23460,1.04541,-0.627441,0.842773,0
23480,1.00781,-0.601074,0.754883,0
23500,0.921387,-0.512207,0.801758,0
23520,0.918945,-0.522461,0.868164,0
23540,1.04053,-0.526367,0.975586,0
23560,0.969727,-0.467773,0.912598,0
23580,0.772461,-0.307617,0.899902,0
23600,0.55127,-0.208984,0.889648,0
23620,0.236816,-0.266602,0.964355,0
23640,-0.0161133,-0.604492,0.787109,0
23660,0.0263672,-0.762207,0.645508,0
23680,0.168457,-0.580566,0.658691,0
23700,0.113281,-0.328125,0.591309,0
23720,-0.00830078,-0.401855,0.474121,0
23740,-0.0654297,-0.677734,0.269531,0
23760,-0.156738,-0.856934,0.274902,0
23780,-0.145508,-0.720703,0.270508,0
23800,-0.132812,-0.522461,0.191895,0
23820,-0.0878906,-0.644531,0.0649414,0
23840,0.0410156,-0.900879,-0.0463867,0
23860,0.0703125,-1.1084,-0.0229492,0
23880,0.0512695,-1.08398,0.0244141,0
23900,0.117676,-0.92627,0.0825195,0
23920,0.262695,-0.855469,0.0678711,0
23930,0.412109,-0.817871,0.0195312,0
23950,0.515137,-0.781738,-0.0229492,0
23970,0.522461,-0.812988,0.046875,0
23990,0.46875,-0.901367,0.0756836,0
24010,0.525391,-0.916504,0.0649414,0
24030,0.910645,-0.810059,-0.027832,0
24050,0.949707,-0.762695,0.0141602,0
24070,0.853027,-0.70752,-0.046875,0
24090,0.861328,-0.643066,-0.0834961,0
24110,1.10791,-0.561035,0.0341797,0
24130,1.3501,-0.543945,0.0888672,0
24150,1.33105,-0.538086,0.0322266,0
24170,1.24951,-0.463379,0.0161133,0
24190,1.33887,-0.321777,0.19043,0
24210,1.46924,-0.316895,0.294922,0
24230,1.42236,-0.320801,0.289551,0
24250,1.39062,-0.338379,0.227539,0
24270,1.2251,-0.282227,0.383789,0
24290,1.13623,-0.275391,0.61084,0
24310,1.05273,-0.27002,0.746094,0
24330,0.931152,-0.336426,0.681152,0
24350,0.913574,-0.354004,0.688965,0
24370,0.828613,-0.294922,0.76416,0
24390,0.749512,-0.242676,0.792969,0
24410,0.685547,-0.26709,0.82373,0
24430,0.633789,-0.390625,0.728516,0
24450,0.651855,-0.491699,0.714844,0
24470,0.613281,-0.458496,0.812988,0
24490,0.433105,-0.441895,0.704102,0
24510,0.374023,-0.475586,0.572266,0
24530,0.255371,-0.510742,0.547852,0
24550,0.161133,-0.584961,0.551758,0
24570,0.19873,-0.591309,0.620605,0
24590,0.189453,-0.686523,0.42334,0
24610,0.0541992,-0.698242,0.24707,0
24630,-0.0791016,-0.753418,0.177246,0
24650,-0.111328,-0.849609,0.146484,0
24660,-0.0454102,-0.898438,0.0307617,0
24680,0.0170898,-0.919922,-0.0332031,0
24700,0.0844727,-0.90625,-0.0405273,0
24720,0.174316,-0.854004,-0.00244141,0
24740,0.202637,-0.950684,0.046875,0
24760,0.216797,-1.04053,0.00683594,0
24780,0.308105,-1.07617,-0.0234375,0
24800,0.54541,-0.908203,0.0307617,0
24820,0.750488,-0.769043,-0.0273438,0
24840,0.822266,-0.763184,-0.147461,0
24860,0.85498,-0.754395,-0.131836,0
24880,1.01807,-0.760742,-0.000976562,0
24900,1.12256,-0.704102,-0.0415039,0
24920,1.18701,-0.678711,-0.205566,0
24940,1.1709,-0.498047,-0.165527,0
24960,1.16602,-0.405273,-0.0478516,0
24980,1.25439,-0.284668,0.0532227,0
25000,1.38135,-0.21875,0.0405273,0
25020,1.35693,-0.128418,-0.0209961,0
25040,1.28418,-0.0556641,0.110352,0
25060,1.26074,-0.074707,0.184082,0
25080,1.30859,-0.164551,0.165039,0
25100,1.26025,-0.230957,0.260742,0
25120,1.18164,-0.23291,0.488281,0
25140,1.09229,-0.167969,0.544434,0
25160,1.04297,-0.188477,0.493164,0
25180,1.06348,-0.17334,0.535156,0
25200,0.901855,-0.174316,0.678711,0
25220,0.701172,-0.181152,0.777832,0
25240,0.644531,-0.180176,0.719727,0
25260,0.615234,-0.225098,0.70166,0
25280,0.45166,-0.205078,0.745117,0
25300,0.239258,-0.282227,0.737305,0
25320,0.289551,-0.352051,0.679688,0
25340,0.437012,-0.416504,0.628906,0
25360,0.428223,-0.376465,0.543457,0
25380,0.219238,-0.412109,0.503418,0
25400,0.243652,-0.558594,0.487793,0
25420,0.362793,-0.584961,0.443848,0
25440,0.351562,-0.611816,0.333496,0
25460,0.29541,-0.648438,0.253418,0
25480,0.25,-0.772461,0.205566,0
25500,0.316406,-0.854004,0.200195,0
25520,0.428711,-0.928223,0.144531,0
25540,0.549805,-0.884277,0.108887,0
25560,0.568848,-0.937988,0.117188,0
25580,0.608398,-0.924316,0.0908203,0
25600,0.665039,-0.886719,0.0483398,0
25620,0.624512,-0.855957,-0.00244141,0
25640,0.634766,-0.845215,0.0263672,0
25660,0.763184,-0.83252,0.0380859,0
25680,0.83252,-0.753906,0.0107422,0
25700,0.730957,-0.714844,0.00292969,0
25720,0.673828,-0.661133,0.0102539,0
25740,0.828613,-0.652344,0.0209961,0
25760,0.941406,-0.669922,0.0161133,0
25780,0.921387,-0.656738,0.00146484,0
25800,0.919922,-0.61084,0.00195312,0
25820,0.957031,-0.59082,0.0234375,0
25840,0.995117,-0.576172,-0.019043,0
25860,1.01416,-0.564453,-0.0200195,0
25880,1.04932,-0.556641,0.000976562,0
25900,1.0127,-0.513672,0.0151367,0
25920,0.92627,-0.435547,-0.0234375,0
25940,0.88623,-0.394531,-0.034668,0
25960,0.842285,-0.450684,-0.03125,0
25980,0.808105,-0.491211,-0.0332031,0
26000,0.79248,-0.511719,-0.0463867,2001
26020,0.794922,-0.462402,-0.0576172,0
26040,0.807617,-0.396973,-0.0834961,0
26060,0.842285,-0.416016,-0.0864258,0
26080,0.843262,-0.438965,-0.0844727,0
26100,0.844727,-0.476074,-0.0708008,0
26120,0.830566,-0.511719,-0.0756836,0
26140,0.829102,-0.492188,-0.106445,0
26160,0.790039,-0.479004,-0.0859375,0
26180,0.669922,-0.441895,-0.0664062,0
26200,0.493652,-0.464844,-0.0146484,0
26220,0.295898,-0.492676,0.019043,0
26240,0.197266,-0.486328,-0.0249023,0
26260,0.259277,-0.520996,-0.146973,0
26280,0.496094,-0.586426,-0.0849609,0
26300,0.614746,-0.651367,0.0927734,0
26320,0.621582,-0.549316,0.350098,0
26340,0.676758,-0.401855,0.287598,0
26360,0.771973,-0.344238,0.205078,0
26380,0.888184,-0.364746,0.194336,0
26400,1.13574,-0.47998,0.215332,0
26420,1.3999,-0.614746,0.320312,0
26440,1.45264,-0.743652,0.274902,0
26460,1.32129,-0.712891,0.238281,0
26480,1.17822,-0.76416,0.348145,0
26500,1.03955,-0.893555,0.521484,0
26520,0.980957,-1.04785,0.526367,0
26540,0.861328,-1.04834,0.46582,0
26560,0.686523,-1.00537,0.494629,0
26580,0.539062,-0.994141,0.615723,0
26600,0.488281,-1.00195,0.61084,0
26620,0.440918,-0.965332,0.59375,0
26640,0.304199,-0.977539,0.609863,0
26660,0.20459,-1,0.612305,0
26680,0.216309,-1.01367,0.581543,0
26700,0.233398,-0.972656,0.550293,0
26720,0.216309,-0.885254,0.507812,0
26740,0.27002,-0.86084,0.476562,0
26760,0.314941,-0.864746,0.45459,0
26780,0.322754,-0.893066,0.411621,0
26800,0.333496,-0.881348,0.41748,0
26820,0.30957,-0.866211,0.399902,0
26840,0.295898,-0.904785,0.352539,0
26860,0.317383,-0.875488,0.350098,0
26880,0.28418,-0.81543,0.35791,0
26900,0.241211,-0.852051,0.366699,2000
26920,0.226074,-0.908691,0.330566,0
26930,0.183594,-0.888672,0.319336,0
26950,0.0581055,-0.836426,0.382324,0
26970,-0.0664062,-0.818848,0.382812,0
26990,-0.0566406,-0.894531,0.409668,0
27010,-0.00927734,-0.909668,0.439453,0
27030,0.00683594,-0.90625,0.424805,0
27050,0.0776367,-0.850098,0.438965,0
27070,0.19043,-0.760742,0.499023,0
27090,0.308105,-0.810059,0.46875,0
27110,0.411133,-0.902344,0.358887,0
27130,0.359375,-0.787598,0.280762,0
27150,0.363281,-0.774414,0.316895,0
27170,0.643066,-0.763184,0.411133,0
27190,0.82666,-0.882812,0.415039,0
27210,0.733887,-0.871582,0.263184,0
27230,0.624023,-0.77002,0.222656,0
27250,0.567871,-0.702637,0.237793,0
27270,0.634277,-0.730957,0.371094,0
27290,0.70459,-0.754395,0.46582,0
27310,0.765137,-0.72998,0.413574,0
27330,0.810059,-0.691895,0.385742,0
27350,0.92041,-0.664551,0.45166,0
27370,1.03174,-0.605469,0.524414,0
27390,1.04688,-0.557129,0.571289,0
27410,1.10449,-0.580078,0.63916,0
27430,1.15283,-0.610352,0.58252,0
27450,1.19824,-0.649414,0.51416,0
27470,1.05859,-0.466309,0.594238,0
27490,1.02441,-0.375,0.677246,0
27510,0.878906,-0.439941,0.772461,0
27530,0.866699,-0.576172,0.763672,0
27550,0.797852,-0.57959,0.755859,0
27570,0.731934,-0.431641,0.864746,0
27590,0.756348,-0.125488,0.932617,0
27610,0.621582,-0.271973,0.867188,0
27630,0.391602,-0.348145,0.77002,0
27650,0.175293,-0.458496,0.874512,0
27670,0.149902,-0.507812,0.901855,0
27690,0.147461,-0.457031,0.76709,0
27710,-0.000488281,-0.462402,0.634277,0
27730,-0.0791016,-0.410645,0.612793,0
27750,-0.0883789,-0.515137,0.584961,0
27770,-0.050293,-0.665527,0.522461,0
27790,-0.0615234,-0.751953,0.52002,0
27810,-0.0200195,-0.740723,0.541992,0
27830,0.168457,-0.72168,0.558105,0
27850,0.346191,-0.82373,0.500488,0
27870,0.421387,-0.847656,0.517578,0
27890,0.387695,-0.858887,0.583984,0
27910,0.474121,-0.874023,0.484375,0
27930,0.594238,-0.835938,0.475098,0
27950,0.544922,-0.77002,0.475586,0
27970,0.483887,-0.724121,0.458496,0
27990,0.45459,-0.745117,0.441406,0
28010,0.400391,-0.813477,0.351074,0
28030,0.364258,-0.80957,0.368164,0
28050,0.339355,-0.793457,0.354492,0
28070,0.367676,-0.755859,0.367188,0
28090,0.365234,-0.758301,0.331543,0
28110,0.351562,-0.791016,0.339844,0
28130,0.331543,-0.834473,0.311523,0
28150,0.324707,-0.881836,0.33252,0
28170,0.350098,-0.881836,0.323242,0
28190,0.387695,-0.869141,0.288086,0
28210,0.387207,-0.828613,0.240234,0
28230,0.345703,-0.847656,0.287598,0
28250,0.350098,-0.859863,0.275879,0
28270,0.437988,-0.873535,0.208984,0
28290,0.45459,-0.856934,0.189941,0
28310,0.407715,-0.774414,0.314941,0
28330,0.458984,-0.717773,0.347168,0
28350,0.567871,-0.849121,0.163574,0
28370,0.63916,-0.894531,0.143555,0
28390,0.563477,-0.894531,0.170898,0
28410,0.560059,-0.879883,0.186523,0
28430,0.70752,-0.79541,0.223633,0
28450,0.803711,-0.787598,0.19043,0
28470,0.769531,-0.783691,0.121094,0
28490,0.748535,-0.790039,0.105469,0
28510,0.90332,-0.723145,0.226562,0
28530,1.0415,-0.677734,0.229004,0
28550,0.979004,-0.60498,0.143555,0
28570,0.885254,-0.530762,0.130371,0
28590,0.902832,-0.534668,0.172852,0
28610,0.940918,-0.522949,0.257324,0
28630,0.961914,-0.531738,0.252441,0
28650,0.921875,-0.506836,0.26416,0
28670,0.958984,-0.462402,0.322754,0
28690,1.00488,-0.442871,0.355469,0
28710,1.0459,-0.414551,0.423828,0
28730,1,-0.380371,0.431152,0
28750,0.958008,-0.354492,0.427246,0
28770,0.999512,-0.332031,0.425781,0
28790,0.95166,-0.378906,0.459961,0
28810,0.963867,-0.390625,0.48584,0
28830,0.896484,-0.445801,0.539551,0
28850,0.808594,-0.376465,0.577637,0
28870,0.787109,-0.373535,0.548828,0
28890,0.800781,-0.407715,0.573242,0
28910,0.80957,-0.400879,0.632812,0
28930,0.816895,-0.443848,0.623535,0
28950,0.825684,-0.438965,0.606445,0
28970,0.745605,-0.444336,0.64209,0
28990,0.631836,-0.471191,0.620605,0
29010,0.603516,-0.515625,0.666504,0
29030,0.642578,-0.53125,0.686523,0
29050,0.674316,-0.570801,0.668945,0
29070,0.657227,-0.598633,0.644531,0
29090,0.540527,-0.578613,0.595703,0
29110,0.490234,-0.548828,0.619629,0
29130,0.501953,-0.596191,0.624023,0
29150,0.444336,-0.661133,0.543457,0
29170,0.397949,-0.657227,0.50293,0
29190,0.382324,-0.643555,0.503418,0
29210,0.374512,-0.627441,0.463379,0
29230,0.352539,-0.704102,0.382812,0
29250,0.386719,-0.709961,0.375488,0
29270,0.37793,-0.799316,0.322266,0
29290,0.392578,-0.812012,0.262207,0
29310,0.373047,-0.783691,0.243164,0
29330,0.397461,-0.770508,0.234863,0
29350,0.395508,-0.82666,0.200195,0
29370,0.306641,-0.898926,0.132812,0
29390,0.239258,-0.912598,0.0703125,0
29410,0.218262,-0.88916,0.0605469,0
29430,0.273438,-0.871582,0.0717773,0
29450,0.365723,-0.856445,0.114746,0
29470,0.40625,-0.878906,0.102051,0
29490,0.370117,-0.845215,0.0859375,0
29510,0.327148,-0.893555,0.0498047,0
29520,0.382812,-0.845215,0.0473633,0
29540,0.531738,-0.823242,0.0981445,0
29560,0.725098,-0.827637,0.0625,0
29580,0.811523,-0.825195,-0.00927734,0
29600,0.740234,-0.74707,-0.00878906,0
29620,0.734863,-0.706543,0.0239258,0
29640,0.94873,-0.719238,0.0551758,0
29660,1.09424,-0.691895,0.0180664,0
29680,1.00732,-0.644531,-0.081543,0
29700,0.908203,-0.556641,-0.0581055,0
29720,0.974121,-0.445801,-0.0581055,0
29740,1.10352,-0.410645,-0.0922852,0
29760,1.10986,-0.419434,-0.112305,0
29780,1.06836,-0.370605,-0.00244141,0
29800,1.146,-0.317871,0.11377,0
29820,1.21484,-0.29834,0.126953,0
29840,1.22803,-0.209961,0.156738,0
29860,1.21338,-0.15332,0.217773,0
29880,1.17139,-0.183594,0.237305,0
29900,1.10352,-0.14209,0.273926,0
29920,1.09717,-0.128906,0.335938,0
29940,1.1416,-0.160645,0.371582,0
29960,1.18799,-0.161621,0.40332,0
29980,1.08301,-0.234375,0.504395,0
30000,0.90332,-0.27002,0.523438,0
30020,0.856445,-0.334961,0.586426,0
30040,0.947754,-0.333008,0.585449,0
30060,0.916016,-0.354004,0.669434,0
30080,0.800781,-0.400391,0.697266,0
30100,0.757324,-0.42334,0.724121,0
30110,0.604492,-0.493164,0.744141,0
30130,0.431152,-0.584473,0.691895,0
30150,0.412598,-0.569824,0.654297,0
30170,0.292969,-0.519531,0.556152,0
30190,0.253418,-0.5,0.520508,0
30210,0.249512,-0.62207,0.523438,0
30230,0.237793,-0.735352,0.398926,0
30250,0.27002,-0.731934,0.29541,0
30270,0.319824,-0.687012,0.243652,0
30290,0.29248,-0.705078,0.188965,0
30310,0.304688,-0.81543,0.112793,0
30330,0.370117,-0.861816,0.0668945,0
30350,0.418457,-0.804199,0.0600586,0
30370,0.416504,-0.819824,0.0317383,0
30390,0.38916,-0.950684,-0.0595703,0
30410,0.421387,-0.924316,-0.0253906,0
30430,0.506348,-0.841797,0.00927734,0
30450,0.62207,-0.847656,-0.03125,0
30470,0.703125,-0.878418,-0.105469,0
30490,0.668457,-0.904297,-0.117188,0
30510,0.645508,-0.900879,-0.0961914,0
30530,0.681152,-0.865234,-0.0917969,0
30550,0.754883,-0.751465,-0.0610352,0
30570,0.80127,-0.742188,-0.138672,0
30590,0.769531,-0.766113,-0.147461,0
30610,0.725098,-0.77832,-0.112305,0
30630,0.715332,-0.728027,-0.0786133,0
30650,0.806641,-0.676758,-0.107422,0
30670,0.897461,-0.61377,-0.134766,0
30690,0.890137,-0.549316,-0.163086,0
30710,0.869629,-0.525879,-0.175781,0
30730,0.910645,-0.537598,-0.179688,0
30750,0.963867,-0.571289,-0.137695,0
30770,0.95166,-0.59082,-0.196777,0
30790,0.947266,-0.517578,-0.178223,0
30810,0.961914,-0.399414,-0.208984,0
30830,0.918457,-0.364746,-0.229492,0
30850,0.885254,-0.355957,-0.19043,0
30870,0.922852,-0.433105,-0.198242,0
30890,0.946289,-0.529785,-0.204102,2001
30910,0.854004,-0.513672,-0.17627,0
30930,0.790527,-0.50293,-0.203613,0
30950,0.796875,-0.519531,-0.23291,0
30970,0.792969,-0.491211,-0.222168,0
30990,0.776367,-0.463867,-0.214355,0
31010,0.77832,-0.472168,-0.20166,0
31030,0.791016,-0.520508,-0.196289,0
31050,0.811523,-0.546387,-0.157227,0
31070,0.810059,-0.549316,-0.14502,0
31090,0.762695,-0.475098,-0.125,0
31110,0.666016,-0.413574,-0.0932617,0
31130,0.507324,-0.433594,-0.0336914,0
31150,0.332031,-0.493652,-0.0483398,0
31170,0.278809,-0.569336,-0.186035,0
31190,0.358398,-0.583984,-0.141602,0
31210,0.399414,-0.567871,0.0253906,0
31230,0.367676,-0.507812,0.050293,0
31250,0.393555,-0.467773,0.046875,0
31270,0.608887,-0.439941,0.103516,0
31290,0.894043,-0.461426,0.183594,0
31310,0.891602,-0.536621,0.161133,0
31330,0.85791,-0.654785,0.0195312,0
31350,1.13184,-0.792969,0.0688477,0
31370,1.32178,-0.873047,0.257812,0
31390,1.31152,-0.838867,0.269043,0
31410,1.21631,-0.925781,0.118164,0
31430,1.14355,-0.93457,0.155762,0
31450,1.06104,-0.928223,0.326172,0
31470,0.890625,-0.902832,0.42334,0
31490,0.73291,-0.95459,0.398926,0
31510,0.714844,-1.00928,0.407227,0
31530,0.720703,-1.00391,0.415039,0
31550,0.641602,-0.981934,0.443848,0
31570,0.572754,-0.933594,0.436523,0
31590,0.523926,-0.891602,0.4375,0
31610,0.51709,-0.972656,0.439453,0
31630,0.504395,-0.999023,0.421387,0
31640,0.416992,-0.936523,0.401855,0
31660,0.335938,-0.86084,0.34375,0
31690,0.216309,-0.852051,0.380371,0
31700,0.215332,-0.966309,0.379395,0
31720,0.23584,-1.00049,0.363281,0
31740,0.18457,-0.926758,0.384277,0
31760,0.173828,-0.824707,0.395508,2000
31780,0.251953,-0.84082,0.397461,0
31800,0.26123,-0.939453,0.357422,0
31820,0.166504,-0.955078,0.36377,0
31840,0.108398,-0.927246,0.351074,0
31860,0.123535,-0.876465,0.336914,0
31880,0.0786133,-0.859375,0.345703,0
31900,0.0322266,-0.894043,0.396973,0
31920,0.0483398,-0.906738,0.413574,0
31940,0.0722656,-0.880371,0.396484,0
31960,0.0888672,-0.90918,0.311035,0
31980,0.182129,-0.956543,0.300293,0
32000,0.312988,-0.95166,0.376953,0
32020,0.421387,-0.950684,0.370117,0
32030,0.39502,-0.873535,0.302734,0
32050,0.384277,-0.880371,0.277832,0
32070,0.447266,-0.903809,0.340332,0
32090,0.632324,-0.887695,0.363281,0
32130,0.614746,-0.703125,0.237305,0
32140,0.62793,-0.673828,0.265625,0
32160,0.631836,-0.743164,0.291504,0
32180,0.662598,-0.79248,0.304688,0
32200,0.781738,-0.723633,0.421875,0
32220,0.821777,-0.678711,0.405762,0
32240,0.845215,-0.666992,0.362793,0
32260,0.807129,-0.662109,0.373047,0
32280,0.818848,-0.646484,0.427734,0
32300,0.87793,-0.632812,0.469727,0
32320,0.916992,-0.621094,0.467285,0
32340,0.960449,-0.598633,0.476074,0
32360,0.997559,-0.597168,0.498535,0
32380,1.03027,-0.557617,0.498535,0
32400,1.08203,-0.614258,0.518066,0
32420,1.11914,-0.621582,0.608398,0
32440,0.907715,-0.492188,0.491211,0
32460,0.746094,-0.382812,0.67334,0
32480,0.722656,-0.378906,0.758301,0
32500,0.730957,-0.525391,0.773438,0
32520,0.683594,-0.456055,0.772949,0
32540,0.530273,-0.372559,0.921387,0
32560,0.391113,-0.364258,0.948242,0
32580,0.333008,-0.437988,0.912598,0
32600,0.270996,-0.543457,0.803711,0
32620,0.234375,-0.487305,0.813477,0
32640,0.143066,-0.438477,0.85498,0
32660,0.123047,-0.556641,0.762207,0
32680,0.152344,-0.613281,0.67334,0
32700,0.109863,-0.598633,0.711426,0
32720,0.0664062,-0.602539,0.712891,0
32740,0.0849609,-0.62793,0.65625,0
32760,0.0639648,-0.675781,0.573242,0
32780,0.0878906,-0.698242,0.57959,0
32800,0.0400391,-0.712891,0.542969,0
32820,-0.0537109,-0.70459,0.476074,0
32840,-0.0976562,-0.727051,0.427246,0
32860,0.00878906,-0.809082,0.392578,0
32880,0.126465,-0.872559,0.381836,0
32900,0.0913086,-0.914551,0.338379,0
32920,0.104004,-0.907715,0.335938,0
32940,0.164062,-0.911133,0.347168,0
32960,0.213867,-0.949707,0.294434,0
32980,0.212891,-1.00586,0.289551,0
33000,0.138184,-0.989746,0.268066,0
33020,0.0834961,-1.00244,0.226074,0
33030,0.165039,-0.943359,0.305664,0
33050,0.336914,-0.914551,0.345215,0
33070,0.419922,-0.960449,0.314453,0
33090,0.356445,-0.937988,0.27002,0
33110,0.322754,-0.964355,0.201172,0
33130,0.458496,-0.945312,0.231934,0
33150,0.63916,-0.900879,0.306641,0
33170,0.731934,-0.859375,0.28418,0
33190,0.628906,-0.772949,0.247559,0
33210,0.637695,-0.748047,0.212891,0
33230,0.805664,-0.674805,0.291016,0
33250,0.992676,-0.706543,0.212402,0
33270,0.944336,-0.611816,0.153809,0
33290,0.843262,-0.513672,0.113281,0
33310,0.849609,-0.463867,0.140137,0
33330,0.949219,-0.416992,0.242676,0
33350,1.06006,-0.424805,0.253906,0
33370,1.10352,-0.375,0.226562,0
33390,1.15674,-0.321777,0.274902,0
33410,1.20996,-0.283691,0.319824,0
33430,1.27246,-0.269043,0.334961,0
33450,1.21338,-0.266113,0.389648,0
33470,1.17529,-0.235352,0.422852,0
33490,1.14893,-0.20166,0.484375,0
33510,1.13672,-0.301758,0.484375,0
33530,1.16016,-0.35791,0.487305,0
33550,1.0752,-0.314453,0.521484,0
33570,0.901855,-0.227051,0.606934,0
33590,0.77832,-0.254395,0.617188,0
33610,0.8125,-0.351074,0.624512,0
33630,0.787109,-0.473145,0.707031,0
33650,0.683105,-0.458496,0.714844,0
33670,0.625,-0.412109,0.702148,0
33690,0.623535,-0.40332,0.695801,0
33710,0.588379,-0.449219,0.705078,0
33730,0.490723,-0.522461,0.711914,0
33750,0.425293,-0.562012,0.695801,0
33780,0.398926,-0.615234,0.581543,0
33800,0.335449,-0.646973,0.57666,0
33820,0.348145,-0.679199,0.534668,0
33840,0.307129,-0.71582,0.469238,0
33860,0.187012,-0.748535,0.37793,0
33880,0.0708008,-0.733398,0.310059,0
33900,-0.00976562,-0.733887,0.237305,0
33920,0.0209961,-0.793945,0.21582,0
33940,0.120605,-0.866211,0.164062,0
33960,0.151855,-0.939941,0.109863,0
33980,0.137695,-0.976562,0.0712891,0
34000,0.171875,-0.952637,0.117188,0
34020,0.236816,-0.949219,0.10791,0
34060,0.411133,-0.990723,0.0776367,0
34080,0.480469,-0.954102,0.101562,0
34100,0.565918,-0.912598,0.0610352,0
34120,0.62793,-0.922852,-0.0175781,0
34140,0.728027,-0.888672,-0.00292969,0
34160,0.851562,-0.779785,0.0615234,0
34180,0.940918,-0.782715,-0.0166016,0
34200,0.972656,-0.77832,-0.125488,0
34220,0.943848,-0.670898,-0.10791,0
34240,0.947754,-0.588867,-0.123535,0
34260,0.998535,-0.555664,-0.117188,0
34280,0.935059,-0.458008,-0.0976562,0
34300,0.901855,-0.364258,-0.0688477,0
34320,0.956055,-0.23877,-0.0512695,0
34340,1.04736,-0.196289,-0.0224609,0
34360,1.04883,-0.157227,0.0566406,0
34380,1.08398,-0.139648,0.0976562,0
34400,1.12549,-0.135254,0.119141,0
34420,1.12598,-0.124512,0.14209,0
34440,1.12402,-0.140137,0.187988,0
34460,1.16016,-0.141113,0.251465,0
34480,1.20312,-0.201172,0.289062,0
34500,1.23975,-0.254883,0.348145,0
34520,1.28662,-0.260742,0.4375,0
34540,1.29932,-0.246582,0.503418,0
34560,1.20166,-0.26123,0.54248,0
34580,1.01855,-0.272461,0.554199,0
34600,0.894531,-0.29834,0.615723,0
34620,0.855469,-0.32959,0.694824,0
34640,0.756836,-0.36377,0.70752,0
34660,0.6875,-0.436523,0.750488,0
34680,0.710449,-0.458984,0.694824,0
34700,0.510254,-0.38623,0.664062,0
34720,0.464844,-0.51123,0.595215,0
34740,0.477539,-0.650391,0.581055,0
34760,0.44043,-0.709473,0.505371,0
34780,0.42627,-0.725098,0.383789,0
34800,0.367188,-0.689941,0.358398,0
34820,0.308594,-0.708984,0.279785,0
34840,0.30957,-0.822754,0.256836,0
34860,0.370117,-0.837891,0.230469,0
34880,0.383789,-0.869141,0.163574,0
34900,0.335449,-0.845215,0.0361328,0
34920,0.317383,-0.844238,-0.0327148,0
34940,0.373047,-0.817383,-0.00195312,0
34960,0.397949,-0.84082,-0.00439453,0
34980,0.398926,-0.853027,-0.0541992,0
35000,0.413574,-0.855957,-0.124023,0
35020,0.442871,-0.85498,-0.123047,0
35040,0.51416,-0.810059,-0.0605469,0
35060,0.547852,-0.82666,-0.043457,0
35080,0.570312,-0.797852,-0.0727539,0
35100,0.597168,-0.760254,-0.0966797,0
35120,0.59375,-0.752441,-0.0820312,0
35140,0.643066,-0.697266,-0.0825195,0
35160,0.851074,-0.668945,-0.034668,0
35180,1.03174,-0.717285,-0.0722656,0
35200,1.00391,-0.709961,-0.0771484,0
35220,0.924316,-0.662109,-0.0292969,0
35240,0.944824,-0.655762,-0.0537109,0
35260,1.03906,-0.674805,-0.0869141,0
35280,1.05957,-0.650879,-0.106934,0
35300,1.04688,-0.553711,-0.11377,0
35320,1.04199,-0.483398,-0.182617,0
35340,1.01025,-0.45459,-0.209961,2001
35360,1.00342,-0.414551,-0.194824,0
35380,0.987793,-0.430664,-0.180176,0
35400,0.930664,-0.475098,-0.157715,0
35420,0.838867,-0.45459,-0.157715,0
35440,0.814453,-0.437012,-0.147461,0
35460,0.749023,-0.409668,-0.146484,0
35480,0.672852,-0.356445,-0.186035,0
35500,0.594238,-0.349121,-0.181152,0
35520,0.50293,-0.42041,-0.0908203,0
35540,0.410645,-0.374023,-0.0405273,0
35560,0.321777,-0.355957,-0.0322266,0
35580,0.183105,-0.399414,-0.050293,0
35600,0.206543,-0.411133,-0.0585938,0
35620,0.322266,-0.425781,0.074707,0
35640,0.396484,-0.463867,0.162109,0
35660,0.426758,-0.524902,0.112305,0
35680,0.605957,-0.602539,-0.0185547,0
35700,0.841309,-0.546387,0.100098,0
35720,0.902832,-0.591309,0.254883,0
35740,1.02246,-0.719238,0.0703125,0
35760,1.30908,-0.798828,0.0615234,0
35780,1.45898,-0.841309,0.237793,0
35800,1.49951,-0.932617,0.291504,0
35820,1.40283,-0.952637,0.279785,0
35840,1.14453,-0.884277,0.324219,0
35860,0.891113,-0.808105,0.457031,0
35880,0.748047,-0.915527,0.543945,0
35900,0.604004,-1.11182,0.580566,0
35920,0.549805,-1.12646,0.617188,0
35940,0.491211,-1.0459,0.575195,0
35970,0.112793,-0.946777,0.548828,0
35990,0.152344,-0.867676,0.529297,0
36010,0.213867,-0.907227,0.447754,0
36030,0.29248,-0.956543,0.39209,0
36050,0.309082,-0.966797,0.400879,0
36070,0.334473,-0.954102,0.373535,0
36090,0.354004,-0.907227,0.342285,0
36100,0.321289,-0.885254,0.329102,0
36120,0.253418,-0.925781,0.336914,0
36140,0.248047,-0.992676,0.361816,0
36160,0.272461,-0.985352,0.376465,0
36180,0.287598,-0.941895,0.385254,0
36200,0.265137,-0.901367,0.401855,2000
36220,0.228516,-0.888672,0.40332,0
36240,0.196777,-0.953613,0.385742,0
36260,0.17041,-0.978516,0.383301,0
36280,0.137695,-0.904297,0.337891,0
36300,0.11084,-0.80127,0.317871,0
36320,0.046875,-0.787598,0.326172,0
36340,-0.0166016,-0.848633,0.342285,0
36360,-0.0556641,-0.869629,0.360352,0
36380,-0.0585938,-0.855469,0.379395,0
36400,-0.0102539,-0.806152,0.36377,0
36420,0.0727539,-0.810059,0.343262,0
36440,0.102051,-0.836914,0.340332,0
36460,0.145508,-0.880859,0.370117,0
36480,0.34668,-0.880859,0.461914,0
36500,0.50293,-0.95459,0.405273,0
36520,0.585449,-0.928711,0.304199,0
36540,0.477051,-0.812012,0.28125,0
36550,0.446289,-0.790039,0.285645,0
36550,0.510254,-0.847168,0.335449,0
36570,0.62793,-0.888184,0.401855,0
36590,0.821777,-0.790527,0.455078,0
36610,0.853516,-0.693848,0.393555,0
36630,0.846191,-0.652344,0.320312,0
36650,0.952148,-0.64209,0.401855,0
36670,1.03857,-0.631348,0.506836,0
36690,1.09619,-0.662598,0.532715,0
36710,1.13965,-0.699219,0.547363,0
36730,1.16309,-0.658691,0.559082,0
36750,1.20068,-0.564453,0.556152,0
36770,1.05225,-0.441406,0.584473,0
36790,0.782715,-0.435547,0.72168,0
36810,0.787109,-0.588379,0.867188,0
36830,0.861816,-0.520996,0.878418,0
36850,0.700195,-0.51709,0.943848,0
36870,0.467773,-0.459961,1.04248,0
36890,0.424316,-0.47168,0.98291,0
36910,0.464355,-0.568848,0.904785,0
36930,0.400879,-0.518555,0.82959,0
36950,0.158691,-0.40918,0.859863,0
36970,0.00878906,-0.493164,0.847168,0
36990,0.0576172,-0.673828,0.744141,0
37010,0.0336914,-0.831055,0.61084,0
37030,-0.0395508,-0.726074,0.625977,0
37050,-0.121094,-0.592285,0.554199,0
37070,-0.119141,-0.723633,0.433105,0
37090,-0.125,-0.818359,0.347656,0
37110,-0.181641,-0.946777,0.291992,0
37130,-0.177246,-0.886719,0.227051,0
37150,-0.175293,-0.793945,0.171387,0
37170,-0.142578,-0.808105,0.111328,0
37190,-0.147461,-0.921387,0.0786133,0
37210,-0.125,-0.985352,0.0297852,0
37230,-0.046875,-0.973633,0.0820312,0
37250,0.102051,-0.961426,0.0981445,0
37270,0.254883,-0.958984,0.102539,0
37290,0.269043,-0.959961,0.106445,0
37310,0.289551,-0.966309,0.0737305,0
37330,0.437988,-0.985352,0.0380859,0
37350,0.692871,-0.902832,0.123047,0
37370,0.744629,-0.869629,0.166992,0
37390,0.668457,-0.898926,0.081543,0
37410,0.699707,-0.898438,-0.0581055,0
37430,0.771973,-0.828125,0.0615234,0
37450,0.821777,-0.802734,0.172363,0
37470,0.694824,-0.73584,0.130371,0
37490,0.780273,-0.653809,0.125,0
37510,0.988281,-0.665039,0.108887,0
37530,1.06006,-0.685059,0.0869141,0
37550,1.10693,-0.586914,0.179688,0
37570,1.22852,-0.482422,0.257812,0
37590,1.37012,-0.52002,0.210938,0
37610,1.28613,-0.530762,0.169922,0
37630,1.21875,-0.414062,0.265625,0
37650,1.18066,-0.369141,0.411621,0
37670,1.18652,-0.425293,0.501953,0
37690,1.19971,-0.536621,0.457031,0
37710,1.0498,-0.579102,0.46582,0
37730,0.927734,-0.489746,0.568848,0
37750,0.809082,-0.332031,0.641602,0
37770,0.694336,-0.36377,0.730957,0
37790,0.675781,-0.428223,0.757324,0
37810,0.713867,-0.431641,0.777344,0
37830,0.645508,-0.427734,0.782227,0
37850,0.544922,-0.318848,0.696777,0
37870,0.288086,-0.304199,0.782715,0
37890,0.169922,-0.408691,0.739258,0
37920,0.298828,-0.583008,0.561035,0
37940,0.300293,-0.594238,0.563965,0
37960,0.297852,-0.680176,0.516602,0
37980,0.294922,-0.802734,0.422363,0
38000,0.327637,-0.797852,0.356934,0
38020,0.293457,-0.811523,0.306152,0
38050,0.246094,-0.951172,0.059082,0
38070,0.308594,-0.912109,0.175293,0
38110,0.820312,-0.791016,0.019043,0
38130,0.854004,-0.817383,-0.00244141,0
38150,0.693848,-0.745117,0.0322266,0
38170,0.642578,-0.670898,0.0185547,0
38190,0.86084,-0.572754,-0.0932617,0
38210,1.10205,-0.547852,-0.0874023,0
38230,1.02588,-0.540527,-0.112305,0
38250,0.882324,-0.456543,-0.144043,0
38270,0.862305,-0.29248,-0.133301,0
38290,1.05908,-0.178223,-0.112305,0
38310,1.20117,-0.263672,-0.146484,0
38330,1.11865,-0.287598,-0.0307617,0
38350,1.05859,-0.162598,0.0488281,0
38370,1.11719,-0.0522461,0.106445,0
38390,1.22021,-0.0141602,0.13916,0
38410,1.28027,-0.0454102,0.240234,0
38430,1.29248,-0.12793,0.358398,0
38450,1.2876,-0.177246,0.403809,0
38470,1.30322,-0.185059,0.459473,0
38490,1.17285,-0.129883,0.489258,0
38510,1.04248,-0.14209,0.59375,0
38530,1.00391,-0.223633,0.657227,0
38550,0.919434,-0.174805,0.73291,0
38570,0.85498,-0.114258,0.760254,0
38590,0.813965,-0.144043,0.712891,0
38610,0.68457,-0.237793,0.781738,0
38630,0.55127,-0.367676,0.807617,0
38650,0.455078,-0.437988,0.738281,0
38670,0.475586,-0.422852,0.668945,0
38690,0.387695,-0.336426,0.59375,0
38710,0.120605,-0.466797,0.477539,0
38730,0.0498047,-0.731934,0.385742,0
38750,0.211426,-0.680176,0.35791,0
38770,0.243164,-0.645996,0.297852,0
38780,0.236328,-0.655273,0.239258,0
38800,0.286621,-0.777344,0.219238,0
38820,0.375977,-0.892578,0.183105,0
38840,0.499512,-0.924805,0.130371,0
38860,0.613281,-0.900879,0.0917969,0
38880,0.606934,-0.883301,0.0371094,0
38900,0.600586,-0.884277,-0.00976562,0
38920,0.658203,-0.865723,-0.0507812,0
38940,0.687012,-0.841797,-0.113281,0
38960,0.67041,-0.833496,-0.133301,0
38980,0.669922,-0.817871,-0.126465,0
39000,0.645996,-0.727051,-0.119629,0
39020,0.637207,-0.644531,-0.118164,0
39040,0.672852,-0.619629,-0.119629,0
39060,0.711914,-0.598145,-0.135254,0
39080,0.719727,-0.615234,-0.147949,0
39100,0.739258,-0.61084,-0.130859,0
39120,0.835449,-0.554199,-0.160645,0
39140,0.92334,-0.50293,-0.136719,0
39160,0.983398,-0.507324,-0.154785,0
39180,1.05908,-0.520508,-0.157715,0
39200,1.10645,-0.502441,-0.138184,0
39220,1.07666,-0.494141,-0.186035,0
39240,0.992188,-0.462891,-0.171387,0
39260,1.00391,-0.428223,-0.152832,2001
39280,0.993164,-0.419434,-0.180664,0
39300,0.893066,-0.413086,-0.164551,0
39320,0.832031,-0.416016,-0.168457,0
39340,0.833496,-0.44873,-0.174316,0
39360,0.806152,-0.433594,-0.12207,0
39380,0.697266,-0.395996,-0.135254,0
39400,0.572266,-0.454102,-0.106445,0
39420,0.428711,-0.43457,-0.0478516,0
39440,0.313477,-0.399902,-0.0732422,0
39460,0.316406,-0.407715,-0.0898438,0
39480,0.476074,-0.389648,-0.118652,0
39500,0.564941,-0.489258,-0.065918,0
39520,0.489258,-0.541992,0.0102539,0
39540,0.495117,-0.453613,0.0283203,0
39560,0.669922,-0.418457,0.0244141,0
39580,0.888672,-0.460449,0.118164,0
39600,1.11279,-0.492676,0.183105,0
39620,1.24805,-0.57666,0.19043,0
39640,1.19141,-0.637207,0.140625,0
39660,1.09033,-0.697266,0.158203,0
39680,1.06006,-0.872559,0.227051,0
39700,1.08838,-0.978027,0.358398,0
39720,1.07666,-1.01855,0.36084,0
39740,0.989258,-1.02148,0.368164,0
39760,0.802734,-0.970703,0.407715,0
39780,0.633301,-0.96582,0.489258,0
39800,0.586914,-0.98584,0.509277,0
39820,0.525391,-1.07471,0.477051,0
39840,0.429199,-1.08887,0.480469,0
39860,0.400879,-1.03564,0.471191,0
39880,0.397461,-0.944336,0.456055,0
39920,0.401855,-0.928223,0.416992,0
39940,0.335449,-1.00244,0.38916,0
39960,0.283691,-0.999023,0.378906,0
39980,0.293945,-0.889648,0.336426,0
40000,0.338867,-0.831543,0.315918,0
40020,0.369141,-0.879395,0.303711,2000
40040,0.361328,-0.932617,0.270996,0
40060,0.320312,-0.894531,0.233398,0
40080,0.217285,-0.872559,0.280762,0
40100,0.151367,-0.924805,0.343262,0
40120,0.139648,-0.994629,0.286133,0
40140,0.124023,-0.997559,0.265137,0
40160,0.0678711,-0.893555,0.233398,0
40180,0.012207,-0.869629,0.289551,0
40200,-0.00976562,-0.937012,0.336914,0
40220,0.0664062,-1.00098,0.312988,0
40240,0.0688477,-0.972168,0.30127,0
40260,0.0439453,-0.907227,0.29248,0
40280,0.137207,-0.88916,0.303711,0
40300,0.257812,-0.898926,0.312012,0
40310,0.320801,-0.92041,0.278809,0
40350,0.674316,-0.880371,0.29248,0
40370,0.64209,-0.832031,0.196777,0
40390,0.546387,-0.705566,0.157715,0
40410,0.605957,-0.695312,0.268555,0
40420,0.766602,-0.753906,0.348633,0
40440,0.820801,-0.763672,0.317871,0
40460,0.821777,-0.733887,0.23877,0
40480,0.907715,-0.660645,0.288086,0
40500,1.03369,-0.623535,0.375,0
40520,1.05127,-0.586914,0.426758,0
40540,1.07715,-0.60791,0.425293,0
40560,1.11768,-0.614746,0.433594,0
40580,1.1377,-0.648926,0.421387,0
40600,1.01709,-0.526367,0.455078,0
40620,0.98877,-0.443359,0.581055,0
40640,0.936523,-0.508301,0.693359,0
40660,0.87207,-0.71875,0.64502,0
40680,0.80127,-0.671387,0.651367,0
40700,0.764648,-0.492676,0.784668,0
40720,0.680664,-0.387695,0.902832,0
40740,0.5625,-0.445801,0.856445,0
40760,0.450195,-0.596191,0.808105,0
40780,0.38623,-0.633789,0.920898,0
40800,0.371094,-0.549805,0.973145,0
40820,0.411133,-0.45752,0.922852,0
40840,0.322754,-0.465332,0.80127,0
40860,0.194824,-0.557617,0.804688,0
40880,0.122559,-0.584473,0.775879,0
40900,0.145508,-0.592285,0.678223,0
40920,0.16748,-0.580566,0.615234,0
40940,0.034668,-0.637207,0.521973,0
40960,-0.0615234,-0.632324,0.459961,0
40980,-0.122559,-0.673828,0.404297,0
41000,-0.0878906,-0.668945,0.389648,0
41020,-0.0839844,-0.743164,0.34082,0
41040,-0.0947266,-0.832031,0.303711,0
41060,-0.0595703,-0.937012,0.271973,0
41080,0.0151367,-0.969238,0.282227,0
41100,0.0766602,-0.987305,0.254883,0
41120,0.103027,-0.968262,0.230469,0
41140,0.0810547,-0.943848,0.240723,0
41160,0.0532227,-0.997559,0.245605,0
41180,0.136719,-1.06201,0.307129,0
41200,0.343262,-1.07568,0.327148,0
41220,0.512207,-1.0083,0.274902,0
41240,0.483398,-0.882324,0.249512,0
41260,0.349121,-0.867676,0.20166,0
41280,0.321777,-0.985352,0.0595703,0
41300,0.567383,-0.91748,0.219727,0
41320,0.768555,-0.978516,0.316406,0
41340,0.764648,-0.830566,0.29248,0
41360,0.712891,-0.681641,0.159668,0
41380,0.753418,-0.637695,0.100586,0
41400,0.905273,-0.643555,0.16748,0
41420,0.99707,-0.587402,0.20752,0
41440,1.01514,-0.463379,0.124023,0
41460,0.967773,-0.281738,0.133789,0
41480,1.06787,-0.19873,0.260742,0
41500,1.19336,-0.19043,0.282227,0
41510,1.32422,-0.220215,0.22998,0
41530,1.33984,-0.227051,0.340332,0
41550,1.35547,-0.249023,0.489258,0
41570,1.3042,-0.308105,0.57373,0
41590,1.19531,-0.307617,0.633301,0
41610,0.982422,-0.301758,0.634277,0
41630,0.951172,-0.260254,0.708008,0
41650,0.956543,-0.28418,0.767578,0
41670,0.958496,-0.302734,0.818848,0
41690,0.838379,-0.291992,0.784668,0
41710,0.662598,-0.291016,0.818848,0
41730,0.588867,-0.365723,0.830078,0
41750,0.581055,-0.358398,0.847168,0
41770,0.537598,-0.372559,0.856445,0
41790,0.485352,-0.428223,0.797852,0
41810,0.461426,-0.51709,0.793457,0
41830,0.491211,-0.561523,0.808105,0
41850,0.416016,-0.606445,0.734375,0
41870,0.266113,-0.580566,0.583984,0
41890,0.150879,-0.626953,0.407715,0
41900,0.0605469,-0.618652,0.370605,0
41920,-0.0541992,-0.711426,0.308105,0
41940,0.0239258,-0.82666,0.250488,0
41960,0.0805664,-0.879883,0.188477,0
41980,0.0893555,-0.88623,0.134766,0
42000,0.0268555,-0.887207,0.0522461,0
42020,-0.0224609,-0.896973,0.0185547,0
42040,0.015625,-0.959961,0.00195312,0
42060,0.19043,-0.99707,0.0107422,0
42080,0.416504,-0.995117,0.0258789,0
42100,0.532227,-0.976074,0.0488281,0
42110,0.578613,-0.862793,-0.108398,0
42130,0.985352,-0.805176,-0.0117188,0
42150,0.884766,-0.729492,-0.0610352,0
42170,0.946289,-0.55957,-0.103516,0
42190,1.10791,-0.490234,-0.0942383,0
42210,1.09668,-0.486816,-0.100098,0
42230,1.07178,-0.350586,-0.0727539,0
42250,1.21924,-0.22168,-0.00732422,0
42270,1.28125,-0.157715,-0.0351562,0
42290,1.25879,-0.0341797,0.0078125,0
42310,1.17041,-0.0708008,0.0908203,0
42330,1.18652,-0.0180664,0.152832,0
42350,1.22314,-0.0483398,0.196289,0
42370,1.13184,-0.0371094,0.230469,0
42390,1.0293,-0.000976562,0.308594,0
42410,1.01904,-0.0610352,0.424316,0
42430,1.08838,-0.159668,0.505371,0
42450,1.18066,-0.112305,0.561035,0
42470,1.10742,-0.111328,0.63916,0
42490,0.896484,-0.118652,0.654297,0
42510,0.859863,-0.200195,0.685547,0
42530,0.881836,-0.244629,0.716797,0
42550,0.849121,-0.244141,0.684082,0
42570,0.681152,-0.230469,0.707031,0
42590,0.433105,-0.331543,0.676758,0
42610,0.442383,-0.439941,0.672852,0
42630,0.527344,-0.55957,0.621582,0
42650,0.460938,-0.492188,0.539062,0
42670,0.330566,-0.438477,0.478027,0
42690,0.293945,-0.566406,0.441895,0
42710,0.341797,-0.71875,0.40332,0
42730,0.310547,-0.714355,0.293457,0
42750,0.285156,-0.691406,0.235352,0
42770,0.379395,-0.665527,0.24707,0
42790,0.461914,-0.80957,0.244141,0
42810,0.529297,-0.948242,0.135742,0
42830,0.559082,-0.929199,0.111816,0
42850,0.623047,-0.846191,0.0922852,0
42870,0.651367,-0.759277,0.0532227,0
42890,0.622559,-0.818848,-0.034668,0
42910,0.628418,-0.908203,-0.0498047,0
42930,0.622559,-0.826172,-0.00537109,0
42950,0.56543,-0.711426,-0.00195312,0
42970,0.543945,-0.688965,-0.0292969,0
42990,0.635742,-0.670898,-0.0175781,0
43010,0.753418,-0.710449,-0.00195312,0
43030,0.886719,-0.709961,-0.0200195,0
43050,0.962891,-0.644043,-0.0532227,0
43070,0.983887,-0.586914,-0.0864258,0
43090,1.04199,-0.532715,-0.0893555,0
43110,1.08838,-0.53125,-0.129395,0
43130,1.104,-0.489746,-0.117188,0
43150,1.05322,-0.454102,-0.136719,2001
43170,1.01855,-0.445801,-0.163086,0
43190,0.963867,-0.384277,-0.144531,0
43210,0.878418,-0.285156,-0.115234,0
43230,0.857422,-0.287109,-0.0888672,0
43250,0.922852,-0.33252,-0.065918,0
43270,0.875977,-0.373535,-0.0283203,0
43290,0.891113,-0.381836,-0.0683594,0
43310,0.814453,-0.283203,-0.0922852,0
43330,0.74707,-0.277344,-0.123535,0
43350,0.686035,-0.33252,-0.0932617,0
43370,0.602539,-0.458984,-0.090332,0
43390,0.582031,-0.443359,-0.0751953,0
43410,0.530762,-0.455566,-0.150391,0
43430,0.461426,-0.461914,-0.0942383,0
43450,0.428711,-0.414062,-0.130371,0
43470,0.437012,-0.419434,-0.0458984,0
43490,0.454102,-0.503906,-0.0478516,0
43510,0.569336,-0.516113,-0.0664062,0
43530,0.76123,-0.520508,0.065918,0
43550,0.785645,-0.492676,0.160645,0
43570,0.789551,-0.489746,0.153809,0
43590,1.00244,-0.562988,0.194824,0
43610,1.24072,-0.608398,0.297363,0
43630,1.14014,-0.62207,0.284668,0
43650,1.08447,-0.699707,0.210938,0
43670,1.15967,-0.743164,0.319824,0
43690,1.13428,-0.864746,0.358398,0
43710,0.980957,-0.880371,0.302246,0
43730,0.916992,-0.847168,0.352051,0
43750,0.847168,-0.901855,0.459961,0
43770,0.734863,-1.05762,0.493164,0
43790,0.679688,-1.10352,0.461426,0
43810,0.655273,-1.00049,0.405762,0
43830,0.531738,-0.914062,0.423828,0
43850,0.451172,-0.946289,0.450195,0
43870,0.463379,-0.981445,0.407715,0
43890,0.491699,-0.93457,0.389648,0
43910,0.457031,-0.970215,0.348633,0
43930,0.416504,-0.933105,0.329102,0
43940,0.367188,-0.919922,0.318848,0
43960,0.347168,-0.922852,0.341309,2000
43980,0.375488,-0.905762,0.319824,0
44000,0.345215,-0.850098,0.338867,0
44020,0.318848,-0.875488,0.379395,0
44040,0.33252,-0.98291,0.388184,0
44060,0.319336,-0.980957,0.347168,0
44080,0.259766,-0.900391,0.310547,0
44100,0.238281,-0.838379,0.285645,0
44120,0.209473,-0.919922,0.263184,0
44140,0.20166,-0.977539,0.243164,0
44160,0.149902,-0.986816,0.21875,0
44180,0.0639648,-0.931641,0.245117,0
44200,0.0131836,-0.858887,0.310059,0
44220,0.116699,-0.879395,0.328125,0
44240,0.230957,-0.918457,0.29541,0
44260,0.231445,-0.916016,0.304199,0
44280,0.239746,-0.826172,0.345703,0
44300,0.390137,-0.774902,0.339355,0
44360,0.614746,-0.778809,0.253906,0
44360,0.577637,-0.671875,0.221191,0
44380,0.639648,-0.694336,0.291016,0
44400,0.761719,-0.779785,0.337402,0
44420,0.864746,-0.76123,0.328613,0
44440,0.833008,-0.641113,0.279297,0
44460,0.896973,-0.572266,0.30127,0
44480,1.03125,-0.54248,0.414062,0
44500,1.01514,-0.584961,0.473145,0
44520,1.01953,-0.623047,0.38916,0
44540,0.998047,-0.646484,0.443359,0
44560,1.06738,-0.584961,0.428223,0
44580,1.06641,-0.530273,0.48291,0
44600,0.944824,-0.493652,0.657715,0
44620,0.911621,-0.593262,0.689453,0
44640,0.945801,-0.683594,0.680176,0
44660,0.877441,-0.543457,0.72998,0
44680,0.716797,-0.432129,0.775391,0
44700,0.552734,-0.366211,0.929199,0
44720,0.463867,-0.387695,0.969238,0
44740,0.452637,-0.464355,0.863281,0
44760,0.394531,-0.464355,0.856934,0
44770,0.23584,-0.408691,0.865723,0
44790,0.0913086,-0.428711,0.909668,0
44810,0.112305,-0.553711,0.784668,0
44830,0.141113,-0.632324,0.714355,0
44850,0.0908203,-0.581055,0.673828,0
44870,0.00537109,-0.504395,0.677734,0
44890,-0.00830078,-0.589844,0.597168,0
44910,0.0317383,-0.708496,0.52832,0
44930,0.0214844,-0.760254,0.499512,0
44950,-0.00732422,-0.790039,0.442383,0
44970,-0.0136719,-0.796387,0.375,0
44990,-0.0224609,-0.826172,0.302734,0
45010,0.012207,-0.928711,0.257324,0
45030,0.0473633,-0.950684,0.231934,0
45050,0.0556641,-0.958496,0.172852,0
45070,0.0498047,-0.926758,0.162598,0
45090,0.0541992,-0.919922,0.205078,0
45110,0.132812,-0.955566,0.246094,0
45130,0.289062,-1.01953,0.276855,0
45150,0.416016,-1.03662,0.306152,0
45170,0.458008,-0.964355,0.289551,0
45190,0.421875,-0.873535,0.193848,0
45210,0.484375,-0.810059,0.178223,0
45230,0.65625,-0.807617,0.243652,0
45250,0.820312,-0.831055,0.208496,0
45270,0.755859,-0.765625,0.168945,0
45290,0.73291,-0.688477,0.0952148,0
45310,0.875977,-0.611816,0.0893555,0
45330,1.0957,-0.493652,0.153809,0
45350,1.20166,-0.353516,0.172363,0
45370,1.18994,-0.21875,0.15625,0
45390,1.26025,-0.106445,0.18457,0
45410,1.41846,-0.0581055,0.174805,0
45430,1.41943,-0.0849609,0.186035,0
45450,1.29199,-0.114746,0.213379,0
45470,1.20508,-0.162109,0.300293,0
45490,1.15332,-0.137695,0.411621,0
45510,1.1748,-0.117188,0.480957,0
45530,1.2041,-0.109863,0.525391,0
45550,1.12988,-0.125,0.573242,0
45570,0.89502,-0.165039,0.649902,0
45590,0.789062,-0.255371,0.681641,0
45610,0.785156,-0.204102,0.72168,0
45630,0.785156,-0.180664,0.806152,0
45650,0.760254,-0.263184,0.771484,0
45670,0.709961,-0.402832,0.769531,0
45690,0.684082,-0.413574,0.774902,0
45710,0.651367,-0.445312,0.80127,0
45730,0.580566,-0.494629,0.728516,0
45750,0.4375,-0.539551,0.665039,0
45770,0.362793,-0.578613,0.612305,0
45800,0.242676,-0.595215,0.494629,0
45820,0.215332,-0.67041,0.448242,0
45840,0.158203,-0.712891,0.437012,0
45860,0.15918,-0.720703,0.426758,0
45880,0.177246,-0.750977,0.334961,0
45900,0.230957,-0.808105,0.244141,0
45920,0.262695,-0.841309,0.244629,0
45940,0.205566,-0.882812,0.213867,0
45960,0.197754,-0.957031,0.136719,0
45980,0.259277,-0.967773,0.0673828,0
46000,0.302246,-0.951172,0.0522461,0
46020,0.461914,-0.902344,0.0698242,0
46040,0.569336,-0.949219,-0.0112305,0
46060,0.857422,-0.63623,-0.0605469,0
46090,0.875,-0.609863,-0.117188,0
46110,0.878418,-0.540527,-0.131348,0
46130,0.891602,-0.464844,-0.158691,0
46150,0.870605,-0.364258,-0.145996,0
46170,0.90625,-0.230957,-0.0737305,0
46190,1.05029,-0.143066,-0.0239258,0
46210,1.08691,-0.139648,0.00488281,0
46230,1.11914,-0.130371,-0.0224609,0
46250,1.16016,-0.0991211,0.0751953,0
46270,1.23633,-0.0385742,0.124023,0
46290,1.29492,-0.0332031,0.0927734,0
46310,1.31006,-0.116699,0.154297,0
46330,1.23877,-0.160156,0.247559,0
46350,1.2002,-0.170898,0.375,0
46370,1.2002,-0.148438,0.376465,0
46390,1.18701,-0.00927734,0.392578,0
46410,1.18262,-0.0180664,0.505371,0
46430,0.943359,-0.090332,0.562012,0
46450,0.754883,-0.154297,0.655762,0
46470,0.893066,-0.144043,0.71875,0
46490,0.978516,-0.164551,0.80957,0
46510,0.620605,-0.187012,0.729492,0
46530,0.364746,-0.320801,0.727051,0
46550,0.391113,-0.350586,0.616211,0
46570,0.498047,-0.300293,0.577148,0
46590,0.538574,-0.309082,0.533203,0
46610,0.466797,-0.421875,0.53125,0
46630,0.509766,-0.616211,0.543457,0
46650,0.599609,-0.662109,0.527832,0
46670,0.510254,-0.637207,0.426758,0
46690,0.437012,-0.617676,0.32373,0
46710,0.37793,-0.665527,0.269043,0
46730,0.287598,-0.749512,0.237305,0
46750,0.328125,-0.849609,0.203613,0
46770,0.455566,-0.850098,0.139648,0
46790,0.464844,-0.788574,0.111328,0
46810,0.42041,-0.800293,0.0742188,0
46830,0.466797,-0.800293,0.0820312,0
46850,0.526367,-0.778809,0.0805664,0
46870,0.623535,-0.818848,0.0581055,0
46890,0.724609,-0.842773,0.0961914,0
46910,0.821289,-0.824707,0.124512,0
46930,0.861816,-0.803223,0.0639648,0
46950,0.852539,-0.697754,0.00732422,0
46970,0.845703,-0.654297,-0.0385742,0
46990,0.921875,-0.59668,-0.0141602,0
47010,1.03516,-0.559082,-0.0170898,0
47030,1.05518,-0.63623,-0.059082,0
47050,1.01855,-0.61377,-0.0463867,0
47070,1.03906,-0.550293,-0.027832,0
47090,1.07178,-0.509277,-0.0727539,0
47110,1.0542,-0.43457,-0.130859,0
47130,1.00293,-0.365723,-0.0786133,2001
47150,0.955078,-0.357422,-0.0610352,0
47170,0.934082,-0.416504,-0.0522461,0
47190,0.914062,-0.422363,-0.0366211,0
47210,0.903809,-0.38916,-0.0581055,0
47230,0.849121,-0.330078,-0.0297852,0
47250,0.779297,-0.30127,-0.0561523,0
47270,0.714355,-0.308594,-0.0361328,0
47290,0.619141,-0.357422,-0.0166016,0
47310,0.597656,-0.426758,-0.0522461,0
47330,0.556641,-0.439453,0.00390625,0
47350,0.425293,-0.408691,-0.0532227,0
47370,0.318359,-0.447754,-0.0703125,0
47390,0.37207,-0.430176,-0.118652,0
47410,0.466797,-0.442383,-0.0175781,0
47430,0.55957,-0.484375,-0.0180664,0
47450,0.569336,-0.510254,0.0429688,0
47470,0.679199,-0.487793,0.0776367,0
47490,0.833496,-0.526855,0.0336914,0
47510,0.888672,-0.59082,0.050293,0
47530,0.903809,-0.597656,0.199707,0
47550,1.00635,-0.618164,0.314453,0
47570,1.16406,-0.748047,0.239258,0
47590,1.13477,-0.745117,0.155762,0
47610,1.04736,-0.793945,0.234863,0
47630,1.05908,-0.83252,0.368164,0
47650,0.950195,-0.884277,0.389648,0
47670,0.833496,-0.912598,0.463379,0
47690,0.698242,-1.00732,0.487305,0
47710,0.666504,-1.13623,0.47998,0
47730,0.719727,-1.12061,0.464355,0
47750,0.684082,-1.0625,0.521484,0
47770,0.540039,-1.00293,0.536621,0
47790,0.445312,-1.0083,0.500977,0
47800,0.450684,-0.991211,0.490234,0
47820,0.438965,-0.968262,0.466309,0
47830,0.407227,-0.916016,0.422363,0
47850,0.366699,-0.874512,0.428223,0
47870,0.356445,-0.896484,0.411621,0
47890,0.412598,-0.916016,0.37207,0
47910,0.40625,-0.905762,0.315918,0
47930,0.32666,-0.907715,0.330566,0
47950,0.266602,-0.904297,0.400391,0
47970,0.322266,-0.923828,0.342773,0
47990,0.345215,-0.852539,0.312012,0
48010,0.222168,-0.834473,0.334473,0
48030,0.0966797,-0.871582,0.363281,0
48050,0.078125,-0.947754,0.356934,0
48070,0.0844727,-0.912598,0.362793,0
48090,0.0727539,-0.878906,0.318359,0
48110,0.0493164,-0.865723,0.303711,0
48130,0.0131836,-0.919922,0.318359,0
48150,-0.00341797,-0.94873,0.386719,0
48170,0.0498047,-0.962402,0.381836,0
48190,0.146484,-0.916504,0.325195,0
48210,0.190918,-0.916016,0.30127,0
48230,0.254395,-0.944824,0.276367,0
48250,0.307129,-0.985352,0.288086,0
48270,0.331055,-0.873535,0.314941,0
48290,0.359863,-0.817871,0.36377,0
48320,0.624512,-0.76123,0.303223,0
48340,0.677246,-0.755371,0.255859,0
48360,0.758789,-0.694336,0.328613,0
48380,0.838379,-0.632324,0.42041,0
48400,0.939453,-0.619141,0.400879,0
48420,1.07764,-0.578613,0.399902,0
48440,1.12451,-0.559082,0.428223,0
48460,1.12012,-0.552734,0.439453,0
48480,1.10547,-0.555176,0.38623,0
48500,1.05859,-0.487793,0.458984,0
48520,0.921875,-0.475586,0.583008,0
48540,0.738281,-0.436523,0.616211,0
48560,0.699219,-0.509277,0.601074,0
48580,0.647461,-0.490234,0.65918,0
48600,0.421875,-0.469238,0.692383,0
48620,0.257812,-0.478516,0.742188,0
48640,0.383301,-0.585938,0.730469,0
48660,0.590332,-0.597656,0.736816,0
48680,0.640625,-0.508301,0.739258,0
48700,0.52832,-0.507812,0.801758,0
48720,0.442383,-0.556641,0.78125,0
48740,0.386719,-0.579102,0.707031,0
48760,0.364746,-0.615234,0.72168,0
48780,0.312012,-0.617676,0.693359,0
48800,0.185547,-0.59082,0.65625,0
48820,0.0458984,-0.61377,0.633789,0
48840,-0.00244141,-0.602051,0.547852,0
48860,-0.0126953,-0.614258,0.519531,0
48880,0.000976562,-0.688477,0.485352,0
48900,0.0532227,-0.806152,0.478027,0
48920,0.110352,-0.887695,0.491211,0
48940,0.318359,-0.83252,0.474609,0
48960,0.478027,-0.846191,0.513184,0
48980,0.570801,-0.799805,0.539551,0
49000,0.657227,-0.824707,0.524902,0
49020,0.714355,-0.833496,0.504883,0
49040,0.69873,-0.875,0.478516,0
49050,0.693359,-0.876465,0.438965,0
49060,0.644531,-0.847656,0.407227,0
49060,0.5625,-0.847168,0.430664,0
49080,0.536621,-0.913086,0.486816,0
49100,0.440918,-0.995117,0.448242,0
49120,0.368164,-0.919922,0.428711,0
49140,0.325195,-0.858398,0.442383,0
49160,0.274902,-0.858887,0.463867,0
49180,0.304688,-0.910645,0.434082,0
49200,0.359863,-0.94873,0.350586,0
49220,0.356445,-0.915039,0.342773,0
49240,0.28418,-0.772461,0.342285,0
49260,0.256836,-0.733887,0.416016,0
49280,0.294434,-0.869629,0.398926,0
49300,0.323242,-0.976074,0.340332,0
49320,0.271484,-0.902832,0.357422,0
49340,0.261719,-0.813477,0.354004,2000
49360,0.293945,-0.833496,0.368652,0
49380,0.288086,-0.933105,0.359863,0
49400,0.291992,-0.946777,0.344238,0
49420,0.30127,-0.884277,0.328613,0
49440,0.271484,-0.835938,0.357422,0
49460,0.246094,-0.839844,0.376953,0
49480,0.243164,-0.879395,0.35791,0
49500,0.218262,-0.868652,0.364746,0
49520,0.209473,-0.822754,0.354492,0
49540,0.20752,-0.791992,0.362305,0
49560,0.231445,-0.813477,0.364746,0
49580,0.255859,-0.889648,0.350586,0
49600,0.295898,-0.939941,0.331543,0
49620,0.312988,-0.919434,0.30957,0
49640,0.302246,-0.875,0.324219,0
49660,0.287109,-0.868652,0.337891,0
49680,0.371582,-0.869141,0.29541,0
49700,0.433105,-0.882812,0.322754,0
49720,0.481445,-0.873535,0.396484,0
49740,0.556152,-0.871582,0.329102,0
49760,0.639648,-0.894043,0.259766,0
49780,0.653809,-0.836914,0.281738,0
49820,0.472168,-0.762695,0.250488,0
49840,0.477539,-0.750488,0.259277,0
49860,0.510742,-0.865723,0.254883,0
49900,0.561523,-0.774902,0.347168,0
49940,0.631348,-0.725586,0.371094,0
49960,0.708496,-0.690918,0.430176,0
49980,0.77002,-0.717773,0.462402,0
50000,0.764648,-0.716797,0.497559,0
50020,0.854492,-0.72998,0.48291,0
50040,0.95459,-0.740234,0.494141,0
50060,1.04639,-0.674316,0.583496,0
50080,1.03613,-0.585449,0.583496,0
50100,0.973145,-0.543457,0.578125,0
50120,0.952637,-0.503418,0.625488,0
50140,0.907227,-0.466309,0.655762,0
50160,0.885254,-0.454102,0.714844,0
50180,0.876953,-0.419922,0.726562,0
50200,0.767578,-0.416504,0.724609,0
50220,0.612305,-0.428223,0.748047,0
50240,0.608887,-0.368164,0.779297,0
50260,0.622559,-0.413574,0.80957,0
50280,0.597656,-0.501953,0.804199,0
50300,0.527832,-0.47998,0.802246,0
50330,0.353516,-0.46582,0.76709,0
50350,0.378906,-0.528809,0.693848,0
50370,0.301758,-0.588379,0.72998,0
50390,0.26416,-0.594238,0.716797,0
50410,0.250488,-0.651367,0.634766,0
50430,0.206543,-0.661621,0.599121,0
50450,0.162109,-0.681641,0.584473,0
50470,0.145508,-0.727051,0.546875,0
50490,0.12207,-0.762207,0.487793,0
50510,0.109863,-0.773926,0.413574,0
50530,0.0874023,-0.78125,0.377441,0
50550,0.101074,-0.800293,0.333008,0
50570,0.0810547,-0.838379,0.29834,0
50590,0.0483398,-0.907227,0.237793,0
50610,0.0727539,-0.95752,0.19873,0
50630,0.11377,-0.987793,0.185547,0
50650,0.197266,-0.959473,0.179199,0
50670,0.250488,-0.89209,0.21582,0
50690,0.272949,-0.871094,0.236816,0
50700,0.288086,-0.905762,0.176758,0
50720,0.376953,-0.983887,0.129883,0
50740,0.524414,-0.936035,0.203125,0
50760,0.633301,-0.902832,0.234375,0
50780,0.617188,-0.822754,0.154297,0
50800,0.549316,-0.804688,0.078125,0
50820,0.645996,-0.76709,0.0239258,0
50840,0.82959,-0.807129,0.134766,0
50860,0.898926,-0.810059,0.146973,0
50880,0.812988,-0.683594,0.124023,0
50900,0.820312,-0.602051,0.0541992,0
50920,0.967773,-0.530762,0.0664062,0
50940,1.07129,-0.488281,0.0961914,0
50960,1.1333,-0.40625,0.0585938,0
50980,1.12988,-0.297363,0.0854492,0
51000,1.20801,-0.262695,0.101074,0
51020,1.25635,-0.275879,0.0830078,0
51040,1.18018,-0.211426,0.149414,0
51060,1.15381,-0.200684,0.247559,0
51080,1.13379,-0.212891,0.300293,0
51100,1.14111,-0.254883,0.32959,0
51120,1.12354,-0.277344,0.373047,0
51130,1.07568,-0.216309,0.442871,0
51150,1.08936,-0.181152,0.470703,0
51170,1.11621,-0.244629,0.493164,0
51190,1.01807,-0.315918,0.556152,0
51210,0.925293,-0.335938,0.604004,0
51230,0.910156,-0.381348,0.637695,0
51250,0.909668,-0.366211,0.655273,0
51270,0.936523,-0.331055,0.658203,0
51290,0.777344,-0.35498,0.69873,0
51310,0.520996,-0.445312,0.697754,0
51330,0.428223,-0.506836,0.692871,0
51350,0.503418,-0.534668,0.624512,0
51370,0.55127,-0.539062,0.574707,0
51390,0.401367,-0.551758,0.549805,0
51410,0.27002,-0.57373,0.521484,0
51420,0.351562,-0.652344,0.527344,0
51440,0.415527,-0.716797,0.485352,0
51460,0.330078,-0.737793,0.466309,0
51480,0.188477,-0.726562,0.384277,0
51500,0.13623,-0.719727,0.314453,0
51520,0.133789,-0.748047,0.262207,0
51540,0.158691,-0.833496,0.243164,0
51560,0.22998,-0.94043,0.197266,0
51570,0.308594,-0.980957,0.15332,0
51600,0.414551,-0.96875,0.0942383,0
51620,0.510742,-0.955566,0.130859,0
51640,0.697266,-0.944824,0.158691,0
51660,0.836426,-0.963379,0.119629,0
51690,0.754883,-0.777344,0.0175781,0
51710,0.800293,-0.736816,0.019043,0
51730,0.832031,-0.69043,0.0107422,0
51750,0.838867,-0.63916,-0.0302734,0
51770,0.841309,-0.60791,-0.0644531,0
51790,0.834473,-0.57373,-0.0942383,0
51810,0.821777,-0.484863,-0.106934,0
51830,0.918945,-0.305176,-0.214355,0
51850,0.822754,-0.36084,-0.142578,0
51870,0.88623,-0.317871,-0.0991211,0
51910,0.809082,-0.292969,-0.0820312,0
51930,0.85498,-0.154785,-0.0366211,0
51950,0.941895,-0.116211,-0.0439453,0
51970,0.952637,-0.111816,-0.0478516,0
51990,0.95752,-0.106445,0.00878906,0
52010,1.01367,-0.0742188,0.081543,0
52030,1.07373,-0.0507812,0.122559,0
52050,1.0957,-0.050293,0.144043,0
52070,1.13818,-0.0698242,0.155762,0
52090,1.1792,-0.0527344,0.219238,0
52110,1.229,-0.0571289,0.251953,0
52130,1.21924,-0.0913086,0.291504,0
52150,1.18262,-0.129395,0.308105,0
52170,1.17432,-0.17041,0.348145,0
52190,1.09082,-0.161621,0.39502,0
52210,1.06592,-0.135742,0.446289,0
52230,1.09424,-0.181641,0.473633,0
52250,1.08496,-0.244629,0.493652,0
52270,1.0415,-0.258789,0.543457,0
52290,0.952637,-0.266113,0.601074,0
52310,0.856445,-0.29541,0.600586,0
52330,0.838379,-0.334961,0.61377,0
52350,0.796875,-0.421875,0.564941,0
52370,0.73584,-0.400879,0.567383,0
52390,0.627441,-0.393066,0.57373,0
52410,0.637695,-0.388184,0.554199,0
52430,0.670898,-0.4375,0.528809,0
52450,0.62207,-0.584473,0.458984,0
52470,0.470703,-0.653809,0.426758,0
52490,0.425293,-0.539062,0.445312,0
52510,0.462402,-0.474609,0.474609,0
52530,0.558594,-0.561523,0.413086,0
52550,0.589355,-0.666016,0.403809,0
52570,0.541992,-0.744629,0.370605,0
52590,0.503418,-0.706055,0.341309,0
52610,0.479492,-0.696289,0.276855,0
52630,0.527832,-0.703613,0.260742,0
52650,0.514648,-0.774902,0.21875,0
52670,0.575195,-0.789062,0.208496,0
52690,0.60791,-0.810059,0.164551,0
52710,0.615234,-0.8125,0.118164,0
52730,0.631836,-0.814453,0.0869141,0
52750,0.647949,-0.831543,0.0732422,0
52770,0.726562,-0.852051,0.0673828,0
52790,0.761719,-0.8125,0.0273438,0
52810,0.704102,-0.751953,-0.00927734,0
52830,0.650879,-0.685059,0.000976562,0
52850,0.668945,-0.638672,-0.00976562,0
52870,0.711426,-0.649414,-0.0576172,0
52890,0.738281,-0.650391,-0.0859375,0
52910,0.70166,-0.626465,-0.090332,0
52930,0.72998,-0.594727,-0.0908203,0
52950,0.810059,-0.589355,-0.0854492,0
52970,0.875977,-0.574219,-0.130859,0
52990,0.875488,-0.566895,-0.150391,0
53010,0.899414,-0.514648,-0.113281,0
53030,0.911621,-0.499512,-0.136719,0
53050,0.928711,-0.519043,-0.148438,0
53070,0.923828,-0.51709,-0.157227,0
53090,0.931152,-0.494629,-0.13916,2001
53110,0.979004,-0.396973,-0.137207,0
53130,0.991211,-0.35791,-0.164551,0
53150,0.950684,-0.416504,-0.193848,0
53170,0.92334,-0.440918,-0.172363,0
53190,0.918945,-0.401855,-0.127441,0
53210,0.896484,-0.367188,-0.133789,0
53230,0.896484,-0.372559,-0.196289,0
53250,0.889648,-0.406738,-0.135254,0
53270,0.858398,-0.388672,-0.0859375,0
53290,0.878418,-0.412598,-0.119141,0
53310,0.914062,-0.40918,-0.13623,0
53330,0.855469,-0.453125,-0.0996094,0
53350,0.749023,-0.472168,-0.097168,0
53370,0.639648,-0.454102,-0.0478516,0
53390,0.498047,-0.462891,-0.012207,0
53410,0.400879,-0.463379,-0.109375,0
53430,0.5,-0.489746,-0.152832,0
53450,0.668945,-0.555176,-0.116699,0
53470,0.653809,-0.537598,-0.0664062,0
53490,0.522461,-0.518555,-0.0395508,0
53510,0.434082,-0.527832,-0.0551758,0
53530,0.527832,-0.534668,-0.090332,0
53540,0.86084,-0.602051,0.118652,0
53560,0.844727,-0.598145,0.210449,0
53580,0.928711,-0.594238,0.157227,0
53600,1.13867,-0.669922,0.122559,0
53620,1.19775,-0.726562,0.139648,0
53640,1.22461,-0.822754,0.166016,0
53660,1.13281,-0.841797,0.244141,0
53680,1.00635,-0.870605,0.290527,0
53700,0.90625,-0.98584,0.280762,0
53720,0.777832,-1.09912,0.334473,0
53740,0.72168,-1.12451,0.431152,0
53760,0.604492,-1.0791,0.414551,0
53770,0.488281,-1.03027,0.407227,0
53790,0.425781,-1.00928,0.391602,0
53810,0.385254,-1.01465,0.415527,0
53830,0.356445,-1.01953,0.416016,0
53850,0.311523,-0.977051,0.385254,0
53870,0.25293,-0.880859,0.391602,0
53890,0.192383,-0.871094,0.418945,0
53910,0.244629,-0.933594,0.38623,0
53930,0.265137,-0.942871,0.374512,2000
53950,0.24707,-0.911133,0.354492,0
53970,0.245605,-0.896973,0.310547,0
53990,0.227539,-0.895508,0.290527,0
54010,0.190918,-0.9375,0.280762,0
54030,0.195801,-0.969238,0.237793,0
54050,0.154785,-0.923828,0.232422,0
54070,0.128906,-0.9375,0.264648,0
54090,0.146484,-0.927246,0.312012,0
54110,0.216797,-0.937988,0.302246,0
54130,0.263184,-0.91748,0.268066,0
54150,0.267578,-0.933594,0.244141,0
54170,0.281738,-0.910156,0.264648,0
54190,0.27002,-0.910645,0.285156,0
54210,0.388184,-0.920898,0.27002,0
54230,0.495605,-0.925781,0.270508,0
54250,0.583496,-0.926758,0.241211,0
54270,0.601562,-0.881836,0.226074,0
54290,0.493652,-0.831055,0.224609,0
54310,0.509277,-0.799316,0.228516,0
54330,0.512207,-0.810547,0.213379,0
54370,0.569336,-0.797363,0.221191,0
54390,0.652832,-0.773438,0.237793,0
54410,0.69043,-0.71875,0.239746,0
54430,0.685547,-0.694336,0.225098,0
54450,0.712891,-0.673828,0.241211,0
54470,0.830566,-0.684082,0.327637,0
54490,0.952148,-0.661621,0.377441,0
54520,0.942871,-0.612305,0.361816,0
54540,0.996094,-0.604004,0.411133,0
54560,1.10059,-0.586914,0.450195,0
54580,1.11572,-0.608398,0.487305,0
54600,0.976074,-0.601074,0.556152,0
54620,0.949219,-0.57373,0.581543,0
54640,0.990723,-0.530762,0.620605,0
54660,0.875488,-0.550781,0.611328,0
54680,0.675781,-0.478027,0.641602,0
54700,0.634277,-0.430664,0.775879,0
54720,0.697754,-0.494141,0.768555,0
54740,0.73877,-0.595703,0.709473,0
54760,0.623047,-0.543945,0.731445,0
54780,0.397461,-0.42627,0.73291,0
54800,0.306152,-0.452637,0.794434,0
54820,0.349609,-0.548828,0.744629,0
54840,0.424805,-0.66748,0.716797,0
54860,0.396484,-0.631348,0.730469,0
54880,0.230469,-0.593262,0.69873,0
54900,0.133301,-0.586914,0.640625,0
54920,0.188477,-0.647949,0.616699,0
54940,0.222656,-0.709961,0.585938,0
54960,0.219238,-0.750488,0.590332,0
54980,0.216797,-0.757324,0.564941,0
55000,0.177734,-0.771973,0.501465,0
55020,0.0732422,-0.762207,0.475586,0
55040,0.0209961,-0.796875,0.413086,0
55060,0.0517578,-0.850586,0.350586,0
55080,0.0595703,-0.856445,0.312012,0
55100,0.0581055,-0.875,0.26709,0
55120,0.0952148,-0.908203,0.260254,0
55140,0.127441,-0.981934,0.224609,0
55160,0.174316,-1.02051,0.214355,0
55180,0.223145,-0.982422,0.255859,0
55220,0.438477,-0.912598,0.31543,0
55240,0.516113,-0.944824,0.259766,0
55260,0.469727,-0.96875,0.227051,0
55280,0.434082,-0.960449,0.166504,0
55300,0.492188,-0.918457,0.139648,0
55320,0.580078,-0.862793,0.171387,0
55340,0.669434,-0.771973,0.273438,0
55360,0.785645,-0.789062,0.211426,0
55380,0.775879,-0.714355,0.143555,0
55400,0.703125,-0.667969,0.106445,0
55420,0.70166,-0.621582,0.115234,0
55440,0.804199,-0.577148,0.126465,0
55460,0.919922,-0.557617,0.0820312,0
55480,0.897461,-0.467773,0.0859375,0
55500,0.914551,-0.38916,0.0751953,0
55530,1.10352,-0.338867,0.132812,0
55550,1.19727,-0.298828,0.145508,0
55570,1.23096,-0.251953,0.169922,0
55590,1.24854,-0.208496,0.234863,0
55610,1.2915,-0.179199,0.330078,0
55630,1.31055,-0.214355,0.386719,0
55650,1.25195,-0.214355,0.385254,0
55670,1.18799,-0.238281,0.467773,0
55690,1.11914,-0.174805,0.570801,0
55710,1.02197,-0.149902,0.599121,0
55730,0.966797,-0.167969,0.632324,0
55750,0.874512,-0.229004,0.626465,0
55770,0.804688,-0.220703,0.671387,0
55790,0.726562,-0.269531,0.695801,0
55810,0.760254,-0.282715,0.756836,0
55830,0.708008,-0.306152,0.72168,0
55850,0.567871,-0.267578,0.724121,0
55870,0.443848,-0.387207,0.741699,0
55890,0.427246,-0.461914,0.706055,0
55910,0.458496,-0.497559,0.710938,0
55930,0.433105,-0.476562,0.674316,0
55950,0.34082,-0.434082,0.561035,0
55970,0.191895,-0.467285,0.594238,0
55990,0.148438,-0.587891,0.618164,0
56010,0.249023,-0.667969,0.580078,0
56030,0.234863,-0.674805,0.483887,0
56050,0.191895,-0.687988,0.448242,0
56070,0.282715,-0.739258,0.472168,0
56090,0.374023,-0.890625,0.388184,0
56110,0.468262,-0.948242,0.349609,0
56130,0.45459,-0.921387,0.310059,0
56150,0.408203,-0.868164,0.290039,0
56170,0.441895,-0.91748,0.206543,0
56190,0.504883,-0.992676,0.130371,0
56210,0.522461,-1.03076,0.125,0
56230,0.516602,-0.976074,0.171875,0
56260,0.644531,-0.906738,0.120605,0
56280,0.674805,-0.896484,0.0419922,0
56300,0.680664,-0.830078,0.0273438,0
56320,0.65332,-0.806152,0.0146484,0
56330,0.648438,-0.747559,0.0219727,0
56350,0.724121,-0.697266,0.0117188,0
56370,0.827148,-0.674805,-0.0688477,0
56390,0.83252,-0.65918,-0.0961914,0
56410,0.714844,-0.561035,-0.117188,0
56430,0.663086,-0.466797,-0.104004,0
56450,0.731445,-0.379395,-0.11084,0
56470,0.891602,-0.353027,-0.12207,0
56490,0.925781,-0.35791,-0.166504,0
56510,0.870117,-0.276367,-0.106934,0
56530,0.97168,-0.165527,-0.0332031,0
56550,1.10303,-0.101562,-0.043457,0
56570,1.11328,-0.0351562,-0.0620117,0
56590,1.10742,-0.0175781,-0.0229492,0
56610,1.15039,0.0112305,0.0302734,0
56630,1.21436,0.0195312,0.144043,0
56650,1.25,0.00732422,0.192871,0
56670,1.25488,-0.0317383,0.281738,0
56690,1.28467,-0.0385742,0.320801,0
56710,1.3335,-0.000488281,0.341309,0
56730,1.30518,-0.00488281,0.363281,0
56740,1.10986,-0.0322266,0.447754,0
56760,1.01562,-0.0488281,0.48291,0
56780,1.05957,-0.14209,0.584961,0
56800,1.10107,-0.140137,0.554199,0
56820,0.933105,-0.123047,0.694824,0
56840,0.711914,-0.211426,0.65332,0
56860,0.717285,-0.361816,0.656738,0
56880,0.733887,-0.465332,0.689453,0
56900,0.554199,-0.479004,0.681641,0
56920,0.393555,-0.447266,0.618652,0
56940,0.395508,-0.419922,0.570801,0
56960,0.321777,-0.520996,0.523926,0
56980,0.294922,-0.65332,0.491699,0
57000,0.345215,-0.683594,0.411133,0
57020,0.353516,-0.685059,0.354492,0
57040,0.290527,-0.669922,0.300781,0
57060,0.290527,-0.783691,0.240723,0
57080,0.368164,-0.855469,0.153809,0
57100,0.446777,-0.889648,0.100586,0
57120,0.44873,-0.852539,0.0766602,0
57140,0.477051,-0.883301,0.0078125,0
57160,0.512695,-0.885742,-0.0161133,0
57180,0.54541,-0.900879,-0.0585938,0
57200,0.626465,-0.891113,-0.0981445,0
57220,0.639648,-0.861328,-0.0805664,0
57240,0.630371,-0.846191,-0.108887,0
57260,0.690918,-0.798828,-0.136719,0
57280,0.793457,-0.753418,-0.107422,0
57300,0.856934,-0.743164,-0.101562,0
57320,0.794922,-0.743164,-0.100098,0
57340,0.741699,-0.770508,-0.175781,0
57360,0.766113,-0.686523,-0.112305,0
57380,0.81543,-0.641113,-0.078125,0
57400,0.855469,-0.582031,-0.12207,0
57420,0.888184,-0.499023,-0.117676,0
57440,0.895996,-0.541016,-0.0981445,0
57460,0.905762,-0.586426,-0.0766602,0
57480,0.942383,-0.586914,-0.0668945,0
57500,0.950195,-0.516602,-0.0634766,0
57520,0.931641,-0.437012,-0.0976562,0
57540,0.916504,-0.38623,-0.074707,0
57560,0.858887,-0.347656,-0.118652,0
57580,0.821289,-0.463867,-0.0981445,0
57600,0.822754,-0.504395,-0.0498047,2001
57620,0.833496,-0.419922,-0.0893555,0
57640,0.820312,-0.382812,-0.0771484,0
57660,0.760742,-0.381348,-0.109863,0
57680,0.691895,-0.442871,-0.11084,0
57700,0.632324,-0.533691,-0.0732422,0
57720,0.713867,-0.50293,-0.0307617,0
57740,0.779297,-0.477539,-0.0390625,0
57760,0.658203,-0.519531,-0.0615234,0
57780,0.609863,-0.533203,-0.142578,0
57800,0.683105,-0.521484,-0.102051,0
57820,0.674805,-0.515137,-0.0170898,0
57840,0.555664,-0.508301,0,0
57860,0.501465,-0.526855,-0.0976562,0
57880,0.731445,-0.515625,-0.00390625,0
57900,0.940918,-0.526367,0.159668,0
57920,0.800781,-0.501953,0.195801,0
57940,0.55957,-0.499023,0.0981445,0
57960,0.570312,-0.595703,0.0131836,0
57980,0.848633,-0.710938,0.122559,0
58000,1.00537,-0.786621,0.26416,0
58020,0.965332,-0.803223,0.332031,0
58040,0.881836,-0.731934,0.242188,0
58060,0.993652,-0.804199,0.232422,0
58080,1.09473,-0.864746,0.336914,0
58100,0.958008,-0.928711,0.320312,0
58120,0.84375,-1.00879,0.328125,0
58140,0.810059,-1.02734,0.37793,0
58160,0.718262,-1.01709,0.397949,0
58180,0.659668,-1.00928,0.435059,0
58200,0.606934,-1.04004,0.436035,0
58210,0.539551,-1.03027,0.402344,0
58230,0.496582,-0.982422,0.388184,0
58250,0.47998,-0.959961,0.392578,0
58270,0.467773,-0.911133,0.375488,0
58290,0.439941,-0.920898,0.307129,0
58310,0.391602,-0.883301,0.227539,0
58330,0.3125,-0.854492,0.267578,0
58350,0.206055,-0.850586,0.308594,2000
58370,0.17334,-0.888184,0.320801,0
58390,0.126953,-0.884766,0.382324,0
58410,0.100586,-0.949219,0.369629,0
58430,0.123535,-1.00049,0.342285,0
58450,0.111328,-0.980469,0.351074,0
58470,0.134277,-0.934082,0.3125,0
58490,0.145996,-0.942383,0.313477,0
58510,0.109375,-0.97998,0.311035,0
58530,0.0654297,-0.978027,0.35498,0
58550,0.129395,-0.938477,0.395508,0
58570,0.241699,-0.954102,0.34668,0
58590,0.264648,-0.998535,0.282227,0
58610,0.17627,-0.945312,0.263184,0
58630,0.199219,-0.901367,0.263672,0
58650,0.287598,-0.864746,0.24707,0
58670,0.277344,-0.887207,0.273438,0
58690,0.328125,-0.880371,0.29541,0
58710,0.460938,-0.836914,0.344238,0
58730,0.54834,-0.823242,0.292969,0
58750,0.513184,-0.718262,0.233398,0
58770,0.564941,-0.657715,0.224121,0
58790,0.695801,-0.65332,0.327637,0
58810,0.817383,-0.721191,0.350098,0
58830,0.879395,-0.661133,0.321777,0
58850,0.851562,-0.602539,0.296387,0
58870,0.901855,-0.570312,0.316895,0
58890,1.01953,-0.591309,0.427734,0
58910,1.05225,-0.601562,0.47998,0
58930,1.05469,-0.56543,0.46582,0
58950,1.06055,-0.577637,0.423828,0
58970,1.06152,-0.555176,0.466797,0
58990,1.04395,-0.591309,0.516113,0
59010,1.04492,-0.633789,0.538086,0
59030,0.944824,-0.584473,0.619141,0
59050,0.83252,-0.416504,0.603027,0
59070,0.741699,-0.374023,0.69043,0
59090,0.746094,-0.431641,0.804199,0
59110,0.751953,-0.452637,0.806152,0
59130,0.677734,-0.551758,0.789062,0
59150,0.526367,-0.617676,0.836914,0
59170,0.505859,-0.603516,0.882812,0
59190,0.569336,-0.585938,0.870117,0
59210,0.521484,-0.570312,0.817383,0
59230,0.352051,-0.581055,0.806641,0
59250,0.250977,-0.646484,0.793945,0
59270,0.303711,-0.675293,0.754883,0
59290,0.34082,-0.695312,0.711914,0
59310,0.28418,-0.687012,0.617188,0
59330,0.173828,-0.709473,0.543945,0
59350,0.0400391,-0.675293,0.498047,0
59370,-0.0864258,-0.675781,0.447754,0
59390,-0.0810547,-0.755859,0.397949,0
59410,-0.0610352,-0.818359,0.313965,0
59430,-0.135742,-0.879395,0.255859,0
59450,-0.17041,-0.811035,0.200195,0
59470,-0.198242,-0.780273,0.204102,0
59490,-0.13623,-0.851562,0.155762,0
59530,0.0698242,-1.02393,0.157715,0
59550,0.103027,-0.960938,0.177246,0
59570,0.138672,-0.883301,0.165527,0
59590,0.205078,-0.907227,0.118652,0
59610,0.344727,-1.01318,0.144043,0
59630,0.469727,-0.979004,0.166504,0
59650,0.508789,-0.887695,0.193359,0
59670,0.510742,-0.850586,0.143066,0
59690,0.587891,-0.870605,0.0522461,0
59710,0.649414,-0.873047,0.102051,0
59730,0.696289,-0.823242,0.183594,0
59750,0.780762,-0.748535,0.151855,0
59770,0.910645,-0.578613,0.214355,0
59790,1.11963,-0.432617,0.188965,0
59810,1.19531,-0.389648,0.0922852,0
59830,1.11865,-0.32373,0.0610352,0
59850,1.15479,-0.30127,0.111816,0
59870,1.3833,-0.280762,0.183594,0
59890,1.32861,-0.245605,0.209473,0
59910,1.26123,-0.270996,0.260254,0
59920,1.15625,-0.270508,0.340332,0
59940,1.16357,-0.282227,0.425293,0
59960,1.18164,-0.296387,0.467773,0
59980,1.08008,-0.277344,0.482422,0
60000,0.949219,-0.246582,0.504395,0
60020,0.874023,-0.272461,0.61084,0
60040,0.754883,-0.283203,0.679199,0
60060,0.642578,-0.321777,0.67041,0
60080,0.729492,-0.389648,0.700684,0
60100,0.856445,-0.450195,0.702148,0
60120,0.892578,-0.484863,0.71875,0
60140,0.76709,-0.408691,0.731445,0
60160,0.708008,-0.373535,0.699707,0
60180,0.739258,-0.376953,0.688965,0
60200,0.644043,-0.464844,0.651367,0
60220,0.549316,-0.572754,0.645996,0
60240,0.505859,-0.59375,0.648438,0
60260,0.498535,-0.603027,0.592285,0
60280,0.477539,-0.586914,0.531738,0
60300,0.416504,-0.569824,0.498047,0
60320,0.375488,-0.617188,0.493164,0
60340,0.413574,-0.746094,0.461914,0
60360,0.428223,-0.847656,0.423828,0
60380,0.348633,-0.906738,0.370117,0
60400,0.221191,-0.891113,0.275879,0
60420,0.128906,-0.804688,0.228027,0
60440,0.0976562,-0.833008,0.193848,0
60460,0.131836,-0.857422,0.175293,0
60480,0.201172,-0.866699,0.203613,0
60500,0.586426,-0.787598,0.0585938,0
60520,0.63623,-0.818359,0.0366211,0
60540,0.682129,-0.807129,-0.0424805,0
60560,0.793457,-0.744141,-0.0639648,0
60580,0.869141,-0.682617,-0.0805664,0
60600,0.838867,-0.623047,-0.107422,0
60600,0.74707,-0.597168,-0.175781,0
60630,0.915527,-0.526367,-0.136719,0
60650,1.07373,-0.456543,-0.0688477,0
60670,1.00684,-0.327148,-0.0737305,0
60690,0.979004,-0.226074,-0.112793,0
60710,1.01465,-0.163086,-0.0664062,0
60730,1.08057,-0.160156,0.0117188,0
60750,1.16455,-0.0737305,-0.0375977,0
60770,1.21484,-0.0395508,-0.00634766,0
60790,1.25098,-0.0498047,0.043457,0
60810,1.28271,-0.0390625,0.0986328,0
60830,1.3335,-0.0268555,0.177246,0
60850,1.28076,-0.0512695,0.248535,0
60870,1.19092,-0.0825195,0.307617,0
60890,1.16602,-0.0991211,0.344727,0
60910,1.20264,-0.0625,0.359863,0
60930,1.15283,-0.0703125,0.422363,0
60950,0.945801,-0.138672,0.473145,0
60970,0.848633,-0.239746,0.558594,0
60990,0.885254,-0.334961,0.524414,0
61010,0.93457,-0.334473,0.549805,0
61030,0.848145,-0.239258,0.601562,0
61050,0.781738,-0.254883,0.541504,0
61070,0.78125,-0.407227,0.599609,0
61090,0.738281,-0.558105,0.592285,0
61110,0.71875,-0.541016,0.60791,0
61130,0.618164,-0.40918,0.56543,0
61170,0.511719,-0.509277,0.474121,0
61190,0.57959,-0.613281,0.510254,0
61210,0.549805,-0.666016,0.45459,0
61230,0.457031,-0.634766,0.388184,0
61250,0.42627,-0.571289,0.39502,0
61270,0.462891,-0.583008,0.36084,0
61290,0.474609,-0.66748,0.273438,0
61310,0.489258,-0.729004,0.315918,0
61330,0.460938,-0.731445,0.297852,0
61350,0.455566,-0.724121,0.237305,0
61370,0.504883,-0.736328,0.179199,0
61390,0.606934,-0.775879,0.175781,0
61410,0.654785,-0.804199,0.149902,0
61430,0.664551,-0.791016,0.139648,0
61450,0.625977,-0.71582,0.117676,0
61470,0.622559,-0.680664,0.103027,0
61490,0.675781,-0.698242,0.0751953,0
61510,0.77002,-0.693359,0.019043,0
61530,0.801758,-0.685059,-0.0258789,0
61550,0.766113,-0.665527,-0.0239258,0
61570,0.741699,-0.612793,-0.0605469,0
61590,0.79834,-0.600098,-0.110352,0
61610,0.867676,-0.597168,-0.126465,0
61630,0.888672,-0.573242,-0.119629,0
61650,0.891602,-0.590332,-0.128906,0
61670,0.861816,-0.526367,-0.167969,0
61690,0.889648,-0.459961,-0.203125,0
61710,0.954102,-0.452148,-0.230469,0
61730,0.997559,-0.492676,-0.224609,0
61750,1.05518,-0.496582,-0.207031,0
61770,1.03857,-0.515137,-0.18457,0
61790,1.00391,-0.456543,-0.135742,0
61810,1.04834,-0.432129,-0.205566,0
61830,1.05176,-0.511719,-0.105957,2001
61850,1.01367,-0.529297,-0.106934,0
61870,0.928711,-0.482422,-0.0791016,0
61890,0.894043,-0.432617,-0.0634766,0
61910,0.88623,-0.391602,-0.0390625,0
61930,0.875,-0.397461,-0.0678711,0
61950,0.821289,-0.380859,-0.0742188,0
61970,0.732422,-0.384277,-0.0732422,0
61990,0.714844,-0.405273,-0.0737305,0
62010,0.754395,-0.405762,-0.0375977,0
62030,0.784668,-0.408691,-0.0317383,0
62050,0.763184,-0.457031,-0.0649414,0
62070,0.702637,-0.455566,-0.0205078,0
62090,0.587402,-0.404297,-0.0263672,0
62110,0.490234,-0.435547,-0.0483398,0
62130,0.487793,-0.472168,-0.0625,0
62150,0.518555,-0.509766,-0.10498,0
62170,0.563965,-0.540527,-0.102051,0
62190,0.608887,-0.535156,-0.0449219,0
62210,0.712402,-0.48584,0.046875,0
62230,0.832031,-0.484375,0.074707,0
62250,0.857422,-0.476074,0.050293,0
62270,0.854492,-0.437988,0.159668,0
62290,0.848633,-0.487793,0.169922,0
62310,0.906738,-0.612305,0.107422,0
62330,0.966797,-0.697754,0.146973,0
62350,1.03174,-0.706543,0.287109,0
62370,1.02002,-0.755371,0.337891,0
62390,0.891113,-0.835449,0.33252,0
62410,0.805664,-0.824707,0.298828,0
62430,0.812988,-0.891602,0.360352,0
62450,0.831055,-0.97998,0.442383,0
62470,0.773438,-1.06299,0.494629,0
62490,0.668457,-1.0293,0.488281,0
62520,0.555664,-0.812988,0.526367,0
62530,0.45752,-0.870605,0.522461,0
62550,0.384277,-0.93457,0.521973,0
62590,0.348633,-0.928223,0.485352,0
62630,0.24707,-0.803711,0.438965,0
62650,0.244141,-0.802734,0.433105,0
62670,0.246582,-0.794434,0.434082,0
62690,0.244141,-0.800781,0.446289,0
62710,0.271973,-0.821289,0.427734,0
62730,0.32373,-0.837891,0.446777,0
62760,0.315918,-0.872559,0.459473,0
62770,0.358398,-0.806641,0.490723,0
62790,0.353516,-0.788086,0.530273,0
62810,0.345215,-0.79248,0.553223,0
62830,0.314453,-0.817383,0.546387,0
62850,0.287598,-0.833984,0.550293,0
62870,0.285645,-0.810059,0.557129,0
62890,0.271484,-0.757324,0.583984,0
62910,0.241211,-0.724121,0.598633,0
62930,0.20459,-0.712891,0.618164,0
62950,0.239258,-0.726074,0.67627,0
62970,0.328613,-0.642578,0.745605,0
62990,0.303711,-0.662109,0.731934,0
63010,0.277344,-0.681152,0.716797,0
63030,0.322266,-0.637695,0.77002,0
63050,0.375488,-0.605957,0.786621,0
63070,0.356445,-0.638672,0.761719,0
63090,0.32373,-0.681152,0.765137,0
63110,0.358398,-0.686523,0.77832,0
63130,0.354004,-0.675781,0.789551,0
63150,0.333008,-0.666504,0.776855,0
63170,0.310547,-0.668457,0.779297,0
63190,0.294922,-0.665039,0.772949,0
63210,0.272949,-0.655762,0.759277,0
63230,0.270996,-0.642578,0.755859,0
63250,0.259766,-0.635742,0.742676,0
63270,0.248535,-0.629395,0.738281,0
63290,0.237793,-0.617676,0.730469,0
63310,0.220703,-0.612305,0.736816,0
63330,0.222168,-0.604004,0.75293,0
63350,0.20459,-0.589355,0.780762,0
63370,0.19873,-0.577637,0.784668,0
63390,0.208496,-0.594727,0.763672,0
63410,0.225586,-0.594238,0.773926,0
63430,0.229492,-0.584473,0.774414,0
63450,0.235352,-0.579102,0.786133,0
63470,0.250488,-0.587891,0.782715,0
63490,0.246094,-0.599121,0.781738,0
63510,0.247559,-0.604492,0.77832,0
63530,0.241699,-0.612305,0.782715,0
63550,0.237305,-0.604492,0.800293,0
63570,0.223633,-0.593262,0.789062,0
63590,0.23291,-0.575684,0.794922,0
63610,0.214355,-0.570312,0.813965,0
63630,0.20166,-0.57373,0.79834,0
63650,0.176758,-0.54248,0.783203,0
63670,0.178223,-0.541016,0.791992,0
63690,0.179688,-0.555176,0.786133,0
63710,0.182617,-0.572266,0.80127,0
63730,0.194336,-0.583984,0.812988,0
63750,0.191895,-0.579102,0.818359,0
63770,0.205566,-0.574219,0.815918,0
63790,0.205078,-0.567871,0.824707,0
63810,0.212402,-0.565918,0.817871,0
63830,0.219727,-0.5625,0.817871,0
63850,0.219727,-0.554688,0.824707,0
63870,0.21875,-0.556152,0.814453,0
63890,0.21875,-0.54834,0.812012,0
63910,0.214844,-0.543945,0.803223,0
63930,0.198242,-0.522949,0.803711,0
63950,0.185059,-0.523926,0.806152,0
63970,0.186035,-0.547852,0.80127,0
63990,0.166016,-0.563477,0.802734,0
64010,0.17334,-0.577148,0.817383,0
64030,0.163574,-0.587402,0.82373,0
64050,0.17334,-0.585449,0.831543,0
64070,0.175293,-0.583984,0.814453,0
64090,0.174316,-0.583984,0.802246,0
64110,0.179199,-0.569824,0.805664,0
64130,0.193359,-0.565918,0.801758,0
64150,0.197266,-0.56543,0.791016,0
64170,0.206055,-0.552734,0.793457,0
64190,0.203613,-0.553223,0.791504,0
64210,0.217285,-0.558594,0.79248,0
64230,0.225098,-0.547852,0.776367,0
64250,0.207031,-0.521973,0.792969,0
64270,0.193359,-0.527832,0.81543,0
64290,0.17041,-0.541504,0.818848,0
64310,0.153809,-0.562988,0.814453,0
64330,0.141113,-0.56543,0.796387,0
64350,0.147949,-0.55127,0.782715,0
64370,0.16748,-0.559082,0.771484,0
64390,0.187012,-0.567871,0.782715,0
64410,0.19873,-0.569824,0.809082,0
64430,0.186523,-0.564941,0.839844,0
64450,0.174805,-0.569336,0.853027,0
64470,0.179688,-0.589844,0.839355,0
64490,0.177246,-0.581543,0.805664,0
64510,0.189941,-0.556641,0.787598,0
64530,0.208008,-0.536133,0.785645,0
64550,0.202637,-0.53125,0.806641,0
64570,0.186035,-0.539062,0.827637,0
64590,0.177734,-0.549805,0.831055,0
64610,0.185059,-0.548828,0.849609,0
64630,0.195312,-0.521973,0.82666,0
64650,0.173828,-0.504883,0.815918,0
64670,0.179199,-0.529785,0.811035,0
64690,0.163574,-0.510742,0.832031,0
64710,0.159668,-0.556641,0.803223,0
64730,0.155762,-0.594238,0.807617,0
64750,0.168945,-0.564941,0.830078,0
64770,0.144531,-0.569824,0.836914,0
64790,0.147461,-0.595703,0.811523,0
64810,0.173828,-0.598633,0.793945,0
64830,0.17627,-0.57373,0.800781,0
64850,0.179688,-0.55957,0.799805,0
64870,0.178223,-0.566895,0.815918,0
64890,0.188477,-0.588379,0.820312,0
64910,0.186035,-0.572754,0.802246,0
64930,0.178711,-0.55127,0.795898,0
64950,0.179199,-0.551758,0.803223,0
64970,0.193848,-0.555664,0.783203,0
64990,0.179199,-0.53125,0.791992,0
65010,0.205078,-0.541992,0.812988,0
65030,0.193359,-0.541992,0.786621,0
65050,0.179688,-0.583496,0.797852,0
65070,0.189941,-0.558594,0.828125,0
65090,0.178223,-0.551758,0.82959,0
65110,0.184082,-0.553223,0.810547,0
65130,0.198242,-0.542969,0.808105,0
65150,0.197266,-0.546875,0.810059,0
65170,0.205078,-0.567383,0.804688,0
65190,0.187988,-0.576172,0.808594,0
65210,0.174316,-0.562988,0.803223,0
65230,0.178223,-0.556152,0.816895,0
65250,0.184082,-0.544922,0.825195,0
65270,0.183105,-0.548828,0.819824,0
65290,0.195312,-0.553711,0.814941,0
65310,0.20752,-0.540039,0.803711,0
65330,0.207031,-0.531738,0.793457,0
65350,0.212891,-0.529297,0.817383,0
65370,0.216309,-0.539062,0.819336,0
65390,0.205078,-0.542969,0.820801,0
65410,0.206055,-0.541992,0.802246,0
65430,0.19873,-0.543945,0.805176,0
65450,0.201172,-0.545898,0.80957,0
65470,0.198242,-0.538574,0.810059,0
65490,0.198242,-0.541504,0.812988,0
65510,0.20459,-0.541504,0.814453,0
65530,0.203125,-0.54248,0.815918,0
65550,0.202637,-0.541992,0.807617,0
65570,0.200195,-0.544434,0.807129,0
65590,0.199219,-0.546875,0.810547,0
65610,0.20459,-0.546387,0.812012,0
65630,0.208984,-0.54248,0.813965,0
65650,0.20166,-0.54248,0.811035,0
65670,0.20459,-0.542969,0.816406,0
65690,0.200684,-0.543457,0.812988,0
65710,0.192383,-0.553223,0.810059,0
65730,0.19873,-0.553711,0.812012,0
65750,0.194336,-0.541992,0.810059,0
65770,0.192871,-0.537598,0.812988,0
65790,0.199707,-0.547852,0.812012,0
65810,0.205078,-0.544434,0.803711,0
65830,0.19873,-0.543945,0.811523,0
65850,0.205566,-0.537109,0.822266,0
65870,0.19873,-0.53125,0.822754,0
65890,0.19873,-0.541504,0.817871,0
65910,0.199219,-0.543457,0.808105,0
65930,0.200684,-0.541016,0.80957,0
65940,0.200684,-0.540039,0.8125,0
65960,0.204102,-0.546875,0.823242,0
65980,0.196777,-0.54541,0.820312,0
66000,0.200195,-0.541016,0.812012,0
66020,0.199707,-0.540527,0.812012,0
66040,0.202637,-0.540039,0.8125,0
66060,0.203125,-0.53418,0.813965,0
66080,0.205566,-0.536621,0.812988,0
66100,0.199707,-0.532227,0.814453,0
66120,0.197754,-0.543457,0.820801,0
66140,0.204102,-0.541016,0.81543,0
66160,0.204102,-0.532227,0.820312,0
66180,0.206055,-0.532227,0.815918,0
66200,0.206543,-0.526367,0.825684,0
66220,0.202637,-0.541016,0.818848,0
66240,0.206055,-0.541504,0.814453,0
66260,0.208496,-0.542969,0.820312,0
66280,0.208984,-0.541992,0.808105,0
66300,0.20752,-0.53125,0.812012,0
66320,0.205078,-0.527832,0.811523,0
66340,0.205078,-0.532227,0.813477,0
66360,0.208984,-0.534668,0.812988,0
66380,0.20752,-0.53418,0.813965,0
66400,0.211426,-0.53125,0.811523,0
66420,0.217773,-0.529297,0.810059,0
66440,0.211426,-0.529297,0.822754,0
66460,0.20752,-0.533691,0.818359,0
66480,0.208496,-0.539551,0.8125,0
66500,0.206543,-0.540527,0.811035,0
66520,0.209473,-0.530273,0.810547,0
66540,0.216797,-0.536621,0.814453,0
66560,0.211914,-0.541992,0.812988,0
66580,0.213379,-0.54248,0.811035,0
66600,0.206543,-0.538574,0.813965,0
66620,0.208496,-0.543457,0.808105,0
66640,0.210938,-0.541016,0.812012,0
66660,0.208984,-0.536133,0.810059,0
66680,0.210449,-0.54248,0.817383,0
66700,0.20752,-0.544434,0.810547,0
66720,0.208496,-0.54541,0.818848,0
66740,0.205566,-0.544434,0.807129,0
66760,0.202148,-0.537109,0.812988,0
66780,0.211426,-0.541504,0.811035,0
66800,0.214844,-0.542969,0.814941,0
66820,0.210449,-0.536133,0.812988,0
66840,0.217285,-0.536621,0.820801,0
66860,0.212891,-0.538086,0.810059,0
66880,0.212891,-0.541504,0.813477,0
66900,0.211914,-0.540527,0.81543,0
66920,0.208008,-0.541992,0.811523,0
66940,0.206543,-0.54248,0.80957,0
