Timestamp, Acceleration x, Acceleration y, Acceleration z, Marker
10,0.297363,-0.880371,0.133301,0
50,0.32959,-0.867676,0.151367,0
70,0.343262,-0.896484,0.163574,0
90,0.365234,-0.915039,0.182129,0
110,0.411621,-0.915039,0.219238,0
130,0.444336,-0.902344,0.273438,0
140,0.476074,-0.897949,0.297852,0
140,0.46875,-0.866699,0.252441,0
180,0.432129,-0.853027,0.23877,0
200,0.414551,-0.83252,0.288574,0
220,0.439453,-0.910645,0.322754,0
240,0.419922,-0.942871,0.333496,0
260,0.348633,-0.899414,0.294922,0
280,0.321289,-0.688477,0.27002,0
300,0.240234,-0.809082,0.356445,0
320,0.203125,-1.00781,0.442871,0
340,0.160645,-0.815918,0.241211,0
360,-0.0556641,-0.791992,0.370605,0
380,0.0703125,-0.732422,0.549316,0
400,-0.232422,-0.694824,0.563965,0
420,0.148438,-0.668457,0.591797,0
440,0.191895,-0.754395,0.520508,0
460,0.162598,-0.771484,0.547363,0
480,0.100586,-0.725586,0.640137,0
500,0.0810547,-0.729492,0.669434,0
520,0.0307617,-0.736816,0.641602,0
540,-0.0429688,-0.719238,0.641602,0
560,0.0571289,-0.737305,0.639648,0
580,0.14209,-0.753418,0.65625,0
600,0.110352,-0.746094,0.646973,0
620,0.131836,-0.751953,0.626953,0
640,0.0727539,-0.76123,0.611816,0
660,0.193359,-0.759766,0.594238,0
680,0.132812,-0.779297,0.569336,0
700,0.173828,-0.767578,0.536133,0
720,0.236328,-0.722168,0.514648,0
740,0.227539,-0.757812,0.535156,0
760,0.139648,-0.745117,0.486816,0
780,0.166016,-0.727539,0.462402,0
800,0.285645,-0.725586,0.42334,0
820,0.359863,-0.625977,0.540039,0
840,0.185059,-0.640137,0.439453,0
860,0.237305,-0.583496,0.436523,0
880,0.223145,-0.614746,0.437012,0
900,0.249023,-0.676758,0.512207,0
920,0.302734,-0.724121,0.531738,0
940,0.350098,-0.681641,0.547363,0
960,0.244629,-0.619141,0.53125,0
980,0.169922,-0.623047,0.523926,0
1000,-0.0810547,-0.492188,0.512207,0
1020,0.000976562,-0.572266,0.519531,0
1040,0.108398,-0.65332,0.553711,0
1060,0.160645,-0.654785,0.573242,0
1080,0.106445,-0.734863,0.59668,0
1100,0.00732422,-0.836914,0.606445,0
1120,-0.144043,-0.912598,0.722656,0
1140,0.178223,-0.804688,0.70459,0
1160,0.213867,-0.853027,0.659668,0
1180,0.112305,-0.837402,0.604492,0
1200,0.0175781,-0.793457,0.658691,0
1220,0.189453,-0.731445,0.745117,0
1240,0.237305,-0.63916,0.705566,0
1260,0.189453,-0.601562,0.709473,0
1280,0.159668,-0.615723,0.699219,0
1300,0.194336,-0.635742,0.694824,0
1320,0.168457,-0.604492,0.698242,0
1340,0.145996,-0.567871,0.674316,0
1360,0.0737305,-0.575684,0.669434,0
1380,0.0292969,-0.564453,0.694336,0
1400,0.0341797,-0.550781,0.715332,0
1420,0.0166016,-0.51416,0.706543,0
1440,-0.00341797,-0.467285,0.721191,0
1460,0.0078125,-0.446289,0.700195,0
1480,0.0327148,-0.46582,0.704102,0
1500,0.0249023,-0.45459,0.691406,0
1520,-0.0239258,-0.439453,0.646973,0
1540,-0.0556641,-0.427246,0.63623,0
1560,-0.0224609,-0.415527,0.682129,0
1580,-0.00537109,-0.40625,0.766113,0
1600,-0.0922852,-0.408203,0.787109,0
1620,-0.163574,-0.390625,0.794922,0
1640,-0.213867,-0.399414,0.806152,0
1650,-0.243164,-0.39502,0.845215,0
1670,-0.237793,-0.412109,0.864746,0
1690,-0.237793,-0.423828,0.895508,0
1710,-0.244141,-0.431641,0.925781,0
1730,-0.252441,-0.360352,0.972168,0
1750,-0.22998,-0.297852,0.993164,0
1770,-0.255371,-0.251465,0.972656,0
1790,-0.323242,-0.232422,0.947754,0
1810,-0.274414,-0.149902,0.949219,0
1830,-0.352539,-0.195801,0.942871,0
1850,-0.398926,-0.241699,0.88623,0
1870,-0.428711,-0.216797,0.861816,0
1890,-0.364258,-0.254883,0.891602,0
1910,-0.413574,-0.182617,0.868164,0
1930,-0.428711,-0.155273,0.822266,0
1950,-0.447754,-0.081543,0.815918,0
1970,-0.400879,-0.081543,0.804199,0
1990,-0.410645,-0.100098,0.794434,0
2010,-0.419434,-0.115723,0.772461,0
2030,-0.440918,-0.102539,0.766602,0
2050,-0.443359,-0.043457,0.768066,0
2070,-0.486816,-0.0742188,0.72998,0
2090,-0.509766,-0.019043,0.714844,0
2110,-0.544434,0.0107422,0.697266,0
2130,-0.542969,0.0356445,0.694824,0
2150,-0.557617,-0.0317383,0.709961,0
2170,-0.633789,0.00537109,0.73584,0
2190,-0.661621,0.00585938,0.743652,0
2210,-0.663574,-0.012207,0.763184,0
2230,-0.695801,-0.0512695,0.772949,0
2250,-0.664551,-0.0458984,0.754395,0
2270,-0.663086,-0.0649414,0.833496,0
2290,-0.691406,-0.0561523,0.900391,0
2310,-0.695801,-0.0566406,0.921387,0
2330,-0.574707,-0.00732422,0.81543,0
2350,-0.563965,-0.0332031,0.736816,0
2370,-0.615723,-0.046875,0.695801,0
2390,-0.560547,-0.0444336,0.657715,0
2410,-0.650391,-0.081543,0.622559,0
2430,-0.668945,-0.164062,0.617188,0
2450,-0.666504,-0.215332,0.626465,0
2470,-0.723145,-0.182129,0.672852,0
2490,-0.671875,-0.17627,0.768555,0
2510,-0.671387,-0.144531,0.818359,0
2530,-0.588379,-0.123047,0.791992,0
2550,-0.596191,-0.10791,0.726562,0
2570,-0.65332,-0.103027,0.654297,0
2590,-0.631836,-0.0947266,0.611328,0
2610,-0.682617,-0.0917969,0.584961,0
2630,-0.687012,-0.109863,0.665039,0
2650,-0.698242,-0.0883789,0.759277,0
2670,-0.6875,-0.0683594,0.783203,0
2690,-0.625,-0.0478516,0.822754,0
2710,-0.570312,-0.0654297,0.868652,0
2730,-0.542969,-0.0419922,0.899902,0
2750,-0.51123,-0.0136719,0.882812,0
2770,-0.541016,0.00195312,0.803711,0
2790,-0.58252,0,0.73877,0
2810,-0.633789,-0.027832,0.687012,0
2830,-0.642578,-0.046875,0.644043,0
2850,-0.680176,-0.0834961,0.625488,0
2870,-0.69043,-0.135742,0.625488,0
2890,-0.703613,-0.182129,0.645996,0
2910,-0.713867,-0.240234,0.664551,0
2930,-0.659668,-0.241211,0.686035,0
2950,-0.669922,-0.175781,0.705078,0
2970,-0.561035,-0.186523,0.729492,0
2990,-0.61084,-0.220703,0.751953,0
3010,-0.589844,-0.165039,0.772461,0
3030,-0.605957,-0.106445,0.746582,0
3050,-0.687012,-0.0761719,0.738281,0
3070,-0.734863,-0.105469,0.673828,0
3090,-0.669434,-0.130371,0.612793,0
3110,-0.790527,-0.201172,0.591797,0
3130,-0.719727,-0.207031,0.64502,0
3150,-0.639648,-0.190918,0.685547,0
3170,-0.618164,-0.140137,0.6875,0
3190,-0.557129,-0.155273,0.777344,0
3210,-0.530273,-0.165039,0.777344,0
3230,-0.606445,-0.101562,0.673828,0
3250,-0.648926,-0.159668,0.676758,0
3270,-0.765625,-0.132324,0.627441,0
3290,-0.736328,-0.489746,0.665039,0
3310,-0.758301,-0.287109,0.734375,0
3330,-0.675293,-0.172852,0.597168,0
3350,-0.645508,-0.184082,0.613281,0
3370,-0.703125,-0.254883,0.642578,0
3390,-0.643066,-0.234863,0.641113,0
3410,-0.456055,-0.443359,0.81543,0
3430,-0.697754,-0.214844,0.590332,0
3450,-0.575195,-0.327637,0.730957,0
3470,-0.650391,-0.328613,0.691406,0
3490,-0.596191,-0.178223,0.688477,0
3510,-0.672852,-0.303223,0.695801,0
3530,-0.660645,-0.316406,0.666504,0
3550,-0.659668,-0.32373,0.649414,0
3570,-0.717773,-0.447754,0.660156,0
3590,-0.757812,-0.319336,0.639648,0
3610,-0.726074,-0.356445,0.617676,0
3630,-0.75,-0.302246,0.626953,0
3650,-0.819824,-0.324219,0.645996,0
3670,-0.685059,-0.245117,0.65332,0
3690,-0.654785,-0.327148,0.685059,0
3710,-0.662598,-0.479492,0.746582,0
3730,-0.65918,-0.703613,0.805176,0
3750,-0.649902,-0.895508,0.947754,0
3770,-0.632324,-0.678223,0.966797,0
3790,-0.525391,-0.451172,1.04395,0
3810,-0.520996,-0.769043,1.13672,0
3830,-0.570312,-0.725586,1.38281,0
3850,-0.519043,-0.657227,1.27246,0
3870,-0.349121,-0.55127,1.35938,0
3890,-0.194824,-0.377441,1.25146,0
3910,-0.180664,-0.250977,1.12793,0
3930,-0.155273,-0.114746,1.07764,0
3950,-0.136719,0.0239258,1.00635,0
3970,-0.138184,0.162598,0.867676,0
3990,-0.189941,0.199219,0.696289,0
4010,-0.402344,0.123535,0.610352,0
4030,-0.543457,-0.0527344,0.507812,0
4050,-0.433594,-0.400879,0.434082,0
4070,-0.289062,-0.649902,0.379395,0
4090,-0.276855,-0.677734,0.322754,0
4110,-0.24707,-0.681641,0.253906,0
4130,-0.0961914,-0.680176,0.118652,0
4150,-0.0195312,-0.730957,-0.0693359,0
4170,-0.0356445,-0.804688,-0.222656,0
4190,-0.0786133,-0.887207,-0.293945,0
4210,-0.0947266,-0.974121,-0.390137,0
4230,-0.0996094,-0.942383,-0.458008,0
4250,-0.0654297,-0.80957,-0.534668,0
4270,-0.0351562,-0.78125,-0.638184,0
4280,-0.09375,-0.764648,-0.733887,0
4300,-0.0893555,-0.817871,-0.85791,0
4320,-0.0634766,-1.08643,-1.10938,0
4340,-0.00732422,-1.22754,-1.21191,0
4360,0.00390625,-1.21777,-1.12549,0
4380,0.0112305,-1.18164,-1.14795,0
4400,0.00488281,-1.23389,-1.22168,0
4420,-0.104004,-1.13965,-1.15039,0
4440,-0.120605,-1.0542,-0.983398,0
4460,0.0419922,-1.10596,-0.823242,0
4480,-0.0244141,-1.14893,-0.687012,0
4500,-0.26416,-1.2915,-0.419922,0
4520,-0.421875,-0.62207,-0.0297852,0
4540,-0.295898,-0.290527,-0.0419922,0
4560,0.0161133,-0.510254,-0.132324,0
4580,0.28418,-0.428223,-0.227051,0
4600,0.369629,-0.231445,-0.214844,0
4620,0.280762,-0.0693359,-0.195312,0
4640,0.259277,0.0751953,-0.268066,0
4660,0.380371,0.197266,-0.258301,0
4680,0.474609,0.235352,-0.223145,0
4700,0.499023,0.347656,-0.216309,0
4720,0.675293,0.503906,-0.395996,0
4740,0.932129,0.549316,-0.577637,0
4760,1.00928,0.476074,-0.689453,0
4780,0.910645,0.479492,-0.668945,0
4800,0.916992,0.426758,-0.520996,0
4820,0.876953,0.199219,-0.425781,0
4840,0.791504,0.046875,-0.461426,0
4860,0.755371,-0.0795898,-0.493164,0
4880,0.744629,-0.233887,-0.39502,0
4900,0.643066,-0.283203,-0.310547,0
4920,0.504395,-0.359863,-0.316406,0
4940,0.387695,-0.444824,-0.400879,0
4960,0.231934,-0.558105,-0.303223,0
4980,0.03125,-0.649414,-0.159668,0
5000,-0.0507812,-0.402832,0.111816,0
5020,-0.387695,0.0957031,-0.0576172,0
5040,-1.04102,-0.337891,-0.156738,0
5060,-1.23145,-1.11377,0.0585938,0
5080,-0.704102,-1.39648,0.159668,0
5100,-0.856445,-1.52197,0.131348,0
5120,-1.26709,-1.72119,0.0268555,0
5140,-0.870117,-1.56641,-0.0507812,0
5160,-0.73584,-1.32959,-0.101562,0
5180,-0.876953,-1.30225,-0.200195,0
5200,-0.878418,-1.44141,-0.179688,0
5220,-0.764648,-1.62402,-0.20752,0
5240,-0.722168,-1.75586,-0.348633,0
5260,-0.726074,-1.79541,-0.485352,0
5280,-0.712891,-1.86719,-0.586426,0
5300,-0.71875,-1.87939,-0.587891,0
5320,-0.723145,-1.77637,-0.537109,0
5340,-0.740723,-1.67627,-0.466797,0
5360,-0.742676,-1.56982,-0.402832,0
5380,-0.741211,-1.48584,-0.387695,0
5400,-0.731445,-1.42676,-0.327148,0
5420,-0.743652,-1.19189,-0.23584,0
5440,-0.761719,-1.07812,-0.205566,0
5460,-0.78418,-1.04004,-0.0805664,0
5480,-0.703613,-0.800293,-0.0131836,0
5500,-0.589844,-0.656738,0.0214844,0
5520,-0.466309,-0.527832,0.0771484,0
5540,-0.324707,-0.445801,0.0830078,0
5560,-0.237305,-0.42627,0.0986328,0
5580,-0.185059,-0.414062,0.124512,0
5600,-0.0849609,-0.368652,0.115723,0
5620,0.0810547,-0.311523,0.0922852,0
5640,0.254395,-0.245605,0.0507812,0
5660,0.345703,-0.177246,0.0175781,0
5680,0.325684,-0.202148,0.0537109,0
5700,0.423828,-0.20166,0.0727539,0
5720,0.56543,-0.129395,-0.0517578,0
5740,0.577148,-0.0522461,-0.134766,0
5760,0.566406,0.0498047,-0.120605,0
5780,0.609863,0.081543,-0.165527,0
5800,0.712891,0.059082,-0.240234,0
5820,0.806152,0.0649414,-0.312988,0
5840,0.874023,0.107422,-0.437988,0
5860,0.944336,0.0537109,-0.545898,0
5880,0.94873,-0.0878906,-0.576172,0
5900,0.96582,-0.117676,-0.68457,0
5920,0.977051,-0.142578,-0.921387,0
5940,0.937988,-0.0341797,-0.906738,0
5960,0.959473,0.0825195,-1.01709,0
5980,0.983398,0.012207,-1.01221,0
6000,1.06738,-0.078125,-0.970703,0
6020,1.05273,-0.110352,-0.918945,0
6040,1.07275,-0.156738,-0.776367,0
6060,1.14404,-0.176758,-0.749023,0
6080,1.21289,-0.137695,-0.723633,0
6100,1.19141,-0.0737305,-0.663574,0
6120,1.08252,-0.0888672,-0.539551,0
6140,0.984863,-0.106445,-0.460449,0
6160,0.907227,-0.16748,-0.343262,0
6180,0.819336,-0.233398,-0.280762,0
6200,0.71582,-0.291504,-0.158691,0
6220,0.600098,-0.182617,0.015625,0
6240,0.547852,-0.152344,0.0991211,0
6260,0.454102,-0.223145,0.120117,0
6280,0.333008,-0.220703,0.126465,0
6300,0.215332,-0.184082,0.158203,0
6320,0.0976562,-0.263184,0.222656,0
6340,-0.00732422,-0.276367,0.285645,0
6360,-0.0874023,-0.163086,0.378906,0
6380,-0.216309,-0.0361328,0.429199,0
6400,-0.331055,-0.408691,0.188477,0
6420,-0.53418,-0.760254,0.342773,0
6440,-0.431152,-1.04541,0.526367,0
6460,-0.180176,-0.689453,0.733887,0
6480,-0.38916,0.0107422,0.487793,0
6500,-0.740723,0.127441,0.321777,0
6520,-0.806152,-0.127441,0.643066,0
6540,-0.644531,-0.744629,1.02393,0
6560,-0.609863,-0.948242,0.962402,0
6580,-0.54834,-0.995117,1.10254,0
6600,-0.511719,-0.94043,1.05566,0
6620,-0.634277,-0.99707,0.993164,0
6640,-0.627441,-0.999512,1.02393,0
6660,-0.63623,-0.986328,1.03809,0
6680,-0.628418,-0.939453,0.973633,0
6700,-0.613281,-0.92041,0.976562,0
6720,-0.583496,-0.936523,0.900879,0
6740,-0.561035,-0.916016,0.895996,0
6760,-0.553711,-0.831055,0.817871,0
6780,-0.607422,-0.711914,0.626465,0
6800,-0.640625,-0.667969,0.624512,0
6820,-0.711914,-0.600098,0.550293,0
6840,-0.762695,-0.396484,0.432129,0
6860,-0.711914,-0.431152,0.433594,0
6880,-0.71582,-0.504883,0.51416,0
6900,-0.70166,-0.633789,0.556641,0
6910,-0.677246,-0.651855,0.6875,0
6930,-0.607422,-0.505859,0.755859,0
6950,-0.411133,-0.414062,0.796875,0
6970,-0.154785,-0.476074,0.84375,0
6990,0.0678711,-0.672363,0.86377,0
7010,0.238281,-0.695312,0.844238,0
7030,0.45752,-0.743652,0.739746,0
7050,0.711914,-0.699707,0.616699,0
7070,0.78125,-0.55957,0.547363,0
7090,0.702148,-0.543945,0.495117,0
7110,0.692871,-0.579102,0.377441,0
7130,0.737305,-0.59082,0.318359,0
7150,0.762695,-0.532227,0.288574,0
7170,0.76123,-0.463379,0.18457,0
7190,0.825195,-0.394531,0.131836,0
7210,0.832031,-0.313965,0.0634766,0
7230,0.823242,-0.330566,0.0454102,0
7250,0.810059,-0.352051,0.00341797,0
7270,0.843262,-0.35498,-0.0371094,0
7290,0.85498,-0.348633,-0.0708008,0
7310,0.809082,-0.316895,-0.0581055,0
7330,0.794922,-0.352539,-0.0874023,0
7350,0.720703,-0.346191,-0.0966797,0
7370,0.72998,-0.333984,-0.112305,0
7390,0.745117,-0.318359,-0.103516,0
7410,0.713867,-0.310547,-0.0854492,0
7430,0.682617,-0.272461,-0.0537109,0
7450,0.687988,-0.271973,-0.0581055,0
7470,0.722656,-0.280273,-0.0732422,0
7490,0.741211,-0.274902,-0.0507812,0
7510,0.710449,-0.28125,0.0161133,0
7530,0.649902,-0.334961,0.11377,0
7550,0.638184,-0.29541,0.147461,0
7570,0.624023,-0.249512,0.0883789,0
7590,0.630859,-0.369141,0.0493164,0
7610,0.52002,-0.464355,0.275879,0
7630,0.535156,-0.477051,0.409668,0
7640,0.530273,-0.608398,0.384277,0
7660,0.299805,-0.691895,0.420898,0
7680,0.125,-0.658691,0.580566,0
7700,0.201172,-0.554688,0.572266,0
7720,0.0791016,-0.464355,0.473633,0
7740,-0.302734,-0.383789,0.558594,0
7760,-0.71875,-0.396973,0.718262,0
7780,-0.552246,-0.472656,0.676758,0
7800,-0.42627,-0.415039,0.623047,0
7810,-0.552246,-0.277832,0.633789,0
7830,-0.769043,-0.228516,0.561523,0
7850,-0.962891,-0.282227,0.44873,0
7880,-1.48877,-0.44043,0.654785,0
7900,-3.63818,-1.50049,2.21045,0
7920,0.0546875,-2.03467,1.46924,0
7940,-0.214355,-1.64307,0.202637,0
7960,-0.315918,-0.743652,0.302734,0
7980,-0.0869141,0.0576172,0.402344,0
8000,-0.268066,0.244629,0.381348,0
8020,-0.397949,-0.065918,0.150391,0
8040,-0.616211,-0.38916,0.182617,0
8060,-0.955566,-0.640137,0.458008,0
8080,-1.14551,-0.795898,0.723145,0
8100,-0.85791,-0.897461,0.74707,0
8120,-0.538574,-0.703613,0.507812,0
8140,-0.529785,-0.441406,0.447754,0
8160,-0.496094,-0.400391,0.475586,0
8180,-0.51709,-0.47998,0.484863,0
8200,-0.636719,-0.583984,0.544922,0
8220,-0.68457,-0.655762,0.575195,0
8240,-0.647461,-0.692383,0.534668,0
8260,-0.586914,-0.665039,0.456055,0
8280,-0.606445,-0.578613,0.417969,0
8300,-0.612793,-0.570312,0.38916,0
8320,-0.596191,-0.611816,0.410645,0
8340,-0.643066,-0.632324,0.411621,0
8360,-0.635254,-0.691895,0.415039,0
8380,-0.64502,-0.724609,0.42041,0
8400,-0.646484,-0.707031,0.408203,0
8420,-0.628418,-0.69043,0.410156,0
8440,-0.652832,-0.685547,0.419922,0
8460,-0.641113,-0.683105,0.439453,0
8480,-0.612305,-0.659668,0.444824,0
8500,-0.623535,-0.631348,0.440918,0
8520,-0.609375,-0.627441,0.445801,0
8540,-0.616699,-0.601562,0.481445,0
8560,-0.644043,-0.583984,0.473633,0
8580,-0.646484,-0.583496,0.447266,0
8600,-0.636719,-0.602539,0.432129,0
8620,-0.644043,-0.602539,0.429199,0
8640,-0.67041,-0.57666,0.410645,0
8660,-0.680176,-0.5625,0.414062,0
8680,-0.684082,-0.585449,0.408691,0
8700,-0.680664,-0.61377,0.410645,0
8720,-0.680664,-0.660645,0.42627,0
8740,-0.67627,-0.761719,0.460449,0
8760,-0.599609,-0.882812,0.485352,0
8780,-0.51123,-0.999023,0.532715,0
8800,-0.570801,-1.12842,0.510742,0
8820,-0.535645,-1.04541,0.553223,0
8840,-0.672852,-0.971191,0.511719,0
8860,-0.839844,-0.861816,0.524414,0
8880,-0.935547,-0.679199,0.562012,0
8900,-0.933105,-0.478027,0.593262,0
8930,-0.735352,-0.381836,0.618164,0
8950,-0.843262,-0.756348,0.662109,0
8970,-0.818848,-0.895508,0.800293,0
8990,-0.709473,-0.801758,0.78125,0
9010,-0.611816,-0.564941,0.674316,0
9030,-0.536621,-0.335449,0.666504,0
9050,-0.468262,-0.283203,0.732422,0
9070,-0.326172,-0.388184,0.72998,0
9090,-0.138672,-0.416992,0.623047,0
9110,-0.0766602,-0.430664,0.608398,0
9130,-0.0708008,-0.458008,0.618652,0
9150,0.00683594,-0.429688,0.564453,0
9170,0.216309,-0.379395,0.458008,0
9190,0.397949,-0.330078,0.334473,0
9210,0.427246,-0.324707,0.3125,0
9230,0.51709,-0.316895,0.267578,0
9250,0.654297,-0.306641,0.176758,0
9270,0.661133,-0.344238,0.145996,0
9290,0.717285,-0.345703,0.10791,0
9310,0.755859,-0.362793,0.046875,0
9330,0.756836,-0.383301,0.0234375,0
9350,0.78125,-0.424805,-0.00488281,0
9370,0.788086,-0.409668,-0.0332031,0
9390,0.830078,-0.350586,-0.0375977,0
9410,0.814453,-0.365234,-0.0102539,0
9430,0.798828,-0.405762,0.074707,0
9450,0.76709,-0.378418,0.0878906,0
9470,0.658691,-0.398926,0.133789,0
9490,0.568848,-0.430664,0.172363,0
9500,0.597168,-0.444336,0.188477,0
9520,0.581055,-0.371094,0.213867,0
9540,0.500977,-0.250977,0.148926,0
9560,0.264648,-0.289551,0.20166,0
9580,0.177246,-0.449219,0.289551,0
9600,0.157715,-0.593262,0.289062,0
9620,-0.177246,-0.644043,0.47168,0
9640,-0.515137,-0.618164,0.636719,0
9660,-0.518555,-0.634277,0.727051,0
9680,-0.483398,-0.509277,0.618164,0
9700,-0.782227,-0.321289,0.594238,0
9720,-0.951172,-0.363281,0.57666,0
9740,-0.976562,-0.42041,0.494629,0
9760,-1.1875,-0.431641,0.390137,0
9780,-3.28857,-1.09961,1.77197,0
9800,-1.07812,-0.260254,2.2085,0
9820,-0.0917969,-1.16699,-0.236328,0
9840,-0.803711,-1.03955,0.158691,0
9860,-0.595703,-0.79541,0.436523,0
9880,-0.542969,-0.775391,0.203613,0
9900,-0.583496,-0.657715,0.180664,0
9920,-0.524414,-0.456543,0.121582,0
9940,-0.523438,-0.32666,0.200684,0
9960,-0.595215,-0.355957,0.274902,0
9980,-0.725098,-0.651855,0.398926,0
10000,-0.802734,-1.0249,0.744629,0
10020,-0.569824,-0.978027,0.848145,0
10040,-0.62207,-0.613281,0.608398,0
10060,-0.700684,-0.574219,0.42041,0
10080,-0.631348,-0.626953,0.308105,0
10100,-0.639648,-0.671875,0.295898,0
10120,-0.67627,-0.697754,0.313965,0
10140,-0.677246,-0.68457,0.308594,0
10160,-0.668457,-0.630371,0.291016,0
10180,-0.65625,-0.643555,0.320801,0
10200,-0.682617,-0.663574,0.370117,0
10220,-0.695801,-0.643555,0.416504,0
10240,-0.694336,-0.608887,0.451172,0
10260,-0.69873,-0.527344,0.42627,0
10280,-0.692871,-0.499023,0.408691,0
10300,-0.69873,-0.510742,0.394531,0
10320,-0.687012,-0.547852,0.376465,0
10340,-0.684082,-0.614746,0.383789,0
10360,-0.669922,-0.644043,0.359863,0
10380,-0.702148,-0.679688,0.345215,0
10400,-0.647461,-0.647949,0.375,0
10420,-0.716309,-0.669434,0.358398,0
10440,-0.69873,-0.663086,0.358887,0
10460,-0.701172,-0.64209,0.370605,0
10480,-0.729492,-0.625977,0.338379,0
10500,-0.714844,-0.601562,0.361816,0
10520,-0.728027,-0.642578,0.34668,0
10540,-0.706055,-0.60498,0.347168,0
10560,-0.721191,-0.616211,0.351074,0
10580,-0.719727,-0.617676,0.369629,0
10600,-0.725098,-0.611816,0.369629,0
10620,-0.709473,-0.631836,0.359375,0
10640,-0.697754,-0.58252,0.361816,0
10660,-0.689941,-0.55957,0.371582,0
10680,-0.682129,-0.55127,0.397461,0
10700,-0.666504,-0.540527,0.407715,0
10720,-0.657715,-0.53125,0.419922,0
10740,-0.634277,-0.549805,0.439941,0
10760,-0.62207,-0.566895,0.447266,0
10780,-0.621094,-0.585449,0.457031,0
10800,-0.641113,-0.603516,0.456543,0
10820,-0.589355,-0.626953,0.453125,0
10840,-0.605957,-0.633301,0.420898,0
10860,-0.641602,-0.617676,0.405273,0
10880,-0.658203,-0.628418,0.387207,0
10900,-0.67041,-0.650391,0.369141,0
10920,-0.693359,-0.658691,0.359375,0
10940,-0.704102,-0.654785,0.34375,0
10960,-0.716797,-0.654297,0.336426,0
10980,-0.720215,-0.646484,0.336426,0
11000,-0.720215,-0.629883,0.324219,0
11020,-0.722656,-0.630859,0.320312,0
11040,-0.711426,-0.631348,0.315918,0
11060,-0.69873,-0.643066,0.319824,0
11080,-0.692871,-0.64502,0.318359,0
11100,-0.690918,-0.657715,0.311523,0
11120,-0.690918,-0.644043,0.30957,0
11140,-0.689941,-0.64502,0.305176,0
11160,-0.691895,-0.644531,0.300781,0
11180,-0.70459,-0.643066,0.29834,0
11200,-0.707031,-0.635254,0.306152,0
11220,-0.708984,-0.643066,0.293945,0
11240,-0.714844,-0.655273,0.291504,0
11260,-0.711426,-0.650391,0.287109,0
11280,-0.707031,-0.664551,0.286133,0
11300,-0.716797,-0.677734,0.296875,0
11320,-0.711914,-0.675293,0.28418,0
11340,-0.709473,-0.677734,0.290039,0
11360,-0.702148,-0.647949,0.296387,0
11380,-0.695312,-0.628418,0.301758,0
11400,-0.704102,-0.630859,0.30127,0
11420,-0.704102,-0.633301,0.291016,0
11440,-0.660156,-0.652344,0.333984,0
11460,-0.702148,-0.634766,0.296875,0
11480,-0.676758,-0.639648,0.294922,0
11500,-0.700684,-0.64502,0.303223,0
11520,-0.698242,-0.652344,0.287598,0
11540,-0.697266,-0.660156,0.285645,0
11560,-0.69873,-0.668945,0.280273,0
11580,-0.703613,-0.675293,0.274902,0
11600,-0.716797,-0.67334,0.283203,0
11620,-0.708008,-0.671387,0.283203,0
11640,-0.722168,-0.672363,0.282227,0
11660,-0.738281,-0.664551,0.310547,0
11680,-0.740723,-0.662109,0.324707,0
11700,-0.772949,-0.631348,0.290527,0
11720,-0.752441,-0.627441,0.289062,0
11740,-0.712402,-0.615723,0.234375,0
11760,-0.706055,-0.620117,0.23291,0
11780,-0.731445,-0.606445,0.227051,0
11800,-0.73584,-0.625,0.21582,0
11820,-0.752441,-0.652344,0.209473,0
11840,-0.767578,-0.683105,0.244141,0
11860,-0.739258,-0.690918,0.255859,0
11880,-0.742676,-0.693848,0.261719,0
11900,-0.782715,-0.666016,0.259766,0
11920,-0.729492,-0.679199,0.238281,0
11940,-0.725586,-0.670898,0.213867,0
11960,-0.732422,-0.648438,0.185547,0
11980,-0.71582,-0.654785,0.17627,0
12000,-0.773438,-0.674805,0.183594,0
12020,-0.843262,-0.742676,0.195312,0
12040,-0.939453,-0.875488,0.211914,0
12060,-0.952637,-0.996582,0.263672,0
12080,-0.925781,-0.780273,0.280273,0
12100,-0.97168,-0.707031,0.104492,0
12120,-0.816895,-0.706055,0.141113,0
12140,-0.711426,-0.623535,0.302734,0
12150,-0.585449,-0.597656,0.435059,0
12170,-0.432129,-0.630859,0.412109,0
12190,-0.35498,-0.628418,0.395508,0
12210,-0.323242,-0.618164,0.397461,0
12230,-0.319336,-0.647461,0.379395,0
12250,-0.339355,-0.658691,0.35498,0
12270,-0.387207,-0.628906,0.340332,0
12290,-0.416992,-0.586914,0.344238,0
12310,-0.440918,-0.545898,0.321777,0
12330,-0.474609,-0.495605,0.279785,0
12350,-0.522949,-0.485352,0.23877,0
12370,-0.580566,-0.49707,0.219727,0
12390,-0.618652,-0.521973,0.222168,0
12410,-0.654785,-0.555664,0.232422,0
12430,-0.6875,-0.615234,0.241211,0
12450,-0.69043,-0.65332,0.272949,0
12470,-0.682129,-0.656738,0.279297,0
12490,-0.703125,-0.710938,0.297363,0
12510,-0.804199,-0.763184,0.479004,0
12530,-0.936035,-0.870117,0.696777,0
12550,-0.665039,-1.11865,0.538086,0
12570,-0.572266,-1.04053,0.275879,0
12590,-0.634766,-0.870605,0.218262,0
12610,-0.53125,-0.827637,0.0795898,0
12630,-0.571777,-0.795898,0.0512695,0
12650,-0.636719,-0.712891,0.0644531,0
12670,-0.666504,-0.623047,0.11377,0
12690,-0.759277,-0.58252,0.165527,0
12710,-0.820312,-0.581055,0.253906,0
12730,-0.841797,-0.602539,0.29248,0
12750,-0.819824,-0.615234,0.263184,0
12770,-0.788086,-0.635254,0.20166,0
12790,-0.763672,-0.665039,0.150879,0
12810,-0.744141,-0.676758,0.131348,0
12830,-0.731934,-0.702637,0.121582,0
12850,-0.726074,-0.714844,0.113281,0
12870,-0.718262,-0.721191,0.125977,0
12890,-0.717285,-0.734863,0.162109,0
12910,-0.717773,-0.71875,0.187988,0
12930,-0.728027,-0.702148,0.183105,0
12950,-0.727051,-0.728027,0.171875,0
12970,-0.709473,-0.73291,0.183594,0
12990,-0.719727,-0.682617,0.181152,0
13010,-0.726074,-0.665527,0.190918,0
13030,-0.732422,-0.6875,0.191406,0
13050,-0.737793,-0.6875,0.21875,0
13070,-0.739258,-0.647949,0.230957,0
13090,-0.718262,-0.641113,0.236816,0
13110,-0.715332,-0.664551,0.219727,0
13130,-0.6875,-0.692871,0.219727,0
13150,-0.687988,-0.696289,0.218262,0
13170,-0.677246,-0.702637,0.210938,0
13190,-0.677246,-0.693848,0.204102,0
13210,-0.675293,-0.691895,0.197266,0
13230,-0.683105,-0.685547,0.202637,0
13250,-0.696777,-0.689453,0.194336,0
13270,-0.712402,-0.694336,0.19873,0
13290,-0.725098,-0.694336,0.185059,0
13310,-0.742676,-0.709961,0.177246,0
13330,-0.746094,-0.703125,0.181152,0
13350,-0.749512,-0.702637,0.180176,0
13370,-0.750488,-0.736328,0.166992,0
13390,-0.757812,-0.728027,0.15625,0
13410,-0.731934,-0.740723,0.158691,0
13430,-0.697266,-0.740723,0.197754,0
13450,-0.683105,-0.73877,0.206055,0
13470,-0.676758,-0.744629,0.188965,0
13490,-0.654785,-0.686523,0.187012,0
13510,-0.654297,-0.639648,0.224609,0
13530,-0.662598,-0.653809,0.239258,0
13550,-0.661133,-0.671387,0.234375,0
13570,-0.662598,-0.700195,0.229492,0
13590,-0.663086,-0.69873,0.224121,0
13610,-0.67041,-0.703125,0.20166,0
13630,-0.696289,-0.726562,0.208008,0
13650,-0.716797,-0.757812,0.246094,0
13670,-0.729492,-0.802246,0.295898,0
13690,-0.748535,-0.848633,0.347168,0
13710,-0.768066,-0.899414,0.384766,0
13730,-0.757812,-0.878906,0.453125,0
13750,-0.742188,-0.883789,0.487793,0
13770,-0.73584,-0.915527,0.495605,0
13790,-0.723633,-0.929688,0.54541,0
13810,-0.710449,-0.962891,0.631348,0
13830,-0.695312,-1.00293,0.705566,0
13850,-0.690918,-0.978516,0.685547,0
13870,-0.615234,-0.919434,0.701172,0
13890,-0.44043,-0.912109,0.720215,0
13910,-0.256836,-0.880859,0.69873,0
13930,-0.0439453,-0.777344,0.567871,0
13950,0.161133,-0.697754,0.428711,0
13970,0.332031,-0.571289,0.381348,0
13990,0.458496,-0.514648,0.335938,0
14010,0.552734,-0.593262,0.234375,0
14030,0.625977,-0.625,0.125,0
14050,0.646484,-0.560547,0.0605469,0
14070,0.697754,-0.477539,0.0268555,0
14090,0.680176,-0.598633,-0.0126953,0
14110,0.614258,-0.523926,-0.0898438,0
14130,0.64502,-0.320801,-0.211426,0
14150,0.693848,-0.310547,-0.165527,0
14170,0.578125,-0.240234,-0.209961,0
14190,0.530273,-0.182617,-0.272461,0
14210,0.622559,-0.222168,-0.261719,0
14230,0.579102,-0.15332,-0.198242,0
14250,0.597168,-0.164551,-0.228027,0
14270,0.630859,-0.212891,-0.296875,0
14290,0.6875,-0.300781,-0.234863,0
14310,0.70166,-0.395508,-0.119141,0
14330,0.801758,-0.407715,-0.185059,0
14350,0.803711,-0.21875,-0.259766,0
14370,0.942383,-0.395508,-0.318359,0
14390,0.82666,-0.493164,-0.155762,0
14410,0.877441,-0.436035,-0.173828,0
14430,0.835938,-0.379883,-0.223633,0
14450,0.871582,-0.363281,-0.206055,0
14470,0.810059,-0.429688,-0.125977,0
14490,0.918945,-0.45752,-0.162109,0
14510,0.986816,-0.453613,-0.24707,0
14530,0.835449,-0.455566,-0.236328,0
14530,0.871582,-0.458984,-0.222656,0
14570,0.937988,-0.438965,-0.100098,0
14590,0.961914,-0.437988,-0.128906,0
14630,0.971191,-0.430664,-0.163574,0
14650,0.925781,-0.405762,-0.243164,0
14670,0.939453,-0.388184,-0.208008,0
14680,0.763672,-0.411621,-0.211914,0
14710,0.80127,-0.444336,-0.132324,0
14710,0.79541,-0.426758,-0.114746,0
14720,0.855957,-0.443848,-0.121094,0
14740,0.890625,-0.45166,-0.0771484,0
14760,0.887207,-0.431641,-0.0917969,0
14770,0.819336,-0.44043,-0.13916,0
14790,0.832031,-0.478027,-0.114258,0
14810,0.849121,-0.496582,-0.0737305,0
14820,0.844238,-0.503418,-0.100098,0
14840,0.82959,-0.481445,-0.119629,0
14860,0.825195,-0.500488,-0.117676,0
14880,0.833496,-0.552246,-0.0844727,0
14900,0.811035,-0.570312,-0.0810547,0
14920,0.841797,-0.57959,-0.113281,0
14940,0.835938,-0.54834,-0.124512,0
14960,0.824219,-0.521973,-0.126465,0
14980,0.845215,-0.513184,-0.122559,0
15000,0.866211,-0.493652,-0.13623,0
15020,0.874512,-0.478516,-0.149414,0
15040,0.884766,-0.496094,-0.140137,0
15060,0.902344,-0.486816,-0.12793,0
15080,0.879883,-0.48291,-0.116211,0
15100,0.859863,-0.477539,-0.126465,0
15120,0.87207,-0.470215,-0.158203,0
15140,0.861328,-0.475586,-0.163086,0
15160,0.852539,-0.496582,-0.134277,0
15180,0.843262,-0.489746,-0.115234,0
15200,0.796875,-0.474121,-0.135254,0
15220,0.788574,-0.455566,-0.131836,0
15230,0.798828,-0.474609,-0.126953,0
15250,0.821289,-0.487793,-0.143066,0
15270,0.811035,-0.493652,-0.140625,0
15300,0.819824,-0.522461,-0.158203,0
15320,0.820312,-0.532227,-0.166016,0
15340,0.829102,-0.541504,-0.122559,0
15360,0.815918,-0.556152,-0.127441,0
15380,0.817383,-0.563965,-0.168945,0
15400,0.805176,-0.546387,-0.156738,0
15420,0.817871,-0.55957,-0.166504,0
15440,0.830566,-0.539551,-0.164551,0
15460,0.843262,-0.523438,-0.169434,0
15480,0.835449,-0.527832,-0.161133,0
15500,0.811035,-0.53125,-0.161133,0
15520,0.819336,-0.538086,-0.158203,0
15540,0.803711,-0.523438,-0.135254,0
15560,0.794434,-0.515625,-0.13916,0
15580,0.780762,-0.51416,-0.154297,0
15600,0.800293,-0.5,-0.155762,0
15630,0.809082,-0.516602,-0.135742,0
15650,0.807617,-0.51416,-0.125977,0
15670,0.821777,-0.546875,-0.148926,0
15690,0.804199,-0.543457,-0.163574,0
15710,0.82373,-0.532227,-0.155762,0
15730,0.841797,-0.553711,-0.155762,0
15750,0.834961,-0.565918,-0.131836,0
15770,0.825684,-0.554199,-0.143555,0
15790,0.842285,-0.547852,-0.160645,0
15810,0.838379,-0.532715,-0.14209,0
15830,0.819336,-0.522949,-0.139648,0
15850,0.812012,-0.515137,-0.139648,0
15870,0.811523,-0.508301,-0.143066,0
15890,0.814941,-0.507812,-0.135254,0
15910,0.815918,-0.503906,-0.136719,0
15930,0.821777,-0.476074,-0.121582,0
15950,0.83252,-0.497559,-0.102539,0
15970,0.831055,-0.501465,-0.121582,0
15990,0.791504,-0.483398,-0.127441,0
16010,0.786133,-0.509766,-0.131348,0
16030,0.813965,-0.515137,-0.133301,0
16050,0.821289,-0.492676,-0.117188,0
16070,0.816895,-0.477539,-0.154297,0
16090,0.833008,-0.507324,-0.12793,0
16110,0.854492,-0.521484,-0.113281,0
16130,0.823242,-0.528809,-0.104492,0
16150,0.831543,-0.536621,-0.125977,0
16170,0.841797,-0.522461,-0.137695,0
16190,0.822754,-0.524902,-0.128906,0
16210,0.831543,-0.539062,-0.0908203,0
16230,0.842773,-0.566895,-0.0981445,0
16250,0.812988,-0.5625,-0.0991211,0
16270,0.775879,-0.547852,-0.0810547,0
16290,0.788086,-0.570312,-0.0849609,0
16330,0.796875,-0.578125,-0.0742188,0
16350,0.766602,-0.57666,-0.0732422,0
16370,0.788086,-0.59375,-0.0708008,0
16390,0.816895,-0.609375,-0.0620117,0
16410,0.813965,-0.604004,-0.0883789,0
16430,0.807129,-0.577637,-0.0976562,0
16450,0.807129,-0.587891,-0.0761719,0
16470,0.818359,-0.58252,-0.0825195,0
16490,0.806641,-0.560547,-0.0776367,0
16510,0.799316,-0.558594,-0.0742188,0
16530,0.789551,-0.564941,-0.0898438,0
16550,0.78125,-0.577148,-0.0810547,0
16570,0.793457,-0.570801,-0.0859375,0
16590,0.775391,-0.561523,-0.0825195,0
16610,0.767578,-0.573242,-0.0874023,0
16630,0.768066,-0.574219,-0.0898438,0
16650,0.791016,-0.577637,-0.102051,0
16680,0.792969,-0.57373,-0.104492,0
16700,0.776367,-0.549805,-0.081543,0
16720,0.766113,-0.537598,-0.0825195,0
16740,0.796875,-0.5625,-0.0771484,0
16760,0.778809,-0.553223,-0.117188,0
16780,0.77002,-0.530762,-0.15625,0
16800,0.759766,-0.540527,-0.133301,0
16820,0.745117,-0.579102,-0.0830078,0
16840,0.73584,-0.581543,-0.0517578,0
16860,0.783691,-0.583008,-0.0883789,0
16880,0.76123,-0.565918,-0.10791,0
16900,0.749023,-0.599121,-0.100098,0
16920,0.753418,-0.609375,-0.0771484,0
16940,0.761719,-0.625977,-0.0546875,0
16960,0.753418,-0.64209,-0.0717773,0
16980,0.700195,-0.628906,-0.0458984,0
17010,0.79248,-0.696777,-0.074707,0
17060,0.781738,-0.659668,-0.0512695,0
17060,0.737793,-0.60498,-0.050293,0
17080,0.753906,-0.637207,-0.0541992,0
17100,0.75,-0.62793,-0.012207,0
17120,0.745605,-0.641113,0.0078125,0
17140,0.739746,-0.64209,0.00146484,0
17160,0.728027,-0.620117,-0.0258789,0
17180,0.733887,-0.583008,-0.0395508,0
17200,0.734863,-0.586426,-0.0410156,0
17220,0.758301,-0.589844,-0.03125,0
17240,0.770996,-0.603516,-0.0463867,0
17260,0.77832,-0.583496,-0.0507812,0
17290,0.789551,-0.606445,-0.0625,0
17290,0.792969,-0.617188,-0.0395508,0
17310,0.73877,-0.583496,-0.0878906,0
17330,0.742188,-0.544922,-0.0898438,0
17350,0.740234,-0.526855,-0.100586,0
17370,0.72998,-0.535645,-0.0825195,0
17390,0.717285,-0.543457,-0.0649414,0
17410,0.689453,-0.537598,-0.0649414,0
17430,0.669922,-0.535156,-0.0849609,0
17450,0.60791,-0.536621,-0.0820312,0
17470,0.557129,-0.497559,-0.0737305,0
17490,0.49707,-0.387207,-0.0600586,0
17510,0.498535,-0.330566,-0.0234375,0
17530,0.529785,-0.304199,0.059082,0
17550,0.588867,-0.318848,0.11377,0
17570,0.674805,-0.36084,0.179688,0
17590,0.749512,-0.390137,0.237305,0
17610,0.896484,-0.514648,0.273926,0
17630,0.903809,-0.774414,0.421387,0
17650,0.51123,-0.701172,0.530273,0
17670,0.342773,-0.719727,0.294434,0
17690,0.484375,-0.740723,0.165039,0
17710,0.44043,-0.598633,0.328613,0
17730,0.213379,-0.344238,0.424805,0
17750,-0.0839844,-0.408691,0.363281,0
17770,-0.647949,-0.70752,0.454102,0
17790,-0.773438,-0.781738,0.722168,0
17810,-0.467285,-0.694336,0.625977,0
17830,-1.19678,-2.67725,1.85498,0
17850,-2.13916,0.905273,2.33984,0
17870,-0.800781,0.870117,0.0454102,0
17890,-0.782227,-1.93457,-0.239746,0
17910,-0.274414,-1.83008,-0.106445,0
17930,-0.349121,-0.927734,0.193848,0
17950,-0.657227,-0.816406,0.257812,0
17970,-0.708984,-0.648438,0.112305,0
17990,-0.567871,0.488281,0.616211,0
18010,-0.714355,-0.32373,0.0668945,0
18030,-0.74707,-0.717773,0.379395,0
18050,-0.763672,-0.790039,0.49707,0
18070,-0.772949,-0.802246,0.469727,0
18090,-0.699219,-0.798828,0.416992,0
18110,-0.647949,-0.664062,0.383301,0
18130,-0.624512,-0.525391,0.32959,0
18150,-0.622559,-0.533691,0.327148,0
18170,-0.674316,-0.662109,0.373535,0
18190,-0.651367,-0.75293,0.380371,0
18210,-0.599121,-0.766113,0.375977,0
18230,-0.54834,-0.712402,0.359375,0
18250,-0.590332,-0.64502,0.33252,0
18270,-0.630371,-0.646973,0.351562,0
18290,-0.650879,-0.67041,0.344238,0
18310,-0.67334,-0.683594,0.333008,0
18330,-0.699707,-0.687012,0.313965,0
18350,-0.702637,-0.679199,0.308105,0
18370,-0.685547,-0.692383,0.315918,0
18390,-0.665527,-0.704102,0.311523,0
18410,-0.646973,-0.70459,0.32373,0
18430,-0.630371,-0.687988,0.34375,0
18450,-0.625977,-0.668945,0.367188,0
18470,-0.627441,-0.653809,0.376953,0
18490,-0.629395,-0.63623,0.371582,0
18510,-0.637207,-0.631348,0.365234,0
18530,-0.648926,-0.634766,0.370117,0
18550,-0.655273,-0.641113,0.361816,0
18570,-0.660156,-0.659668,0.348145,0
18590,-0.668945,-0.675781,0.344238,0
18610,-0.670898,-0.685059,0.338867,0
18630,-0.664062,-0.681641,0.337891,0
18650,-0.657715,-0.675293,0.335449,0
18670,-0.650391,-0.675781,0.332031,0
18690,-0.652832,-0.665527,0.348145,0
18710,-0.645508,-0.657227,0.351562,0
18730,-0.652344,-0.653809,0.355469,0
18750,-0.656738,-0.655762,0.359863,0
18770,-0.654785,-0.654297,0.351562,0
18790,-0.654297,-0.65625,0.348633,0
18810,-0.660156,-0.661621,0.342285,0
18830,-0.665039,-0.666016,0.34375,0
18850,-0.67041,-0.674316,0.333496,0
18870,-0.672852,-0.674316,0.33252,0
18890,-0.673828,-0.672363,0.328613,0
18910,-0.671875,-0.675293,0.325195,0
18930,-0.664551,-0.67041,0.332031,0
18950,-0.65625,-0.665039,0.326172,0
18970,-0.654297,-0.662598,0.330078,0
18990,-0.652344,-0.669434,0.330078,0
19010,-0.653809,-0.672852,0.329102,0
19030,-0.660156,-0.672852,0.332031,0
19050,-0.653809,-0.675781,0.327637,0
19070,-0.655762,-0.684082,0.32666,0
19090,-0.657227,-0.6875,0.315918,0
19110,-0.652832,-0.683594,0.321777,0
19130,-0.649414,-0.685059,0.316895,0
19150,-0.654297,-0.681152,0.31543,0
19170,-0.655273,-0.685547,0.32373,0
19190,-0.653809,-0.678711,0.318848,0
19210,-0.656738,-0.674316,0.32373,0
19230,-0.662598,-0.671387,0.319824,0
19250,-0.666504,-0.672852,0.321777,0
19270,-0.67041,-0.675781,0.322266,0
19290,-0.668457,-0.680664,0.319336,0
19310,-0.667969,-0.674805,0.317871,0
19330,-0.66748,-0.67627,0.325684,0
19350,-0.664062,-0.681152,0.332031,0
19370,-0.652832,-0.674805,0.332031,0
19380,-0.649902,-0.674805,0.333496,0
19400,-0.643555,-0.669922,0.332031,0
19420,-0.640137,-0.670898,0.331055,0
19440,-0.637695,-0.666992,0.338379,0
19460,-0.644531,-0.676758,0.349609,0
19480,-0.647461,-0.674316,0.345703,0
19500,-0.653809,-0.677734,0.346191,0
19520,-0.65625,-0.677246,0.336914,0
19540,-0.65918,-0.678223,0.339844,0
19560,-0.660156,-0.677734,0.333008,0
19580,-0.659668,-0.674805,0.32959,0
19600,-0.662598,-0.671875,0.333496,0
19620,-0.661133,-0.669922,0.328613,0
19640,-0.657227,-0.663574,0.329102,0
19660,-0.655273,-0.666504,0.322754,0
19680,-0.654785,-0.677734,0.328613,0
19700,-0.654785,-0.682617,0.333008,0
19720,-0.650391,-0.682617,0.329102,0
19740,-0.649902,-0.683105,0.326172,0
19760,-0.651367,-0.682129,0.329102,0
19780,-0.648438,-0.684082,0.343262,0
19800,-0.645996,-0.680176,0.342285,0
19820,-0.647949,-0.679199,0.345703,0
19840,-0.649902,-0.663086,0.354492,0
19860,-0.642578,-0.666016,0.356445,0
19880,-0.640625,-0.668945,0.36377,0
19900,-0.642578,-0.664062,0.365234,0
19920,-0.641602,-0.664062,0.37207,0
19940,-0.636719,-0.666504,0.378418,0
19960,-0.637695,-0.668457,0.372559,0
19980,-0.626465,-0.66748,0.385742,0
20000,-0.632324,-0.662598,0.383789,0
20020,-0.62207,-0.662109,0.394531,0
20040,-0.609863,-0.659668,0.397949,0
20060,-0.610352,-0.657715,0.392578,0
20080,-0.61377,-0.654785,0.398438,0
20100,-0.617676,-0.655273,0.40332,0
20120,-0.622559,-0.649902,0.402344,0
20140,-0.628906,-0.648438,0.401367,0
20160,-0.631836,-0.649414,0.399414,0
20180,-0.632324,-0.645508,0.402832,0
20200,-0.637695,-0.652344,0.394531,0
20220,-0.64209,-0.657715,0.390625,0
20240,-0.635742,-0.660156,0.388672,0
20260,-0.633301,-0.651367,0.386719,0
20280,-0.638184,-0.658203,0.384766,0
20300,-0.638184,-0.655273,0.391602,0
20320,-0.636719,-0.655273,0.386719,0
20340,-0.63623,-0.658203,0.384766,0
20360,-0.635254,-0.661621,0.388184,0
20380,-0.632324,-0.660645,0.39209,0
20400,-0.630859,-0.65625,0.38916,0
20420,-0.630371,-0.65918,0.38916,0
20440,-0.630859,-0.662109,0.38623,0
20460,-0.625977,-0.65625,0.387695,0
20480,-0.624512,-0.665039,0.39502,0
20500,-0.625977,-0.655762,0.398438,0
20520,-0.625,-0.653809,0.393555,0
20540,-0.620605,-0.655762,0.399902,0
20560,-0.628906,-0.65332,0.396973,0
20580,-0.632324,-0.651367,0.393555,0
20600,-0.625488,-0.652832,0.397949,0
20620,-0.63623,-0.654297,0.397461,0
20640,-0.635742,-0.655273,0.393555,0
20660,-0.631836,-0.652344,0.393066,0
20680,-0.636719,-0.649902,0.394043,0
20700,-0.633301,-0.653809,0.38916,0
20720,-0.638672,-0.647949,0.391602,0
20740,-0.640625,-0.65625,0.386719,0
20760,-0.64209,-0.651367,0.377441,0
20780,-0.638672,-0.652832,0.382324,0
20800,-0.63916,-0.653809,0.386719,0
20820,-0.631348,-0.65918,0.393555,0
20840,-0.62793,-0.665527,0.400391,0
20860,-0.625,-0.661133,0.402832,0
20880,-0.621582,-0.658691,0.412109,0
20900,-0.62207,-0.652344,0.413086,0
20920,-0.625,-0.648926,0.415527,0
20940,-0.625977,-0.63916,0.414062,0
20960,-0.635742,-0.634766,0.411621,0
20980,-0.642578,-0.605469,0.417969,0
21000,-0.636719,-0.638672,0.396484,0
21020,-0.646973,-0.637207,0.389648,0
21040,-0.649902,-0.632812,0.38916,0
21060,-0.64502,-0.641113,0.378906,0
21080,-0.644531,-0.650879,0.381348,0
21100,-0.645508,-0.659668,0.378418,0
21120,-0.648926,-0.662598,0.375977,0
21140,-0.64502,-0.65625,0.380859,0
21160,-0.646973,-0.659668,0.377441,0
21180,-0.646973,-0.650391,0.379395,0
21200,-0.64502,-0.644531,0.383301,0
21220,-0.646484,-0.641113,0.387207,0
21240,-0.648438,-0.646973,0.389648,0
21260,-0.644531,-0.646973,0.389648,0
21280,-0.639648,-0.646484,0.38916,0
21300,-0.63916,-0.648926,0.383789,0
21320,-0.63623,-0.651855,0.380371,0
21340,-0.64209,-0.650879,0.382324,0
21360,-0.643555,-0.654297,0.376953,0
21380,-0.649414,-0.649414,0.379883,0
21400,-0.647949,-0.646484,0.381836,0
21420,-0.643555,-0.646484,0.381836,0
21440,-0.65625,-0.621582,0.367188,0
21460,-0.641602,-0.652832,0.381348,0
21480,-0.649414,-0.61377,0.354492,0
21500,-0.638184,-0.683105,0.376953,0
21520,-0.647461,-0.66748,0.359863,0
21540,-0.639648,-0.651855,0.366699,0
21560,-0.634766,-0.669434,0.361816,0
21580,-0.654785,-0.644531,0.333008,0
21600,-0.643555,-0.677734,0.339844,0
21620,-0.654297,-0.664062,0.348145,0
21640,-0.658203,-0.668457,0.348633,0
21660,-0.669922,-0.659668,0.333008,0
21680,-0.668457,-0.655273,0.338867,0
21700,-0.675293,-0.667969,0.339355,0
21720,-0.677246,-0.661621,0.33252,0
21740,-0.669434,-0.661133,0.323242,0
21760,-0.670898,-0.668945,0.322754,0
21780,-0.675293,-0.67334,0.312988,0
21800,-0.667969,-0.671387,0.308594,0
21820,-0.66748,-0.674316,0.298828,0
21840,-0.67627,-0.677734,0.296387,0
21860,-0.685547,-0.677246,0.296387,0
21880,-0.688965,-0.674805,0.28418,0
21900,-0.691895,-0.669922,0.277344,0
21920,-0.697754,-0.675781,0.280273,0
21940,-0.702148,-0.666016,0.26416,0
21960,-0.714355,-0.668457,0.247559,0
21980,-0.709473,-0.672363,0.247559,0
22000,-0.713379,-0.671875,0.248047,0
22010,-0.70752,-0.67627,0.253906,0
22030,-0.710938,-0.670898,0.23877,0
22050,-0.707031,-0.666992,0.244141,0
22070,-0.697266,-0.678223,0.245605,0
22090,-0.708496,-0.719727,0.255371,0
22110,-0.702637,-0.738281,0.282227,0
22130,-0.765625,-0.779297,0.262207,0
22150,-0.822266,-0.911133,0.253418,0
22170,-0.727539,-0.995605,0.257812,0
22190,-0.81543,-0.987305,0.265625,0
22210,-0.90918,-0.873535,0.355469,0
22230,-0.77002,-0.751465,0.553711,0
22250,-0.760254,-0.78418,0.728027,0
22270,-0.793945,-0.725586,0.727051,0
22290,-0.683105,-0.781738,0.631836,0
22310,-0.583008,-0.884277,0.754883,0
22330,-0.425293,-1.07764,0.808594,0
22350,-0.405273,-1.07227,0.758301,0
22370,-0.325195,-0.936523,0.70459,0
22390,-0.0991211,-0.730469,0.577637,0
22410,0.0791016,-0.652832,0.526855,0
22430,0.0981445,-0.657227,0.553711,0
22450,0.0820312,-0.636719,0.515137,0
22470,0.141113,-0.674316,0.512207,0
22490,0.188965,-0.73291,0.486328,0
22510,0.147949,-0.765625,0.441895,0
22530,0.138184,-0.690918,0.454102,0
22550,0.191895,-0.637695,0.473145,0
22570,0.208496,-0.692383,0.408203,0
22590,0.172363,-0.704102,0.30957,0
22610,0.133301,-0.688477,0.345215,0
22630,0.169434,-0.681641,0.418945,0
22640,0.20166,-0.707031,0.374512,0
22660,0.202148,-0.753906,0.268555,0
22690,0.263184,-0.758789,0.281738,0
22710,0.384277,-0.779785,0.287598,0
22730,0.441895,-0.77832,0.17627,0
22750,0.504883,-0.711914,0.059082,0
22770,0.536621,-0.692871,0.0810547,0
22790,0.45459,-0.735352,0.164062,0
22810,0.34082,-0.86084,0.174805,0
22830,0.324219,-0.960938,0.213867,0
22850,0.34668,-0.876465,0.20459,0
22870,0.394043,-0.782715,0.178711,0
22890,0.387207,-0.73877,0.174316,0
22910,0.393555,-0.67041,0.136719,0
22930,0.286133,-0.708008,0.0166016,0
22950,0.141602,-0.904785,0.106445,0
22970,-0.00830078,-0.746582,0.196777,0
22990,-0.106445,-0.743652,0.0673828,0
23010,-0.0444336,-0.866699,0.0566406,0
23030,0.234863,-0.925293,0.268555,0
23050,0.507324,-0.935059,0.391602,0
23070,0.525391,-0.753906,0.432129,0
23090,0.445312,-0.546875,0.370605,0
23110,0.48877,-0.626465,0.190918,0
23130,0.534668,-0.72168,0.232422,0
23150,0.483398,-0.789551,0.330566,0
23170,0.469238,-0.918945,0.241211,0
23190,0.402344,-1.01172,0.214844,0
23210,0.471191,-0.897461,0.220703,0
23230,0.496582,-0.776855,0.219727,0
23250,0.47998,-0.739746,0.259277,0
23260,0.510742,-0.711914,0.256836,0
23280,0.560059,-0.746582,0.18457,0
23300,0.526855,-0.791992,0.226562,0
23320,0.508789,-0.857422,0.28418,0
23340,0.538574,-0.786621,0.154785,0
23360,0.516602,-0.682617,0.146973,0
23380,0.494629,-0.736328,0.22168,0
23400,0.490234,-0.78418,0.227051,0
23420,0.435547,-0.813477,0.232422,0
23440,0.424805,-0.80957,0.225098,0
23460,0.454102,-0.814453,0.208496,0
23480,0.44873,-0.792969,0.242188,0
23520,0.445801,-0.797363,0.286621,0
23540,0.422363,-0.76123,0.326172,0
23560,0.412598,-0.756348,0.324707,0
23580,0.478516,-0.750488,0.299316,0
23600,0.462891,-0.771973,0.3125,0
23620,0.450195,-0.774414,0.324219,0
23640,0.449707,-0.776855,0.32373,0
23660,0.468262,-0.768555,0.356934,0
23680,0.496094,-0.747559,0.36084,0
23700,0.480469,-0.734863,0.337891,0
23720,0.491211,-0.754883,0.34668,0
23740,0.495117,-0.758789,0.376465,0
23760,0.509766,-0.75293,0.367188,0
23780,0.508301,-0.720215,0.356934,0
23800,0.50293,-0.70459,0.319336,0
23820,0.504395,-0.687988,0.352051,0
23840,0.518066,-0.733398,0.312012,0
23860,0.52002,-0.815918,0.275879,0
23880,0.504395,-0.800781,0.328613,0
23900,0.480957,-0.706055,0.353516,0
23920,0.493652,-0.698242,0.310547,0
23940,0.50293,-0.687012,0.293945,0
23960,0.500977,-0.638184,0.312988,0
23980,0.501465,-0.624512,0.347168,0
24000,0.475098,-0.676758,0.322754,0
24020,0.496094,-0.661133,0.285156,0
24040,0.518555,-0.612793,0.339355,0
24060,0.537109,-0.651367,0.358398,0
24080,0.554199,-0.67041,0.294922,0
24100,0.570801,-0.654785,0.342285,0
24120,0.589355,-0.647949,0.405762,0
24140,0.626465,-0.55957,0.340332,0
24160,0.621094,-0.511719,0.311035,0
24180,0.568848,-0.542969,0.355469,0
24200,0.553223,-0.63916,0.386719,0
24220,0.61084,-0.705566,0.379883,0
24240,0.611816,-0.640137,0.421875,0
24260,0.576172,-0.51123,0.474121,0
24280,0.600098,-0.470703,0.437012,0
24300,0.611328,-0.484863,0.42041,0
24320,0.60498,-0.514648,0.446777,0
24340,0.62793,-0.600098,0.475586,0
24360,0.661133,-0.616699,0.510254,0
24380,0.64502,-0.584961,0.486328,0
24400,0.648926,-0.520508,0.45166,0
24420,0.697266,-0.504395,0.421387,0
24440,0.663086,-0.472656,0.475098,0
24460,0.641602,-0.481934,0.496582,0
24480,0.695801,-0.526855,0.479492,0
24500,0.700195,-0.533691,0.467773,0
24520,0.666504,-0.494629,0.478516,0
24540,0.691406,-0.489746,0.488281,0
24560,0.739258,-0.502441,0.481445,0
24580,0.708496,-0.477539,0.462402,0
24590,0.69043,-0.459961,0.46582,0
24610,0.742188,-0.44043,0.474609,0
24630,0.767578,-0.462402,0.431641,0
24650,0.725098,-0.5,0.427734,0
24670,0.72998,-0.483887,0.455078,0
24690,0.736816,-0.485352,0.42334,0
24710,0.739746,-0.496582,0.397949,0
24730,0.709473,-0.470703,0.39502,0
24750,0.713867,-0.436523,0.41748,0
24770,0.719727,-0.453613,0.42334,0
24790,0.712402,-0.461914,0.418457,0
24810,0.714355,-0.469727,0.394043,0
24830,0.709961,-0.459473,0.385254,0
24850,0.726074,-0.442383,0.40332,0
24870,0.704102,-0.462891,0.40918,0
24890,0.709473,-0.464355,0.395996,0
24910,0.732422,-0.447266,0.400391,0
24930,0.742188,-0.447754,0.39209,0
24950,0.722656,-0.467773,0.393066,0
24970,0.757812,-0.442871,0.390625,0
24990,0.732422,-0.396484,0.416016,0
25010,0.716309,-0.401367,0.410156,0
25030,0.750977,-0.402832,0.411133,0
25050,0.758789,-0.39502,0.379395,0
25070,0.729492,-0.382324,0.397949,0
25090,0.733398,-0.412109,0.414062,0
25110,0.739746,-0.430176,0.402832,0
25130,0.725586,-0.428223,0.394531,0
25150,0.728516,-0.427246,0.40332,0
25170,0.739258,-0.421875,0.401855,0
25190,0.724609,-0.41748,0.390625,0
25210,0.712402,-0.404785,0.404297,0
25230,0.719727,-0.416016,0.407715,0
25250,0.73584,-0.43457,0.396484,0
25270,0.733887,-0.438477,0.379395,0
25290,0.734375,-0.42334,0.373047,0
25310,0.731445,-0.446777,0.382812,0
25330,0.727051,-0.484375,0.374512,0
25350,0.705078,-0.490723,0.355957,0
25370,0.697266,-0.522949,0.366211,0
25390,0.734375,-0.54834,0.364746,0
25410,0.74707,-0.529297,0.351562,0
25430,0.726562,-0.467773,0.37207,0
25450,0.729492,-0.419434,0.318848,0
25470,0.724121,-0.45166,0.294922,0
25490,0.724609,-0.495117,0.317383,0
25510,0.701172,-0.557617,0.344727,0
25530,0.70166,-0.587891,0.344238,0
25550,0.69873,-0.541016,0.306641,0
25570,0.697754,-0.508301,0.305664,0
25590,0.712402,-0.580078,0.34375,0
25610,0.729492,-0.618164,0.32666,0
25630,0.742676,-0.571777,0.307617,0
25650,0.758301,-0.474609,0.321289,0
25670,0.794434,-0.400879,0.245117,0
25690,0.749512,-0.442383,0.273926,0
25710,0.723633,-0.578125,0.402344,0
25730,0.75293,-0.625488,0.322754,0
25750,0.754883,-0.506836,0.246094,0
25770,0.679688,-0.360352,0.290527,0
25790,0.693848,-0.417969,0.425293,0
25810,0.727051,-0.489258,0.375977,0
25830,0.726562,-0.54248,0.291016,0
25850,0.693848,-0.555664,0.316406,0
25870,0.705078,-0.481445,0.39209,0
25890,0.669922,-0.36084,0.397461,0
25910,0.639648,-0.354004,0.417969,0
25930,0.71875,-0.411621,0.40332,0
25950,0.75293,-0.467285,0.401855,0
25970,0.672363,-0.453125,0.433594,0
25990,0.666016,-0.438965,0.466309,0
26010,0.720703,-0.429688,0.437988,0
26030,0.722656,-0.438477,0.433105,0
26050,0.749023,-0.449707,0.393066,0
26070,0.755859,-0.47998,0.367188,0
26090,0.733887,-0.453613,0.369141,0
26110,0.715332,-0.467285,0.361328,0
26130,0.72998,-0.487305,0.367676,0
26150,0.744629,-0.478027,0.35498,0
26170,0.73584,-0.45459,0.333008,0
26190,0.72998,-0.449219,0.332031,0
26210,0.733887,-0.486816,0.365234,0
26230,0.754883,-0.489746,0.419434,0
26250,0.743164,-0.428223,0.339355,0
26270,0.751465,-0.464844,0.306641,0
26290,0.691895,-0.51123,0.317871,0
26310,0.700195,-0.62793,0.309082,0
26330,0.719238,-0.649414,0.333008,0
26350,0.876465,-0.584961,0.307129,0
26370,0.745117,-0.333008,0.187012,0
26390,0.702148,-0.588379,0.235352,0
26410,0.726562,-0.618164,0.335938,0
26430,0.600098,-0.605957,0.40332,0
26450,0.462402,-0.612793,0.501465,0
26470,0.436035,-0.58252,0.592285,0
26490,0.397949,-0.467773,0.650879,0
26510,0.302246,-0.330566,0.679199,0
26530,0.365723,-0.410156,0.6875,0
26550,0.435547,-0.470703,0.59375,0
26570,0.462402,-0.5625,0.560547,0
26590,0.470703,-0.628418,0.564941,0
26610,0.524414,-0.651855,0.555664,0
26630,0.54834,-0.614258,0.519043,0
26650,0.55957,-0.567383,0.521484,0
26670,0.580566,-0.556641,0.518555,0
26690,0.577637,-0.561035,0.512207,0
26710,0.54834,-0.567871,0.503418,0
26730,0.538574,-0.585449,0.512207,0
26750,0.52832,-0.624512,0.502441,0
26770,0.511719,-0.67627,0.496094,0
26790,0.5,-0.697266,0.513184,0
26810,0.487793,-0.681152,0.511719,0
26830,0.48291,-0.632812,0.50293,0
26850,0.488281,-0.619629,0.480469,0
26870,0.503906,-0.634766,0.444336,0
26890,0.507324,-0.650879,0.460449,0
26910,0.495605,-0.666504,0.483887,0
26930,0.498535,-0.667969,0.488281,0
26950,0.503906,-0.640625,0.482422,0
26970,0.524902,-0.59375,0.480469,0
26990,0.55127,-0.560547,0.462891,0
27010,0.554199,-0.550781,0.46582,0
27030,0.571289,-0.589355,0.460938,0
27050,0.568848,-0.636719,0.474121,0
27070,0.549316,-0.635742,0.455566,0
27090,0.566406,-0.645508,0.476074,0
27110,0.583008,-0.61084,0.468262,0
27130,0.568848,-0.599121,0.428711,0
27150,0.568359,-0.585938,0.402344,0
27170,0.559082,-0.57959,0.432617,0
27190,0.540039,-0.577148,0.394531,0
27210,0.522461,-0.679199,0.424805,0
27220,0.490723,-0.692383,0.452148,0
27240,0.423828,-0.633301,0.445312,0
27260,0.341797,-0.619141,0.450684,0
27280,0.353516,-0.631348,0.439453,0
27300,0.361328,-0.603516,0.418457,0
27320,0.319336,-0.540527,0.389648,0
27340,0.300293,-0.482422,0.378418,0
27360,0.316895,-0.505371,0.397949,0
27380,0.345703,-0.522949,0.392578,0
27400,0.322754,-0.549805,0.4375,0
27420,0.38916,-0.443848,0.567383,0
27440,0.527344,-0.367188,0.646973,0
27460,0.555664,-0.293945,0.647461,0
27480,0.494629,-0.200195,0.674805,0
27500,0.455078,-0.134766,0.815918,0
27520,0.577637,-0.217773,1.00391,0
27540,0.570312,-0.119141,1.02832,0
27560,0.344238,0.269043,0.819336,0
27580,0.219727,0.348633,0.936523,0
27600,0.0512695,0.03125,0.986816,0
27620,-0.205078,-0.0917969,1.17871,0
27640,-0.272949,-0.0883789,1.34277,0
27660,-0.173828,-0.287598,1.14111,0
27680,-0.0380859,-0.534668,1.07324,0
27700,0.128906,-0.785156,1.02686,0
27720,0.154785,-0.947266,0.919922,0
27740,0.126953,-1.00146,0.762207,0
27760,0.172363,-0.993652,0.665527,0
27780,0.249512,-0.985352,0.575195,0
27800,0.319336,-0.939941,0.54541,0
27820,0.302734,-0.85498,0.527344,0
27840,0.317383,-0.803711,0.525879,0
27860,0.341797,-0.725586,0.486328,0
27880,0.389648,-0.659668,0.449219,0
27900,0.320801,-0.564453,0.38916,0
27920,0.338379,-0.663086,0.500488,0
27940,0.286133,-0.558105,0.509766,0
27960,0.308594,-0.473633,0.570312,0
27980,0.259766,-0.451172,0.550781,0
28000,0.262695,-0.555664,0.58252,0
28020,0.29834,-0.593262,0.562988,0
28040,0.29248,-0.536133,0.55957,0
28060,0.299316,-0.470215,0.522949,0
28080,0.398438,-0.577148,0.490723,0
28100,0.465332,-0.587891,0.50293,0
28120,0.493164,-0.47168,0.516113,0
28140,0.488281,-0.505371,0.522949,0
28160,0.515625,-0.543457,0.521973,0
28180,0.537598,-0.563965,0.498047,0
28200,0.525391,-0.606934,0.510254,0
28220,0.536621,-0.611328,0.513672,0
28240,0.581543,-0.55957,0.487793,0
28260,0.586914,-0.538086,0.445312,0
28280,0.5625,-0.595703,0.450684,0
28300,0.581055,-0.594238,0.479492,0
28320,0.59668,-0.591797,0.455566,0
28340,0.57959,-0.651855,0.466309,0
28360,0.573242,-0.661621,0.44873,0
28380,0.569336,-0.583008,0.430176,0
28400,0.588379,-0.538574,0.421875,0
28420,0.600098,-0.53418,0.430176,0
28440,0.577637,-0.550293,0.434082,0
28460,0.598633,-0.565918,0.466797,0
28480,0.608887,-0.57959,0.464844,0
28500,0.572266,-0.577637,0.452637,0
28520,0.594238,-0.536133,0.424316,0
28540,0.615723,-0.518066,0.418457,0
28560,0.57373,-0.532715,0.414551,0
28580,0.565918,-0.566406,0.429199,0
28600,0.578613,-0.610352,0.415039,0
28620,0.570801,-0.635742,0.405273,0
28640,0.586914,-0.572754,0.410645,0
28660,0.575195,-0.529785,0.393555,0
28680,0.570312,-0.555664,0.393066,0
28700,0.56543,-0.598145,0.421875,0
28720,0.561523,-0.605469,0.425293,0
28740,0.566895,-0.623535,0.434082,0
28760,0.566895,-0.608887,0.442871,0
28780,0.569824,-0.586914,0.438965,0
28800,0.586426,-0.577148,0.438477,0
28820,0.571777,-0.567383,0.469238,0
28840,0.54248,-0.578125,0.469238,0
28860,0.53125,-0.635254,0.475586,0
28880,0.543945,-0.647949,0.501953,0
28900,0.535645,-0.621094,0.46582,0
28920,0.553223,-0.589355,0.475098,0
28940,0.569824,-0.569336,0.483887,0
28960,0.538086,-0.57959,0.493164,0
28980,0.521973,-0.631348,0.510254,0
29000,0.543457,-0.610352,0.494141,0
29020,0.537598,-0.582031,0.507812,0
29040,0.532715,-0.573242,0.529785,0
29060,0.509766,-0.594727,0.494629,0
29080,0.512207,-0.60498,0.51123,0
29100,0.530762,-0.607422,0.5,0
29120,0.505859,-0.606934,0.494629,0
29140,0.500977,-0.623535,0.505371,0
29160,0.517578,-0.60791,0.479492,0
29180,0.53125,-0.604492,0.510742,0
29200,0.495117,-0.609863,0.546875,0
29220,0.498535,-0.664062,0.532715,0
29240,0.463379,-0.754395,0.466797,0
29260,0.541016,-0.678223,0.458008,0
29280,0.586914,-0.600098,0.475586,0
29300,0.561035,-0.577637,0.469727,0
29320,0.522949,-0.563477,0.46582,0
29340,0.551758,-0.602539,0.501953,0
29360,0.564453,-0.602539,0.516602,0
29380,0.530273,-0.520996,0.512695,0
29400,0.523438,-0.479004,0.505371,0
29420,0.544922,-0.499023,0.516602,0
29440,0.535645,-0.479004,0.524414,0
29460,0.536621,-0.449707,0.523438,0
29480,0.526367,-0.515137,0.515137,0
29500,0.523926,-0.59668,0.497559,0
29520,0.520996,-0.618652,0.516113,0
29540,0.50293,-0.62207,0.525879,0
29560,0.481934,-0.651855,0.52002,0
29580,0.530273,-0.61377,0.54834,0
29600,0.537109,-0.558105,0.527344,0
29620,0.514648,-0.619629,0.555664,0
29640,0.604492,-0.50293,0.54541,0
29660,0.609863,-0.422363,0.506836,0
29680,0.489258,-0.439941,0.493652,0
29700,0.538574,-0.539551,0.523926,0
29720,0.589844,-0.609863,0.516602,0
29740,0.560059,-0.575684,0.486328,0
29760,0.539062,-0.531738,0.495117,0
29780,0.579102,-0.534668,0.493164,0
29800,0.558594,-0.532227,0.506348,0
29820,0.558594,-0.511719,0.503906,0
29840,0.555176,-0.541992,0.526855,0
29850,0.564453,-0.549805,0.521973,0
29870,0.581543,-0.525391,0.516602,0
29890,0.561523,-0.526367,0.495117,0
29910,0.54834,-0.538574,0.47998,0
29930,0.562988,-0.554688,0.508301,0
29950,0.575195,-0.566895,0.503906,0
29970,0.566895,-0.546387,0.507324,0
29990,0.568848,-0.521973,0.495605,0
30010,0.558105,-0.54541,0.512695,0
30030,0.571289,-0.555176,0.51123,0
30050,0.584961,-0.529785,0.513184,0
30070,0.567383,-0.540039,0.503418,0
30090,0.566406,-0.537598,0.499512,0
30110,0.583008,-0.557129,0.496582,0
30130,0.59375,-0.544922,0.47998,0
30150,0.584961,-0.562012,0.470215,0
30170,0.588867,-0.554688,0.470215,0
30190,0.58252,-0.558594,0.45752,0
30210,0.594238,-0.539062,0.458496,0
30230,0.602051,-0.546875,0.475586,0
30250,0.59668,-0.58252,0.472168,0
30270,0.586426,-0.566406,0.442383,0
30290,0.623047,-0.54248,0.438477,0
30310,0.630371,-0.566406,0.452148,0
30330,0.621582,-0.513672,0.411621,0
30340,0.604004,-0.527832,0.395508,0
30360,0.589844,-0.620605,0.413086,0
30380,0.620117,-0.647461,0.384277,0
30400,0.632812,-0.564453,0.374023,0
30420,0.625488,-0.536621,0.360352,0
30440,0.610352,-0.589355,0.365234,0
30460,0.591309,-0.632812,0.391113,0
30480,0.593262,-0.646484,0.38916,0
30500,0.607422,-0.603516,0.385742,0
30520,0.612305,-0.588379,0.378906,0
30550,0.605469,-0.615723,0.389648,0
30570,0.612305,-0.600586,0.379395,0
30590,0.608887,-0.581055,0.381348,0
30610,0.610352,-0.57666,0.391113,0
30630,0.631348,-0.571289,0.406738,0
30650,0.618652,-0.59082,0.395508,0
30670,0.629395,-0.579102,0.394531,0
30690,0.598633,-0.592285,0.399902,0
30710,0.603027,-0.616699,0.409668,0
30730,0.616211,-0.616211,0.390625,0
30750,0.569824,-0.578613,0.394531,0
30770,0.574219,-0.595215,0.4375,0
30790,0.604004,-0.638184,0.408203,0
30810,0.595703,-0.596191,0.415527,0
30830,0.598145,-0.574219,0.416504,0
30850,0.628418,-0.582031,0.388184,0
30870,0.612305,-0.554199,0.423828,0
30890,0.586426,-0.567383,0.436035,0
30910,0.571289,-0.579102,0.434082,0
30930,0.578125,-0.578125,0.431152,0
30950,0.587891,-0.556641,0.445801,0
30970,0.593262,-0.57666,0.420898,0
30990,0.57959,-0.543945,0.430176,0
31010,0.569336,-0.562012,0.484375,0
31030,0.579102,-0.597656,0.47168,0
31050,0.595215,-0.591797,0.458496,0
31070,0.600098,-0.563477,0.496094,0
31090,0.579102,-0.577148,0.492676,0
31110,0.58252,-0.586426,0.461426,0
31130,0.578613,-0.583496,0.474121,0
31150,0.570801,-0.580078,0.499023,0
31170,0.559082,-0.575195,0.486328,0
31190,0.553223,-0.55127,0.47998,0
31210,0.558105,-0.563477,0.50293,0
31230,0.571289,-0.552246,0.505371,0
31250,0.568848,-0.507812,0.486328,0
31270,0.560547,-0.475586,0.472656,0
31290,0.561035,-0.516113,0.509766,0
31310,0.554688,-0.544922,0.526855,0
31330,0.539062,-0.572266,0.509277,0
31350,0.541504,-0.578125,0.499023,0
31370,0.543457,-0.586426,0.510254,0
31390,0.513672,-0.619629,0.516113,0
31410,0.528809,-0.616211,0.490723,0
31430,0.530273,-0.594727,0.504395,0
31450,0.502441,-0.619141,0.513184,0
31470,0.495117,-0.646973,0.499512,0
31490,0.567383,-0.580078,0.476074,0
31510,0.533203,-0.575684,0.476562,0
31530,0.501953,-0.513184,0.502441,0
31550,0.537598,-0.569824,0.517578,0
31570,0.54248,-0.619141,0.517578,0
31590,0.584961,-0.607422,0.467285,0
31610,0.583496,-0.59082,0.44873,0
31630,0.585449,-0.55957,0.479492,0
31650,0.557129,-0.544434,0.475586,0
31670,0.552246,-0.577637,0.479492,0
31690,0.5625,-0.589844,0.489746,0
31710,0.55957,-0.578613,0.47998,0
31730,0.554199,-0.5625,0.47168,0
31750,0.557617,-0.547852,0.472168,0
31770,0.569824,-0.55957,0.481934,0
31790,0.563477,-0.562012,0.462891,0
31810,0.564453,-0.563965,0.45752,0
31830,0.561523,-0.5625,0.451172,0
31850,0.565918,-0.566895,0.462402,0
31870,0.566406,-0.589355,0.455078,0
31890,0.571777,-0.580078,0.466309,0
31910,0.580078,-0.575684,0.460938,0
31930,0.581055,-0.553711,0.455566,0
31950,0.581055,-0.572266,0.46875,0
31970,0.576172,-0.57666,0.467285,0
31990,0.575195,-0.568848,0.459961,0
32010,0.571289,-0.569824,0.476562,0
32030,0.56543,-0.58252,0.465332,0
32050,0.570312,-0.580078,0.475098,0
32070,0.573242,-0.578613,0.481934,0
32090,0.57373,-0.57373,0.465332,0
32110,0.57959,-0.566895,0.449219,0
32130,0.57373,-0.564453,0.455566,0
32150,0.577637,-0.553711,0.469727,0
32170,0.554199,-0.564453,0.483398,0
32190,0.553711,-0.566406,0.467285,0
32210,0.571777,-0.555176,0.479492,0
32230,0.57373,-0.57666,0.472168,0
32250,0.555176,-0.579102,0.469727,0
32270,0.571777,-0.591309,0.474609,0
32290,0.587891,-0.59082,0.473633,0
32310,0.584473,-0.574707,0.475098,0
32330,0.55957,-0.574707,0.473633,0
32350,0.56543,-0.620117,0.491211,0
32370,0.564941,-0.625488,0.478027,0
32390,0.563965,-0.543457,0.467285,0
32410,0.563477,-0.545898,0.46875,0
32430,0.556152,-0.564453,0.458984,0
32440,0.569336,-0.567871,0.46875,0
32460,0.561523,-0.546875,0.461914,0
32480,0.560059,-0.557129,0.46875,0
32500,0.570801,-0.584473,0.481934,0
32520,0.566895,-0.590332,0.46875,0
32540,0.586914,-0.588867,0.466309,0
32560,0.574707,-0.595215,0.446777,0
32580,0.568359,-0.598633,0.45459,0
32600,0.570801,-0.595703,0.462891,0
32620,0.564941,-0.603027,0.457031,0
32640,0.557129,-0.59668,0.461426,0
32660,0.554688,-0.600586,0.478516,0
32680,0.57373,-0.596191,0.462402,0
32700,0.586914,-0.577148,0.45459,0
32720,0.580566,-0.564941,0.452148,0
32740,0.569824,-0.577637,0.435059,0
32760,0.572266,-0.583984,0.443359,0
32780,0.577637,-0.570312,0.45166,0
32800,0.578125,-0.576172,0.447266,0
32820,0.562988,-0.571777,0.446777,0
32840,0.602051,-0.572266,0.463379,0
32860,0.584473,-0.552734,0.458984,0
32880,0.532715,-0.577637,0.453613,0
32900,0.579102,-0.579102,0.476074,0
32920,0.563477,-0.570312,0.447754,0
32940,0.54834,-0.57666,0.443359,0
32960,0.570801,-0.605469,0.458984,0
32980,0.583984,-0.626953,0.438477,0
33000,0.564453,-0.610352,0.436523,0
33020,0.567383,-0.596191,0.455078,0
33040,0.57959,-0.569824,0.450195,0
33060,0.572266,-0.57373,0.452637,0
33080,0.561035,-0.586426,0.452148,0
33100,0.581543,-0.592285,0.44873,0
33120,0.604004,-0.580566,0.448242,0
33140,0.589355,-0.590332,0.452637,0
33160,0.564941,-0.564941,0.460449,0
33180,0.569336,-0.557617,0.446777,0
33200,0.574707,-0.593262,0.458984,0
33220,0.580566,-0.581055,0.454102,0
33240,0.577148,-0.569824,0.44873,0
33260,0.57959,-0.589355,0.458496,0
33280,0.587891,-0.604492,0.458496,0
33300,0.578125,-0.589844,0.443359,0
33320,0.577148,-0.564453,0.452148,0
33340,0.566895,-0.569336,0.454102,0
33360,0.562012,-0.580566,0.458008,0
33380,0.56543,-0.588379,0.463867,0
33400,0.579102,-0.600098,0.450195,0
33420,0.58252,-0.570801,0.431152,0
33440,0.575684,-0.566895,0.441406,0
33460,0.575195,-0.598145,0.460938,0
33480,0.576172,-0.593262,0.447754,0
33500,0.586426,-0.595703,0.446289,0
33520,0.59082,-0.59375,0.437012,0
33540,0.578613,-0.571289,0.444336,0
33560,0.564453,-0.581055,0.443848,0
33580,0.562988,-0.588379,0.445801,0
33600,0.579102,-0.57666,0.467285,0
33620,0.58252,-0.577148,0.456055,0
33640,0.578613,-0.57959,0.453125,0
33660,0.584961,-0.57373,0.44873,0
33680,0.582031,-0.571777,0.45459,0
33700,0.580078,-0.581055,0.44873,0
33720,0.565918,-0.591309,0.442871,0
33740,0.569824,-0.590332,0.462402,0
33760,0.587402,-0.591309,0.453125,0
33780,0.583008,-0.58252,0.450195,0
33800,0.583984,-0.562988,0.453125,0
33820,0.571289,-0.562988,0.455566,0
33840,0.564453,-0.570801,0.456543,0
33860,0.571289,-0.571289,0.449219,0
33880,0.570312,-0.576172,0.467285,0
33900,0.554199,-0.592285,0.464355,0
33920,0.55957,-0.601562,0.469727,0
33940,0.571777,-0.588867,0.462402,0
33960,0.572754,-0.565918,0.461914,0
33980,0.575684,-0.580566,0.466797,0
34000,0.571777,-0.579102,0.452637,0
34020,0.568848,-0.592285,0.441406,0
34040,0.585449,-0.586914,0.465332,0
34060,0.566406,-0.584473,0.454102,0
34080,0.566895,-0.57959,0.445312,0
34100,0.582031,-0.574707,0.455078,0
34120,0.561035,-0.574219,0.46582,0
34140,0.552734,-0.585938,0.462402,0
34160,0.566406,-0.592285,0.46582,0
34180,0.567383,-0.593262,0.456543,0
34200,0.570312,-0.591309,0.457031,0
34220,0.568848,-0.592773,0.45752,0
34240,0.555664,-0.587891,0.451172,0
34260,0.556152,-0.589844,0.45752,0
34280,0.554688,-0.592285,0.46582,0
34300,0.554688,-0.604492,0.469727,0
34320,0.55957,-0.602051,0.46582,0
34340,0.562988,-0.59668,0.47168,0
34360,0.570312,-0.580078,0.460449,0
34380,0.55957,-0.579102,0.470215,0
34400,0.556152,-0.580078,0.470215,0
34420,0.54541,-0.58252,0.456543,0
34440,0.543945,-0.578125,0.472168,0
34460,0.561035,-0.579102,0.474121,0
34480,0.564453,-0.565918,0.466309,0
34500,0.562988,-0.566406,0.461426,0
34520,0.561035,-0.581543,0.466797,0
34540,0.562012,-0.589355,0.463867,0
34560,0.552734,-0.581055,0.467773,0
34580,0.547363,-0.590332,0.485352,0
34600,0.546387,-0.597168,0.481445,0
34620,0.545898,-0.607422,0.495117,0
34640,0.567871,-0.613281,0.492188,0
34660,0.543457,-0.600586,0.462402,0
34680,0.537598,-0.568359,0.474609,0
34700,0.562012,-0.589355,0.48877,0
34720,0.552734,-0.60498,0.50293,0
34740,0.552734,-0.583496,0.494141,0
34760,0.492188,-0.57373,0.505859,0
34780,0.566895,-0.547363,0.427734,0
34800,0.547363,-0.573242,0.472168,0
34820,0.562012,-0.56543,0.493652,0
34840,0.562988,-0.572754,0.483398,0
34860,0.553223,-0.602051,0.491211,0
34880,0.561523,-0.603027,0.484863,0
34900,0.561523,-0.588379,0.469727,0
34920,0.553223,-0.586914,0.47998,0
34940,0.548828,-0.60791,0.48584,0
34960,0.545898,-0.617188,0.480469,0
34980,0.527832,-0.578125,0.470703,0
35000,0.546387,-0.573242,0.470703,0
35020,0.533691,-0.570312,0.483887,0
35040,0.526367,-0.572266,0.481445,0
35060,0.529785,-0.570801,0.493164,0
35070,0.527344,-0.591309,0.498047,0
35090,0.519531,-0.594238,0.491699,0
35110,0.5,-0.589355,0.489746,0
35130,0.504883,-0.58252,0.478027,0
35150,0.514648,-0.574219,0.470703,0
35170,0.509277,-0.566406,0.469238,0
35190,0.494141,-0.550293,0.480957,0
35210,0.481445,-0.553223,0.475098,0
35230,0.474609,-0.568848,0.476562,0
35250,0.459473,-0.589355,0.505371,0
35270,0.457031,-0.58252,0.506836,0
35290,0.45752,-0.598145,0.489746,0
35310,0.458984,-0.595215,0.480469,0
35330,0.420898,-0.602051,0.495605,0
35350,0.397461,-0.597168,0.529297,0
35370,0.387695,-0.639648,0.556152,0
35390,0.347168,-0.677734,0.579102,0
35410,0.35498,-0.662109,0.602051,0
35430,0.370117,-0.66748,0.602051,0
35450,0.334473,-0.671875,0.609863,0
35470,0.269531,-0.686523,0.634766,0
35490,0.257812,-0.68457,0.635742,0
35510,0.270996,-0.675293,0.614258,0
35530,0.239258,-0.62793,0.591797,0
35550,0.187012,-0.619141,0.597656,0
35570,0.166504,-0.602539,0.584473,0
35590,0.196289,-0.62207,0.547852,0
35610,0.193359,-0.589844,0.522461,0
35630,0.195801,-0.5625,0.487793,0
35650,0.211914,-0.557129,0.464355,0
35670,0.226562,-0.546387,0.483398,0
35690,0.146484,-0.555664,0.52832,0
35710,0.0493164,-0.524414,0.54248,0
35730,0.0249023,-0.538086,0.498535,0
35750,-0.0214844,-0.57666,0.537109,0
35770,-0.136719,-0.569336,0.591797,0
35790,-0.210449,-0.625,0.614258,0
35810,-0.32373,-0.719727,0.602539,0
35830,-0.453613,-0.763672,0.605469,0
35850,-0.438965,-0.703125,0.678223,0
35870,-0.339355,-0.880859,1.33057,0
35890,-0.817871,-0.789062,0.47998,0
35910,-0.822266,-0.546387,0.723633,0
35930,-0.689453,-0.699219,1.03174,0
35950,-0.59668,-0.80957,0.98291,0
35970,-0.602051,-0.533203,0.969727,0
35990,-0.577148,-0.459961,0.747559,0
36010,-0.524902,-0.394531,0.70752,0
36030,-0.461426,-0.291504,0.608398,0
36050,-0.450195,-0.297363,0.539551,0
36070,-0.49707,-0.361816,0.521973,0
36090,-0.529785,-0.400391,0.525879,0
36110,-0.594727,-0.479004,0.547363,0
36130,-0.563477,-0.427734,0.558594,0
36150,-0.594238,-0.465332,0.56543,0
36170,-0.618652,-0.570312,0.638672,0
36190,-0.632812,-0.645508,0.685059,0
36210,-0.637207,-0.586426,0.680176,0
36230,-0.649902,-0.511719,0.646973,0
36250,-0.652832,-0.48584,0.618164,0
36270,-0.634766,-0.451172,0.556641,0
36290,-0.615723,-0.458984,0.536621,0
36310,-0.619141,-0.450684,0.533691,0
36330,-0.609863,-0.436035,0.527344,0
36350,-0.619141,-0.446289,0.527832,0
36370,-0.618164,-0.500977,0.558105,0
36390,-0.61377,-0.562012,0.585449,0
36410,-0.619141,-0.577148,0.583984,0
36430,-0.615723,-0.588867,0.566895,0
36450,-0.630859,-0.571289,0.541992,0
36470,-0.630371,-0.535645,0.526855,0
36490,-0.626465,-0.513184,0.520996,0
36510,-0.630859,-0.497559,0.515137,0
36530,-0.635254,-0.496094,0.512207,0
36550,-0.633301,-0.528809,0.52002,0
36570,-0.615234,-0.522461,0.533691,0
36590,-0.605469,-0.557617,0.549316,0
36610,-0.612793,-0.548828,0.546875,0
36630,-0.610352,-0.539062,0.540039,0
36650,-0.610352,-0.523926,0.539551,0
36670,-0.626953,-0.536621,0.537598,0
36690,-0.633301,-0.528809,0.532715,0
36710,-0.623047,-0.507812,0.539062,0
36730,-0.616211,-0.522461,0.531738,0
36750,-0.607422,-0.538574,0.543945,0
36770,-0.609863,-0.539551,0.561523,0
36790,-0.612305,-0.537109,0.547852,0
36810,-0.587402,-0.538086,0.544922,0
36830,-0.601074,-0.533203,0.54834,0
36850,-0.621582,-0.535156,0.549316,0
36870,-0.61377,-0.525879,0.553223,0
36890,-0.617188,-0.530273,0.554199,0
36910,-0.613281,-0.523926,0.550781,0
36930,-0.609863,-0.518555,0.544434,0
36950,-0.604004,-0.508301,0.555176,0
36970,-0.608398,-0.522461,0.560547,0
36990,-0.616699,-0.518555,0.561523,0
37010,-0.604004,-0.524414,0.565918,0
37030,-0.614258,-0.521484,0.557617,0
37050,-0.611328,-0.499512,0.560547,0
37070,-0.612793,-0.51123,0.552734,0
37090,-0.621582,-0.522461,0.553711,0
37110,-0.619141,-0.507812,0.550293,0
37130,-0.62207,-0.513184,0.546387,0
37150,-0.619629,-0.527832,0.554688,0
37170,-0.625488,-0.525391,0.549805,0
37190,-0.622559,-0.517578,0.556152,0
37210,-0.616211,-0.524414,0.558105,0
37230,-0.612305,-0.523438,0.55957,0
37250,-0.616211,-0.515137,0.560547,0
37270,-0.612793,-0.499023,0.55957,0
37290,-0.605469,-0.519043,0.561035,0
37310,-0.609863,-0.51123,0.562012,0
37330,-0.60498,-0.512207,0.566406,0
37350,-0.61084,-0.505859,0.554688,0
37370,-0.615234,-0.514648,0.561035,0
37390,-0.608887,-0.513672,0.551758,0
37410,-0.61084,-0.516602,0.553223,0
37430,-0.614746,-0.522461,0.550293,0
37450,-0.61377,-0.523926,0.550781,0
37470,-0.615234,-0.514648,0.54834,0
37490,-0.620605,-0.532715,0.544922,0
37510,-0.616699,-0.524902,0.546875,0
37530,-0.613281,-0.524902,0.541992,0
37550,-0.618164,-0.517578,0.543457,0
37570,-0.612793,-0.515625,0.549316,0
37590,-0.624512,-0.522949,0.548828,0
37610,-0.625488,-0.518066,0.541016,0
37630,-0.621094,-0.523926,0.541992,0
37650,-0.631348,-0.522949,0.538086,0
37670,-0.626465,-0.522461,0.539062,0
37690,-0.633301,-0.520508,0.540527,0
37710,-0.635254,-0.509766,0.522949,0
37720,-0.618652,-0.575195,0.529785,0
37740,-0.633301,-0.525879,0.530273,0
37760,-0.635742,-0.517578,0.530273,0
37780,-0.627441,-0.508301,0.535645,0
37800,-0.631836,-0.521973,0.541992,0
37820,-0.627441,-0.525391,0.541016,0
37840,-0.633789,-0.512207,0.536621,0
37860,-0.615234,-0.519531,0.538574,0
37880,-0.626465,-0.524902,0.539062,0
37900,-0.625,-0.523926,0.536133,0
37920,-0.62207,-0.518555,0.531738,0
37940,-0.633789,-0.524414,0.537109,0
37960,-0.630371,-0.513672,0.539551,0
37980,-0.634277,-0.510742,0.533203,0
38000,-0.634277,-0.513184,0.534668,0
38020,-0.638672,-0.520996,0.532227,0
38040,-0.638184,-0.519531,0.536133,0
38060,-0.638184,-0.513672,0.527832,0
38080,-0.638184,-0.514648,0.524902,0
38100,-0.641113,-0.521484,0.52832,0
38120,-0.632324,-0.520996,0.525391,0
38140,-0.628906,-0.529297,0.53418,0
38160,-0.626465,-0.530762,0.538086,0
38180,-0.625977,-0.522461,0.54248,0
38200,-0.626465,-0.527832,0.541992,0
38220,-0.615234,-0.524414,0.542969,0
38240,-0.618652,-0.51709,0.54834,0
38260,-0.629395,-0.51709,0.539551,0
38280,-0.623535,-0.515625,0.539551,0
38300,-0.630371,-0.519531,0.53125,0
38320,-0.634766,-0.522949,0.534668,0
38340,-0.633301,-0.519043,0.537598,0
38360,-0.638184,-0.526855,0.539062,0
38380,-0.629395,-0.526855,0.534668,0
38400,-0.631836,-0.527344,0.535645,0
38420,-0.624512,-0.522949,0.530762,0
38440,-0.630371,-0.526855,0.539551,0
38460,-0.624512,-0.518555,0.541992,0
38480,-0.628418,-0.520996,0.540039,0
38500,-0.625,-0.522949,0.53125,0
38520,-0.626953,-0.519531,0.535645,0
38540,-0.627441,-0.52002,0.53125,0
38560,-0.624023,-0.535645,0.540527,0
38580,-0.62793,-0.530273,0.532715,0
38600,-0.62793,-0.53125,0.535645,0
38620,-0.632324,-0.526855,0.530273,0
38640,-0.625977,-0.531738,0.539062,0
38660,-0.627441,-0.530762,0.524902,0
38680,-0.626953,-0.53125,0.531738,0
38700,-0.626953,-0.534668,0.525391,0
38720,-0.621582,-0.539062,0.533203,0
38740,-0.630859,-0.524902,0.528809,0
38760,-0.625,-0.537598,0.532227,0
38780,-0.642578,-0.539062,0.530762,0
38800,-0.634277,-0.543945,0.530273,0
38820,-0.619141,-0.520508,0.535156,0
38840,-0.614746,-0.525879,0.52832,0
38860,-0.611328,-0.523438,0.525391,0
38880,-0.61084,-0.537598,0.527344,0
38900,-0.610352,-0.556641,0.523926,0
38920,-0.625488,-0.552734,0.521484,0
38940,-0.630371,-0.560547,0.516113,0
38960,-0.648438,-0.574707,0.520996,0
38980,-0.634277,-0.549316,0.526367,0
39000,-0.638184,-0.544434,0.538574,0
39020,-0.648438,-0.563965,0.530762,0
39040,-0.62207,-0.566406,0.543457,0
39060,-0.617188,-0.548828,0.543457,0
39080,-0.618652,-0.5625,0.529297,0
39100,-0.625,-0.550293,0.541992,0
39120,-0.60791,-0.557617,0.525879,0
39140,-0.602539,-0.57959,0.506348,0
39160,-0.598633,-0.609863,0.496094,0
39180,-0.607422,-0.606934,0.494629,0
39200,-0.604492,-0.637207,0.486328,0
39220,-0.594727,-0.673828,0.491699,0
39240,-0.589844,-0.682617,0.493164,0
39260,-0.573242,-0.687988,0.497559,0
39280,-0.549805,-0.676758,0.510742,0
39300,-0.554688,-0.704102,0.492676,0
39320,-0.544434,-0.737793,0.500488,0
39340,-0.514648,-0.709473,0.49707,0
39360,-0.495605,-0.693848,0.516113,0
39380,-0.510742,-0.746094,0.51709,0
39400,-0.506348,-0.785156,0.521484,0
39420,-0.515625,-0.82666,0.561035,0
39440,-0.463379,-0.708496,0.533691,0
39460,-0.438477,-0.651855,0.474609,0
39480,-0.40625,-0.656738,0.505859,0
39500,-0.387207,-0.720703,0.524902,0
39520,-0.369141,-0.776367,0.530762,0
39540,-0.348633,-0.756348,0.521973,0
39560,-0.325684,-0.719727,0.513672,0
39580,-0.299316,-0.709961,0.507324,0
39600,-0.288574,-0.724609,0.503418,0
39620,-0.270996,-0.77002,0.525879,0
39640,-0.262207,-0.777832,0.531738,0
39660,-0.247559,-0.791504,0.523926,0
39680,-0.214844,-0.799316,0.525879,0
39700,-0.155273,-0.827148,0.535645,0
39720,-0.10791,-0.89209,0.538574,0
39740,-0.0708008,-0.92627,0.566406,0
39760,-0.0263672,-0.9375,0.568359,0
39780,0.00292969,-0.939453,0.567383,0
39800,0.0170898,-0.911133,0.563477,0
39820,0.00732422,-0.845215,0.539062,0
39840,0.00683594,-0.79248,0.527832,0
39860,0.015625,-0.765625,0.513672,0
39880,0.00390625,-0.754395,0.501953,0
39900,-0.00488281,-0.718262,0.506348,0
39920,0.0170898,-0.691895,0.485352,0
39940,0.0205078,-0.652344,0.483398,0
39960,0.0224609,-0.598145,0.47168,0
39980,0.0522461,-0.593262,0.448242,0
40000,0.0922852,-0.598145,0.442871,0
40020,0.145996,-0.614746,0.456543,0
40040,0.182617,-0.635742,0.462891,0
40060,0.208984,-0.658691,0.465332,0
40080,0.228516,-0.678223,0.464355,0
40100,0.255859,-0.678223,0.48877,0
40120,0.282715,-0.697754,0.497559,0
40140,0.289062,-0.724609,0.500977,0
40160,0.284668,-0.766113,0.507812,0
40180,0.279297,-0.782227,0.516602,0
40200,0.271973,-0.774414,0.53418,0
40220,0.278809,-0.787109,0.522461,0
40240,0.312988,-0.804199,0.521484,0
40260,0.31543,-0.804199,0.526367,0
40280,0.334961,-0.791504,0.52832,0
40300,0.357422,-0.818359,0.518555,0
40320,0.362305,-0.817871,0.513184,0
40330,0.350586,-0.820801,0.513184,0
40350,0.344238,-0.819824,0.516602,0
40370,0.333984,-0.811523,0.52002,0
40390,0.318848,-0.780273,0.518066,0
40410,0.333008,-0.762207,0.505371,0
40430,0.348633,-0.747559,0.506348,0
40450,0.336426,-0.730469,0.510742,0
40470,0.352539,-0.720703,0.508789,0
40490,0.36377,-0.724609,0.490723,0
40510,0.355957,-0.709473,0.475098,0
40530,0.35498,-0.70166,0.475098,0
40550,0.352539,-0.700684,0.462402,0
40570,0.345703,-0.691895,0.464355,0
40590,0.369141,-0.696289,0.46582,0
40610,0.37207,-0.703125,0.446289,0
40630,0.352051,-0.713379,0.444336,0
40650,0.355469,-0.714844,0.462891,0
40670,0.336914,-0.731934,0.475098,0
40690,0.309082,-0.736328,0.465332,0
40710,0.327637,-0.731445,0.458008,0
40730,0.358398,-0.737793,0.44873,0
40750,0.34375,-0.745117,0.463379,0
40770,0.32373,-0.741699,0.453613,0
40790,0.342773,-0.75293,0.4375,0
40810,0.359863,-0.741211,0.431641,0
40830,0.367676,-0.723633,0.437012,0
40850,0.380859,-0.742676,0.429199,0
40870,0.367188,-0.754395,0.420898,0
40890,0.366211,-0.743164,0.416504,0
40910,0.354492,-0.742188,0.422363,0
40930,0.334961,-0.757324,0.442871,0
40950,0.341309,-0.75,0.437012,0
40970,0.349121,-0.75,0.424805,0
40990,0.34082,-0.745117,0.430176,0
41010,0.321777,-0.74707,0.433105,0
41030,0.329102,-0.760254,0.429199,0
41050,0.331055,-0.77832,0.438477,0
41070,0.331055,-0.75,0.429688,0
41090,0.338379,-0.76709,0.407227,0
41110,0.339844,-0.771973,0.414551,0
41130,0.318359,-0.770508,0.419434,0
41150,0.27832,-0.803223,0.436523,0
41170,0.257324,-0.824219,0.450195,0
41190,0.25,-0.848145,0.454102,0
41210,0.239258,-0.843262,0.45459,0
41230,0.245605,-0.793945,0.458496,0
41250,0.237305,-0.76416,0.446777,0
41270,0.231445,-0.780762,0.456055,0
41290,0.223633,-0.801758,0.454102,0
41310,0.200195,-0.814941,0.456055,0
41330,0.194824,-0.836914,0.455566,0
41350,0.213379,-0.80957,0.451172,0
41370,0.222168,-0.778809,0.442383,0
41390,0.20459,-0.807129,0.445801,0
41410,0.175781,-0.829102,0.451172,0
41430,0.189941,-0.822754,0.456055,0
41450,0.195801,-0.827637,0.463867,0
41470,0.186035,-0.807129,0.452148,0
41490,0.182617,-0.797852,0.439941,0
41510,0.168457,-0.789551,0.447754,0
41530,0.163086,-0.800781,0.462891,0
41550,0.178711,-0.826172,0.456543,0
41570,0.191895,-0.827637,0.446777,0
41590,0.180664,-0.829102,0.452148,0
41610,0.191406,-0.822266,0.43457,0
41610,0.208496,-0.815918,0.430664,0
41630,0.203125,-0.806152,0.437012,0
41650,0.161621,-0.802246,0.463867,0
41670,0.366211,-0.871582,0.490723,0
41700,0.364746,-0.967285,0.646973,0
41730,-0.130371,-0.723633,0.232422,0
41750,0.167969,-1.05322,0.73584,0
41770,0.63916,-0.850586,0.654785,0
41790,0.696777,-0.681152,0.48584,0
41810,0.735352,-0.669922,0.512207,0
41830,0.724609,-0.804688,0.691895,2000
41850,0.276855,-1.05859,0.830078,0
41870,-0.45752,-1.01172,0.393066,0
41890,0.379395,-0.580566,0.188965,0
41910,0.239746,-1.02686,0.819336,0
41930,0.0234375,-0.595215,0.0727539,0
41950,0.0556641,-1.03516,0.755859,0
41970,0.672852,-0.614746,0.430176,0
41990,-0.40918,-0.816895,0.09375,0
42010,-0.197266,-1.09521,0.621582,0
42030,0.51123,-0.969238,0.851562,0
42050,0.817871,-0.739746,0.746094,0
42070,0.813477,-0.633301,0.611328,0
42090,0.779297,-0.642578,0.58252,0
42110,0.822754,-0.698242,0.698242,0
42130,0.73584,-0.837402,0.857422,0
42150,0.251953,-1.03662,0.788086,0
42170,-0.381348,-1.04102,0.328613,0
42190,-0.146973,-0.716309,0.0239258,0
42210,0.816895,-0.621582,0.657227,0
42230,0.0458984,-1.05762,0.65332,0
42250,-0.0327148,-0.69873,0.0336914,0
42270,0.67627,-0.862305,0.897949,0
42290,-0.327148,-0.82373,-0.0161133,0
42310,0.682129,-0.836914,0.901367,0
42330,-0.0678711,-0.700195,0.000976562,0
42350,0.0151367,-1.04883,0.62207,0
42370,0.78418,-0.580566,0.66748,0
42390,-0.257324,-0.793945,-0.0673828,0
42410,-0.195801,-1.07568,0.4375,0
42430,0.666016,-0.810059,0.944336,0
42450,0.719238,-0.560059,0.598633,0
42470,0.0527344,-0.674316,0.0332031,0
42490,-0.413086,-0.989258,0.0229492,0
42510,-0.0258789,-1.0752,0.57666,0
42530,0.675293,-0.82666,0.959473,0
42550,0.817871,-0.585938,0.651855,0
42570,0.224609,-0.646484,0.0810547,0
42590,-0.342773,-0.916504,-0.0537109,0
42590,-0.182129,-1.08838,0.378418,0
42650,0.847656,-0.662109,0.751465,0
42670,0.23291,-0.96875,0.623535,0
42690,0.267578,-0.8125,0.411621,0
42710,0.234863,-0.816406,0.402344,0
42730,0.259766,-0.816406,0.424316,0
42750,0.257324,-0.834473,0.431152,0
42770,0.250488,-0.825684,0.423828,0
42790,0.29541,-0.993652,0.720703,0
42810,0.852051,-0.580566,0.523438,0
42830,-0.345703,-1.02197,0.125977,0
42850,0.275879,-1.02686,0.726562,0
42870,0.816406,-0.811523,0.932129,0
42890,0.884766,-0.60498,0.683105,0
42910,0.544922,-0.565918,0.269043,0
42930,0.0869141,-0.690918,-0.0473633,0
42950,-0.278809,-0.905273,-0.0874023,0
42970,-0.240723,-1.04883,0.234863,0
42980,-0.0219727,-0.982422,0.538086,0
43000,0.213867,-0.790039,0.368164,0
43020,0.295898,-0.801758,0.407227,0
43040,0.27002,-0.793945,0.394531,0
43060,0.291016,-0.807129,0.387207,0
43080,0.299805,-0.814941,0.399902,0
43100,0.271973,-0.806641,0.392578,0
43120,0.265137,-0.806641,0.404297,0
43140,0.282715,-0.80127,0.42334,0
43160,0.290039,-0.797363,0.40625,0
43180,0.302734,-0.793457,0.383789,0
43200,0.330078,-0.786133,0.40332,0
43220,0.346191,-0.809082,0.400879,0
43240,0.340332,-0.824219,0.385254,0
43260,0.33252,-0.824707,0.394531,0
43280,0.362305,-0.810547,0.411621,0
43300,0.370605,-0.816406,0.414062,0
43320,0.349609,-0.802246,0.386719,0
43340,0.351562,-0.779297,0.38623,0
43360,0.366699,-0.771484,0.40332,0
43380,0.361816,-0.793945,0.381348,0
43400,0.372559,-0.795898,0.367676,0
43420,0.420898,-0.788574,0.375488,0
43440,0.411621,-0.79541,0.372559,0
43460,0.381836,-0.800781,0.368652,0
43480,0.394531,-0.788086,0.37793,0
43500,0.403809,-0.779785,0.388184,0
43520,0.384277,-0.780273,0.384277,0
43540,0.371582,-0.777344,0.375977,0
43560,0.387695,-0.778809,0.383301,0
43580,0.37793,-0.78125,0.369141,0
43600,0.368164,-0.785156,0.371094,0
43620,0.397949,-0.778809,0.385254,0
43640,0.393555,-0.761719,0.376953,0
43660,0.381348,-0.768066,0.380859,0
43680,0.389648,-0.754883,0.379395,0
43700,0.390137,-0.765137,0.365234,0
43720,0.379395,-0.776367,0.339355,0
43740,0.392578,-0.781738,0.334961,0
43760,0.437012,-0.781738,0.365234,0
43780,0.439453,-0.786133,0.363281,0
43800,0.428223,-0.78125,0.354492,0
43820,0.444336,-0.772461,0.369629,0
43840,0.460938,-0.772461,0.38623,0
43860,0.429688,-0.791016,0.368652,0
43880,0.44043,-0.771973,0.353516,0
43900,0.458984,-0.758301,0.364258,0
43920,0.434082,-0.773438,0.358887,0
43940,0.416016,-0.769043,0.353027,0
43960,0.42041,-0.754883,0.358887,0
43980,0.411621,-0.765625,0.361328,0
44000,0.407715,-0.782715,0.354004,0
44020,0.404785,-0.780762,0.352051,0
44040,0.412598,-0.773926,0.359375,0
44060,0.438477,-0.766113,0.368164,0
44080,0.440918,-0.758301,0.348633,0
44100,0.429199,-0.76709,0.342285,0
44120,0.43457,-0.765137,0.353027,0
44140,0.464355,-0.771484,0.375488,0
44160,0.480469,-0.777344,0.383789,0
44180,0.460938,-0.771973,0.365723,0
44200,0.457031,-0.740723,0.353027,0
44220,0.443848,-0.754395,0.361328,0
44240,0.439453,-0.777344,0.369141,0
44260,0.42334,-0.771973,0.356934,0
44280,0.425293,-0.763184,0.32666,0
44300,0.450195,-0.743652,0.328125,0
44320,0.466797,-0.743164,0.341309,0
44340,0.448242,-0.771484,0.345215,0
44360,0.465332,-0.776855,0.348633,0
44380,0.495117,-0.753906,0.355469,0
44400,0.496094,-0.732422,0.356934,0
44410,0.507324,-0.729004,0.355957,0
44430,0.527832,-0.729492,0.342285,0
44450,0.52832,-0.736328,0.359375,0
44470,0.525391,-0.731934,0.350586,0
44490,0.528809,-0.749512,0.349609,0
44510,0.523438,-0.735352,0.349121,0
44530,0.518066,-0.705078,0.349121,0
44550,0.520508,-0.71582,0.338867,0
44570,0.542969,-0.734863,0.32959,0
44590,0.52832,-0.725098,0.352539,0
44610,0.508301,-0.724609,0.349121,0
44630,0.496582,-0.745117,0.309082,0
44650,0.474121,-0.70166,0.3125,0
44670,0.493652,-0.693359,0.323242,0
44690,0.491211,-0.74707,0.348633,0
44710,0.493652,-0.773926,0.360352,0
44730,0.51123,-0.749512,0.36377,0
44750,0.519531,-0.704102,0.365723,0
44770,0.539062,-0.678711,0.355469,0
44790,0.544922,-0.679688,0.352051,0
44810,0.533691,-0.694824,0.375977,0
44830,0.521484,-0.706055,0.391602,0
44850,0.533691,-0.727051,0.393555,0
44860,0.530273,-0.700684,0.373535,0
44880,0.521973,-0.680664,0.36377,0
44900,0.499512,-0.687988,0.367676,0
44920,0.491699,-0.695312,0.367676,0
44940,0.495605,-0.672852,0.375977,0
44960,0.511719,-0.703125,0.356934,0
44980,0.503906,-0.725586,0.364746,0
45000,0.51416,-0.729492,0.361816,0
45020,0.53418,-0.71582,0.364258,0
45040,0.546387,-0.700684,0.347656,0
45060,0.541992,-0.703125,0.345703,0
45080,0.527832,-0.720215,0.352051,0
45100,0.520508,-0.734863,0.36377,0
45120,0.541504,-0.716309,0.355469,0
45140,0.538086,-0.712891,0.353516,0
45160,0.512695,-0.716309,0.361816,0
45180,0.526367,-0.700195,0.366211,0
45200,0.519531,-0.69873,0.356445,0
45220,0.464844,-0.714355,0.380371,0
45240,0.469238,-0.701172,0.383789,0
45260,0.496094,-0.696289,0.373535,0
45280,0.506348,-0.697266,0.371582,0
45300,0.487305,-0.737305,0.366699,0
45320,0.486816,-0.732422,0.37207,0
45340,0.505859,-0.713379,0.368652,0
45360,0.496582,-0.742188,0.359863,0
45380,0.48291,-0.740234,0.380859,0
45400,0.490723,-0.722656,0.37793,0
45420,0.469238,-0.739258,0.37793,0
45440,0.482422,-0.732422,0.376953,0
45460,0.500977,-0.71875,0.381348,0
45480,0.50293,-0.733887,0.382324,0
45500,0.492676,-0.749023,0.37793,0
45520,0.478516,-0.745117,0.39502,0
45540,0.486816,-0.721191,0.378906,0
45560,0.482422,-0.727539,0.371582,0
45580,0.481934,-0.734375,0.380859,0
45600,0.466309,-0.737793,0.38916,0
45620,0.46875,-0.743652,0.372559,0
45640,0.478516,-0.737793,0.371582,0
45660,0.458984,-0.717773,0.366211,0
45680,0.459961,-0.73584,0.370605,0
45700,0.464355,-0.741211,0.37793,0
45720,0.456543,-0.732422,0.372559,0
45740,0.430664,-0.748535,0.368164,0
45760,0.424805,-0.750977,0.388672,0
45780,0.429688,-0.730957,0.38916,0
45800,0.416016,-0.742188,0.381348,0
45820,0.40332,-0.766602,0.395508,0
45840,0.412109,-0.753906,0.394043,0
45860,0.410156,-0.752441,0.369141,0
45880,0.418945,-0.744629,0.368164,0
45900,0.441406,-0.737793,0.364746,0
45920,0.427734,-0.739258,0.378418,0
45940,0.427734,-0.745117,0.373047,0
45960,0.436523,-0.754883,0.371582,0
45980,0.427246,-0.763672,0.378418,0
46000,0.412109,-0.762695,0.375977,0
46020,0.413574,-0.749512,0.379883,0
46040,0.413574,-0.753906,0.377441,0
46060,0.427734,-0.743164,0.387695,0
46080,0.431641,-0.75,0.39209,0
46100,0.423828,-0.769531,0.372559,0
46120,0.407715,-0.761719,0.390625,0
46140,0.410156,-0.76123,0.396973,0
46160,0.429199,-0.769043,0.400391,0
46180,0.419922,-0.765625,0.409668,0
46200,0.410645,-0.758789,0.404297,0
46220,0.435547,-0.763184,0.401367,0
46240,0.424805,-0.770996,0.407227,0
46260,0.391113,-0.772949,0.404785,0
46280,0.407227,-0.764648,0.383789,0
46300,0.430664,-0.739746,0.381836,0
46320,0.419922,-0.74707,0.38623,0
46340,0.394531,-0.765625,0.375,0
46360,0.411621,-0.771973,0.375,0
46380,0.439941,-0.766113,0.379883,0
46400,0.409668,-0.765137,0.375,0
46420,0.384277,-0.757812,0.38623,0
46440,0.40625,-0.770996,0.380371,0
46460,0.398438,-0.777832,0.38623,0
46480,0.396484,-0.755371,0.384766,0
46500,0.394043,-0.750977,0.382324,0
46520,0.37793,-0.76416,0.38916,0
46540,0.373535,-0.779785,0.419434,0
46560,0.391602,-0.786133,0.404785,0
46580,0.390137,-0.774902,0.385742,0
46600,0.378418,-0.759277,0.395508,0
46620,0.372559,-0.757812,0.399902,0
46640,0.385742,-0.791504,0.392578,0
46660,0.378418,-0.790527,0.396973,0
46680,0.353027,-0.772461,0.397949,0
46700,0.364746,-0.768066,0.399414,0
46720,0.344727,-0.789551,0.40625,0
46740,0.335449,-0.796875,0.412598,0
46760,0.350098,-0.788086,0.40332,0
46780,0.358398,-0.770996,0.394531,0
46800,0.354004,-0.780762,0.385742,0
46820,0.345215,-0.779785,0.398438,0
46840,0.333984,-0.797852,0.40918,0
46860,0.34668,-0.80957,0.401367,0
46880,0.349121,-0.78418,0.397949,0
46900,0.340332,-0.786621,0.395508,0
46920,0.33252,-0.799316,0.395508,0
46940,0.329102,-0.798828,0.396973,0
46960,0.340332,-0.794922,0.380371,0
46980,0.356445,-0.787109,0.393066,0
47000,0.33252,-0.797852,0.393555,0
47020,0.336426,-0.804688,0.384277,0
47040,0.374023,-0.800293,0.382324,0
47060,0.35791,-0.80127,0.403809,0
47080,0.325195,-0.817383,0.391113,0
47100,0.325684,-0.834473,0.403809,0
47120,0.349121,-0.808594,0.416992,0
47140,0.328613,-0.783203,0.402832,0
47160,0.332031,-0.788086,0.387695,0
47180,0.351074,-0.794922,0.399902,0
47200,0.341797,-0.808105,0.392578,0
47220,0.34668,-0.804688,0.385254,0
47240,0.337891,-0.796875,0.39209,0
47260,0.336426,-0.79834,0.391113,0
47280,0.333496,-0.805176,0.38916,0
47300,0.333984,-0.808105,0.38623,0
47320,0.337891,-0.805176,0.401367,0
47340,0.316895,-0.799805,0.382324,0
47360,0.310547,-0.799316,0.387695,0
47380,0.320312,-0.808594,0.391113,0
47400,0.333008,-0.799316,0.38623,0
47420,0.337402,-0.793945,0.379395,0
47440,0.308594,-0.808105,0.384766,0
47460,0.32373,-0.82959,0.378906,0
47480,0.339355,-0.817871,0.381836,0
47500,0.315918,-0.798828,0.395508,0
47520,0.32666,-0.818848,0.378906,0
47540,0.342285,-0.810547,0.389648,0
47560,0.328125,-0.807129,0.399902,0
47580,0.326172,-0.815918,0.401367,0
47600,0.317871,-0.811523,0.40332,0
47620,0.313965,-0.794922,0.404297,0
47640,0.323242,-0.793457,0.40332,0
47660,0.324219,-0.791504,0.392578,0
47680,0.311523,-0.777344,0.394531,0
47700,0.32959,-0.788574,0.395996,0
47720,0.330078,-0.809082,0.405762,0
47740,0.303223,-0.805664,0.39502,0
47760,0.317871,-0.800781,0.386719,0
47780,0.320312,-0.802734,0.396973,0
47800,0.304199,-0.807129,0.386719,0
47820,0.313477,-0.808594,0.371094,0
47840,0.305664,-0.800781,0.371582,0
47860,0.298828,-0.808105,0.396484,0
47880,0.309082,-0.827148,0.375,0
47900,0.313477,-0.818359,0.369141,0
47920,0.313965,-0.808105,0.379395,0
47940,0.318848,-0.824219,0.37793,0
47960,0.305664,-0.828613,0.375977,0
47980,0.316406,-0.827148,0.365723,0
48000,0.331543,-0.83252,0.370605,0
48020,0.334961,-0.838867,0.379883,0
48040,0.317383,-0.832031,0.366211,0
48060,0.30957,-0.84082,0.363281,0
48080,0.316895,-0.836914,0.370117,0
48100,0.297363,-0.828613,0.368164,0
48120,0.308105,-0.829102,0.35791,0
48140,0.309082,-0.834961,0.361328,0
48160,0.303223,-0.832031,0.35498,0
48180,0.311523,-0.810059,0.333496,0
48200,0.310059,-0.806152,0.32666,0
48210,0.308594,-0.817383,0.334961,0
48230,0.303223,-0.812988,0.311523,0
48250,0.3125,-0.819824,0.307617,0
48270,0.297363,-0.819824,0.319824,0
48290,0.293945,-0.822754,0.319336,0
48310,0.313965,-0.844727,0.309082,0
48330,0.293945,-0.848633,0.322754,0
48350,0.28125,-0.840332,0.322266,0
48370,0.320801,-0.850586,0.320801,0
48390,0.316406,-0.868164,0.351074,0
48410,0.296387,-0.864746,0.337402,0
48430,0.326172,-0.856934,0.318848,0
48450,0.349121,-0.851562,0.337891,0
48470,0.310547,-0.865723,0.338867,0
48490,0.288086,-0.856934,0.302734,0
48510,0.305664,-0.847168,0.29834,0
48530,0.304199,-0.873535,0.324707,0
48550,0.294922,-0.862793,0.310059,0
48570,0.314453,-0.849609,0.293457,0
48590,0.309082,-0.835938,0.299316,0
48610,0.296875,-0.846191,0.307617,0
48630,0.294434,-0.866211,0.29834,0
48650,0.304199,-0.864258,0.296875,0
48670,0.294434,-0.852051,0.319824,0
48690,0.300293,-0.831055,0.31543,0
48710,0.321777,-0.845703,0.302246,0
48730,0.320801,-0.862305,0.319336,0
48750,0.296875,-0.853027,0.31543,0
48770,0.311035,-0.836426,0.309082,0
48790,0.354004,-0.851562,0.288574,0
48810,0.34082,-0.836426,0.299805,0
48830,0.349609,-0.81543,0.282227,0
48850,0.375,-0.862305,0.303711,0
48870,0.350586,-0.858398,0.305664,0
48890,0.34082,-0.849609,0.287109,0
48910,0.359863,-0.852051,0.280762,0
48930,0.353516,-0.851074,0.292969,0
48950,0.327637,-0.827637,0.287109,0
48970,0.335449,-0.850098,0.260742,0
48990,0.364258,-0.861816,0.257812,0
49010,0.352051,-0.865234,0.277344,0
49030,0.359863,-0.857422,0.277344,0
49050,0.386719,-0.844238,0.26123,0
49070,0.388672,-0.84668,0.260254,0
49090,0.379883,-0.836426,0.271484,0
49110,0.381348,-0.830078,0.270996,0
49130,0.382324,-0.852051,0.255371,0
49150,0.375,-0.855957,0.266602,0
49170,0.371094,-0.841309,0.283203,0
49190,0.396484,-0.838379,0.268066,0
49210,0.436035,-0.818359,0.23291,0
49230,0.428711,-0.808594,0.247559,0
49250,0.410156,-0.835938,0.256348,0
49270,0.40918,-0.877441,0.251953,0
49290,0.426758,-0.86084,0.26709,0
49310,0.435547,-0.80957,0.283691,0
49330,0.421875,-0.81543,0.233887,0
49350,0.440918,-0.819336,0.230957,0
49370,0.464355,-0.820801,0.254883,0
49390,0.430664,-0.824219,0.258789,0
49410,0.418457,-0.832031,0.244141,0
49430,0.451172,-0.816406,0.23584,0
49450,0.491699,-0.81543,0.245117,0
49470,0.474609,-0.805176,0.246094,0
49490,0.477539,-0.808594,0.230957,0
49510,0.501953,-0.794922,0.240234,0
49530,0.487793,-0.793945,0.25,0
49550,0.470703,-0.817383,0.243164,0
49570,0.488281,-0.814453,0.242676,0
49590,0.490723,-0.794922,0.255371,0
49610,0.473633,-0.780273,0.244141,0
49630,0.486816,-0.786621,0.217773,0
49650,0.498535,-0.798828,0.227051,0
49670,0.502441,-0.780762,0.238281,0
49690,0.496094,-0.770508,0.23584,0
49710,0.496094,-0.77832,0.218262,0
49730,0.495605,-0.766113,0.233887,0
49750,0.486328,-0.756836,0.240234,0
49770,0.51123,-0.77832,0.235352,0
49790,0.520508,-0.782715,0.217773,0
49810,0.51709,-0.78125,0.208496,0
49830,0.535645,-0.796387,0.208008,0
49850,0.548828,-0.800781,0.209473,0
49870,0.523438,-0.774902,0.213379,0
49890,0.503906,-0.776855,0.211914,0
49910,0.536621,-0.783203,0.211426,0
49930,0.545898,-0.773926,0.221191,0
49950,0.527344,-0.765137,0.219238,0
49970,0.528809,-0.77832,0.211426,0
49990,0.54834,-0.78125,0.237793,0
50010,0.544434,-0.766602,0.227051,0
50030,0.514648,-0.748535,0.215332,0
50050,0.532227,-0.762695,0.213379,0
50070,0.537598,-0.747559,0.23291,0
50090,0.535645,-0.766113,0.231445,0
50100,0.554199,-0.781738,0.229004,0
50120,0.550781,-0.770508,0.24707,0
50140,0.530762,-0.753906,0.244629,0
50160,0.538574,-0.758789,0.236816,0
50180,0.558594,-0.755371,0.240234,0
50200,0.54541,-0.748535,0.244141,0
50220,0.541504,-0.74707,0.239746,0
50240,0.566406,-0.75,0.227051,0
50260,0.561523,-0.749023,0.23584,0
50280,0.557617,-0.746094,0.23584,0
50300,0.560547,-0.740234,0.236328,0
50320,0.565918,-0.744141,0.232422,0
50340,0.552734,-0.739258,0.23877,0
50360,0.550781,-0.74707,0.239746,0
50380,0.567871,-0.746094,0.226074,0
50400,0.560059,-0.732422,0.23291,0
50420,0.546875,-0.745605,0.231934,0
50440,0.571289,-0.740723,0.237305,0
50460,0.57666,-0.736816,0.233887,0
50480,0.571289,-0.745117,0.242188,0
50500,0.571777,-0.739258,0.240234,0
50520,0.565918,-0.73584,0.239258,0
50540,0.573242,-0.730957,0.231445,0
50560,0.583984,-0.71582,0.239746,0
50580,0.567871,-0.719238,0.241699,0
50600,0.562012,-0.75,0.237305,0
50620,0.569336,-0.753418,0.237305,0
50640,0.562012,-0.728516,0.243652,0
50660,0.541504,-0.749023,0.230957,0
50680,0.562988,-0.745605,0.227539,0
50700,0.562988,-0.746094,0.239258,0
50720,0.558105,-0.75293,0.230469,0
50740,0.594727,-0.736816,0.226562,0
50760,0.59082,-0.729492,0.227051,0
50780,0.564941,-0.749023,0.231445,0
50800,0.590332,-0.73877,0.23291,0
50820,0.594238,-0.725586,0.249023,0
50840,0.57666,-0.735352,0.230469,0
50860,0.585938,-0.731445,0.226562,0
50880,0.594727,-0.721191,0.238281,0
50900,0.599609,-0.724609,0.227539,0
50920,0.600098,-0.719238,0.219238,0
50940,0.600586,-0.719727,0.223633,0
50960,0.597656,-0.732422,0.237305,0
50980,0.594727,-0.737793,0.22998,0
51000,0.60791,-0.724121,0.227051,0
51020,0.604004,-0.719727,0.224121,0
51040,0.609375,-0.70752,0.22168,0
51060,0.616699,-0.705078,0.229004,0
51080,0.620117,-0.712891,0.21875,0
51100,0.60791,-0.714844,0.234375,0
51120,0.599121,-0.715332,0.242188,0
51140,0.599609,-0.694336,0.254395,0
51160,0.567383,-0.689453,0.254395,0
51180,0.541992,-0.672852,0.252441,0
51200,0.578613,-0.658691,0.23584,0
51220,0.604004,-0.668945,0.243164,0
51240,0.59082,-0.695801,0.268555,0
51260,0.588867,-0.713867,0.274414,0
51280,0.616699,-0.728027,0.241699,0
51300,0.60791,-0.697754,0.260742,0
51320,0.587891,-0.690918,0.274414,0
51340,0.586914,-0.717285,0.263672,0
51360,0.577637,-0.730957,0.277344,0
51380,0.591309,-0.724609,0.274414,0
51400,0.588867,-0.710938,0.264648,0
51420,0.57959,-0.698242,0.255859,0
51440,0.578125,-0.678711,0.252441,0
51460,0.575684,-0.669922,0.254883,0
51480,0.579102,-0.702637,0.257324,0
51500,0.591309,-0.720215,0.271484,0
51520,0.583496,-0.720703,0.290039,0
51540,0.591309,-0.715332,0.289551,0
51560,0.616211,-0.727539,0.274902,0
51580,0.59668,-0.728027,0.282227,0
51600,0.591309,-0.703613,0.270996,0
51620,0.584961,-0.719727,0.273926,0
51640,0.550781,-0.759277,0.292969,0
51660,0.547363,-0.723633,0.3125,0
51680,0.54541,-0.731934,0.289062,0
51700,0.554199,-0.72998,0.285645,0
51720,0.562012,-0.687012,0.284668,0
51740,0.555664,-0.694824,0.285156,0
51760,0.549805,-0.727539,0.272949,0
51780,0.540527,-0.736816,0.289062,0
51800,0.516113,-0.75,0.286621,0
51820,0.527344,-0.749512,0.291016,0
51840,0.536621,-0.717773,0.291504,0
51860,0.515625,-0.724121,0.281738,0
51880,0.53125,-0.72998,0.276855,0
51900,0.543457,-0.739746,0.294922,0
51920,0.535645,-0.756836,0.293457,0
51940,0.526855,-0.759277,0.298828,0
51960,0.537598,-0.742188,0.310547,0
51980,0.537109,-0.725098,0.294434,0
52000,0.528809,-0.741699,0.292969,0
52020,0.533203,-0.745117,0.297363,0
52040,0.505371,-0.759766,0.30957,0
52060,0.519043,-0.757324,0.280762,0
52080,0.545898,-0.704102,0.280273,0
52100,0.52832,-0.711914,0.285156,0
52120,0.494629,-0.768555,0.291992,0
52140,0.504395,-0.787109,0.304688,0
52160,0.52002,-0.762207,0.294434,0
52180,0.502441,-0.747559,0.282227,0
52200,0.486328,-0.743164,0.291992,0
52220,0.493164,-0.759766,0.291504,0
52240,0.500488,-0.762695,0.279297,0
52260,0.480469,-0.773926,0.29834,0
52280,0.482422,-0.770996,0.306152,0
52300,0.508789,-0.764648,0.305176,0
52320,0.50293,-0.745605,0.30957,0
52340,0.500488,-0.759766,0.299316,0
52360,0.475098,-0.776855,0.304199,0
52380,0.494141,-0.772461,0.299805,0
52400,0.498535,-0.749512,0.286133,0
52420,0.472168,-0.757324,0.294922,0
52440,0.4375,-0.793945,0.314941,0
52460,0.481445,-0.799805,0.297363,0
52480,0.50293,-0.766113,0.280762,0
52500,0.464355,-0.738281,0.282227,0
52520,0.442871,-0.774414,0.303223,0
52540,0.472656,-0.801758,0.302734,0
52560,0.474609,-0.791504,0.312988,0
52580,0.46582,-0.767578,0.300293,0
52600,0.464844,-0.760254,0.293945,0
52620,0.479492,-0.776855,0.307617,0
52640,0.483398,-0.76709,0.313477,0
52660,0.462891,-0.763672,0.317871,0
52680,0.487305,-0.764648,0.306641,0
52700,0.492188,-0.760254,0.303223,0
52720,0.48291,-0.754395,0.300293,0
52740,0.481445,-0.752441,0.300293,0
52760,0.480469,-0.769043,0.312988,0
52780,0.469238,-0.763184,0.296875,0
52800,0.47168,-0.754883,0.287598,0
52820,0.468262,-0.757324,0.295898,0
52840,0.473145,-0.768555,0.286621,0
52860,0.477539,-0.768066,0.294434,0
52880,0.47168,-0.756348,0.303223,0
52900,0.466797,-0.769043,0.288086,0
52920,0.487793,-0.779297,0.276367,0
52940,0.480957,-0.773438,0.285645,0
52960,0.453125,-0.766602,0.292969,0
52980,0.476074,-0.790039,0.275879,0
53000,0.485352,-0.800781,0.280273,0
53020,0.47168,-0.777832,0.279785,0
53040,0.46875,-0.791992,0.278809,0
53060,0.478516,-0.810059,0.272461,0
53080,0.470215,-0.806152,0.280762,0
53100,0.453125,-0.799316,0.286133,0
53120,0.443359,-0.807617,0.272461,0
53140,0.450684,-0.817871,0.265625,0
53160,0.462891,-0.798828,0.276367,0
53180,0.431152,-0.777344,0.285645,0
53200,0.421875,-0.797363,0.297363,0
53220,0.456543,-0.799316,0.314453,0
53240,0.445312,-0.820312,0.296875,0
53260,0.449707,-0.834473,0.244141,0
53280,0.458008,-0.80957,0.277832,0
53300,0.453613,-0.817383,0.285156,0
53320,0.422852,-0.820312,0.255859,0
53340,0.412109,-0.820801,0.251465,0
53360,0.453125,-0.80127,0.25293,0
53380,0.443848,-0.795898,0.241699,0
53400,0.407227,-0.800293,0.21875,0
53410,0.4375,-0.800293,0.216797,0
53430,0.44873,-0.798828,0.226074,0
53450,0.424805,-0.79248,0.17334,0
53460,0.432129,-0.76123,0.192383,0
53480,0.459473,-0.746582,0.205078,0
53500,0.437012,-0.806641,0.211426,0
53520,0.446777,-0.83252,0.191406,0
53540,0.467285,-0.814941,0.198242,0
53560,0.477051,-0.808594,0.213867,0
53580,0.479492,-0.80957,0.20166,0
53600,0.46875,-0.828125,0.183105,0
53620,0.484863,-0.836914,0.202148,0
53640,0.476562,-0.870117,0.207031,0
53660,0.433594,-0.84082,0.183594,0
53680,0.423828,-0.806152,0.162109,0
53700,0.435547,-0.823242,0.181152,0
53720,0.435547,-0.831055,0.188477,0
53740,0.451172,-0.851074,0.165527,0
53760,0.453613,-0.860352,0.16748,0
53780,0.467773,-0.850098,0.166504,0
53800,0.48584,-0.832031,0.175293,0
53820,0.499512,-0.804199,0.171875,0
53840,0.502441,-0.823242,0.15918,0
53860,0.520508,-0.817871,0.167969,0
53880,0.556641,-0.810547,0.174316,0
53900,0.545898,-0.818848,0.134277,0
53920,0.526855,-0.805176,0.131348,0
53940,0.556641,-0.787109,0.130371,0
53960,0.584473,-0.782715,0.132812,0
53980,0.580078,-0.758789,0.131348,0
54000,0.604004,-0.755371,0.124512,0
54020,0.61084,-0.76416,0.132324,0
54040,0.615723,-0.770508,0.120605,0
54060,0.621094,-0.744141,0.09375,0
54080,0.625488,-0.700684,0.100098,0
54100,0.630859,-0.696777,0.101074,0
54120,0.645508,-0.728027,0.0981445,0
54140,0.657227,-0.713867,0.0966797,0
54160,0.668457,-0.677246,0.0805664,0
54180,0.677246,-0.658691,0.0834961,0
54200,0.696289,-0.673828,0.122559,0
54220,0.684082,-0.697754,0.128418,0
54240,0.696777,-0.685059,0.0776367,0
54260,0.709473,-0.651367,0.0722656,0
54280,0.70166,-0.638672,0.065918,0
54300,0.684082,-0.642578,0.0834961,0
54320,0.690918,-0.65625,0.081543,0
54340,0.705078,-0.677246,0.090332,0
54360,0.727539,-0.662598,0.0917969,0
54380,0.73877,-0.634277,0.0869141,0
54400,0.75,-0.613281,0.0786133,0
54420,0.72168,-0.634766,0.0917969,0
54440,0.719238,-0.650391,0.102051,0
54460,0.751465,-0.657227,0.122559,0
54480,0.73291,-0.637695,0.101074,0
54500,0.687012,-0.619141,0.132812,0
54520,0.720215,-0.629883,0.125,0
54540,0.731445,-0.632812,0.126953,0
54560,0.713867,-0.620117,0.130371,0
54580,0.731445,-0.611328,0.129883,0
54600,0.766602,-0.597168,0.101562,0
54620,0.753906,-0.60498,0.119629,0
54640,0.745605,-0.628906,0.115234,0
54660,0.743164,-0.628906,0.120605,0
54680,0.728516,-0.624512,0.108887,0
54700,0.740723,-0.614746,0.148926,0
54720,0.740723,-0.601562,0.148438,0
54740,0.725098,-0.611816,0.168945,0
54760,0.738281,-0.625488,0.192871,0
54780,0.737793,-0.616699,0.202637,0
54800,0.757812,-0.629883,0.195312,0
54820,0.744629,-0.625977,0.20459,0
54840,0.758789,-0.617676,0.220215,0
54860,0.745605,-0.61377,0.21875,0
54880,0.75,-0.608398,0.214355,0
54900,0.766113,-0.609863,0.187988,0
54920,0.750488,-0.632812,0.187988,0
54940,0.743652,-0.629883,0.201172,0
54960,0.712402,-0.625977,0.20752,0
54980,0.706055,-0.626953,0.200684,0
55000,0.67627,-0.626465,0.226074,0
55020,0.69043,-0.643066,0.241699,0
55040,0.708984,-0.633301,0.244141,0
55060,0.720703,-0.629883,0.22168,0
55080,0.716309,-0.615723,0.215332,0
55100,0.672852,-0.623535,0.257812,0
55120,0.680176,-0.651367,0.237305,0
55140,0.714844,-0.649902,0.196777,0
55160,0.693848,-0.633789,0.216309,0
55180,0.668457,-0.643555,0.269531,0
55200,0.669922,-0.699219,0.234863,0
55220,0.666992,-0.683594,0.208984,0
55240,0.635742,-0.659668,0.226562,0
55260,0.650391,-0.663086,0.219727,0
55280,0.661133,-0.668945,0.208496,0
55300,0.576172,-0.711914,0.208008,0
55320,0.555664,-0.740234,0.229004,0
55340,0.611816,-0.744629,0.206055,0
55360,0.585449,-0.727539,0.210938,0
55380,0.544922,-0.729004,0.184082,0
55390,0.501465,-0.755859,0.208496,0
55410,0.532227,-0.793457,0.219238,0
55430,0.539062,-0.782715,0.175781,0
55450,0.48291,-0.742188,0.172363,0
55470,0.427734,-0.793457,0.196777,0
55490,0.445801,-0.831055,0.200195,0
55510,0.500977,-0.807129,0.157227,0
55530,0.490723,-0.768555,0.162109,0
55550,0.464844,-0.77002,0.161621,0
55570,0.462891,-0.792969,0.154785,0
55590,0.493652,-0.796387,0.139648,0
55610,0.496582,-0.790039,0.157715,0
55630,0.477539,-0.810059,0.161621,0
55650,0.46875,-0.821289,0.155273,0
55670,0.496582,-0.789551,0.175781,0
55690,0.470215,-0.799805,0.152344,0
55710,0.460449,-0.82373,0.131836,0
55730,0.484375,-0.82959,0.134277,0
55750,0.487305,-0.831543,0.131836,0
55770,0.480469,-0.817871,0.12207,0
55790,0.492676,-0.817871,0.12207,0
55810,0.493652,-0.853027,0.134766,0
55830,0.456055,-0.847656,0.116699,0
55850,0.466309,-0.814941,0.116211,0
55870,0.460449,-0.781738,0.156738,0
55890,0.448242,-0.826172,0.15625,0
55910,0.483398,-0.842773,0.114258,0
55930,0.491699,-0.791992,0.139648,0
55950,0.440918,-0.810547,0.144531,0
55970,0.455078,-0.873047,0.132324,0
55990,0.474121,-0.863281,0.148438,0
56010,0.445801,-0.835938,0.127441,0
56030,0.46875,-0.831543,0.129883,0
56050,0.508789,-0.810059,0.152344,0
56070,0.485352,-0.845215,0.134766,0
56090,0.489746,-0.824219,0.121094,0
56110,0.515625,-0.768066,0.149414,0
56130,0.5,-0.806152,0.145508,0
56150,0.486816,-0.837891,0.118164,0
56170,0.507324,-0.828613,0.137695,0
56190,0.49707,-0.816895,0.133789,0
56210,0.518555,-0.795898,0.111816,0
56230,0.503906,-0.80957,0.111816,0
56250,0.510742,-0.80957,0.112793,0
56270,0.532227,-0.812012,0.120117,0
56290,0.527344,-0.816895,0.104004,0
56310,0.541504,-0.813477,0.0869141,0
56330,0.559082,-0.814941,0.0922852,0
56350,0.550293,-0.840332,0.0961914,0
56370,0.54541,-0.835938,0.0893555,0
56390,0.576172,-0.817871,0.0908203,0
56410,0.556152,-0.819336,0.097168,0
56430,0.577637,-0.816895,0.0786133,0
56450,0.585938,-0.818359,0.0913086,0
56470,0.571289,-0.795898,0.0834961,0
56490,0.578125,-0.791016,0.0698242,0
56510,0.576172,-0.77832,0.0629883,0
56530,0.568848,-0.77002,0.0703125,0
56550,0.563965,-0.778809,0.0605469,0
56570,0.561523,-0.78418,0.0429688,0
56590,0.552246,-0.759277,0.0185547,0
56610,0.530273,-0.745605,0.0205078,0
56630,0.54248,-0.771484,0.0263672,0
56650,0.544922,-0.779785,0.0253906,0
56670,0.550781,-0.78125,0.0112305,0
56680,0.563965,-0.783203,0.00244141,0
56690,0.575195,-0.79541,-0.015625,0
56710,0.599121,-0.788086,-0.012207,0
56730,0.605469,-0.775879,-0.00732422,0
56750,0.635254,-0.761719,-0.0136719,0
56770,0.646484,-0.753906,-0.0102539,0
56790,0.636719,-0.768066,0.00683594,0
56810,0.627441,-0.782715,0.0151367,0
56830,0.635742,-0.739746,0.0151367,0
56850,0.648438,-0.739258,0.0205078,0
56870,0.640625,-0.754395,0.0180664,0
56890,0.63916,-0.752441,0.00195312,0
56910,0.650391,-0.728027,-0.000976562,0
56930,0.664062,-0.708984,0.0102539,0
56950,0.671387,-0.712402,0,0
56970,0.664062,-0.712891,-0.00537109,0
56990,0.662109,-0.705566,-0.00830078,0
57010,0.671387,-0.700684,0.00830078,0
57030,0.686523,-0.689941,0.0209961,0
57050,0.672852,-0.69043,0.012207,0
57070,0.70166,-0.67627,0.00878906,0
57090,0.708984,-0.668945,0.00830078,2001
57110,0.699219,-0.660156,0.0263672,0
57130,0.710449,-0.65332,0.0239258,0
57150,0.72168,-0.673828,0.0322266,0
57170,0.725098,-0.661133,0.0297852,0
57190,0.736328,-0.630859,0.0161133,0
57210,0.732422,-0.62793,0.0161133,0
57230,0.705078,-0.644531,0.0292969,0
57250,0.715332,-0.692871,0.0117188,0
57270,0.703125,-0.679199,0.0322266,0
57290,0.693848,-0.646973,0.0219727,0
57310,0.707031,-0.644531,-0.00683594,0
57330,0.713867,-0.65918,-0.0258789,0
57350,0.704102,-0.682617,-0.000976562,0
57370,0.686035,-0.681641,-0.00244141,0
57390,0.688477,-0.699707,-0.0161133,0
57410,0.689941,-0.692871,-0.0146484,0
57430,0.666992,-0.696777,-0.00927734,0
57450,0.654297,-0.68457,-0.0239258,0
57470,0.655762,-0.685547,-0.00585938,0
57490,0.677734,-0.686035,0,0
57510,0.674316,-0.670898,-0.00195312,0
57530,0.619629,-0.692871,0.0078125,0
57550,0.633789,-0.687988,0.0214844,0
57570,0.650879,-0.666504,0.00195312,0
57590,0.609375,-0.616699,0,0
57610,0.593262,-0.609375,-0.0166016,0
57630,0.561523,-0.609863,-0.0141602,0
57650,0.532715,-0.602539,-0.015625,0
57670,0.48877,-0.565918,0.0078125,0
57690,0.454102,-0.524902,0.0439453,0
57710,0.441895,-0.51709,0.0629883,0
57730,0.493164,-0.536133,0.0395508,0
57750,0.524414,-0.5,0.0444336,0
57770,0.549316,-0.462891,0.129883,0
57790,0.678711,-0.515625,0.162109,0
57810,0.811035,-0.576172,0.109375,0
57830,0.833496,-0.567383,0.0917969,0
57850,0.841797,-0.613281,0.078125,0
57870,0.878418,-0.712891,0.0859375,0
57890,0.849121,-0.772461,0.117188,0
57910,0.782715,-0.791016,0.097168,0
57930,0.790039,-0.842773,0.050293,0
57950,0.786133,-0.835938,0.0639648,0
57970,0.696777,-0.815918,0.0849609,0
57990,0.69873,-0.947266,0.0625,0
58010,0.768066,-1.05127,0.112305,0
58030,0.67627,-1.04932,0.180664,0
58050,0.599121,-1.03809,0.206055,0
58070,0.577637,-1.03564,0.171387,0
58090,0.500488,-0.993164,0.212402,0
58110,0.41748,-0.980957,0.246582,0
58130,0.352051,-1.00928,0.280762,0
58150,0.304688,-0.964355,0.273926,0
58170,0.27832,-0.904297,0.272461,0
58190,0.295898,-0.850586,0.288574,0
58210,0.271484,-0.835449,0.291016,0
58230,0.209961,-0.86084,0.311523,0
58250,0.187988,-0.844238,0.324707,0
58270,0.194824,-0.845703,0.335449,0
58290,0.188965,-0.861816,0.341797,0
58310,0.201172,-0.848633,0.352051,0
58330,0.223145,-0.84375,0.33252,0
58350,0.220703,-0.838379,0.32666,0
58370,0.25293,-0.825195,0.340332,0
58390,0.257812,-0.843262,0.330566,0
58410,0.233398,-0.880371,0.334473,0
58430,0.240723,-0.884766,0.355469,0
58450,0.25293,-0.862305,0.34668,0
58470,0.270996,-0.86084,0.34082,0
58490,0.282715,-0.874512,0.335449,0
58510,0.27002,-0.873047,0.323242,0
58530,0.271484,-0.875,0.344238,0
58550,0.29541,-0.886719,0.345215,0
58570,0.282715,-0.884766,0.349121,0
58590,0.294922,-0.893555,0.323242,0
58610,0.296387,-0.87207,0.327637,0
58630,0.30957,-0.859863,0.315918,0
58650,0.29248,-0.859375,0.334961,0
58670,0.304688,-0.857422,0.325195,0
58690,0.290527,-0.855957,0.328613,2000
58700,0.284668,-0.859863,0.338379,0
58720,0.274902,-0.861816,0.348633,0
58740,0.252441,-0.861328,0.340332,0
58760,0.269043,-0.858887,0.313965,0
58780,0.280273,-0.830078,0.324707,0
58800,0.26416,-0.816895,0.324707,0
58820,0.258789,-0.835449,0.332031,0
58840,0.277832,-0.868164,0.335449,0
58860,0.274414,-0.887207,0.34668,0
58880,0.278809,-0.881348,0.344727,0
58900,0.305176,-0.843262,0.327637,0
58920,0.303223,-0.828613,0.302734,0
58940,0.249023,-0.84375,0.327148,0
58960,0.254883,-0.869629,0.330566,0
58980,0.285156,-0.878906,0.34082,0
59000,0.283203,-0.851074,0.331543,0
59020,0.270996,-0.844727,0.330566,0
59040,0.26416,-0.852051,0.333008,0
59060,0.286133,-0.847656,0.333496,0
59080,0.289551,-0.859863,0.32666,0
59100,0.269531,-0.857422,0.331055,0
59120,0.254883,-0.877441,0.333496,0
59140,0.289551,-0.87207,0.331543,0
59160,0.296387,-0.870605,0.333984,0
59180,0.278809,-0.856445,0.316895,0
59200,0.261719,-0.846191,0.317871,0
59220,0.265137,-0.866699,0.337891,0
59240,0.304199,-0.898438,0.347168,0
59260,0.318359,-0.859863,0.32666,0
59280,0.301758,-0.824219,0.303223,0
59300,0.32959,-0.833496,0.315918,0
59320,0.344727,-0.854004,0.324707,0
59340,0.374512,-0.823242,0.306641,0
59360,0.40332,-0.803711,0.294922,0
59380,0.400879,-0.826172,0.288086,0
59400,0.394531,-0.822266,0.275391,0
59420,0.382324,-0.796875,0.278809,0
59440,0.374512,-0.828125,0.266602,0
59460,0.356445,-0.862793,0.268555,0
59480,0.358887,-0.861816,0.281738,0
59500,0.411133,-0.843262,0.299316,0
59520,0.415039,-0.803223,0.267578,0
59540,0.375488,-0.806641,0.248535,0
59560,0.37793,-0.846191,0.274414,0
59580,0.393066,-0.843262,0.269531,0
59600,0.418457,-0.817383,0.256348,0
59620,0.450195,-0.800293,0.266602,0
59640,0.419922,-0.81543,0.274414,0
59660,0.391113,-0.818848,0.254883,0
59680,0.422363,-0.808105,0.260254,0
59700,0.45752,-0.780273,0.258301,0
59720,0.463867,-0.79541,0.265625,0
59740,0.43457,-0.786621,0.262207,0
59760,0.438477,-0.786621,0.254395,0
59780,0.54248,-0.775879,0.284668,0
59800,0.581543,-0.741699,0.29248,0
59820,0.540039,-0.743164,0.256836,0
59840,0.536621,-0.753418,0.242676,0
59860,0.584473,-0.749023,0.253906,0
59880,0.614258,-0.73584,0.26416,0
59900,0.573242,-0.705566,0.273438,0
59920,0.569824,-0.724609,0.255371,0
59940,0.586426,-0.741699,0.287598,0
59960,0.55127,-0.729004,0.297363,0
59980,0.557617,-0.749512,0.270508,0
60000,0.591797,-0.738281,0.250488,0
60020,0.601074,-0.705566,0.253906,0
60040,0.599121,-0.710449,0.241699,0
60060,0.614258,-0.744141,0.242676,0
60080,0.646973,-0.733398,0.265625,0
60100,0.634277,-0.718262,0.274902,0
60120,0.625977,-0.716797,0.260742,0
60140,0.639648,-0.716309,0.255371,0
60160,0.649902,-0.676758,0.280762,0
60180,0.640137,-0.677734,0.275879,0
60200,0.634277,-0.677246,0.264648,0
60220,0.647461,-0.652344,0.290527,0
60240,0.638184,-0.656738,0.30957,0
60260,0.635742,-0.666992,0.32959,0
60280,0.666992,-0.649414,0.318848,0
60300,0.649414,-0.586914,0.298828,0
60320,0.605469,-0.567871,0.287109,0
60340,0.583984,-0.59668,0.319824,0
60360,0.609375,-0.646973,0.334473,0
60380,0.615234,-0.700195,0.320312,0
60400,0.620605,-0.685547,0.343262,0
60420,0.617188,-0.65332,0.343262,0
60440,0.63623,-0.664551,0.32666,0
60460,0.679199,-0.647949,0.297852,0
60480,0.679688,-0.635254,0.312988,0
60500,0.650879,-0.657715,0.345215,0
60520,0.655273,-0.696289,0.338379,0
60540,0.640137,-0.693848,0.369629,0
60560,0.602051,-0.641602,0.390137,0
60580,0.555176,-0.659668,0.413574,0
60600,0.503418,-0.668457,0.455566,0
60620,0.520508,-0.647461,0.456543,0
60630,0.605469,-0.631348,0.410156,0
60650,0.625977,-0.598633,0.398438,0
60670,0.584473,-0.589355,0.394531,0
60690,0.547363,-0.65332,0.42041,0
60710,0.592773,-0.695312,0.432129,0
60730,0.624023,-0.650391,0.432617,0
60750,0.614258,-0.618652,0.401855,0
60770,0.526367,-0.605469,0.412109,0
60790,0.510742,-0.615234,0.42627,0
60810,0.487793,-0.606934,0.448242,0
60830,0.458496,-0.610352,0.432617,0
60850,0.470215,-0.645996,0.414062,0
60870,0.52832,-0.610352,0.429688,0
60890,0.512207,-0.603027,0.415527,0
60910,0.476562,-0.65332,0.415527,0
60930,0.46582,-0.717285,0.472656,0
60950,0.455566,-0.757324,0.502441,0
60970,0.431641,-0.763672,0.472656,0
60990,0.422852,-0.772461,0.460938,0
61010,0.393066,-0.742188,0.48584,0
61030,0.425293,-0.732422,0.456543,0
61050,0.436523,-0.722168,0.424805,0
61070,0.372559,-0.716797,0.432617,0
61090,0.376953,-0.734375,0.432129,0
61110,0.395996,-0.762207,0.442383,0
61130,0.348145,-0.786621,0.446289,0
61150,0.351074,-0.78125,0.443848,0
61170,0.369141,-0.745605,0.433105,0
61190,0.368652,-0.726074,0.428711,0
61210,0.395996,-0.724609,0.418457,0
61230,0.378418,-0.740723,0.418945,0
61250,0.397461,-0.75293,0.419922,0
61270,0.383789,-0.73877,0.423828,0
61290,0.374023,-0.742676,0.399902,0
61310,0.382812,-0.738281,0.389648,0
61330,0.393555,-0.726074,0.383301,0
61350,0.419434,-0.729492,0.397949,0
61370,0.405273,-0.76123,0.396973,0
61390,0.356934,-0.794434,0.38916,0
61410,0.392578,-0.777832,0.387207,0
61430,0.415527,-0.758789,0.399902,0
61450,0.334961,-0.783203,0.37793,0
61470,0.320312,-0.79248,0.348633,0
61490,0.367188,-0.777344,0.364746,0
61510,0.365723,-0.791016,0.371094,0
61530,0.311523,-0.812988,0.347168,0
61550,0.321289,-0.823242,0.341797,0
61570,0.312012,-0.822754,0.376953,0
61590,0.30127,-0.816406,0.363281,0
61610,0.26416,-0.827148,0.342285,0
61630,0.289551,-0.830078,0.334473,0
61650,0.311035,-0.808105,0.338379,0
61670,0.277832,-0.814941,0.32373,0
61690,0.278809,-0.838379,0.340332,0
61710,0.27002,-0.852539,0.338867,0
61730,0.286133,-0.811523,0.31543,0
61750,0.308105,-0.815918,0.311035,0
61770,0.272949,-0.825684,0.311035,0
61790,0.252441,-0.806641,0.30957,0
61810,0.337891,-0.841309,0.317383,0
61830,0.374023,-0.844727,0.333008,0
61850,0.342773,-0.825684,0.303223,0
61870,0.385742,-0.814453,0.291992,0
61890,0.416992,-0.832031,0.304199,0
61910,0.352051,-0.867676,0.294434,0
61930,0.351562,-0.854004,0.280762,0
61950,0.402344,-0.822266,0.270508,0
61970,0.374023,-0.816895,0.266602,0
61990,0.342773,-0.839355,0.264648,0
62010,0.371094,-0.863281,0.262207,0
62030,0.401855,-0.864258,0.277344,0
62050,0.365723,-0.836426,0.256348,0
62070,0.324707,-0.817871,0.240723,0
62090,0.330566,-0.841309,0.260742,0
62110,0.36084,-0.857422,0.270508,0
62130,0.327637,-0.852051,0.246582,0
62150,0.316895,-0.831543,0.250488,0
62170,0.36084,-0.832031,0.259766,0
62190,0.37207,-0.843262,0.259277,0
62210,0.350098,-0.855957,0.224609,0
62230,0.381348,-0.87207,0.240234,0
62250,0.397949,-0.867676,0.248535,0
62270,0.387207,-0.855469,0.229492,0
62290,0.425293,-0.835938,0.213867,0
62310,0.486816,-0.857422,0.239746,0
62330,0.476074,-0.842773,0.251465,0
62350,0.425781,-0.828613,0.208008,0
62370,0.477539,-0.820312,0.178223,0
62390,0.617676,-0.807129,0.195312,0
62410,0.57666,-0.803711,0.191895,0
62430,0.498535,-0.798828,0.179688,0
62450,0.533203,-0.790527,0.168945,0
62470,0.623535,-0.789551,0.166504,0
62490,0.598633,-0.770996,0.171387,0
62510,0.560547,-0.755859,0.165039,0
62530,0.589844,-0.741699,0.174316,0
62550,0.630859,-0.771973,0.202148,0
62570,0.611328,-0.753418,0.17627,0
62590,0.595703,-0.713379,0.147949,0
62610,0.60791,-0.679688,0.133301,0
62630,0.628906,-0.716309,0.15332,0
62650,0.606445,-0.73291,0.155273,0
62670,0.614746,-0.711426,0.14209,0
62690,0.643555,-0.713379,0.118164,0
62710,0.680664,-0.715332,0.107422,0
62730,0.666992,-0.698242,0.121582,0
62750,0.67627,-0.726074,0.122559,0
62770,0.733398,-0.710938,0.137207,0
62790,0.71582,-0.681641,0.137207,0
62810,0.698242,-0.687988,0.121582,0
62830,0.715332,-0.692871,0.138184,0
62850,0.723145,-0.654785,0.153809,0
62870,0.711426,-0.637207,0.138672,0
62890,0.71875,-0.660645,0.139648,0
62910,0.722656,-0.682617,0.162598,0
62930,0.728027,-0.662109,0.161133,0
62950,0.726562,-0.610352,0.142578,0
62970,0.73877,-0.602051,0.145508,0
62990,0.734863,-0.619141,0.177246,0
63010,0.710938,-0.654785,0.186523,0
63030,0.705566,-0.655762,0.193359,0
63050,0.724121,-0.615234,0.19873,0
63070,0.713379,-0.570801,0.202148,0
63090,0.714355,-0.57959,0.189453,0
63110,0.709473,-0.612305,0.206543,0
63130,0.714355,-0.61084,0.214355,0
63150,0.70459,-0.583984,0.205078,0
63170,0.708008,-0.580078,0.203125,0
63190,0.716309,-0.578125,0.20166,0
63210,0.717285,-0.601562,0.189453,0
63230,0.727051,-0.615723,0.202148,0
63250,0.723145,-0.610352,0.220215,0
63270,0.706543,-0.631348,0.216309,0
63290,0.722168,-0.650391,0.229492,0
63310,0.740723,-0.637207,0.237305,0
63330,0.737305,-0.620117,0.22168,0
63350,0.715332,-0.629883,0.239258,0
63370,0.71875,-0.650879,0.247559,0
63390,0.719727,-0.654297,0.226562,0
63410,0.708496,-0.63623,0.222656,0
63430,0.705566,-0.620117,0.230957,0
63450,0.693848,-0.634766,0.235352,0
63470,0.646484,-0.652832,0.264648,0
63490,0.616211,-0.683105,0.30127,0
63510,0.64502,-0.660645,0.282715,0
63530,0.639648,-0.617676,0.277832,0
63550,0.618164,-0.62793,0.271973,0
63570,0.594238,-0.664551,0.287598,0
63590,0.589355,-0.70752,0.277344,0
63610,0.619629,-0.687012,0.267578,0
63630,0.626953,-0.641602,0.271484,0
63650,0.574219,-0.629883,0.277832,0
63670,0.556641,-0.67041,0.266113,0
63690,0.556641,-0.697754,0.263672,0
63710,0.54248,-0.723145,0.279297,0
63730,0.547852,-0.706055,0.247559,0
63750,0.578125,-0.683105,0.240723,0
63770,0.57373,-0.680176,0.251465,0
63790,0.556641,-0.729492,0.251953,0
63810,0.561035,-0.771484,0.230469,0
63830,0.594238,-0.750977,0.23291,0
63850,0.569336,-0.709473,0.23877,0
63870,0.528809,-0.767578,0.247559,0
63890,0.54248,-0.776855,0.244141,0
63910,0.568848,-0.72998,0.235352,0
63930,0.557617,-0.706543,0.239746,0
63950,0.547852,-0.714844,0.236816,0
63960,0.551758,-0.743652,0.246582,0
63980,0.550781,-0.760742,0.258301,0
64000,0.549316,-0.743164,0.239746,0
64020,0.552734,-0.724609,0.230957,0
64040,0.541992,-0.741211,0.255371,0
64060,0.536133,-0.775879,0.245117,0
64080,0.560059,-0.777832,0.240234,0
64100,0.556152,-0.761719,0.225098,0
64120,0.53125,-0.759277,0.23291,0
64140,0.531738,-0.769531,0.232422,0
64160,0.522949,-0.779785,0.232422,0
64180,0.530762,-0.791504,0.225586,0
64200,0.545898,-0.767578,0.215332,0
64220,0.536621,-0.768066,0.235352,0
64240,0.516602,-0.791016,0.236328,0
64260,0.533691,-0.794922,0.22168,0
64280,0.53125,-0.779297,0.233398,0
64300,0.506836,-0.792969,0.229492,0
64320,0.518555,-0.774902,0.225098,0
64340,0.53418,-0.762207,0.231445,0
64360,0.521484,-0.789062,0.229492,0
64380,0.520508,-0.779785,0.213379,0
64400,0.537598,-0.767578,0.205078,0
64420,0.541992,-0.778809,0.212891,0
64440,0.478516,-0.774414,0.195312,0
64460,0.51123,-0.782715,0.173828,0
64480,0.540527,-0.772461,0.171875,0
64500,0.50293,-0.757812,0.156738,0
64520,0.48877,-0.791992,0.161621,0
64540,0.480957,-0.834473,0.159668,0
64560,0.445312,-0.826172,0.144043,0
64580,0.453613,-0.808105,0.129883,0
64600,0.413574,-0.811035,0.131836,0
64620,0.396484,-0.82666,0.118652,0
64640,0.401367,-0.854492,0.132324,0
64660,0.421387,-0.849121,0.134766,0
64680,0.41748,-0.835449,0.109863,0
64700,0.412598,-0.837402,0.10498,0
64720,0.461426,-0.813965,0.109375,0
64740,0.483398,-0.829102,0.101562,0
64760,0.479492,-0.841797,0.104004,0
64780,0.48584,-0.838867,0.0874023,0
64800,0.504883,-0.808105,0.0810547,0
64820,0.580078,-0.810059,0.0693359,0
64840,0.5625,-0.802734,0.0546875,0
64860,0.496094,-0.8125,0.0644531,0
64880,0.525879,-0.855957,0.102539,0
64900,0.589355,-0.849609,0.110352,0
64920,0.589844,-0.838867,0.0712891,0
64940,0.546387,-0.815918,0.0576172,0
64960,0.518555,-0.788086,0.0917969,0
64980,0.57959,-0.799805,0.0805664,0
65000,0.638184,-0.809082,0.0600586,0
65020,0.588867,-0.773926,0.0415039,0
65040,0.520996,-0.76709,0.0375977,0
65060,0.541504,-0.775879,0.0366211,0
65080,0.556641,-0.785645,0.0512695,0
65100,0.533691,-0.79834,0.043457,0
65120,0.505371,-0.790527,0.0317383,0
65140,0.525391,-0.793457,0.0429688,0
65160,0.573242,-0.782227,0.0219727,0
65180,0.586914,-0.736328,-0.0229492,0
65200,0.580078,-0.731934,-0.0239258,0
65220,0.585938,-0.770996,0.000976562,0
65240,0.624023,-0.797852,-0.0136719,0
65260,0.650879,-0.774902,-0.0292969,0
65280,0.630859,-0.762695,-0.00878906,0
65300,0.602051,-0.770508,-0.00292969,0
65320,0.637695,-0.814453,-0.0146484,0
65340,0.664551,-0.791504,-0.0205078,0
65360,0.660156,-0.745605,-0.0302734,0
65380,0.646484,-0.734375,-0.012207,0
65400,0.635254,-0.739258,-0.00488281,0
65420,0.637695,-0.76709,0.0136719,0
65440,0.632324,-0.771484,0.00732422,0
65460,0.63623,-0.723145,-0.00195312,0
65480,0.66748,-0.654297,-0.00732422,0
65500,0.680664,-0.652832,-0.0229492,0
65520,0.674316,-0.664551,-0.0395508,0
65540,0.669434,-0.682129,-0.0239258,0
65560,0.670898,-0.692383,-0.00683594,0
65580,0.694336,-0.679688,-0.0166016,0
65600,0.691895,-0.656738,-0.0366211,0
65620,0.674805,-0.625488,-0.00537109,0
65640,0.677734,-0.615723,0.0322266,0
65660,0.679199,-0.585938,0.0537109,0
65680,0.687988,-0.584961,0.0107422,0
65700,0.759766,-0.586426,-0.0214844,0
65720,0.785156,-0.575195,0.00146484,0
65740,0.767578,-0.583008,0.00634766,0
65760,0.81543,-0.626953,-0.0161133,0
65780,0.811523,-0.631836,-0.00439453,0
65800,0.814453,-0.598633,0.000488281,0
65820,0.829102,-0.599609,-0.0209961,0
65840,0.84375,-0.585449,-0.0322266,0
65860,0.835938,-0.562012,-0.0239258,0
65880,0.822754,-0.5625,-0.00537109,0
65890,0.820801,-0.565918,-0.00585938,0
65910,0.842285,-0.554199,0.0112305,0
65930,0.827637,-0.523926,0.0205078,0
65950,0.823242,-0.512207,0.00927734,0
65970,0.849121,-0.501465,0.019043,0
65990,0.821777,-0.489746,0.0576172,0
66010,0.803223,-0.489258,0.0571289,0
66030,0.822754,-0.50293,0.0537109,0
66050,0.826172,-0.491211,0.065918,0
66070,0.814941,-0.467773,0.0625,0
66090,0.812988,-0.467773,0.0595703,0
66110,0.816406,-0.498535,0.0859375,0
66130,0.824707,-0.510742,0.0869141,0
66150,0.828613,-0.486328,0.0703125,0
66170,0.848145,-0.480469,0.0664062,0
66190,0.859375,-0.480469,0.0854492,0
66210,0.833008,-0.513184,0.0878906,0
66230,0.830566,-0.52002,0.10498,0
66250,0.845215,-0.515625,0.11084,0
66270,0.864258,-0.473633,0.0991211,0
66290,0.861816,-0.477539,0.0991211,0
66310,0.855469,-0.502441,0.106934,0
66330,0.853516,-0.507324,0.118164,0
66350,0.840332,-0.509766,0.155273,0
66370,0.856934,-0.524414,0.165527,0
66390,0.859863,-0.512695,0.138184,0
66410,0.854004,-0.486328,0.131836,0
66430,0.807617,-0.496582,0.175781,0
66450,0.776367,-0.544434,0.194824,0
66470,0.771973,-0.557129,0.183594,0
66490,0.765137,-0.557129,0.1875,0
66510,0.773438,-0.544434,0.194336,0
