Timestamp, Acceleration x, Acceleration y, Acceleration z, Marker
50,0.879883,0.38623,0.0424805,0
70,0.885742,0.38916,0.0322266,0
90,0.887695,0.390625,0.0292969,0
110,0.883301,0.388184,0.0307617,0
130,0.880371,0.391602,0.0234375,0
140,0.885254,0.394043,0.0214844,0
140,0.881348,0.400391,0.0249023,0
180,0.87793,0.399902,0.0371094,0
200,0.878418,0.402832,0.0400391,0
220,0.873535,0.406738,0.0361328,0
240,0.865234,0.410156,0.034668,0
260,0.862793,0.40332,0.0356445,0
280,0.862793,0.405762,0.0439453,0
300,0.864746,0.40918,0.0405273,0
320,0.866211,0.404785,0.0302734,0
340,0.864746,0.40332,0.0351562,0
360,0.867188,0.399902,0.0297852,0
380,0.868652,0.408203,0.0292969,0
400,0.872559,0.407227,0.0356445,0
420,0.873535,0.399414,0.0375977,0
440,0.870117,0.410156,0.0307617,0
460,0.871094,0.412598,0.0297852,0
480,0.869141,0.415527,0.0214844,0
500,0.864258,0.405762,0.0219727,0
520,0.865234,0.412109,0.015625,0
540,0.86377,0.408691,0.00830078,0
560,0.877441,0.404785,0.00585938,0
580,0.878906,0.411621,0.00683594,0
600,0.882812,0.412598,0.0102539,0
620,0.875977,0.411621,0.015625,0
640,0.859375,0.415527,0.0151367,0
650,0.858887,0.416992,0.0136719,0
670,0.854004,0.413086,0.0185547,0
690,0.852051,0.414551,0.0200195,0
710,0.853516,0.42627,0.0288086,0
730,0.851074,0.430664,0.0361328,0
750,0.850586,0.42334,0.0380859,0
770,0.851074,0.417969,0.0283203,0
790,0.85498,0.416992,0.0292969,0
810,0.855957,0.413574,0.0209961,0
830,0.853027,0.411621,0.0107422,0
850,0.853027,0.415039,0.00732422,0
870,0.86084,0.41748,0.00341797,0
890,0.862305,0.413086,0.0151367,0
910,0.85791,0.411621,0.0146484,0
930,0.854492,0.42334,0.0234375,0
950,0.863281,0.422363,0.0195312,0
970,0.865234,0.420898,0.0249023,0
990,0.86377,0.419922,0.0234375,0
1010,0.85791,0.42627,0.0205078,0
1030,0.855469,0.427246,0.0209961,0
1050,0.849121,0.419922,0.0170898,0
1070,0.85498,0.421875,0.0161133,0
1090,0.856445,0.427734,0.0161133,0
1110,0.864258,0.424805,0.0200195,0
1130,0.866699,0.416016,0.015625,0
1150,0.86377,0.425781,0.0209961,0
1170,0.865234,0.425781,0.0151367,0
1190,0.87207,0.416504,0.0205078,0
1210,0.875977,0.408691,0.0195312,0
1230,0.875,0.412109,0.019043,0
1250,0.877441,0.412598,0.0151367,0
1270,0.873535,0.410156,0.0200195,0
1290,0.875488,0.411621,0.0112305,0
1310,0.876953,0.407715,0.0136719,0
1330,0.877441,0.402832,0.0151367,0
1350,0.873047,0.407227,0.0161133,0
1370,0.872559,0.411621,0.0146484,0
1390,0.874023,0.414551,0.0234375,0
1410,0.875,0.405273,0.0195312,0
1430,0.865723,0.407715,0.0229492,0
1450,0.866699,0.407227,0.012207,0
1470,0.867676,0.406738,0.0185547,0
1490,0.867188,0.402832,0.0205078,0
1510,0.871094,0.407227,0.0170898,0
1530,0.872559,0.411621,0.0170898,0
1550,0.867188,0.411133,0.00976562,0
1570,0.866699,0.408691,0.0102539,0
1590,0.869629,0.415039,0.0117188,0
1610,0.867188,0.413086,0.0117188,0
1630,0.866211,0.415039,0.0146484,0
1650,0.871094,0.416992,0.0131836,0
1670,0.865723,0.420898,0.0180664,0
1690,0.870117,0.418945,0.012207,0
1710,0.865234,0.417969,0.00439453,0
1730,0.868164,0.422852,0.00292969,0
1750,0.868652,0.422363,0.00439453,0
1770,0.865234,0.424316,0,0
1790,0.862793,0.417969,0.00585938,0
1810,0.863281,0.418945,0.000976562,0
1830,0.868652,0.419434,0.00146484,0
1850,0.867676,0.410645,0.00683594,0
1870,0.865723,0.416992,0.00488281,0
1890,0.863281,0.418945,0.00585938,0
1910,0.859863,0.416992,0.00292969,0
1930,0.862305,0.407715,0.00390625,0
1950,0.860352,0.404297,0.00488281,0
1970,0.865234,0.407715,0.00244141,0
1990,0.861816,0.405762,0.000488281,0
2010,0.86377,0.404785,0.00146484,0
2030,0.866211,0.408203,0.00537109,0
2050,0.86377,0.413086,0.00390625,0
2070,0.862793,0.406738,-0.00390625,0
2090,0.866699,0.410156,0.00878906,0
2110,0.864258,0.416504,0.00537109,0
2130,0.861816,0.412109,0.00878906,0
2150,0.871582,0.410156,-0.000488281,0
2170,0.869629,0.420898,0.000976562,0
2190,0.868652,0.412598,0.00537109,0
2210,0.869629,0.412598,0.00439453,0
2230,0.869141,0.416992,-0.000488281,0
2250,0.875977,0.419434,-0.000488281,0
2270,0.872559,0.416504,0.00537109,0
2290,0.870605,0.416992,0.00439453,0
2310,0.870117,0.416992,0.00732422,0
2330,0.872559,0.415039,0.0126953,0
2350,0.869141,0.413086,0.00830078,0
2370,0.870117,0.410156,0.00341797,0
2390,0.871582,0.412109,0.00195312,0
2410,0.868164,0.40918,0.00439453,0
2430,0.869141,0.416504,0.00439453,0
2450,0.869141,0.429199,-0.00390625,0
2470,0.862305,0.434082,-0.0131836,0
2490,0.865723,0.435059,-0.0131836,0
2510,0.865723,0.425781,-0.00732422,0
2530,0.86084,0.42334,-0.00634766,0
2550,0.863281,0.425781,0.00195312,0
2570,0.861816,0.425293,0.0078125,0
2590,0.860352,0.430664,0.0151367,0
2610,0.865234,0.421387,0.0229492,0
2630,0.86377,0.40625,0.0200195,0
2650,0.861328,0.401855,0.019043,0
2660,0.860352,0.40332,0.012207,0
2680,0.861328,0.398926,0.0102539,0
2700,0.864746,0.390137,0.00830078,0
2720,0.874512,0.393066,0.0180664,0
2740,0.87207,0.399902,0.0239258,0
2760,0.867676,0.412109,0.0200195,0
2780,0.866211,0.410156,0.0078125,0
2800,0.862793,0.416016,-0.00341797,0
2820,0.861816,0.419922,-0.00878906,0
2840,0.870117,0.416016,-0.0117188,0
2860,0.875,0.416504,-0.0117188,0
2880,0.875488,0.427734,-0.0117188,0
2900,0.880371,0.431641,-0.000488281,0
2920,0.879395,0.4375,0.00244141,0
2940,0.874023,0.436035,0.00976562,0
2960,0.869629,0.439941,0.00732422,0
2980,0.864746,0.429688,0.00292969,0
3000,0.863281,0.421387,-0.000488281,0
3020,0.861816,0.42041,-0.00830078,0
3040,0.867188,0.415527,-0.00439453,0
3060,0.868164,0.415527,-0.00976562,0
3080,0.865234,0.422363,-0.00585938,0
3100,0.868652,0.42334,-0.00390625,0
3120,0.866699,0.418945,0,0
3140,0.868164,0.41748,-0.00390625,0
3160,0.871582,0.423828,-0.0112305,0
3180,0.870117,0.429199,-0.012207,0
3200,0.874512,0.433594,-0.012207,0
3220,0.864746,0.435547,-0.0141602,0
3240,0.864258,0.431641,-0.0146484,0
3260,0.856445,0.438477,-0.0107422,0
3280,0.854492,0.432129,-0.00927734,0
3300,0.850586,0.432129,-0.00927734,0
3320,0.848633,0.441406,0.00244141,0
3340,0.852539,0.44043,0.00195312,0
3360,0.852539,0.436523,0.00195312,0
3380,0.851074,0.4375,0.00341797,0
3400,0.854492,0.433105,0.00585938,0
3420,0.852051,0.420898,0.00878906,0
3440,0.850586,0.416992,0.0102539,0
3460,0.850586,0.428223,0.0102539,0
3480,0.847656,0.429688,0.00878906,0
3500,0.853516,0.427246,0.0136719,0
3520,0.851074,0.429199,0.00927734,0
3540,0.853516,0.431152,-0.000488281,0
3560,0.856934,0.434082,0.00341797,0
3580,0.856445,0.435059,0.0107422,0
3600,0.85498,0.4375,0.00683594,0
3620,0.849609,0.446777,0.00195312,0
3640,0.842773,0.439453,-0.00537109,0
3660,0.848633,0.433105,-0.000976562,0
3680,0.847168,0.439453,0.00244141,0
3700,0.856934,0.444824,0.00830078,0
3720,0.858398,0.450684,0.000976562,0
3740,0.861816,0.441895,0.00634766,0
3760,0.861816,0.438477,0.00146484,0
3780,0.85498,0.435059,0.00683594,0
3800,0.851562,0.429688,-0.00488281,0
3820,0.854004,0.431152,-0.00341797,0
3840,0.860352,0.430176,-0.000488281,0
3860,0.860352,0.428223,-0.00488281,0
3880,0.86377,0.42334,-0.012207,0
3900,0.865234,0.430176,-0.0107422,0
3920,0.864746,0.42627,-0.0102539,0
3940,0.865234,0.421875,-0.00927734,0
3960,0.862793,0.42627,-0.0161133,0
3980,0.867188,0.427246,-0.0170898,0
4000,0.869141,0.420898,-0.0146484,0
4020,0.865723,0.415039,-0.0205078,0
4040,0.864258,0.424316,-0.0209961,0
4060,0.864258,0.421875,-0.0209961,0
4080,0.866211,0.419434,-0.0214844,0
4100,0.869629,0.411621,-0.0234375,0
4120,0.865234,0.42334,-0.0170898,0
4140,0.861816,0.423828,-0.0166016,0
4160,0.861816,0.412598,-0.0136719,0
4180,0.862793,0.419434,-0.00878906,0
4200,0.865234,0.422852,-0.00634766,0
4220,0.86084,0.421387,-0.00537109,0
4240,0.861328,0.415039,-0.0078125,0
4260,0.864746,0.415527,-0.00341797,0
4280,0.865234,0.41748,-0.00732422,0
4300,0.866211,0.414062,-0.00292969,0
4320,0.868652,0.413086,-0.00585938,0
4340,0.865234,0.416016,-0.00488281,0
4360,0.868652,0.413086,-0.00830078,0
4380,0.87793,0.404785,0.000976562,0
4400,0.880859,0.410156,-0.000976562,0
4420,0.878418,0.415527,0,0
4440,0.870605,0.411621,0.00292969,0
4460,0.875,0.410156,0.00195312,0
4480,0.874023,0.404785,0.00390625,0
4500,0.87207,0.404297,0.00878906,0
4520,0.874023,0.402832,0.0126953,0
4540,0.877441,0.400391,0.00830078,0
4560,0.880371,0.395996,0.00537109,0
4580,0.879395,0.397949,0.00585938,0
4600,0.875977,0.39209,-0.00390625,0
4620,0.87793,0.407227,-0.00390625,0
4640,0.881348,0.404785,-0.00244141,0
4660,0.880859,0.397461,-0.0107422,0
4680,0.873535,0.405762,-0.00195312,0
4700,0.872559,0.410645,-0.00146484,0
4720,0.869629,0.412598,-0.00634766,0
4740,0.871582,0.405273,-0.00244141,0
4760,0.875977,0.400391,-0.00390625,0
4780,0.875488,0.402832,-0.00878906,0
4800,0.874023,0.40625,-0.00488281,0
4820,0.876465,0.406738,-0.00585938,0
4840,0.874512,0.405762,-0.00927734,0
4860,0.880859,0.399414,-0.00585938,0
4880,0.880859,0.39209,-0.0141602,0
4900,0.874512,0.39502,-0.00976562,0
4920,0.881348,0.391602,-0.0131836,0
4940,0.881348,0.390137,-0.00732422,0
4960,0.880371,0.39502,-0.00683594,0
4980,0.879883,0.39502,-0.00878906,0
5000,0.875488,0.40332,0.00244141,0
5020,0.874512,0.395508,-0.0078125,0
5040,0.870117,0.393066,0,0
5060,0.874023,0.402344,-0.00292969,0
5080,0.875,0.404297,-0.00830078,0
5100,0.874512,0.399902,-0.0141602,0
5120,0.873535,0.405273,-0.00732422,0
5140,0.872559,0.398438,0.00537109,0
5160,0.864746,0.393555,-0.0209961,0
5180,0.872559,0.403809,-0.00830078,0
5200,0.87793,0.40332,-0.0136719,0
5220,0.874512,0.40625,0.000488281,0
5240,0.865234,0.40625,0.0170898,0
5260,0.858398,0.409668,0.0180664,0
5280,0.861816,0.408203,0.0170898,0
5300,0.862793,0.404785,0.00976562,0
5320,0.87207,0.405762,0,0
5340,0.879883,0.401855,-0.00976562,0
5360,0.888672,0.400391,-0.0126953,0
5380,0.892578,0.388672,-0.0166016,0
5400,0.891602,0.381348,-0.0175781,0
5420,0.884277,0.398438,-0.019043,0
5440,0.876465,0.403809,-0.0078125,0
5460,0.875488,0.398438,-0.000488281,0
5480,0.87207,0.398926,0.012207,0
5500,0.870117,0.399902,0.00585938,0
5520,0.866699,0.397949,0.00244141,0
5540,0.867676,0.400391,-0.00292969,0
5560,0.869141,0.407715,-0.0117188,0
5580,0.873047,0.40332,-0.012207,0
5600,0.871582,0.405273,-0.00634766,0
5620,0.870605,0.402344,-0.00488281,0
5640,0.876465,0.414062,0.00390625,0
5660,0.874023,0.402832,0.0131836,0
5680,0.861816,0.400879,-0.019043,0
5700,0.868652,0.416504,-0.0195312,0
5720,0.870605,0.407715,-0.0161133,0
5740,0.875,0.413086,-0.00341797,0
5760,0.875,0.396484,-0.00146484,0
5780,0.878906,0.396973,-0.00244141,0
5800,0.87793,0.402832,-0.0170898,0
5820,0.880371,0.397461,-0.0258789,0
5840,0.881348,0.396484,-0.0229492,0
5860,0.878418,0.395508,-0.00878906,0
5880,0.875977,0.395996,-0.00976562,0
5900,0.863281,0.396484,0.00341797,0
5920,0.865723,0.413086,0.0141602,0
5940,0.870117,0.416016,0.00878906,0
5960,0.866699,0.411133,0.000976562,0
5980,0.866699,0.403809,-0.00878906,0
6000,0.870605,0.407227,-0.0224609,0
6020,0.878418,0.408203,-0.0209961,0
6040,0.877441,0.406738,-0.0126953,0
6060,0.873535,0.411621,-0.0141602,0
6080,0.869141,0.415527,-0.00537109,0
6090,0.862793,0.40625,-0.00537109,0
6110,0.858887,0.40918,0.000488281,0
6130,0.864746,0.410645,0.00976562,0
6150,0.883301,0.400879,0.015625,0
6170,0.859863,0.385742,-0.00878906,0
6190,0.880859,0.408203,-0.0141602,0
6210,0.88623,0.394043,-0.0209961,0
6230,0.877441,0.412598,-0.0195312,0
6250,0.874512,0.405273,-0.00537109,0
6270,0.870117,0.396973,-0.00146484,0
6290,0.873535,0.394043,-0.00244141,0
6310,0.867188,0.405273,-0.00830078,0
6330,0.870117,0.407227,-0.0117188,0
6350,0.870605,0.411133,-0.0126953,0
6370,0.869629,0.407227,-0.0117188,0
6390,0.871094,0.394531,-0.012207,0
6410,0.867188,0.402832,-0.00976562,0
6430,0.870605,0.410645,-0.00439453,0
6450,0.875,0.413574,-0.00146484,0
6470,0.872559,0.406738,-0.0126953,0
6490,0.873535,0.404785,-0.00390625,0
6510,0.875977,0.412598,-0.00634766,0
6530,0.877441,0.40918,-0.0170898,0
6550,0.874023,0.412109,-0.0273438,0
6570,0.873535,0.411133,-0.0249023,0
6590,0.871582,0.404785,-0.00585938,0
6610,0.868652,0.397461,-0.00390625,0
6630,0.868652,0.40625,0.00244141,0
6650,0.866211,0.407715,0.00976562,0
6670,0.873047,0.40332,0.00732422,0
6690,0.870117,0.393066,0.00878906,0
6710,0.873535,0.397949,0.00585938,0
6730,0.908203,0.402344,0.00488281,0
6750,0.883789,0.38916,0.00195312,0
6770,0.878906,0.395996,-0.0317383,0
6790,0.890625,0.405762,-0.0341797,0
6810,0.882324,0.407227,-0.0244141,0
6830,0.875977,0.407715,0.00244141,0
6850,0.86377,0.407715,0.0131836,0
6870,0.85791,0.414062,0.0175781,0
6890,0.854492,0.410645,0.00195312,0
6910,0.860352,0.413574,-0.00878906,0
6930,0.874023,0.416992,-0.015625,0
6950,0.882324,0.405273,-0.0244141,0
6970,0.881836,0.390625,-0.0214844,0
6990,0.88623,0.389648,-0.00390625,0
7010,0.873535,0.391602,-0.00439453,0
7030,0.871582,0.40625,0.00244141,0
7050,0.876953,0.404785,-0.00146484,0
7070,0.873047,0.400391,-0.00683594,0
7090,0.869629,0.408203,-0.0102539,0
7110,0.864746,0.408203,-0.0136719,0
7130,0.867676,0.404785,-0.00878906,0
7150,0.862305,0.411621,-0.0131836,0
7170,0.884277,0.42334,-0.00683594,0
7190,0.86377,0.398926,-0.00634766,0
7210,0.868652,0.410156,-0.0302734,0
7230,0.883789,0.405762,-0.0141602,0
7250,0.87793,0.405762,-0.0175781,0
7270,0.869629,0.401855,-0.00292969,0
7290,0.865234,0.394043,0.00390625,0
7310,0.869141,0.396973,0.000976562,0
7330,0.867676,0.392578,0,0
7350,0.874023,0.394043,-0.00341797,0
7370,0.875977,0.401855,-0.00634766,0
7390,0.875,0.402344,-0.0126953,0
7410,0.877441,0.389648,-0.00439453,0
7430,0.880371,0.397949,-0.00488281,0
7450,0.881836,0.407715,-0.00439453,0
7470,0.882324,0.413574,-0.0107422,0
7490,0.880859,0.408691,-0.019043,0
7510,0.87793,0.413086,-0.0268555,0
7530,0.878418,0.420898,-0.0258789,0
7550,0.876953,0.41748,-0.0273438,0
7570,0.861816,0.414062,-0.0244141,0
7590,0.862793,0.416504,-0.0102539,0
7610,0.863281,0.415039,0.00292969,0
7630,0.863281,0.403809,0.0170898,0
7650,0.858887,0.406738,0.0214844,0
7670,0.862305,0.407715,0.00830078,0
7690,0.893066,0.416016,0.0136719,0
7710,0.86377,0.379395,-0.00488281,0
7730,0.876953,0.390137,-0.0244141,0
7750,0.894043,0.376953,-0.0214844,0
7770,0.888672,0.383301,-0.0229492,0
7790,0.881348,0.396973,0.000976562,0
7810,0.871094,0.395508,0.00634766,0
7830,0.873535,0.401855,0.0107422,0
7850,0.873047,0.395508,0.00488281,0
7870,0.875977,0.395996,0.00292969,0
7890,0.874023,0.414551,-0.0117188,0
7910,0.873047,0.413086,-0.012207,0
7930,0.875488,0.407227,-0.0185547,0
7950,0.872559,0.407715,-0.0151367,0
7970,0.874512,0.414062,-0.012207,0
7990,0.875,0.409668,-0.00976562,0
8010,0.872559,0.405273,-0.00292969,0
8030,0.876953,0.410645,-0.00927734,0
8050,0.878418,0.412598,-0.0180664,0
8070,0.875,0.408691,-0.0180664,0
8090,0.868164,0.414551,-0.0209961,0
8100,0.867676,0.411621,-0.0175781,0
8120,0.865723,0.403809,-0.015625,0
8140,0.86377,0.395996,0.00390625,0
8160,0.859375,0.398438,0.012207,0
8180,0.862793,0.399414,0.0117188,0
8200,0.869141,0.396484,0.00732422,0
8220,0.867188,0.397949,0.00488281,0
8240,0.872559,0.396484,-0.00195312,0
8260,0.880859,0.385742,-0.00146484,0
8280,0.894531,0.391113,0.00683594,0
8300,0.870605,0.370117,-0.00488281,0
8320,0.881836,0.395996,-0.0195312,0
8340,0.884277,0.408691,-0.0180664,0
8360,0.876465,0.415527,-0.00146484,0
8380,0.875977,0.410645,0.00683594,0
8400,0.868652,0.403809,0.0107422,0
8420,0.861328,0.405762,-0.00634766,0
8440,0.866699,0.411133,-0.0205078,0
8460,0.879395,0.42334,-0.0239258,0
8480,0.879395,0.422363,-0.0253906,0
8500,0.875977,0.409668,-0.0244141,0
8520,0.876953,0.40332,-0.0161133,0
8540,0.873047,0.400879,-0.000488281,0
8560,0.868652,0.404297,0.00341797,0
8580,0.870605,0.405273,0.00439453,0
8600,0.874023,0.405273,-0.00683594,0
8620,0.878418,0.404297,-0.0200195,0
8640,0.869141,0.395508,-0.019043,0
8660,0.870117,0.392578,-0.0136719,0
8680,0.873047,0.396973,0.00146484,0
8700,0.87207,0.394531,0.00390625,0
8720,0.870605,0.399414,0.00439453,0
8740,0.873047,0.395996,0.0146484,0
8760,0.87207,0.38916,-0.00585938,0
8780,0.875977,0.395508,-0.00683594,0
8800,0.870117,0.402832,-0.0175781,0
8820,0.872559,0.414551,-0.000976562,0
8840,0.87793,0.391113,0.00927734,0
8860,0.875977,0.384277,-0.00683594,0
8880,0.876953,0.400879,-0.00927734,0
8900,0.875977,0.40332,-0.0195312,0
8920,0.881348,0.406738,-0.012207,0
8940,0.882812,0.396973,-0.00439453,0
8960,0.876953,0.401855,-0.012207,0
8980,0.878906,0.408691,-0.00683594,0
9000,0.876953,0.40625,-0.00732422,0
9020,0.87207,0.409668,-0.00878906,0
9040,0.869629,0.410156,-0.00976562,0
9060,0.868164,0.407715,-0.0166016,0
9080,0.878906,0.401855,-0.00927734,0
9100,0.881836,0.409668,-0.0151367,0
9120,0.881836,0.415527,-0.0078125,0
9140,0.873535,0.408691,-0.0185547,0
9160,0.870117,0.399902,-0.0205078,0
9180,0.872559,0.391113,-0.015625,0
9200,0.875,0.390625,-0.00341797,0
9220,0.871582,0.388184,0.000976562,0
9240,0.871094,0.391602,-0.00732422,0
9260,0.894043,0.401367,-0.00146484,0
9280,0.877441,0.379883,0.00390625,0
9300,0.875488,0.385742,-0.0151367,0
9320,0.879395,0.400391,-0.0195312,0
9340,0.875,0.407715,-0.0205078,0
9360,0.872559,0.402344,-0.00439453,0
9380,0.868652,0.399902,0.00537109,0
9400,0.870117,0.400391,0.00927734,0
9420,0.868164,0.399902,0.00146484,0
9440,0.873047,0.408691,-0.00683594,0
9460,0.87793,0.414062,-0.0161133,0
9480,0.885742,0.413574,-0.0239258,0
9500,0.884277,0.404297,-0.0263672,0
9520,0.882324,0.400391,-0.0195312,0
9540,0.875977,0.40918,-0.0175781,0
9560,0.871094,0.40332,-0.00976562,0
9580,0.87207,0.403809,-0.00244141,0
9600,0.866211,0.405273,0.000488281,0
9620,0.869141,0.405273,0.00488281,0
9640,0.876465,0.40332,-0.00195312,0
9660,0.870117,0.396973,-0.0102539,0
9680,0.874512,0.40332,-0.0146484,0
9700,0.875,0.396973,-0.0214844,0
9720,0.87793,0.389648,-0.00585938,0
9740,0.868164,0.384277,-0.00585938,0
9760,0.889648,0.388672,0.0078125,0
9780,0.875,0.382812,-0.0107422,0
9800,0.878418,0.398926,-0.0136719,0
9820,0.881348,0.396484,-0.0185547,0
9840,0.873535,0.406738,-0.0146484,0
9860,0.869629,0.401367,0.000488281,0
9880,0.868652,0.398926,0.00292969,0
9900,0.862793,0.400391,-0.00390625,0
9920,0.869629,0.404785,-0.00195312,0
9940,0.875488,0.405762,-0.0151367,0
9960,0.881348,0.410156,-0.0185547,0
9980,0.88623,0.408691,-0.0327148,0
10000,0.879883,0.404297,-0.0209961,0
10020,0.875488,0.398438,-0.0175781,0
10040,0.875,0.405273,-0.0117188,0
10060,0.876953,0.408691,-0.0078125,0
10080,0.875977,0.409668,-0.00585938,0
10100,0.868164,0.402832,-0.00830078,0
10120,0.865723,0.405273,-0.00439453,0
10140,0.873535,0.405273,-0.00683594,0
10160,0.868164,0.400391,-0.0112305,0
10180,0.871094,0.394531,-0.00390625,0
10200,0.873047,0.403809,-0.000976562,0
10220,0.872559,0.396973,-0.00390625,0
10240,0.872559,0.390625,0,0
10260,0.873535,0.39209,0.00244141,0
10280,0.895508,0.401855,0.00683594,0
10300,0.874512,0.386719,-0.000976562,0
10320,0.880371,0.397949,-0.00341797,0
10340,0.885254,0.399902,-0.015625,0
10360,0.873535,0.408203,-0.0141602,0
10380,0.869629,0.401855,-0.00439453,0
10400,0.873047,0.398438,0.00488281,0
10420,0.874512,0.400391,0.00732422,0
10440,0.870605,0.402344,0,0
10460,0.880859,0.402344,-0.00488281,0
10480,0.880859,0.409668,-0.0151367,0
10500,0.886719,0.405273,-0.0112305,0
10520,0.881836,0.402344,-0.019043,0
10540,0.874512,0.392578,-0.0185547,0
10560,0.879395,0.401855,-0.00878906,0
10580,0.884766,0.412598,-0.00439453,0
10600,0.874023,0.406738,-0.0102539,0
10620,0.864258,0.409668,-0.0126953,0
10640,0.866699,0.40625,-0.00927734,0
10660,0.866211,0.411133,-0.00683594,0
10680,0.871094,0.404785,-0.015625,0
10700,0.866699,0.404297,-0.00732422,0
10720,0.874512,0.404297,-0.00976562,0
10740,0.881836,0.393555,-0.00683594,0
10760,0.875977,0.388184,-0.00292969,0
10780,0.877441,0.397461,-0.00341797,0
10800,0.876953,0.408203,0.000976562,0
10820,0.891602,0.401855,0.00390625,0
10840,0.869141,0.394043,-0.00390625,0
10860,0.873047,0.410645,-0.00195312,0
10880,0.878906,0.410156,-0.0141602,0
10900,0.865234,0.413086,-0.00537109,0
10920,0.863281,0.410156,0.00146484,0
10940,0.862793,0.413574,0.00878906,0
10960,0.865723,0.407715,0.00439453,0
10980,0.869141,0.412598,0.00292969,0
11000,0.881348,0.419922,-0.00683594,0
11020,0.877441,0.425293,-0.0166016,0
11040,0.879883,0.411133,-0.0180664,0
11060,0.875977,0.407227,-0.00878906,0
11080,0.873047,0.404297,-0.0117188,0
11100,0.867188,0.404785,-0.00878906,0
11120,0.864258,0.409668,-0.00927734,0
11140,0.862305,0.415039,-0.0107422,0
11160,0.859863,0.410156,-0.0180664,0
11180,0.858398,0.400879,-0.0112305,0
11200,0.857422,0.407715,-0.0146484,0
11220,0.85791,0.410645,-0.0107422,0
11240,0.861816,0.405762,-0.0102539,0
11260,0.857422,0.405762,-0.0078125,0
11280,0.862793,0.405762,-0.0112305,0
11300,0.86084,0.405762,0.00195312,0
11320,0.856445,0.407715,-0.00878906,0
11340,0.86084,0.404785,-0.00292969,0
11360,0.870605,0.422363,-0.00537109,0
11380,0.87207,0.424316,0,0
11400,0.869629,0.42041,0.00292969,0
11420,0.864258,0.428711,-0.00390625,0
11440,0.869629,0.416992,0.000976562,0
11460,0.857422,0.416016,-0.0249023,0
11480,0.862305,0.421875,-0.0131836,0
11500,0.869629,0.408691,-0.0102539,0
11520,0.869629,0.418457,0.00292969,0
11530,0.875977,0.412598,0.0151367,0
11550,0.870117,0.412109,0.0224609,0
11570,0.87207,0.415527,0.0180664,0
11590,0.880371,0.404297,0.0078125,0
11610,0.884277,0.399414,0.00585938,0
11630,0.881348,0.398926,0.00292969,0
11650,0.885254,0.400879,0.00683594,0
11670,0.884766,0.390137,0.00537109,0
11690,0.87793,0.397949,0.0126953,0
11710,0.882324,0.399902,0.0126953,0
11730,0.876953,0.401367,0.0112305,0
11750,0.878906,0.397461,0.00878906,0
11770,0.87793,0.397461,0.0078125,0
11790,0.87207,0.401855,0.00195312,0
11810,0.874023,0.40332,0.00488281,0
11830,0.875488,0.402832,0.00390625,0
11850,0.868652,0.40332,0.00195312,0
11870,0.871094,0.402344,0,0
11890,0.87793,0.40918,0.00683594,0
11910,0.867188,0.393555,0.0078125,0
11930,0.870117,0.402832,-0.015625,0
11950,0.879883,0.412109,-0.0136719,0
11970,0.87793,0.40332,-0.0175781,0
11990,0.863281,0.40625,-0.00146484,0
12010,0.862793,0.416504,0.00976562,0
12030,0.860352,0.414062,0.0141602,0
12050,0.860352,0.413086,0.0117188,0
12070,0.86377,0.416504,-0.00927734,0
12090,0.868652,0.426758,-0.00732422,0
12110,0.872559,0.416992,-0.00927734,0
12130,0.866211,0.402832,-0.00830078,0
12150,0.869141,0.404785,-0.0146484,0
12170,0.868652,0.417969,-0.00244141,0
12190,0.869629,0.420898,0.00585938,0
12210,0.860352,0.416504,0.00830078,0
12230,0.855957,0.416504,0.0151367,0
12250,0.855957,0.410156,0.0102539,0
12270,0.857422,0.406738,0.0126953,0
12290,0.866211,0.413574,0.012207,0
12310,0.871582,0.416016,0.00537109,0
12330,0.871094,0.404297,0.00341797,0
12350,0.875488,0.404297,0.0117188,0
12370,0.869141,0.412109,0.00732422,0
12390,0.868164,0.414062,0.00878906,0
12410,0.866699,0.415527,-0.000488281,0
12430,0.868652,0.412598,0.0078125,0
12450,0.866699,0.413574,0.0107422,0
12470,0.868164,0.412598,0.00927734,0
12490,0.866699,0.414551,0.0078125,0
12510,0.866211,0.414062,0.00488281,0
12530,0.867188,0.416016,0.00390625,0
12550,0.867188,0.407715,-0.00195312,0
12570,0.871094,0.407227,0.00488281,0
12590,0.867676,0.410156,0.00146484,0
12610,0.869629,0.409668,0.00292969,0
12630,0.86377,0.410645,0.00976562,0
12650,0.866699,0.414551,0.00732422,0
12670,0.866699,0.416016,0.0112305,0
12690,0.864258,0.415527,0.0107422,0
12710,0.861816,0.411621,0.0112305,0
12730,0.864258,0.413086,0.0141602,0
12750,0.866699,0.413574,0.0195312,0
12770,0.867676,0.409668,0.0195312,0
12790,0.862793,0.412109,0.019043,0
12810,0.870117,0.413086,0.0161133,0
12830,0.871094,0.415039,0.0195312,0
12850,0.871582,0.407715,0.0166016,0
12870,0.865234,0.413574,0.0185547,0
12890,0.869141,0.411133,0.0185547,0
12910,0.870605,0.410156,0.0205078,0
12930,0.871582,0.406738,0.0117188,0
12950,0.869629,0.408203,0.0185547,0
12970,0.868652,0.412109,0.0175781,0
12990,0.864258,0.404297,0.019043,0
13010,0.870605,0.408203,0.0224609,0
13030,0.878906,0.414551,0.0180664,0
13050,0.874023,0.411133,0.0175781,0
13070,0.866699,0.406738,0.0131836,0
13090,0.867676,0.404785,0.00390625,0
13110,0.862793,0.40918,0.00634766,0
13130,0.863281,0.407715,0.0112305,0
13150,0.870117,0.407227,0.0102539,0
13170,0.871094,0.407715,0.0146484,0
13190,0.873535,0.405762,0.00683594,0
13210,0.87207,0.403809,0.012207,0
13230,0.867188,0.412109,0.00585938,0
13250,0.867188,0.416016,0.00634766,0
13270,0.869629,0.405762,0.00830078,0
13290,0.866211,0.404297,0.0161133,0
13310,0.870117,0.410645,0.0112305,0
13330,0.869141,0.411133,0.0102539,0
13350,0.867676,0.410156,0.00927734,0
13370,0.866211,0.410156,0.00732422,0
13390,0.868164,0.407227,0.0126953,0
13410,0.869141,0.40625,0.00878906,0
13430,0.870117,0.405762,0.012207,0
13450,0.864746,0.410645,0.0146484,0
13470,0.871582,0.414062,0.0151367,0
13490,0.871582,0.40918,0.0078125,0
13510,0.867676,0.405273,0.0175781,0
13530,0.865234,0.408691,0.0185547,0
13540,0.870605,0.411133,0.0161133,0
13560,0.868164,0.409668,0.0102539,0
13580,0.870605,0.411621,0.00927734,0
13600,0.870605,0.411621,0.0185547,0
13620,0.869629,0.407715,0.0180664,0
13640,0.873047,0.406738,0.0131836,0
13660,0.867676,0.410645,0.0170898,0
13680,0.869141,0.414062,0.015625,0
13700,0.868652,0.40332,0.0141602,0
13720,0.867188,0.407227,0.0170898,0
13740,0.871094,0.407715,0.0146484,0
13760,0.871094,0.410156,0.0107422,0
13780,0.867676,0.410645,0.0117188,0
13800,0.865234,0.408203,0.012207,0
13820,0.864746,0.40918,0.00976562,0
13840,0.867676,0.408691,0.0126953,0
13860,0.875,0.407715,0.0205078,0
13880,0.875977,0.409668,0.0180664,0
13900,0.866211,0.411621,0.0131836,0
13920,0.869141,0.404297,0.0166016,0
13940,0.863281,0.402344,0.0258789,0
13960,0.864746,0.415039,0.0161133,0
13980,0.868652,0.410645,0.019043,0
14000,0.862305,0.42334,-0.000488281,0
14020,0.869141,0.423828,-0.00683594,0
14040,0.878418,0.416992,0.00244141,0
14060,0.867188,0.411133,0.00146484,0
14080,0.864746,0.410156,0.00244141,0
14100,0.870605,0.421387,0.00244141,0
14120,0.876465,0.414551,0.0078125,0
14140,0.873047,0.398926,0.0131836,0
14160,0.870605,0.399902,0.0161133,0
14180,0.870117,0.400879,0.0180664,0
14200,0.867676,0.399902,0.0214844,0
14220,0.861816,0.408203,0.0117188,0
14240,0.86377,0.412598,0.00488281,0
14260,0.869629,0.419434,0.00634766,0
14280,0.868164,0.417969,0.00976562,0
14300,0.867188,0.410645,0.0131836,0
14320,0.870117,0.416992,0.0102539,0
14340,0.869141,0.416016,0.00830078,0
14360,0.864258,0.416992,0.015625,0
14380,0.862793,0.415039,0.0102539,0
14400,0.873047,0.40918,0.0170898,0
14420,0.869141,0.408691,0.012207,0
14440,0.867676,0.401855,0.00830078,0
14460,0.867188,0.410156,0.00830078,0
14480,0.870117,0.41748,0.00146484,0
14500,0.865234,0.417969,0.00537109,0
14520,0.869629,0.406738,0.000488281,0
14540,0.871094,0.430664,0.0146484,0
14560,0.864258,0.416016,0.0078125,0
14580,0.869629,0.40332,0.0195312,0
14600,0.871094,0.402832,0.0249023,0
14620,0.869629,0.411133,0.0195312,0
14640,0.861816,0.411133,0.0229492,0
14660,0.86377,0.412598,0.0209961,0
14680,0.861816,0.414551,0.012207,0
14700,0.866211,0.42334,0.00927734,0
14720,0.873535,0.421387,0.0131836,0
14740,0.870117,0.40625,0.0136719,0
14760,0.865723,0.412109,0.0180664,0
14780,0.860352,0.420898,0.0166016,0
14800,0.85791,0.414062,-0.000488281,0
14820,0.86377,0.410156,0.00683594,0
14840,0.863281,0.433594,-0.00244141,0
14860,0.870117,0.433105,-0.0078125,0
14880,0.876953,0.409668,0.00732422,0
14900,0.873047,0.404297,0.0253906,0
14920,0.862793,0.394531,0.0263672,0
14940,0.862793,0.40625,0.0258789,0
14960,0.856934,0.421387,0.0131836,0
14980,0.858887,0.416016,0.0170898,0
15000,0.865723,0.405762,0.012207,0
15020,0.867676,0.397949,0.0078125,0
15040,0.864258,0.408691,0.0166016,0
15060,0.859863,0.422363,0.0102539,0
15080,0.864258,0.419434,0.0136719,0
15100,0.862305,0.413574,0.00830078,0
15120,0.861328,0.428711,0.00927734,0
15140,0.869629,0.427734,0.00830078,0
15160,0.867676,0.410645,0.00878906,0
15180,0.877441,0.403809,0.0249023,0
15200,0.871094,0.412109,0.0175781,0
15220,0.865723,0.422852,0.0151367,0
15240,0.864746,0.414551,0.0117188,0
15260,0.862793,0.413086,0.00683594,0
15280,0.868652,0.41748,0.00195312,0
15300,0.865723,0.416504,0.0117188,0
15320,0.866699,0.414551,0.00878906,0
15340,0.864746,0.416016,0.0117188,0
15360,0.867188,0.408691,0.0161133,0
15380,0.866211,0.408691,0.0131836,0
15400,0.864746,0.416016,0.0136719,0
15420,0.866211,0.419434,0.015625,0
15440,0.864258,0.416016,0.0102539,0
15460,0.864746,0.414551,0.0117188,0
15480,0.861816,0.417969,0.0102539,0
15500,0.864258,0.412598,0.0107422,0
15520,0.863281,0.410645,0.00244141,0
15540,0.868652,0.42041,0.00830078,0
15560,0.874512,0.421875,0.0195312,0
15580,0.871582,0.420898,0.019043,0
15600,0.860352,0.411133,0.0126953,0
15620,0.861816,0.418457,0.00976562,0
15640,0.862305,0.420898,0.00976562,0
15660,0.86377,0.418457,0.0102539,0
15680,0.866211,0.41748,0.0205078,0
15700,0.865234,0.422363,0.0175781,0
15720,0.867188,0.419434,0.0146484,0
15740,0.868164,0.413574,0.0175781,0
15760,0.86084,0.419922,0.0151367,0
15780,0.861816,0.421875,0.0117188,0
15800,0.865234,0.41748,0.0146484,0
15820,0.863281,0.415527,0.0161133,0
15840,0.864258,0.415039,0.0209961,0
15860,0.862793,0.422852,0.0175781,0
15880,0.861816,0.42334,0.0170898,0
15900,0.863281,0.413574,0.0180664,0
15920,0.86377,0.417969,0.0244141,0
15940,0.866699,0.418945,0.0244141,0
15960,0.866211,0.418457,0.0141602,0
15980,0.864746,0.419434,0.0180664,0
16000,0.865723,0.42334,0.0175781,0
16020,0.866211,0.422363,0.0161133,0
16040,0.865723,0.416504,0.0200195,0
16060,0.864258,0.416504,0.0200195,0
16080,0.863281,0.425781,0.0136719,0
16100,0.861816,0.418457,0.0126953,0
16120,0.863281,0.419434,0.0175781,0
16140,0.864746,0.423828,0.0200195,0
16160,0.866211,0.418945,0.015625,0
16180,0.864746,0.418457,0.0151367,0
16200,0.866699,0.419434,0.0146484,0
16220,0.865723,0.422363,0.0146484,0
16240,0.867188,0.42041,0.0126953,0
16260,0.866699,0.412109,0.0131836,0
16280,0.867676,0.418457,0.0141602,0
16300,0.878906,0.42627,0.0146484,0
16320,0.889648,0.421875,0.0102539,0
16340,0.883301,0.421387,0.0136719,0
16360,0.874023,0.424805,0.00439453,0
16380,0.875488,0.419434,0.000976562,0
16400,0.878906,0.409668,0.00878906,0
16420,0.866211,0.401367,0.0141602,0
16440,0.854004,0.414062,0.0136719,0
16460,0.854004,0.416992,0.015625,0
16480,0.86084,0.428711,0.0219727,0
16500,0.852539,0.4375,0.0214844,0
16520,0.848145,0.462402,0.0327148,0
16540,0.854004,0.459961,0.050293,0
16560,0.854492,0.458008,0.0517578,0
16580,0.861816,0.467285,0.0488281,0
16600,0.861816,0.46875,0.0390625,0
16620,0.854004,0.471191,0.0327148,0
16640,0.849609,0.468262,0.0244141,0
16660,0.833984,0.459473,0.0288086,0
16680,0.82666,0.442871,0.0341797,0
16700,0.824707,0.436035,0.0473633,0
16720,0.822266,0.447266,0.0634766,0
16740,0.822266,0.466309,0.0805664,0
16760,0.825684,0.476074,0.0864258,0
16780,0.822266,0.482422,0.0952148,0
16800,0.813965,0.489258,0.104492,0
16820,0.802246,0.488281,0.107422,0
16840,0.802246,0.480469,0.0981445,0
16860,0.810059,0.483398,0.0991211,0
16880,0.812988,0.492188,0.0932617,0
16900,0.809082,0.491211,0.0869141,0
16920,0.805176,0.501465,0.0898438,0
16940,0.802734,0.507812,0.0927734,0
16960,0.800781,0.505859,0.09375,0
16970,0.790527,0.504883,0.0927734,0
16990,0.786133,0.510742,0.0893555,0
17010,0.79248,0.515625,0.09375,0
17030,0.796875,0.516113,0.0952148,0
17050,0.798828,0.525879,0.0976562,0
17070,0.799316,0.528809,0.0942383,0
17090,0.793457,0.532715,0.0898438,0
17110,0.794434,0.530273,0.0913086,0
17130,0.787598,0.531738,0.0947266,0
17150,0.789062,0.539551,0.0927734,0
17170,0.77832,0.559082,0.105957,0
17190,0.772461,0.563477,0.126465,0
17210,0.768066,0.572266,0.150391,0
17230,0.768555,0.581055,0.145996,0
17250,0.770996,0.572266,0.138184,0
17270,0.76709,0.562988,0.125,0
17290,0.767578,0.568848,0.106934,0
17310,0.761719,0.580078,0.0942383,0
17330,0.76123,0.567871,0.0776367,0
17350,0.759277,0.554199,0.0849609,0
17370,0.753418,0.544922,0.0942383,0
17390,0.753418,0.543457,0.110352,0
17410,0.753418,0.535645,0.126465,0
17430,0.741699,0.538086,0.132324,0
17450,0.739746,0.546875,0.128906,0
17470,0.735352,0.558105,0.127441,0
17490,0.742676,0.55957,0.137207,0
17510,0.742188,0.55957,0.125977,0
17530,0.739746,0.555176,0.135742,0
17550,0.743652,0.556641,0.127441,0
17570,0.743652,0.558105,0.126465,0
17590,0.74707,0.562988,0.125,0
17610,0.75293,0.574219,0.125,0
17630,0.75,0.575195,0.118164,0
17650,0.752441,0.581055,0.117188,0
17670,0.754395,0.582031,0.111816,0
17690,0.749023,0.57373,0.11377,0
17710,0.746094,0.57959,0.102539,0
17730,0.749023,0.583984,0.104004,0
17750,0.753418,0.584961,0.102051,0
17770,0.751953,0.576172,0.103027,0
17790,0.755371,0.572754,0.0991211,0
17810,0.758301,0.568359,0.100586,0
17830,0.756348,0.562988,0.102051,0
17850,0.750488,0.554199,0.100586,0
17870,0.749023,0.553223,0.101562,0
17890,0.75293,0.544434,0.102539,0
17910,0.759277,0.535645,0.103027,0
17930,0.757324,0.539551,0.100098,0
17950,0.758789,0.54834,0.105957,0
17970,0.761719,0.543457,0.100586,0
17990,0.76709,0.541016,0.101074,0
18010,0.774902,0.544922,0.102051,0
18030,0.780273,0.560059,0.0947266,0
18050,0.790527,0.560547,0.0888672,0
18070,0.793457,0.564453,0.0854492,0
18090,0.807129,0.564453,0.0854492,0
18110,0.818359,0.553711,0.0834961,0
18130,0.823242,0.543945,0.0839844,0
18150,0.813965,0.539062,0.0644531,0
18170,0.806641,0.538574,0.0473633,0
18190,0.800781,0.536621,0.0400391,0
18210,0.803223,0.529785,0.0410156,0
18230,0.805176,0.53125,0.0512695,0
18250,0.808105,0.537109,0.0522461,0
18270,0.811035,0.541504,0.0629883,0
18290,0.812988,0.534668,0.0649414,0
18310,0.8125,0.534668,0.0566406,0
18330,0.817871,0.531738,0.0546875,0
18350,0.820801,0.518066,0.0458984,0
18370,0.808105,0.519043,0.0415039,0
18390,0.808594,0.520996,0.0351562,0
18410,0.805176,0.519043,0.0375977,0
18430,0.808105,0.514648,0.0385742,0
18450,0.807129,0.513184,0.0449219,0
18470,0.802246,0.520508,0.0449219,0
18490,0.802246,0.521973,0.0517578,0
18510,0.797363,0.521973,0.0537109,0
18530,0.79834,0.524902,0.0498047,0
18550,0.794434,0.522949,0.0537109,0
18570,0.790039,0.521973,0.0629883,0
18590,0.789551,0.523926,0.0644531,0
18610,0.783203,0.528809,0.0620117,0
18630,0.784668,0.527344,0.0581055,0
18650,0.781738,0.520996,0.0581055,0
18670,0.785645,0.524414,0.059082,0
18690,0.791992,0.524414,0.0571289,0
18710,0.789551,0.519043,0.0556641,0
18730,0.785156,0.518066,0.0566406,0
18750,0.787109,0.515137,0.0546875,0
18770,0.783691,0.509277,0.0620117,0
18790,0.783691,0.504395,0.0664062,0
18810,0.781738,0.499023,0.0673828,0
18830,0.784668,0.506836,0.0634766,0
18850,0.796387,0.509277,0.0722656,0
18870,0.797363,0.519043,0.0820312,0
18890,0.802246,0.522461,0.0825195,0
18910,0.806152,0.519531,0.0742188,0
18930,0.807129,0.504395,0.0683594,0
18950,0.802734,0.505859,0.0620117,0
18960,0.817383,0.504395,0.0512695,0
18980,0.821777,0.49707,0.0488281,0
19000,0.828125,0.491699,0.0493164,0
19020,0.837891,0.492188,0.0454102,0
19040,0.844238,0.483887,0.0371094,0
19060,0.849121,0.48584,0.0258789,0
19080,0.856934,0.478027,0.0263672,0
19100,0.865723,0.474609,0.0385742,0
19120,0.859375,0.466797,0.0273438,0
19140,0.850586,0.458984,0.0224609,0
19160,0.84082,0.462402,0.0229492,0
19180,0.833496,0.464844,0.012207,0
19200,0.838379,0.472656,0.0170898,0
19220,0.840332,0.476074,0.0224609,0
19240,0.844238,0.484375,0.0361328,0
19260,0.845215,0.485352,0.0385742,0
19280,0.845703,0.492188,0.0380859,0
19300,0.837402,0.484863,0.0390625,0
19320,0.838867,0.484375,0.0380859,0
19340,0.835938,0.480957,0.0478516,0
19360,0.833496,0.475098,0.0449219,0
19380,0.832031,0.476074,0.0410156,0
19400,0.834473,0.47168,0.0458984,0
19420,0.833496,0.468262,0.0400391,0
19440,0.834473,0.469238,0.0493164,0
19460,0.834473,0.467773,0.0527344,0
19480,0.82959,0.470703,0.0566406,0
19500,0.835449,0.464844,0.0556641,0
19520,0.827637,0.461426,0.0576172,0
19540,0.83252,0.474121,0.0556641,0
19560,0.840332,0.473633,0.0600586,0
19580,0.833008,0.47168,0.0576172,0
19600,0.831055,0.474609,0.0581055,0
19620,0.830078,0.478027,0.0600586,0
19640,0.827637,0.475586,0.0581055,0
19660,0.82959,0.472656,0.0541992,0
19680,0.82666,0.477539,0.059082,0
19700,0.828613,0.486816,0.0576172,0
19720,0.826172,0.484375,0.0615234,0
19740,0.826172,0.478027,0.0605469,0
19760,0.824707,0.483398,0.0620117,0
19780,0.822754,0.488281,0.0654297,0
19800,0.826172,0.48291,0.0634766,0
19820,0.828125,0.476562,0.0678711,0
19840,0.831055,0.481445,0.0688477,0
19860,0.82666,0.477539,0.0561523,0
19880,0.825684,0.473145,0.0620117,0
19900,0.825195,0.478027,0.0649414,0
19920,0.828613,0.477051,0.0693359,0
19940,0.827148,0.474609,0.0664062,0
19960,0.827637,0.475586,0.0610352,0
19980,0.828125,0.47998,0.0595703,0
20000,0.822266,0.481934,0.059082,0
20020,0.822266,0.479492,0.0620117,0
20040,0.824707,0.480957,0.0610352,0
20060,0.822754,0.483398,0.0605469,0
20080,0.82373,0.47998,0.0576172,0
20100,0.825684,0.476074,0.0585938,0
20120,0.827148,0.482422,0.0571289,0
20140,0.827637,0.48291,0.0581055,0
20160,0.82666,0.483887,0.0561523,0
20180,0.82373,0.478516,0.0532227,0
20200,0.820312,0.477051,0.0473633,0
20220,0.819336,0.479492,0.0541992,0
20240,0.820312,0.475098,0.0610352,0
20260,0.830078,0.478516,0.0615234,0
20280,0.830078,0.484863,0.0644531,0
20300,0.828613,0.480469,0.0576172,0
20320,0.82959,0.475098,0.059082,0
20340,0.827148,0.485352,0.0517578,0
20360,0.828613,0.483887,0.0449219,0
20380,0.830078,0.479492,0.0483398,0
20400,0.834961,0.482422,0.0498047,0
20420,0.834473,0.48291,0.0566406,0
20440,0.830566,0.483887,0.0566406,0
20460,0.824219,0.481934,0.0507812,0
20480,0.836426,0.481445,0.0571289,0
20500,0.831055,0.477539,0.0517578,0
20520,0.824707,0.475586,0.0556641,0
20540,0.825684,0.477539,0.0576172,0
20560,0.82373,0.478516,0.0541992,0
20580,0.821289,0.475586,0.0605469,0
20600,0.816406,0.471191,0.0571289,0
20620,0.817383,0.47168,0.0595703,0
20640,0.820312,0.46875,0.0644531,0
20660,0.81543,0.472656,0.0576172,0
20680,0.825684,0.474121,0.0644531,0
20700,0.828125,0.476074,0.0639648,0
20720,0.835938,0.477539,0.0620117,0
20740,0.838379,0.476562,0.0566406,0
20760,0.836426,0.475586,0.0566406,0
20780,0.835938,0.483398,0.0600586,0
20800,0.838379,0.484863,0.0483398,0
20820,0.842773,0.478516,0.0512695,0
20840,0.84668,0.483887,0.0483398,0
20860,0.844727,0.494141,0.0454102,0
20880,0.84082,0.486816,0.0512695,0
20900,0.831055,0.474121,0.0439453,0
20920,0.822754,0.476562,0.0507812,0
20940,0.826172,0.479004,0.0551758,0
20960,0.830566,0.471191,0.0610352,0
20980,0.830078,0.466797,0.059082,0
21000,0.830078,0.473633,0.0546875,0
21020,0.824219,0.475586,0.0527344,0
21040,0.82373,0.47168,0.0571289,0
21060,0.821289,0.467285,0.0473633,0
21080,0.821777,0.475098,0.0507812,0
21100,0.818359,0.470703,0.0605469,0
21120,0.818848,0.478516,0.0649414,0
21140,0.822266,0.48291,0.0610352,0
21160,0.822266,0.483398,0.0566406,0
21180,0.824707,0.48291,0.0585938,0
21200,0.82373,0.484863,0.0463867,0
21220,0.826172,0.48584,0.0478516,0
21240,0.82373,0.491211,0.0512695,0
21260,0.83252,0.487305,0.0498047,0
21280,0.827637,0.493652,0.0566406,0
21300,0.829102,0.495605,0.0600586,0
21320,0.826172,0.490234,0.0541992,0
21340,0.82666,0.488281,0.0541992,0
21360,0.823242,0.483398,0.0585938,0
21380,0.819824,0.481934,0.0629883,0
21400,0.822266,0.491211,0.0615234,0
21420,0.825684,0.484863,0.0644531,0
21440,0.82666,0.493652,0.0664062,0
21460,0.825684,0.488281,0.0668945,0
21480,0.824707,0.485352,0.0551758,0
21500,0.820312,0.481445,0.0512695,0
21520,0.818848,0.487305,0.0458984,0
21540,0.8125,0.483398,0.050293,0
21560,0.813965,0.485352,0.0649414,0
21580,0.81543,0.499512,0.0795898,0
21600,0.817871,0.505371,0.0942383,0
21620,0.810547,0.508301,0.100586,0
21640,0.804688,0.506836,0.105469,0
21660,0.79834,0.495605,0.0991211,0
21680,0.801758,0.491699,0.0888672,0
21700,0.814941,0.489258,0.0869141,0
21720,0.821289,0.486816,0.0864258,0
21740,0.823242,0.492188,0.0800781,0
21760,0.852051,0.508789,0.0742188,0
21780,0.849121,0.568359,0.0546875,0
21800,0.823242,0.654785,-0.000488281,0
21820,0.837891,0.784668,0.0209961,0
21840,0.857422,0.943848,0.192871,0
21860,0.953613,0.793945,0.409668,0
21880,0.871582,0.678711,0.509766,0
21900,0.791992,0.781738,0.613281,0
21920,0.724609,0.941895,0.680176,0
21940,0.67627,1.10254,0.674805,0
21960,0.624512,1.09033,0.67334,0
21980,0.515137,1.021,0.671387,0
22000,0.395508,0.960938,0.668457,0
22020,0.254883,0.887695,0.634277,0
22040,0.199707,0.807129,0.561523,0
22060,0.161621,0.782227,0.46875,0
22080,0.163574,0.79541,0.408691,0
22100,0.177734,0.765137,0.34082,0
22120,0.145996,0.699707,0.257324,0
22140,0.132324,0.668457,0.219727,0
22160,0.111328,0.637207,0.178711,0
22180,0.0839844,0.611816,0.171387,0
22200,0.0712891,0.610352,0.128906,0
22220,0.0341797,0.625488,0.0864258,0
22240,-0.0366211,0.657715,0.0717773,0
22260,-0.110352,0.711426,0.0996094,0
22280,-0.183105,0.775391,0.141602,0
22300,-0.229004,0.772461,0.103027,0
22320,-0.268066,0.787598,0.0991211,0
22340,-0.299805,0.831055,0.111816,0
22360,-0.320312,0.882812,0.131348,0
22380,-0.370117,0.883301,0.145508,0
22400,-0.401855,0.894531,0.128418,0
22410,-0.435059,0.875977,0.0771484,0
22430,-0.452148,0.884766,0.103516,0
22450,-0.466309,0.896973,0.102539,0
22470,-0.472656,0.891113,0.113281,0
22490,-0.457031,0.872559,0.117676,0
22510,-0.459473,0.854004,0.125,0
22530,-0.434082,0.845215,0.141602,0
22550,-0.414062,0.842285,0.139648,0
22570,-0.410156,0.858398,0.141602,0
22590,-0.407227,0.861816,0.156738,0
22610,-0.394531,0.842773,0.163086,0
22630,-0.38623,0.830566,0.161621,0
22650,-0.380859,0.84082,0.17041,0
22670,-0.381348,0.827148,0.170898,0
22690,-0.362793,0.809082,0.183594,0
22710,-0.335449,0.803711,0.178223,0
22730,-0.339355,0.796875,0.145996,0
22750,-0.365234,0.812988,0.135254,0
22770,-0.388184,0.818359,0.128906,0
22790,-0.396484,0.839355,0.14209,0
22810,-0.395508,0.864258,0.138672,0
22830,-0.40625,0.912598,0.129883,0
22850,-0.431641,0.956055,0.10498,0
22870,-0.446289,0.986328,0.103516,0
22890,-0.443359,1.00635,0.0991211,0
22910,-0.447266,1.00684,0.0952148,0
22930,-0.442383,1.0083,0.101074,0
22950,-0.419434,1.021,0.100586,0
22970,-0.397949,1.04053,0.0966797,0
22990,-0.382812,1.04053,0.104492,0
23010,-0.370117,1.04736,0.107422,0
23030,-0.352051,1.02295,0.109863,0
23050,-0.323242,0.972168,0.10791,0
23070,-0.293945,0.946289,0.135742,0
23090,-0.269531,0.926758,0.145508,0
23110,-0.231934,0.908203,0.148438,0
23130,-0.216797,0.902344,0.146973,0
23150,-0.229004,0.90332,0.162598,0
23170,-0.225586,0.910645,0.179199,0
23190,-0.213379,0.913574,0.169434,0
23210,-0.180664,0.929688,0.182617,0
23230,-0.157227,0.949219,0.168945,0
23250,-0.146484,0.975586,0.153809,0
23270,-0.138184,0.960938,0.141113,0
23290,-0.122559,0.94043,0.120117,0
23310,-0.09375,0.935547,0.0976562,0
23330,-0.0732422,0.939941,0.115723,0
23350,-0.0678711,0.958984,0.104004,0
23370,-0.0737305,0.973145,0.0991211,0
23390,-0.0898438,0.996582,0.0966797,0
23410,-0.129395,1.02197,0.0966797,0
23430,-0.178223,1.01953,0.101562,0
23450,-0.192383,0.999512,0.142578,0
23470,-0.181152,0.97168,0.149902,0
23490,-0.165527,0.977051,0.143066,0
23510,-0.137695,0.980469,0.135742,0
23530,-0.135742,0.978516,0.114258,0
23550,-0.147461,0.968262,0.142578,0
23570,-0.158203,0.947266,0.152832,0
23590,-0.165039,0.944824,0.146484,0
23610,-0.166504,0.96582,0.151855,0
23630,-0.174316,0.98584,0.166992,0
23650,-0.192871,0.987793,0.165039,0
23670,-0.203613,0.951172,0.161621,0
23690,-0.210449,0.960938,0.162598,0
23710,-0.221191,0.958984,0.159668,0
23730,-0.223633,0.952148,0.163574,0
23750,-0.21582,0.95459,0.170898,0
23770,-0.208984,0.92334,0.159668,0
23790,-0.212402,0.915527,0.150879,0
23810,-0.209473,0.924316,0.161133,0
23830,-0.208984,0.912109,0.166016,0
23850,-0.208496,0.911621,0.161133,0
23870,-0.211426,0.918945,0.157715,0
23890,-0.236328,0.953613,0.144043,0
23910,-0.260742,0.979492,0.151855,0
23930,-0.274902,0.970703,0.166016,0
23950,-0.302246,0.960449,0.166992,0
23970,-0.319824,0.972168,0.166504,0
23990,-0.321289,0.98291,0.164062,0
24010,-0.31543,0.981445,0.165527,0
24030,-0.300781,0.979004,0.158691,0
24050,-0.290039,0.973145,0.145996,0
24070,-0.273438,0.962891,0.149902,0
24090,-0.241699,0.942871,0.146973,0
24110,-0.213379,0.936035,0.154785,0
24130,-0.197266,0.935059,0.166504,0
24150,-0.189453,0.922852,0.169922,0
24170,-0.182129,0.912109,0.174316,0
24190,-0.179199,0.916016,0.170898,0
24210,-0.183594,0.916016,0.153809,0
24230,-0.197266,0.92041,0.157227,0
24250,-0.197266,0.934082,0.157227,0
24270,-0.20166,0.947266,0.158691,0
24290,-0.205078,0.946289,0.154297,0
24310,-0.209961,0.945801,0.150879,0
24330,-0.20752,0.949707,0.145996,0
24350,-0.204102,0.950195,0.157227,0
24370,-0.213379,0.95166,0.155762,0
24390,-0.23291,0.95752,0.148926,0
24410,-0.234863,0.969727,0.15918,0
24420,-0.239258,0.969727,0.166992,0
24440,-0.23877,0.966309,0.163574,0
24460,-0.242676,0.962891,0.14502,0
24480,-0.23877,0.95752,0.160156,0
24500,-0.233887,0.947754,0.159668,0
24520,-0.238281,0.944824,0.15332,0
24540,-0.238281,0.944824,0.157227,0
24560,-0.229492,0.942871,0.159668,0
24580,-0.228027,0.932617,0.164062,0
24600,-0.221191,0.930176,0.165527,0
24620,-0.226074,0.941895,0.155273,0
24640,-0.216797,0.95166,0.152832,0
24660,-0.219727,0.955078,0.138184,0
24680,-0.220703,0.949707,0.150391,0
24700,-0.216309,0.946289,0.149902,0
24720,-0.215332,0.953125,0.15332,0
24740,-0.219727,0.964355,0.148926,0
24760,-0.217285,0.961914,0.157715,0
24780,-0.212891,0.954102,0.15918,0
24800,-0.219238,0.949707,0.166016,0
24820,-0.208984,0.931641,0.165527,0
24840,-0.199707,0.959961,0.162109,1000
24860,-0.213379,0.961914,0.161133,0
24880,-0.213867,0.955078,0.158691,0
24900,-0.213867,0.94043,0.152832,0
24920,-0.210449,0.95166,0.155762,0
24940,-0.208984,0.959961,0.151367,0
24960,-0.214844,0.947754,0.147949,0
24980,-0.217285,0.957031,0.155762,0
25000,-0.21582,0.946289,0.146973,0
25020,-0.223145,0.946289,0.140625,0
25040,-0.222656,0.941895,0.154297,0
25060,-0.210938,0.943359,0.150879,0
25080,-0.21582,0.945312,0.155273,0
25100,-0.220703,0.94873,0.154297,0
25120,-0.228027,0.94873,0.155273,0
25140,-0.216309,0.948242,0.160156,0
25160,-0.207031,0.943359,0.161133,0
25180,-0.212402,0.950684,0.155273,0
25200,-0.216309,0.958496,0.15918,0
25220,-0.206543,0.953613,0.167969,0
25240,-0.195801,0.953613,0.169922,0
25260,-0.205566,0.960938,0.165039,0
25280,-0.19873,0.96875,0.171875,0
25300,-0.198242,0.965332,0.178711,0
25320,-0.195312,0.959961,0.162109,0
25340,-0.199707,0.956055,0.146484,0
25360,-0.198242,0.959473,0.156738,0
25380,-0.191895,0.946777,0.152832,0
25400,-0.205566,0.947266,0.152344,0
25420,-0.206055,0.946777,0.146973,0
25440,-0.213379,0.949707,0.155762,0
25460,-0.216309,0.944824,0.146973,0
25480,-0.225098,0.94873,0.144531,0
25500,-0.222656,0.955078,0.146973,0
25520,-0.215332,0.95166,0.141602,0
25540,-0.220215,0.950195,0.140625,0
25560,-0.216309,0.953613,0.142578,0
25580,-0.215332,0.960449,0.134766,0
25600,-0.217285,0.949219,0.137695,0
25620,-0.22998,0.951172,0.132324,0
25640,-0.233398,0.959961,0.126465,0
25660,-0.224609,0.958008,0.117676,0
25680,-0.225098,0.939941,0.121582,0
25700,-0.229004,0.941406,0.12793,0
25720,-0.228516,0.947266,0.125,0
25740,-0.239746,0.938477,0.105469,0
25760,-0.241699,0.934082,0.114258,0
25780,-0.245117,0.9375,0.102051,0
25800,-0.254395,0.954102,0.10498,0
25820,-0.282715,0.949707,0.10498,0
25840,-0.27832,0.94043,0.106934,0
25860,-0.279785,0.941895,0.101074,0
25880,-0.292969,0.946289,0.10498,0
25900,-0.29834,0.946777,0.0991211,0
25920,-0.292969,0.944336,0.101074,0
25940,-0.287598,0.937988,0.0839844,0
25960,-0.316895,0.939941,0.0766602,0
25980,-0.333008,0.941406,0.0756836,0
26000,-0.335449,0.936523,0.0878906,0
26020,-0.327148,0.94043,0.0986328,0
26040,-0.34375,0.9375,0.0791016,0
26060,-0.362305,0.930176,0.0546875,0
26080,-0.36377,0.927734,0.0673828,0
26100,-0.365234,0.930664,0.0756836,0
26120,-0.364746,0.94043,0.0615234,0
26140,-0.354492,0.943848,0.0424805,0
26160,-0.376953,0.934082,0.0483398,0
26180,-0.384277,0.930176,0.0727539,0
26200,-0.392578,0.911621,0.0600586,0
26220,-0.383301,0.907227,0.0415039,0
26240,-0.383789,0.914062,0.0454102,0
26260,-0.396484,0.915039,0.0483398,0
26280,-0.418945,0.90625,0.0463867,0
26300,-0.427246,0.899902,0.0380859,0
26320,-0.421387,0.890137,0.0419922,0
26340,-0.437988,0.894043,0.0322266,0
26360,-0.453125,0.899902,0.0332031,0
26380,-0.455078,0.889648,0.0444336,0
26400,-0.452148,0.881348,0.0458984,0
26420,-0.45166,0.881348,0.0449219,0
26440,-0.455566,0.875488,0.0332031,0
26460,-0.450195,0.877441,0.0488281,0
26480,-0.451172,0.879395,0.0556641,0
26500,-0.45752,0.875977,0.0473633,0
26520,-0.444336,0.874023,0.0537109,0
26540,-0.447754,0.888184,0.0605469,0
26560,-0.462891,0.89209,0.0732422,0
26580,-0.475098,0.88916,0.0712891,0
26600,-0.490234,0.901855,0.0668945,0
26620,-0.499512,0.901855,0.0629883,0
26640,-0.508789,0.891602,0.0742188,0
26660,-0.515137,0.895996,0.078125,0
26680,-0.52832,0.891602,0.0834961,0
26700,-0.53125,0.880371,0.0830078,0
26720,-0.524902,0.871582,0.0825195,0
26740,-0.518066,0.861816,0.0942383,0
26760,-0.517578,0.849121,0.0996094,0
26780,-0.512207,0.846191,0.103027,0
26800,-0.510742,0.84375,0.111328,0
26820,-0.501953,0.851562,0.117188,0
26840,-0.493652,0.835938,0.107422,0
26860,-0.499023,0.840332,0.117188,0
26880,-0.505859,0.838867,0.137207,0
26900,-0.518555,0.842773,0.152832,0
26920,-0.53125,0.841309,0.140625,0
26940,-0.524902,0.833984,0.141602,0
26960,-0.527832,0.844238,0.152832,0
26980,-0.547363,0.845703,0.168457,0
27000,-0.552734,0.851074,0.171387,0
27020,-0.564453,0.858398,0.182129,0
27040,-0.557129,0.868164,0.180664,0
27060,-0.550293,0.865234,0.185059,0
27080,-0.561035,0.865723,0.196777,0
27100,-0.569336,0.876953,0.193359,0
27120,-0.553711,0.887695,0.200195,0
27140,-0.550293,0.87793,0.203613,0
27160,-0.523438,0.871094,0.220215,0
27180,-0.510254,0.863281,0.239258,0
27200,-0.51416,0.892578,0.240234,0
27220,-0.472168,0.887207,0.228027,0
27240,-0.416016,0.875977,0.246094,0
27260,-0.42627,0.884766,0.272949,0
27280,-0.467285,0.870117,0.26709,0
27300,-0.478027,0.870117,0.273926,0
27320,-0.437012,0.877441,0.26709,0
27340,-0.397461,0.903809,0.277832,0
27360,-0.393555,0.90918,0.277344,0
27380,-0.382324,0.880859,0.277344,0
27400,-0.38916,0.86377,0.275391,0
27420,-0.348633,0.875,0.274902,0
27440,-0.324219,0.888184,0.286621,0
27460,-0.333008,0.907715,0.282227,0
27480,-0.340332,0.879883,0.28125,0
27500,-0.341309,0.851074,0.278809,0
27520,-0.331055,0.864258,0.274902,0
27540,-0.317871,0.90332,0.282227,0
27560,-0.29541,0.888184,0.270996,0
27580,-0.29248,0.868652,0.253418,0
27600,-0.288574,0.895508,0.256836,0
27620,-0.276367,0.896973,0.251953,0
27640,-0.273438,0.901855,0.254883,0
27660,-0.276855,0.891113,0.249023,0
27680,-0.291016,0.894043,0.246582,0
27700,-0.264648,0.887207,0.235352,0
27720,-0.231934,0.898438,0.217285,0
27740,-0.234375,0.910156,0.204102,0
27760,-0.255859,0.900391,0.230957,0
27780,-0.257324,0.888184,0.23291,0
27800,-0.239746,0.891602,0.191406,0
27820,-0.242188,0.932129,0.202148,0
27840,-0.260742,0.946777,0.21582,0
27850,-0.248047,0.915527,0.20459,0
27870,-0.236328,0.895996,0.172363,0
27890,-0.224609,0.918945,0.149902,0
27910,-0.220703,0.931152,0.162598,0
27930,-0.217773,0.936523,0.166992,0
27950,-0.208496,0.938477,0.144043,0
27970,-0.213379,0.939941,0.133789,0
27990,-0.207031,0.935547,0.148926,0
28010,-0.203613,0.935547,0.131348,0
28030,-0.203125,0.964355,0.107422,0
28050,-0.20459,0.968262,0.108398,0
28070,-0.194336,0.94043,0.11084,0
28090,-0.185547,0.929199,0.081543,0
28110,-0.200195,0.964355,0.0634766,0
28130,-0.191406,0.958496,0.0712891,0
28150,-0.191406,0.928223,0.0708008,0
28170,-0.221191,0.950684,0.0722656,0
28190,-0.241211,0.960449,0.0615234,0
28210,-0.246094,0.942871,0.0532227,0
28230,-0.231445,0.931641,0.0522461,0
28250,-0.247559,0.949219,0.0356445,0
28270,-0.245117,0.941895,-0.00439453,0
28290,-0.26123,0.937988,0.00390625,0
28310,-0.248535,0.92334,0.0229492,0
28330,-0.247559,0.946777,0.0146484,0
28350,-0.266602,0.974121,0.00195312,0
28370,-0.288086,0.961914,0.00390625,0
28390,-0.301758,0.946289,0.0219727,0
28410,-0.3125,0.959961,0.0253906,0
28430,-0.320801,0.957031,0.0102539,0
28450,-0.32666,0.943848,-0.0126953,0
28470,-0.339355,0.945312,-0.0161133,0
28490,-0.376953,0.971191,-0.00341797,0
28510,-0.393555,0.960449,0.00146484,0
28530,-0.37793,0.947266,-0.0175781,0
28550,-0.362793,0.957031,-0.0209961,0
28570,-0.371582,0.921387,-0.0141602,0
28590,-0.379883,0.893555,-0.00244141,0
28610,-0.404297,0.901367,-0.00195312,0
28630,-0.420898,0.902832,-0.0302734,0
28650,-0.436035,0.892578,-0.0380859,0
28670,-0.462891,0.869141,0.0205078,0
28690,-0.46875,0.86377,0.0297852,0
28710,-0.45166,0.86377,-0.0292969,0
28730,-0.474121,0.882324,-0.0297852,0
28750,-0.510742,0.879395,-0.00537109,0
28770,-0.512695,0.859863,0.00244141,0
28790,-0.51416,0.852539,-0.0263672,0
28810,-0.529297,0.870605,-0.0288086,0
28830,-0.540527,0.862305,-0.000488281,0
28850,-0.539551,0.845703,0.0283203,0
28870,-0.552246,0.845215,-0.0200195,0
28890,-0.568359,0.841309,-0.0263672,0
28910,-0.571777,0.845215,0.0078125,0
28930,-0.606934,0.855957,0.0180664,0
28950,-0.614258,0.856445,0.0126953,0
28970,-0.59668,0.839844,-0.00683594,0
28990,-0.594238,0.818848,0.00244141,0
29010,-0.606934,0.798828,-0.000488281,0
29030,-0.657227,0.821289,0.0200195,0
29050,-0.638672,0.812988,0.0219727,0
29070,-0.626465,0.794434,0.00878906,0
29090,-0.649902,0.790039,0.0214844,0
29110,-0.656738,0.768066,0.027832,0
29130,-0.658203,0.754395,0.034668,0
29150,-0.668945,0.752441,0.0458984,0
29170,-0.670898,0.749023,0.0546875,0
29190,-0.684082,0.742676,0.0473633,0
29210,-0.705566,0.75,0.0395508,0
29230,-0.71582,0.736816,0.0488281,0
29250,-0.705078,0.723633,0.0634766,0
29270,-0.703613,0.730957,0.0507812,0
29290,-0.699707,0.733398,0.0527344,0
29310,-0.71582,0.720703,0.0698242,0
29330,-0.724121,0.726562,0.0830078,0
29350,-0.722168,0.729492,0.0698242,0
29370,-0.718262,0.722168,0.0854492,0
29390,-0.731934,0.722656,0.114746,0
29410,-0.743164,0.722656,0.113281,0
29430,-0.762207,0.735352,0.11084,0
29450,-0.745605,0.73584,0.121582,0
29470,-0.717773,0.729492,0.141113,0
29490,-0.712402,0.707031,0.13623,0
29510,-0.738281,0.713867,0.143555,0
29530,-0.747559,0.711426,0.162598,0
29550,-0.749512,0.745117,0.16748,0
29570,-0.691406,0.740234,0.177734,0
29590,-0.66748,0.727051,0.200684,0
29610,-0.689941,0.70459,0.209473,0
29630,-0.73291,0.729492,0.208008,0
29650,-0.702148,0.742188,0.196777,0
29670,-0.678711,0.749512,0.225098,0
29690,-0.68457,0.740234,0.249512,0
29710,-0.698242,0.728516,0.255859,0
29730,-0.695312,0.717773,0.256348,0
29750,-0.650391,0.748535,0.263672,0
29770,-0.628906,0.759277,0.274414,0
29790,-0.605469,0.760742,0.302246,0
29810,-0.623047,0.734863,0.295898,0
29830,-0.618164,0.726074,0.297363,0
29850,-0.585449,0.733398,0.296387,0
29860,-0.552246,0.772949,0.305664,0
29880,-0.560059,0.772949,0.307617,0
29900,-0.555664,0.77832,0.303711,0
29920,-0.53418,0.778809,0.310547,0
29940,-0.506348,0.786133,0.301758,0
29960,-0.492188,0.790039,0.290039,0
29980,-0.513184,0.803711,0.291992,0
30000,-0.524414,0.830078,0.293945,0
30020,-0.486816,0.831055,0.284668,0
30040,-0.453125,0.84375,0.266602,0
30060,-0.430664,0.824707,0.262207,0
30080,-0.412109,0.820801,0.263184,0
30100,-0.391113,0.842773,0.270508,0
30120,-0.391113,0.847656,0.253418,0
30140,-0.385254,0.858887,0.23584,0
30160,-0.388672,0.852539,0.225098,0
30180,-0.382324,0.86084,0.237305,0
30200,-0.371582,0.868164,0.215332,0
30220,-0.37793,0.863281,0.206055,0
30240,-0.390625,0.862305,0.195801,0
30260,-0.397461,0.868652,0.208496,0
30280,-0.388184,0.881836,0.215332,0
30300,-0.390625,0.889648,0.185547,0
30320,-0.410645,0.898926,0.172852,0
30340,-0.38916,0.887695,0.184082,0
30360,-0.370605,0.868652,0.19043,0
30380,-0.385742,0.890137,0.173828,0
30400,-0.415039,0.899414,0.160156,0
30420,-0.418945,0.911621,0.151855,0
30440,-0.399902,0.902344,0.14209,0
30460,-0.401855,0.89502,0.124512,0
30480,-0.393555,0.910156,0.114746,0
30500,-0.38623,0.910156,0.105469,0
30520,-0.38623,0.905273,0.0991211,0
30540,-0.397461,0.897949,0.0869141,0
30560,-0.390625,0.885254,0.0761719,0
30580,-0.383789,0.900879,0.0834961,0
30600,-0.386719,0.902344,0.0517578,0
30620,-0.38623,0.895508,0.050293,0
30640,-0.377441,0.881836,0.0170898,0
30660,-0.377441,0.894531,-0.000488281,0
30680,-0.364746,0.891113,0.000976562,0
30700,-0.349121,0.878418,-0.0395508,0
30720,-0.366211,0.885742,-0.0620117,0
30740,-0.360352,0.897949,-0.0668945,0
30760,-0.355469,0.89502,-0.0424805,0
30780,-0.365723,0.881836,-0.0288086,0
30800,-0.387695,0.899902,-0.0410156,0
30820,-0.40918,0.908203,-0.0810547,0
30840,-0.45459,0.911133,-0.081543,0
30860,-0.46875,0.89209,-0.0405273,0
30880,-0.474121,0.89209,-0.0429688,0
30900,-0.519531,0.895996,-0.0605469,0
30920,-0.537109,0.896973,-0.0605469,0
30940,-0.537598,0.861328,-0.0507812,0
30960,-0.543945,0.864258,-0.0581055,0
30980,-0.578613,0.862793,-0.0864258,0
31000,-0.596191,0.861816,-0.0766602,0
31020,-0.617188,0.847168,-0.0595703,0
31040,-0.615234,0.812012,-0.0483398,0
31060,-0.597168,0.780762,-0.0683594,0
31080,-0.614746,0.766113,-0.0693359,0
31100,-0.636719,0.758789,-0.0478516,0
31120,-0.646973,0.741211,-0.0532227,0
31140,-0.645996,0.744141,-0.0610352,0
31160,-0.658203,0.73877,-0.074707,0
31180,-0.671387,0.751953,-0.0898438,0
31200,-0.685059,0.731934,-0.0551758,0
31220,-0.697266,0.717773,-0.03125,0
31240,-0.716309,0.719238,-0.0742188,0
31260,-0.718262,0.715332,-0.0688477,0
31280,-0.720703,0.711914,-0.0615234,0
31300,-0.733398,0.709473,-0.0600586,0
31320,-0.760742,0.728027,-0.0527344,0
31340,-0.770996,0.720703,-0.0532227,0
31360,-0.774414,0.702637,-0.0507812,0
31380,-0.778809,0.691895,-0.046875,0
31400,-0.787598,0.688965,-0.0605469,0
31420,-0.806641,0.691406,-0.0258789,0
31440,-0.810059,0.682617,-0.0107422,0
31460,-0.822266,0.668945,-0.0175781,0
31480,-0.825195,0.663086,-0.0195312,0
31500,-0.808594,0.650391,0.00244141,0
31520,-0.8125,0.638672,0.00927734,0
31540,-0.82959,0.621582,0.0136719,0
31560,-0.834961,0.616211,0.0205078,0
31580,-0.814941,0.611816,0.0288086,0
31600,-0.828125,0.606445,0.0424805,0
31620,-0.853027,0.600586,0.0668945,0
31640,-0.851562,0.584961,0.0649414,0
31660,-0.847168,0.589844,0.0722656,0
31680,-0.86084,0.599121,0.0883789,0
31700,-0.874512,0.584961,0.122559,0
31720,-0.874023,0.56543,0.132324,0
31740,-0.87207,0.574707,0.121582,0
31760,-0.861328,0.578125,0.139648,0
31780,-0.850586,0.566406,0.17041,0
31800,-0.846191,0.560547,0.185059,0
31820,-0.842285,0.567871,0.176758,0
31840,-0.849609,0.576172,0.1875,0
31860,-0.851074,0.55957,0.202148,0
31880,-0.85498,0.540527,0.224121,0
31900,-0.848633,0.54541,0.212891,0
31920,-0.835938,0.53418,0.213379,0
31940,-0.82666,0.554199,0.251953,0
31960,-0.827637,0.556641,0.272949,0
31980,-0.853516,0.572754,0.26709,0
32000,-0.858398,0.584961,0.256348,0
32020,-0.823242,0.585938,0.255859,0
32040,-0.782715,0.602051,0.274902,0
32060,-0.759277,0.614258,0.296387,0
32080,-0.756348,0.618164,0.306641,0
32100,-0.754395,0.613281,0.319336,0
32120,-0.73877,0.653809,0.328613,0
32140,-0.711914,0.669434,0.310059,0
32160,-0.708984,0.702637,0.342773,0
32180,-0.685547,0.705566,0.354004,0
32200,-0.645996,0.671875,0.349609,0
32220,-0.620117,0.706055,0.354004,0
32240,-0.602539,0.726562,0.347168,0
32260,-0.575195,0.737793,0.339355,0
32280,-0.546875,0.706055,0.345215,0
32300,-0.535645,0.709473,0.349609,0
32320,-0.521973,0.727539,0.328613,0
32340,-0.497559,0.742676,0.314453,0
32360,-0.472656,0.761719,0.319336,0
32380,-0.478516,0.75,0.317383,0
32400,-0.484375,0.731445,0.319336,0
32420,-0.480957,0.751953,0.320801,0
32440,-0.483887,0.775879,0.290039,0
32460,-0.479004,0.788086,0.289062,0
32480,-0.460449,0.771973,0.279785,0
32500,-0.478027,0.773926,0.26123,0
32520,-0.484863,0.799316,0.256836,0
32540,-0.492188,0.811523,0.243164,0
32560,-0.467773,0.807129,0.219238,0
32580,-0.463867,0.823242,0.191895,0
32600,-0.463379,0.818848,0.180664,0
32620,-0.471191,0.820312,0.181641,0
32640,-0.446777,0.8125,0.179688,0
32660,-0.455566,0.824219,0.152344,0
32680,-0.482422,0.847168,0.148926,0
32700,-0.491211,0.845703,0.150391,0
32720,-0.484375,0.824707,0.133789,0
32740,-0.48584,0.841309,0.11084,0
32760,-0.490723,0.852051,0.0986328,0
32780,-0.484863,0.851562,0.0766602,0
32800,-0.494141,0.853027,0.0629883,0
32820,-0.521484,0.841797,0.074707,0
32840,-0.503906,0.83252,0.0551758,0
32860,-0.51416,0.857422,0.0263672,0
32880,-0.542969,0.879395,0.012207,0
32900,-0.547363,0.87793,0.0107422,0
32920,-0.540039,0.84375,0.000488281,0
32940,-0.556641,0.845215,0.00390625,0
32960,-0.569336,0.847168,-0.00146484,0
32980,-0.568359,0.84375,-0.0107422,0
33000,-0.611328,0.860352,-0.0151367,0
33020,-0.620605,0.842285,-0.00634766,0
33040,-0.617676,0.798828,-0.0151367,0
33060,-0.625977,0.789551,-0.0273438,0
33080,-0.643555,0.80957,-0.0205078,0
33100,-0.638184,0.813477,-0.019043,0
33120,-0.649414,0.791992,-0.0473633,0
33140,-0.651367,0.76709,-0.0449219,0
33160,-0.648926,0.747559,-0.0322266,0
33180,-0.67334,0.738281,-0.0292969,0
33200,-0.677734,0.747559,-0.0341797,0
33220,-0.685059,0.753418,-0.0556641,0
33240,-0.676758,0.744141,-0.0634766,0
33260,-0.682617,0.708496,-0.0625,0
33280,-0.711914,0.710449,-0.0673828,0
33290,-0.71875,0.69043,-0.0751953,0
33310,-0.713867,0.693359,-0.0898438,0
33330,-0.730469,0.706055,-0.0839844,0
33350,-0.746582,0.694336,-0.0766602,0
33370,-0.745117,0.67334,-0.081543,0
33390,-0.762207,0.672852,-0.0908203,0
33410,-0.789062,0.691406,-0.0786133,0
33430,-0.780762,0.686035,-0.0644531,0
33450,-0.782715,0.647461,-0.0727539,0
33470,-0.785645,0.63916,-0.0571289,0
33490,-0.787109,0.639648,-0.0449219,0
33510,-0.790039,0.630371,-0.0463867,0
33530,-0.804199,0.624023,-0.050293,0
33550,-0.814453,0.615234,-0.0371094,0
33570,-0.808594,0.60791,-0.0317383,0
33590,-0.833496,0.59082,-0.03125,0
33610,-0.858398,0.595703,-0.0380859,0
33630,-0.845215,0.583984,-0.0429688,0
33650,-0.831055,0.579102,-0.034668,1001
33670,-0.864258,0.578613,-0.0175781,0
33690,-0.88916,0.566406,0.0161133,0
33710,-0.881348,0.569336,0.00244141,0
33730,-0.878418,0.57373,-0.00439453,0
33750,-0.878906,0.559082,0.0136719,0
33770,-0.869141,0.544922,0.015625,0
33790,-0.862305,0.542969,-0.00439453,0
33810,-0.875488,0.549316,0.00292969,0
33830,-0.85791,0.548828,0.00878906,0
33850,-0.836426,0.553223,0.00488281,0
33870,-0.828125,0.554688,-0.00585938,0
33890,-0.815918,0.549805,-0.0107422,0
33910,-0.793945,0.549316,-0.00390625,0
33930,-0.765625,0.536621,-0.00244141,0
33950,-0.751465,0.527344,-0.0258789,0
33970,-0.757324,0.526367,-0.0219727,0
33990,-0.740723,0.527344,-0.00244141,0
34010,-0.744141,0.522461,0.0170898,0
34030,-0.722168,0.536133,0.0292969,0
34050,-0.711914,0.537109,-0.00878906,0
34070,-0.716797,0.538574,-0.00390625,0
34090,-0.718262,0.555176,0.0703125,0
34110,-0.676758,0.540527,0.0722656,0
34130,-0.65332,0.558105,0.0317383,0
34150,-0.682617,0.618164,-0.0166016,0
34170,-0.708008,0.655762,0.050293,0
34190,-0.704102,0.653809,0.0991211,0
34210,-0.690918,0.672363,0.102539,0
34230,-0.661133,0.720215,0.0883789,0
34250,-0.634766,0.78125,0.112793,0
34270,-0.631348,0.788086,0.145508,0
34290,-0.61377,0.831055,0.13916,0
34310,-0.563477,0.886719,0.155762,0
34330,-0.521484,0.946777,0.157715,0
34350,-0.503906,1.00732,0.165527,0
34370,-0.486328,1.00146,0.185547,0
34390,-0.408691,0.98584,0.204102,0
34410,-0.372559,1.01807,0.163086,0
34430,-0.369629,1.04248,0.151367,0
34450,-0.38623,1.03857,0.193848,0
34470,-0.325684,0.975098,0.188477,0
34490,-0.282715,0.949707,0.137695,0
34510,-0.303711,1.01855,0.152832,0
34530,-0.352539,1.03906,0.17041,0
34550,-0.322754,0.990234,0.150391,0
34570,-0.302246,0.975098,0.13623,0
34590,-0.293457,0.995605,0.151855,0
34610,-0.262207,0.992188,0.159668,0
34630,-0.248047,0.984863,0.158691,0
34650,-0.260254,0.996094,0.152344,0
34670,-0.269531,0.992188,0.162598,0
34690,-0.287598,0.977539,0.172363,0
34710,-0.295898,0.95459,0.15918,0
34730,-0.296875,0.977539,0.160156,0
34750,-0.320312,0.978027,0.150879,0
34770,-0.35498,0.974121,0.169434,0
34790,-0.361816,0.97168,0.15625,0
34810,-0.356934,0.971191,0.158203,1000
34830,-0.339844,0.972656,0.152344,0
34850,-0.313477,0.960938,0.148926,0
34870,-0.294434,0.938477,0.152344,0
34890,-0.289062,0.926758,0.137695,0
34910,-0.286133,0.923828,0.138672,0
34930,-0.277344,0.925293,0.146973,0
34950,-0.293945,0.93457,0.140137,0
34970,-0.314941,0.932617,0.148438,0
34990,-0.34375,0.918457,0.14502,0
35010,-0.350586,0.919434,0.157715,0
35030,-0.353516,0.926758,0.154785,0
35050,-0.350586,0.94043,0.138184,0
35070,-0.349609,0.934082,0.125488,0
35090,-0.338379,0.931641,0.121582,0
35110,-0.32959,0.936035,0.120605,0
35130,-0.319336,0.932617,0.125977,0
35150,-0.315918,0.929199,0.119141,0
35170,-0.324219,0.921387,0.129883,0
35190,-0.335449,0.913086,0.135742,0
35210,-0.341309,0.924805,0.137207,0
35230,-0.351562,0.929688,0.148926,0
35250,-0.337891,0.931641,0.153809,0
35270,-0.295898,0.909668,0.147949,0
35290,-0.274414,0.888672,0.145996,0
35300,-0.265137,0.911621,0.152832,0
35320,-0.275879,0.923828,0.143555,0
35340,-0.284668,0.923828,0.141113,0
35360,-0.302734,0.930664,0.135254,0
35380,-0.311035,0.950684,0.14209,0
35400,-0.307617,0.948242,0.150391,0
35420,-0.308594,0.940918,0.154297,0
35440,-0.296387,0.938477,0.151855,0
35460,-0.294922,0.935547,0.150879,0
35480,-0.303711,0.938477,0.153809,0
35500,-0.310547,0.941406,0.157227,0
35520,-0.307129,0.935547,0.156738,0
35540,-0.298828,0.923828,0.152832,0
35560,-0.299805,0.917969,0.145996,0
35580,-0.299316,0.941406,0.149414,0
35600,-0.298828,0.952148,0.129395,0
35620,-0.29248,0.939941,0.131836,0
35640,-0.295898,0.933105,0.141602,0
35660,-0.297852,0.9375,0.140625,0
35680,-0.290527,0.939941,0.139648,0
35700,-0.296875,0.954102,0.142578,0
35720,-0.299316,0.937988,0.144043,0
35740,-0.293945,0.936035,0.138672,0
35760,-0.297363,0.934082,0.132324,0
35780,-0.299316,0.938965,0.136719,0
35800,-0.296387,0.939453,0.139648,0
35820,-0.289062,0.938477,0.135742,0
35840,-0.286621,0.929199,0.14502,0
35860,-0.28125,0.936035,0.140137,0
35880,-0.280762,0.945801,0.145996,0
35900,-0.274414,0.937988,0.135254,0
35920,-0.280762,0.935547,0.131348,0
35940,-0.277832,0.939453,0.129395,0
35960,-0.279297,0.944336,0.104492,0
35980,-0.294922,0.955078,0.11084,0
36000,-0.317383,0.966309,0.132812,0
36020,-0.339355,0.958984,0.143555,0
36040,-0.334473,0.950195,0.12793,0
36060,-0.348145,0.947754,0.117188,0
36080,-0.35791,0.944336,0.105469,0
36100,-0.359863,0.938477,0.111816,0
36120,-0.369141,0.9375,0.106445,0
36140,-0.368164,0.92627,0.097168,0
36160,-0.385742,0.923828,0.100098,0
36180,-0.385254,0.929688,0.0830078,0
36200,-0.37793,0.909668,0.0761719,0
36220,-0.379883,0.904785,0.0673828,0
36240,-0.401855,0.911133,0.0625,0
36260,-0.398926,0.902344,0.0703125,0
36280,-0.398438,0.896973,0.0576172,0
36300,-0.396484,0.896484,0.0410156,0
36320,-0.413086,0.908203,0.0493164,0
36340,-0.406738,0.896973,0.0454102,0
36360,-0.414062,0.888184,0.0317383,0
36380,-0.427734,0.897461,0.0126953,0
36400,-0.438965,0.902832,0.0161133,0
36420,-0.451172,0.881836,0.0205078,0
36440,-0.458984,0.880859,0.00927734,0
36460,-0.46875,0.869141,-0.00292969,0
36480,-0.475586,0.874512,-0.0166016,0
36500,-0.483887,0.872559,-0.0151367,0
36520,-0.499023,0.858398,-0.00488281,0
36540,-0.510254,0.869629,-0.00390625,0
36560,-0.511719,0.866699,-0.0268555,0
36580,-0.51123,0.857422,-0.0341797,0
36600,-0.52002,0.851562,-0.0297852,0
36620,-0.525879,0.854492,-0.027832,0
36640,-0.528809,0.849609,-0.0390625,0
36660,-0.538574,0.84082,-0.027832,0
36680,-0.536133,0.835449,-0.015625,0
36700,-0.554688,0.829102,-0.0107422,0
36720,-0.561035,0.819336,-0.0224609,0
36740,-0.567871,0.811523,-0.0219727,0
36760,-0.566895,0.812988,-0.0234375,0
36780,-0.586914,0.813477,-0.00488281,0
36800,-0.587891,0.80957,-0.0126953,0
36820,-0.59082,0.805176,-0.0166016,0
36840,-0.59375,0.811035,-0.00537109,0
36860,-0.602539,0.808105,-0.00878906,0
36880,-0.616699,0.798828,-0.000488281,0
36900,-0.634277,0.806641,-0.00390625,0
36920,-0.62207,0.802734,-0.00146484,0
36940,-0.624512,0.794434,0.0170898,0
36960,-0.635742,0.785156,0.0297852,0
36980,-0.652832,0.773926,0.0200195,0
37000,-0.661133,0.776855,0.0244141,0
37020,-0.654785,0.780762,0.03125,0
37040,-0.660645,0.769531,0.0361328,0
37060,-0.678711,0.75293,0.0449219,0
37080,-0.699707,0.751465,0.0581055,0
37100,-0.712402,0.755371,0.0644531,0
37120,-0.713379,0.763184,0.0649414,0
37140,-0.698242,0.753906,0.0620117,0
37160,-0.708008,0.734863,0.074707,0
37180,-0.727051,0.737793,0.0766602,0
37200,-0.741699,0.742188,0.0849609,0
37220,-0.766602,0.741699,0.0996094,0
37240,-0.750977,0.723633,0.10498,0
37260,-0.731445,0.723633,0.119141,0
37280,-0.731445,0.722168,0.145996,0
37300,-0.755859,0.73877,0.143555,0
37320,-0.754883,0.729004,0.140137,0
37340,-0.699707,0.723145,0.15625,0
37360,-0.687012,0.734375,0.17627,0
37380,-0.689453,0.748535,0.185059,0
37400,-0.682129,0.742676,0.200195,0
37420,-0.711426,0.755371,0.189453,0
37440,-0.680176,0.779297,0.199219,0
37460,-0.626465,0.786621,0.212891,0
37480,-0.613281,0.782715,0.230469,0
37500,-0.623535,0.773438,0.230957,0
37520,-0.631348,0.777344,0.213379,0
37540,-0.630371,0.794434,0.222656,0
37560,-0.579102,0.819336,0.226562,0
37580,-0.536621,0.859863,0.258789,0
37600,-0.523926,0.817871,0.261719,0
37620,-0.55127,0.791016,0.246582,0
37640,-0.54248,0.80957,0.270508,0
37660,-0.494141,0.854004,0.30127,0
37680,-0.46582,0.874512,0.32373,0
37700,-0.470215,0.848633,0.267578,0
37720,-0.476074,0.837402,0.27832,0
37740,-0.428711,0.867188,0.305176,0
37760,-0.380859,0.892578,0.298828,0
37780,-0.361328,0.865234,0.274902,0
37800,-0.378418,0.833984,0.270996,0
37820,-0.356934,0.825684,0.254395,0
37840,-0.324219,0.886719,0.27832,0
37860,-0.296875,0.891602,0.28125,0
37880,-0.307129,0.863281,0.245605,0
37900,-0.300781,0.838867,0.23584,0
37920,-0.296875,0.881836,0.250977,0
37940,-0.281738,0.899414,0.27832,0
37960,-0.272949,0.885254,0.246582,0
37980,-0.284668,0.880859,0.218262,0
38000,-0.263184,0.897949,0.228027,0
38020,-0.269531,0.914551,0.247559,0
38040,-0.283691,0.882324,0.252441,0
38060,-0.289551,0.876953,0.218262,0
38080,-0.285156,0.910156,0.22168,0
38100,-0.27002,0.933594,0.23291,0
38120,-0.255859,0.911133,0.219238,0
38140,-0.258789,0.902344,0.20459,0
38160,-0.26123,0.905762,0.206543,0
38180,-0.261719,0.915039,0.203613,0
38200,-0.240723,0.902344,0.21875,0
38220,-0.236816,0.88916,0.211426,0
38240,-0.250977,0.907227,0.187988,0
38260,-0.249512,0.918945,0.171387,0
38280,-0.237793,0.92627,0.165039,0
38300,-0.240234,0.928223,0.165527,0
38320,-0.272949,0.929688,0.170898,0
38340,-0.28125,0.923828,0.173828,0
38360,-0.266113,0.936035,0.165527,0
38380,-0.268066,0.947754,0.14209,0
38400,-0.276855,0.950684,0.156738,0
38420,-0.252441,0.916016,0.157227,0
38440,-0.242188,0.918457,0.138672,0
38460,-0.245605,0.941406,0.114258,0
38480,-0.249512,0.939941,0.11084,0
38500,-0.259277,0.945312,0.108887,0
38520,-0.257812,0.946289,0.0991211,0
38540,-0.273438,0.949707,0.108398,0
38560,-0.287598,0.952637,0.107422,0
38580,-0.283203,0.943359,0.0830078,0
38600,-0.280762,0.93457,0.0771484,0
38620,-0.297852,0.944336,0.0869141,0
38640,-0.336914,0.956543,0.09375,0
38660,-0.355469,0.927734,0.0917969,0
38680,-0.368652,0.930176,0.0869141,0
38700,-0.390625,0.933594,0.0727539,0
38720,-0.401367,0.920898,0.0722656,0
38730,-0.396484,0.912109,0.0683594,0
38750,-0.409668,0.89209,0.0712891,0
38770,-0.432129,0.884766,0.0610352,0
38790,-0.449707,0.894043,0.046875,0
38810,-0.460938,0.870117,0.0371094,0
38830,-0.470215,0.845703,0.0649414,0
38850,-0.481445,0.851074,0.078125,0
38870,-0.507812,0.866699,0.0424805,0
38890,-0.530762,0.875488,0.0209961,0
38910,-0.507324,0.833984,0.0375977,0
38930,-0.520508,0.838867,0.0634766,0
38950,-0.553711,0.844727,0.0322266,0
38970,-0.547363,0.837891,0.0126953,0
38990,-0.513184,0.822754,0.00830078,0
39010,-0.564941,0.827148,0.0327148,0
39030,-0.643555,0.82959,0.0336914,0
39050,-0.637695,0.806152,-0.0102539,0
39070,-0.59082,0.785156,0.000976562,0
39090,-0.609863,0.808105,0,0
39110,-0.64502,0.805664,0.0327148,0
39130,-0.640625,0.793457,0.00732422,0
39150,-0.649902,0.773926,-0.00830078,0
39170,-0.643066,0.759766,-0.0205078,0
39190,-0.671387,0.765625,0.00195312,0
39210,-0.711426,0.756836,0.0371094,0
39230,-0.723145,0.734863,0.0224609,0
39250,-0.697266,0.707031,-0.00146484,0
39270,-0.717285,0.716797,0.00732422,0
39290,-0.732422,0.711426,0.0336914,0
39310,-0.753906,0.710938,0.0253906,0
39330,-0.787109,0.683594,0.0249023,0
39350,-0.787598,0.675293,0.0112305,0
39370,-0.698242,0.684082,-0.00683594,0
39390,-0.816895,0.663574,0.0253906,0
39410,-0.799805,0.647461,0.0200195,0
39430,-0.819336,0.624023,0.0385742,0
39450,-0.820312,0.607422,0.0297852,0
39470,-0.822266,0.598633,0.0415039,0
39490,-0.853027,0.58252,0.0546875,0
39510,-0.873535,0.582031,0.0595703,0
39530,-0.850586,0.56543,0.0766602,0
39550,-0.851074,0.54834,0.0883789,0
39570,-0.866699,0.551758,0.0820312,0
39590,-0.896484,0.557617,0.108398,0
39610,-0.88623,0.559082,0.123047,0
39630,-0.87207,0.566895,0.109863,0
39650,-0.871582,0.57959,0.11084,0
39670,-0.861328,0.57373,0.135742,0
39690,-0.873535,0.5625,0.160645,0
39710,-0.86377,0.561035,0.154785,0
39730,-0.863281,0.588379,0.15625,0
39750,-0.882812,0.594727,0.15918,0
39770,-0.810547,0.564941,0.203613,0
39790,-0.799805,0.568848,0.214844,0
39810,-0.813477,0.583496,0.211426,0
39830,-0.822754,0.601074,0.229492,0
39850,-0.802246,0.615723,0.23877,0
39870,-0.768555,0.606445,0.254883,0
39890,-0.771484,0.606445,0.256836,0
39910,-0.768555,0.622559,0.268555,0
39930,-0.76416,0.656738,0.28125,0
39950,-0.739746,0.633789,0.294434,0
39970,-0.697754,0.629395,0.277344,0
39990,-0.731934,0.696289,0.300781,0
40010,-0.713867,0.674316,0.307617,0
40030,-0.702637,0.674805,0.333008,0
40050,-0.699219,0.665527,0.354004,0
40070,-0.683594,0.685059,0.330566,0
40090,-0.663086,0.724609,0.339844,0
40110,-0.60791,0.73584,0.348145,0
40150,-0.580078,0.699707,0.33252,0
40170,-0.572754,0.728516,0.352539,0
40190,-0.55957,0.756836,0.334473,0
40210,-0.543945,0.76123,0.322754,0
40230,-0.515625,0.775391,0.34375,0
40250,-0.501465,0.776855,0.336426,0
40270,-0.498535,0.745117,0.336426,0
40290,-0.487305,0.748047,0.328613,0
40310,-0.48291,0.776855,0.322266,0
40330,-0.447754,0.802246,0.322266,0
40350,-0.442383,0.798828,0.316895,0
40370,-0.447754,0.779297,0.306641,0
40390,-0.441895,0.791504,0.299316,0
40410,-0.431641,0.796875,0.296875,0
40430,-0.424805,0.796387,0.300781,0
40450,-0.432617,0.810059,0.290527,0
40470,-0.423828,0.817383,0.287598,0
40490,-0.421387,0.826172,0.26709,0
40510,-0.430176,0.820801,0.275879,0
40530,-0.418457,0.82666,0.26709,0
40550,-0.418945,0.85498,0.243652,0
40570,-0.429199,0.86084,0.250977,0
40590,-0.411621,0.83252,0.236328,0
40610,-0.409668,0.835449,0.23877,0
40630,-0.418457,0.881348,0.234863,0
40650,-0.419434,0.87793,0.226562,0
40670,-0.406738,0.880371,0.194336,0
40690,-0.414062,0.902832,0.200195,0
40710,-0.395508,0.888184,0.206055,0
40730,-0.394531,0.883789,0.182617,0
40740,-0.397461,0.910156,0.154785,0
40760,-0.396484,0.911133,0.140625,0
40780,-0.379395,0.894531,0.145508,0
40800,-0.387207,0.88623,0.129395,0
40820,-0.394043,0.907227,0.124512,0
40840,-0.383789,0.919434,0.0922852,0
40860,-0.380371,0.904785,0.0703125,0
40880,-0.370117,0.88623,0.0727539,0
40900,-0.381348,0.895508,0.0576172,0
40920,-0.386719,0.900879,0.0253906,0
40940,-0.402832,0.895996,0.019043,0
40960,-0.399902,0.881348,0,0
40980,-0.409668,0.88916,-0.00537109,0
41000,-0.432129,0.891602,0.000488281,0
41020,-0.460938,0.862305,0.0102539,0
41040,-0.460938,0.84375,0.012207,0
41060,-0.487793,0.835938,-0.00927734,0
41080,-0.547852,0.84082,-0.0117188,0
41100,-0.594238,0.838867,-0.0195312,0
41120,-0.580078,0.833008,-0.0209961,0
41140,-0.592285,0.818359,-0.0258789,0
41160,-0.627441,0.810059,-0.0371094,0
41180,-0.676758,0.794434,-0.027832,0
41200,-0.673828,0.787109,-0.0297852,0
41220,-0.660156,0.768555,-0.0532227,0
41240,-0.669434,0.740723,-0.0371094,0
41260,-0.688965,0.736328,-0.0205078,0
41280,-0.719727,0.735352,-0.0600586,0
41300,-0.715332,0.726074,-0.0556641,0
41320,-0.71582,0.688965,-0.0273438,0
41340,-0.744629,0.679199,-0.0253906,0
41360,-0.754883,0.673828,-0.0366211,0
41380,-0.767578,0.655273,-0.0532227,0
41400,-0.78125,0.646484,-0.0317383,0
41420,-0.783691,0.633789,-0.019043,0
41440,-0.802246,0.632812,-0.0239258,0
41460,-0.827148,0.617676,-0.027832,0
41480,-0.822754,0.594727,0.0078125,0
41500,-0.84375,0.57373,-0.0107422,0
41520,-0.878906,0.561523,0,0
41540,-0.892578,0.540039,0.0297852,0
41560,-0.905273,0.532715,0.0214844,0
41580,-0.922852,0.528809,-0.00292969,0
41600,-0.915039,0.505371,0.0126953,0
41620,-0.926758,0.48877,0.0458984,0
41640,-0.932617,0.481934,0.0424805,0
41660,-0.934082,0.47168,0.0332031,0
41680,-0.929199,0.45166,0.0537109,0
41700,-0.953613,0.437988,0.0957031,0
41720,-0.939453,0.414062,0.107422,0
41740,-0.921875,0.404297,0.0986328,0
41760,-0.929688,0.40332,0.117676,0
41780,-0.958984,0.398926,0.138184,0
41800,-0.972168,0.396973,0.15918,0
41820,-0.938965,0.39502,0.180176,0
41840,-0.938477,0.407715,0.186035,0
41860,-0.946289,0.412598,0.211914,0
41880,-0.956543,0.404297,0.255371,0
41900,-0.953613,0.399902,0.261719,0
41920,-0.933105,0.429688,0.266113,0
41940,-0.919922,0.450195,0.288574,0
41960,-0.893066,0.43457,0.319824,0
41980,-0.895508,0.445801,0.341309,0
42000,-0.87793,0.456055,0.354004,0
42020,-0.879395,0.484863,0.377441,0
42040,-0.853516,0.484863,0.359863,0
42060,-0.843262,0.498047,0.359375,0
42080,-0.833496,0.517578,0.390625,0
42100,-0.792969,0.522949,0.401855,0
42120,-0.776855,0.544434,0.395996,0
42140,-0.763184,0.556152,0.385254,0
42160,-0.740234,0.555664,0.418945,0
42180,-0.69873,0.564941,0.445312,0
42200,-0.720703,0.568848,0.415527,0
42220,-0.712891,0.585449,0.40332,0
42240,-0.583496,0.592285,0.405762,0
42260,-0.549805,0.62793,0.368652,0
42280,-0.627441,0.615234,0.391113,0
42300,-0.632812,0.589844,0.413574,0
42320,-0.580078,0.635742,0.378906,0
42340,-0.585449,0.713867,0.344238,0
42360,-0.57666,0.732422,0.367676,0
42380,-0.55957,0.699219,0.340332,0
42400,-0.574219,0.696777,0.32959,0
42420,-0.549316,0.714355,0.317383,0
42440,-0.533203,0.73291,0.297363,0
42460,-0.541016,0.758301,0.285156,0
42480,-0.553711,0.775391,0.269531,0
42500,-0.563477,0.764648,0.25,0
42520,-0.538574,0.784668,0.23584,0
42540,-0.527344,0.778809,0.226074,0
42560,-0.529785,0.776855,0.198242,0
42580,-0.547363,0.791992,0.196289,0
42600,-0.524902,0.791504,0.186035,0
42620,-0.504395,0.800293,0.13916,0
42640,-0.503418,0.831055,0.123047,0
42660,-0.503906,0.817871,0.119629,0
42680,-0.508301,0.796387,0.137207,0
42700,-0.505859,0.789551,0.130371,0
42720,-0.51416,0.808105,0.090332,0
42740,-0.516602,0.825684,0.0581055,0
42760,-0.529297,0.810547,0.0341797,0
42780,-0.54541,0.821777,0.0419922,0
42800,-0.574219,0.819824,0.0498047,0
42820,-0.636719,0.828125,0.0385742,0
42840,-0.676758,0.82959,0.015625,0
42860,-0.666016,0.822266,0.0107422,0
42880,-0.648926,0.814453,0.0341797,0
42900,-0.697266,0.804688,-0.00683594,0
42920,-0.736328,0.779785,-0.0307617,0
42940,-0.709961,0.763672,-0.0288086,0
42960,-0.69873,0.728516,-0.015625,0
42980,-0.697754,0.665039,-0.0195312,0
43000,-0.719238,0.638672,-0.0410156,0
43020,-0.741211,0.672852,-0.0415039,0
43040,-0.758789,0.667969,-0.0332031,0
43060,-0.76123,0.637695,-0.0512695,0
43080,-0.772461,0.637207,-0.0512695,0
43100,-0.788574,0.636719,-0.0517578,0
43120,-0.819824,0.606934,-0.0639648,0
43140,-0.832031,0.58252,-0.0737305,0
43160,-0.825195,0.580566,-0.0654297,0
43180,-0.844238,0.567871,-0.0537109,0
43200,-0.873047,0.55127,-0.0620117,0
43220,-0.880371,0.541992,-0.0854492,0
43240,-0.891113,0.537109,-0.0766602,0
43260,-0.882324,0.522461,-0.0571289,0
43280,-0.882324,0.483398,-0.0703125,0
43300,-0.90918,0.493652,-0.0922852,1001
43320,-0.924316,0.483398,-0.0854492,0
43340,-0.912109,0.456543,-0.0678711,0
43360,-0.924316,0.455078,-0.0615234,0
43380,-0.944336,0.470703,-0.0678711,0
43400,-0.94873,0.459961,-0.0844727,0
43420,-0.93457,0.443359,-0.0717773,0
43440,-0.913086,0.431152,-0.078125,0
43460,-0.884766,0.430176,-0.0683594,0
43480,-0.859863,0.435547,-0.0600586,0
43500,-0.816895,0.433105,-0.0717773,0
43520,-0.785156,0.441895,-0.0668945,0
43540,-0.773438,0.446777,-0.0478516,0
43560,-0.754883,0.4375,-0.0288086,0
43580,-0.72168,0.433105,-0.0170898,0
43600,-0.712402,0.443359,-0.000488281,0
43620,-0.746094,0.457031,0.0249023,0
43640,-0.744141,0.475586,0.0102539,0
43660,-0.698242,0.477051,0.00341797,0
43680,-0.671387,0.495605,0.0302734,0
43700,-0.734863,0.54248,0.0322266,0
43720,-0.806152,0.609375,-0.0341797,0
43740,-0.808105,0.670898,-0.0166016,0
43760,-0.692383,0.672852,0.0102539,0
43780,-0.596191,0.72998,0.0180664,0
43800,-0.623047,0.841797,0.0722656,0
43820,-0.673828,0.860352,0.0380859,0
43840,-0.67334,0.841797,0.0317383,0
43860,-0.632812,0.841309,0.0932617,0
43880,-0.637207,0.856934,0.159668,0
43900,-0.63623,0.900879,0.141602,0
43920,-0.560547,0.986328,0.139648,0
43940,-0.491211,1.03613,0.13916,0
43960,-0.475586,1.0249,0.143066,0
43980,-0.452148,1.00684,0.168457,0
44000,-0.402832,0.996582,0.182617,0
44020,-0.356934,0.95459,0.163086,0
44040,-0.333008,0.956055,0.160645,0
44060,-0.338379,0.949707,0.116699,0
44080,-0.331055,0.961426,0.101074,0
44100,-0.303711,0.948242,0.0693359,0
44120,-0.280273,0.945801,0.0703125,0
44140,-0.288086,0.98584,0.114258,0
44160,-0.293945,0.996094,0.114746,0
44170,-0.276367,0.987793,0.105957,0
44190,-0.263672,1.01221,0.10498,0
44210,-0.244141,1.03174,0.126953,0
44230,-0.224609,1.02832,0.123535,0
44250,-0.21582,1.02832,0.125,0
44270,-0.20752,1.06152,0.127441,0
44290,-0.220703,1.07129,0.105957,0
44310,-0.246582,1.02832,0.104492,0
44330,-0.262695,0.991699,0.0878906,0
44350,-0.27832,0.957031,0.0859375,1000
44370,-0.280762,0.946777,0.0966797,0
44390,-0.29834,0.991211,0.0737305,0
44410,-0.331055,0.992676,0.0458984,0
44430,-0.317871,0.981445,0.0493164,0
44450,-0.312012,0.956543,0.0654297,0
44470,-0.309082,0.970703,0.0512695,0
44490,-0.294434,0.95166,0.0512695,0
44510,-0.28125,0.959473,0.0551758,0
44530,-0.268066,0.957031,0.0585938,0
44550,-0.248535,0.954102,0.0629883,0
44570,-0.268555,0.952148,0.0615234,0
44590,-0.312988,0.968262,0.0551758,0
44610,-0.342773,0.960938,0.0478516,0
44630,-0.35498,0.948242,0.0654297,0
44650,-0.349609,0.947754,0.0507812,0
44670,-0.34082,0.956055,0.034668,0
44690,-0.34668,0.955566,0.0556641,0
44710,-0.32373,0.946289,0.0703125,0
44730,-0.298828,0.937012,0.0390625,0
44750,-0.285156,0.938477,0.0253906,0
44770,-0.270996,0.94043,0.0341797,0
44790,-0.278809,0.947754,0.0356445,0
44810,-0.26416,0.940918,0.0356445,0
44830,-0.238281,0.949219,0.0273438,0
44850,-0.21875,0.963867,0.0239258,0
44870,-0.199707,0.961914,0.043457,0
44890,-0.210938,0.976562,0.0458984,0
44910,-0.225098,0.959473,0.0512695,0
44930,-0.246094,0.960938,0.0483398,0
44950,-0.248535,0.958984,0.0410156,0
44970,-0.255371,0.964355,0.0512695,0
44990,-0.260742,0.966309,0.0522461,0
45010,-0.26416,0.969727,0.0385742,0
45030,-0.258301,0.963867,0.0297852,0
45050,-0.226562,0.967285,0.0361328,0
45070,-0.246582,0.985352,0.0175781,0
45090,-0.23291,0.959961,0.0102539,0
45110,-0.228027,0.967773,0.0263672,0
45130,-0.226074,0.979004,0.0249023,0
45150,-0.237305,0.979492,0.0307617,0
45170,-0.230469,0.956543,0.0351562,0
45190,-0.233398,0.963867,0.0322266,0
45210,-0.242188,0.970215,0.034668,0
45230,-0.246582,0.958496,0.0424805,0
45250,-0.255371,0.966797,0.0556641,0
45270,-0.252441,0.960449,0.050293,0
45290,-0.259766,0.959473,0.0371094,0
45310,-0.270508,0.951172,0.0292969,0
45330,-0.291992,0.976562,0.0449219,0
45350,-0.292969,0.979492,0.0351562,0
45370,-0.27832,0.969727,0.0302734,0
45390,-0.286133,0.959961,0.0400391,0
45410,-0.291504,0.969727,0.0332031,0
45430,-0.289551,0.970215,0.0258789,0
45450,-0.276367,0.966309,0.0185547,0
45470,-0.275391,0.961914,0.0444336,0
45490,-0.277344,0.95459,0.0449219,0
45510,-0.27002,0.948242,0.0332031,0
45530,-0.270996,0.95752,0.0214844,0
45550,-0.256836,0.965332,0.0166016,0
45570,-0.244629,0.964844,0.0170898,0
45590,-0.256836,0.975586,0.00976562,0
45610,-0.26709,0.964844,-0.000976562,0
45630,-0.273926,0.974121,0.00585938,0
45650,-0.290527,0.981445,0.00732422,0
45670,-0.307617,0.976074,-0.00683594,0
45690,-0.321289,0.973633,-0.0219727,0
45710,-0.335449,0.974609,-0.0249023,0
45730,-0.354004,0.968262,-0.0488281,0
45750,-0.36084,0.958496,-0.0644531,0
45770,-0.350586,0.959961,-0.0830078,0
45790,-0.344727,0.936035,-0.0761719,0
45810,-0.385742,0.922852,-0.0654297,0
45830,-0.40918,0.924316,-0.0537109,0
45850,-0.41748,0.913086,-0.0600586,0
45870,-0.428711,0.904297,-0.0737305,0
45890,-0.383789,0.913086,-0.0927734,0
45910,-0.456543,0.885254,-0.0874023,0
45930,-0.422852,0.896484,-0.0961914,0
45950,-0.441895,0.879395,-0.0893555,0
45970,-0.444336,0.877441,-0.0966797,0
45990,-0.450684,0.873535,-0.100098,0
46010,-0.462402,0.88916,-0.117676,0
46030,-0.474609,0.882812,-0.114258,0
46050,-0.474121,0.870605,-0.105957,0
46070,-0.486328,0.873535,-0.0986328,0
46090,-0.487305,0.869141,-0.113281,0
46110,-0.496094,0.861816,-0.109375,0
46130,-0.500977,0.854004,-0.090332,0
46150,-0.503906,0.841309,-0.0893555,0
46170,-0.521484,0.830566,-0.109375,0
46180,-0.519531,0.824707,-0.0976562,0
46200,-0.524902,0.821777,-0.104492,0
46220,-0.577148,0.820801,-0.109863,0
46240,-0.598633,0.808594,-0.112305,0
46260,-0.61084,0.805664,-0.104004,0
46280,-0.616211,0.794922,-0.0917969,0
46300,-0.632324,0.775879,-0.0996094,0
46320,-0.64209,0.773438,-0.10498,0
46340,-0.649414,0.785645,-0.0756836,0
46360,-0.660645,0.783203,-0.0488281,0
46380,-0.671875,0.76416,-0.0498047,0
46400,-0.724121,0.759766,-0.0444336,0
46420,-0.756836,0.760254,-0.0390625,0
46440,-0.745117,0.768555,-0.0317383,0
46460,-0.705078,0.749512,0.012207,0
46480,-0.730469,0.768066,0.0361328,0
46500,-0.783203,0.783203,0.0180664,0
46520,-0.747559,0.811523,0.0126953,0
46540,-0.685059,0.80127,0.0493164,0
46560,-0.624023,0.805664,0.0712891,0
46580,-0.651855,0.84082,0.0761719,0
46600,-0.644531,0.839355,0.0981445,0
46620,-0.607422,0.852539,0.0878906,0
46640,-0.564941,0.866211,0.10498,0
46660,-0.560059,0.882324,0.129883,0
46680,-0.552734,0.890625,0.127441,0
46700,-0.521973,0.891602,0.131836,0
46720,-0.489746,0.888184,0.165039,0
46740,-0.484375,0.90918,0.147461,0
46760,-0.499512,0.896484,0.160156,0
46780,-0.489746,0.92627,0.168457,0
46800,-0.438965,0.926758,0.164062,0
46820,-0.401367,0.928223,0.17334,0
46840,-0.416016,0.926758,0.200684,0
46860,-0.430664,0.918457,0.195801,0
46880,-0.42041,0.92041,0.176758,0
46900,-0.390137,0.931641,0.193359,0
46920,-0.354004,0.944336,0.190918,0
46940,-0.367188,0.94043,0.201172,0
46960,-0.359863,0.904297,0.200684,0
46980,-0.337891,0.912598,0.213379,0
47000,-0.297852,0.912109,0.219727,0
47020,-0.277832,0.900879,0.228516,0
47040,-0.286621,0.875488,0.236328,0
47060,-0.268555,0.884277,0.185059,0
47080,-0.238281,0.912598,0.17627,0
47100,-0.211426,0.904297,0.196777,0
47120,-0.248047,0.884766,0.172852,0
47140,-0.261719,0.89209,0.160645,0
47160,-0.257812,0.914062,0.166016,0
47180,-0.244629,0.927734,0.172363,0
47200,-0.251465,0.93457,0.147949,0
47220,-0.272461,0.921387,0.158203,0
47240,-0.278809,0.921875,0.15332,0
47260,-0.277344,0.931641,0.160645,0
47280,-0.26709,0.939453,0.133301,0
47300,-0.254395,0.963379,0.0908203,0
47320,-0.259766,0.954102,0.135254,0
47340,-0.250488,0.90918,0.126953,0
47360,-0.22998,0.900391,0.104492,0
47380,-0.237305,0.936035,0.100098,0
47400,-0.25,0.941895,0.0986328,0
47420,-0.242676,0.916016,0.101074,0
47440,-0.243164,0.922363,0.0927734,0
47460,-0.257812,0.940918,0.0791016,0
47480,-0.274414,0.969727,0.0664062,0
47500,-0.268066,0.954102,0.0727539,0
47520,-0.256348,0.94043,0.0761719,0
47540,-0.254883,0.953125,0.059082,0
47560,-0.268066,0.970703,0.0322266,0
47580,-0.272461,0.951172,0.0522461,0
47600,-0.268066,0.942383,0.0449219,0
47620,-0.271484,0.958496,0.00585938,0
47640,-0.297363,0.97998,0.00146484,0
47660,-0.300293,0.95459,-0.000976562,0
47680,-0.29248,0.933594,0.00830078,0
47700,-0.305176,0.932129,0.00976562,0
47720,-0.334473,0.944824,0.0263672,0
47740,-0.354004,0.91748,-0.0078125,0
47760,-0.384277,0.90918,-0.0234375,0
47780,-0.407227,0.921875,-0.043457,0
47800,-0.44043,0.946777,-0.0541992,0
47820,-0.447266,0.930664,-0.0356445,0
47840,-0.451172,0.900879,-0.0283203,0
47860,-0.466309,0.895508,-0.0458984,0
47880,-0.466797,0.904297,-0.0688477,0
47900,-0.466309,0.905762,-0.0625,0
47920,-0.495117,0.884766,-0.0600586,0
47940,-0.514648,0.864258,-0.0708008,0
47960,-0.527832,0.854492,-0.0737305,0
47980,-0.486328,0.82373,-0.090332,0
48000,-0.508789,0.822266,-0.0541992,0
48020,-0.596191,0.814941,-0.101074,0
48040,-0.583496,0.831055,-0.121094,0
48060,-0.562988,0.80127,-0.117676,0
48080,-0.600098,0.821289,-0.0834961,0
48100,-0.641602,0.836426,-0.0947266,0
48120,-0.641113,0.807617,-0.13623,0
48140,-0.609863,0.78125,-0.133301,0
48160,-0.637695,0.768066,-0.101562,0
48180,-0.715332,0.776367,-0.0830078,0
48200,-0.705566,0.753906,-0.102051,0
48220,-0.693848,0.716797,-0.11084,0
48240,-0.70459,0.71875,-0.0849609,0
48260,-0.742188,0.705566,-0.0517578,0
48280,-0.744141,0.692383,-0.0834961,0
48300,-0.733887,0.674805,-0.097168,0
48320,-0.71582,0.651367,-0.0961914,0
48340,-0.729004,0.665527,-0.111816,0
48360,-0.791992,0.662109,-0.0986328,0
48380,-0.812988,0.650391,-0.0673828,0
48400,-0.821777,0.632324,-0.0693359,0
48420,-0.820801,0.617188,-0.065918,0
48440,-0.842285,0.611328,-0.0454102,0
48460,-0.867188,0.600586,-0.0292969,0
48480,-0.878418,0.581055,-0.0297852,0
48500,-0.895508,0.574707,-0.0253906,0
48520,-0.889648,0.555664,0.0141602,0
48540,-0.894043,0.551758,0.0332031,0
48560,-0.88916,0.550293,0.0385742,0
48580,-0.902344,0.54834,0.0454102,0
48600,-0.89502,0.544922,0.0639648,0
48620,-0.883789,0.541016,0.0703125,0
48640,-0.892578,0.530762,0.0932617,0
48660,-0.911133,0.536621,0.11084,0
48680,-0.904785,0.535645,0.132812,0
48700,-0.891113,0.550781,0.145996,0
48720,-0.868652,0.560547,0.15918,0
48740,-0.845703,0.559082,0.180176,0
48760,-0.848145,0.560059,0.207031,0
48780,-0.821777,0.581055,0.21582,0
48800,-0.810059,0.585938,0.231445,0
48820,-0.833496,0.602051,0.245605,0
48840,-0.839844,0.608398,0.264648,0
48860,-0.782715,0.63623,0.291016,0
48880,-0.741211,0.637207,0.314941,0
48900,-0.73877,0.660156,0.349609,0
48920,-0.759277,0.680664,0.336426,0
48940,-0.719238,0.686035,0.328125,0
48960,-0.668457,0.695312,0.350098,0
48980,-0.637695,0.703613,0.374512,0
49000,-0.653809,0.709961,0.362305,0
49020,-0.669434,0.685059,0.352539,0
49040,-0.614746,0.719727,0.341309,0
49060,-0.581055,0.736816,0.340332,0
49080,-0.574707,0.740723,0.363281,0
49100,-0.561035,0.723145,0.348145,0
49120,-0.537598,0.737305,0.336426,0
49140,-0.527344,0.770508,0.359863,0
49160,-0.518066,0.786621,0.338379,0
49180,-0.501465,0.747559,0.29834,0
49200,-0.496094,0.76123,0.294434,0
49220,-0.484375,0.789551,0.321289,0
49240,-0.487305,0.786621,0.310547,0
49260,-0.49707,0.791016,0.285645,0
49280,-0.48291,0.820801,0.276367,0
49300,-0.458984,0.835449,0.263184,0
49320,-0.455078,0.825684,0.258301,0
49340,-0.44873,0.805664,0.230957,0
49360,-0.435059,0.825684,0.225586,0
49380,-0.453613,0.833008,0.212891,0
49400,-0.439453,0.842285,0.210938,0
49420,-0.424805,0.82666,0.201172,0
49440,-0.438477,0.838379,0.181152,0
49460,-0.465332,0.862305,0.158203,0
49480,-0.463379,0.883301,0.140625,0
49500,-0.442871,0.888672,0.139648,0
49520,-0.429199,0.899414,0.116211,0
49540,-0.463867,0.898926,0.0976562,0
49560,-0.472656,0.890625,0.116211,0
49580,-0.45752,0.884766,0.0952148,0
49600,-0.461426,0.889648,0.0629883,0
49610,-0.452148,0.888184,0.0458984,0
49630,-0.445801,0.865234,0.0488281,0
49650,-0.444336,0.860352,0.0336914,0
49670,-0.449707,0.875488,-0.00439453,0
49690,-0.437012,0.870605,-0.0268555,0
49710,-0.410645,0.839355,-0.0336914,0
49730,-0.410156,0.812012,-0.0527344,0
49750,-0.434082,0.826172,-0.0844727,0
49770,-0.495117,0.865723,-0.0771484,0
49790,-0.517578,0.864746,-0.0874023,0
49810,-0.515137,0.85791,-0.0712891,0
49830,-0.570801,0.852539,-0.0551758,0
49850,-0.630371,0.836914,-0.0610352,0
49870,-0.64209,0.808105,-0.0751953,0
49890,-0.647461,0.794922,-0.0786133,0
49910,-0.663574,0.798828,-0.0649414,0
49930,-0.696777,0.776367,-0.0620117,0
49950,-0.690918,0.73584,-0.0600586,0
49970,-0.694336,0.71875,-0.0771484,0
49990,-0.706543,0.703125,-0.0810547,0
50010,-0.730957,0.68457,-0.0517578,0
50030,-0.73291,0.665039,-0.0727539,0
50050,-0.722656,0.655273,-0.112793,0
50070,-0.754395,0.619629,-0.0932617,0
50090,-0.809082,0.603516,-0.0566406,0
50110,-0.835449,0.593262,-0.0927734,0
50130,-0.846191,0.577637,-0.0869141,0
50150,-0.878418,0.553711,-0.0732422,0
50170,-0.870605,0.543457,-0.0610352,0
50190,-0.875,0.529297,-0.116211,0
50210,-0.89502,0.510254,-0.125,0
50230,-0.947754,0.48584,-0.0581055,0
50250,-0.955566,0.466309,-0.0751953,0
50270,-0.94873,0.465332,-0.111816,0
50290,-0.901855,0.45459,-0.09375,0
50310,-0.943848,0.443848,-0.0454102,0
50330,-0.969238,0.421387,-0.0234375,0
50350,-0.963867,0.396484,-0.03125,0
50370,-0.940918,0.402832,-0.0419922,0
50390,-0.933105,0.387207,-0.0219727,0
50410,-0.967285,0.37207,0.0439453,0
50430,-0.944824,0.351562,0.0205078,0
50450,-0.950684,0.341797,0.0268555,0
50470,-0.976074,0.33252,0.0595703,0
50490,-0.975098,0.313477,0.0976562,0
50510,-0.966309,0.318848,0.0825195,0
50530,-0.940918,0.31543,0.0810547,0
50550,-0.966309,0.309082,0.125,0
50570,-1.00098,0.287598,0.176758,0
50590,-1.02344,0.293457,0.167969,0
50610,-1.04346,0.300781,0.15625,0
50630,-1.02783,0.303711,0.185059,0
50650,-1.00928,0.301758,0.237305,0
50670,-0.989258,0.298828,0.249023,0
50690,-1.00146,0.325684,0.25293,0
50710,-0.981445,0.341309,0.27002,0
50730,-0.932617,0.339355,0.290527,0
50750,-0.934082,0.359863,0.307129,0
50770,-0.945801,0.405273,0.31543,0
50780,-0.916504,0.408203,0.368164,0
50800,-0.878418,0.409668,0.361328,0
50820,-0.870605,0.428711,0.35791,0
50840,-0.83252,0.446777,0.402344,0
50860,-0.828613,0.483887,0.414062,0
50880,-0.828125,0.5,0.40625,0
50900,-0.828125,0.512695,0.401367,0
50920,-0.783691,0.543945,0.396484,0
50940,-0.745605,0.563477,0.404785,0
50960,-0.697266,0.578613,0.405762,0
50980,-0.703125,0.598145,0.408203,0
51000,-0.70752,0.604004,0.40332,0
51020,-0.681152,0.612793,0.390625,0
51040,-0.64502,0.620117,0.389648,0
51060,-0.634766,0.64502,0.397949,0
51080,-0.617676,0.650879,0.361328,0
51100,-0.608887,0.693359,0.356445,0
51120,-0.608887,0.69873,0.355957,0
51140,-0.588867,0.686523,0.358887,0
51160,-0.57666,0.691406,0.337402,0
51180,-0.571777,0.744629,0.307129,0
51200,-0.580566,0.74707,0.302734,0
51220,-0.562012,0.746582,0.299316,0
51240,-0.527832,0.730957,0.259766,0
51260,-0.527832,0.727051,0.250488,0
51280,-0.532715,0.734863,0.273438,0
51300,-0.501465,0.734863,0.27002,0
51320,-0.486328,0.74707,0.200195,0
51340,-0.53418,0.775879,0.186035,0
51360,-0.560059,0.754395,0.20166,0
51380,-0.535156,0.750977,0.183105,0
51400,-0.554199,0.788574,0.147949,0
51420,-0.586914,0.827148,0.123047,0
51440,-0.57373,0.802734,0.107422,0
51460,-0.551758,0.804199,0.078125,0
51480,-0.574219,0.851074,0.046875,0
51500,-0.586426,0.84668,0.03125,0
51520,-0.54834,0.819336,0.00195312,0
51540,-0.566406,0.813965,-0.0258789,0
51560,-0.605469,0.836426,-0.0288086,0
51580,-0.601562,0.811523,-0.0307617,0
51600,-0.584473,0.795898,-0.000976562,0
51610,-0.60791,0.786133,-0.0507812,0
51630,-0.633789,0.76709,-0.102539,0
51650,-0.63916,0.765137,-0.0922852,0
51670,-0.652832,0.745605,-0.097168,0
51690,-0.662598,0.714355,-0.097168,0
51710,-0.669922,0.692383,-0.0805664,0
51730,-0.742188,0.691406,-0.116699,0
51750,-0.769531,0.68457,-0.125,0
51770,-0.733887,0.663086,-0.108398,0
51790,-0.754883,0.645508,-0.137207,0
51810,-0.79834,0.640137,-0.155273,0
51830,-0.823242,0.624023,-0.124512,0
51850,-0.837402,0.61084,-0.123047,0
51870,-0.873047,0.595215,-0.133301,0
51890,-0.881836,0.598145,-0.134766,0
51910,-0.876953,0.581543,-0.138184,0
51930,-0.865234,0.553711,-0.143555,0
51950,-0.841309,0.528809,-0.13916,0
51970,-0.86084,0.527832,-0.130859,0
51990,-0.890137,0.51123,-0.118652,0
52010,-0.882324,0.476562,-0.118164,0
52030,-0.885742,0.463379,-0.123535,0
52050,-0.907227,0.453613,-0.130859,1001
52070,-0.927734,0.453125,-0.139648,0
52090,-0.941895,0.445312,-0.129883,0
52110,-0.95752,0.42334,-0.139648,0
52130,-0.972168,0.395508,-0.116211,0
52150,-0.974609,0.399902,-0.102539,0
52170,-0.950195,0.425293,-0.111816,0
52190,-0.935547,0.429688,-0.132324,0
52210,-0.915527,0.411133,-0.114746,0
52230,-0.875488,0.393555,-0.104004,0
52250,-0.833496,0.400879,-0.0864258,0
52270,-0.79834,0.39502,-0.0913086,0
52290,-0.768066,0.408203,-0.103516,0
52310,-0.746582,0.427246,-0.125,0
52330,-0.76709,0.446289,-0.129395,0
52350,-0.793945,0.466797,-0.111328,0
52370,-0.770996,0.476074,-0.0893555,0
52390,-0.741211,0.489258,-0.0717773,0
52410,-0.797852,0.535156,-0.065918,0
52430,-0.844238,0.571289,-0.131836,0
52450,-0.78418,0.594727,-0.129395,0
52470,-0.699219,0.610352,-0.0673828,0
52490,-0.69873,0.624512,0.00976562,0
52510,-0.75293,0.658691,0.00634766,0
52530,-0.762695,0.710449,-0.0288086,0
52550,-0.651855,0.730957,-0.0522461,0
52570,-0.600586,0.764648,-0.0219727,0
52590,-0.647949,0.821777,0.0371094,0
52610,-0.671875,0.850098,0.0761719,0
52630,-0.603027,0.853516,0.0463867,0
52650,-0.522949,0.84668,-0.00488281,0
52670,-0.481934,0.897461,0.0390625,0
52690,-0.481934,0.94043,0.0830078,0
52710,-0.483887,0.94873,0.0766602,0
52730,-0.471191,0.956055,0.0239258,0
52750,-0.412109,0.956543,0.0195312,0
52770,-0.388184,0.986816,0.0703125,0
52790,-0.404297,0.99707,0.0927734,0
52810,-0.411621,1.021,0.0351562,0
52830,-0.416504,1.04541,-0.000976562,0
52850,-0.430176,1.04834,0.0419922,0
52870,-0.435547,1.05029,0.0488281,0
52890,-0.425293,1.06689,0.0532227,0
52910,-0.384277,1.06836,0.0390625,0
52930,-0.348145,1.07031,0.0273438,0
52950,-0.328125,1.07275,0.0200195,0
52970,-0.304688,1.05811,0.0219727,0
52990,-0.277344,1.021,0.0126953,0
53010,-0.256836,0.997559,0.0141602,0
53030,-0.234375,0.995117,0.0166016,0
53050,-0.222168,0.98584,0.00878906,0
53070,-0.206543,0.95166,0.0219727,0
53090,-0.226562,0.950684,0.0229492,1000
53110,-0.247559,0.984375,0.0268555,0
53130,-0.262207,0.988281,0.0302734,0
53150,-0.260254,0.972656,0.034668,0
53170,-0.272461,0.955078,0.034668,0
53190,-0.277832,0.970215,0.0424805,0
53210,-0.276855,0.976074,0.0307617,0
53230,-0.273926,0.972656,0.0336914,0
53250,-0.274414,0.971191,0.0209961,0
53270,-0.271484,0.98291,-0.00244141,0
53290,-0.269531,0.98291,-0.0151367,0
53310,-0.270996,0.981934,-0.0146484,0
53330,-0.279785,0.974609,0.00244141,0
53350,-0.273438,0.955566,0.00195312,0
53370,-0.275391,0.946777,-0.0131836,0
53390,-0.293457,0.946777,-0.0078125,0
53410,-0.282227,0.954102,0.0185547,0
53430,-0.273438,0.943848,0.00830078,0
53450,-0.244629,0.941895,0.0200195,0
53470,-0.251465,0.974121,0.0102539,0
53490,-0.235352,0.951172,0.019043,0
53510,-0.245605,0.950684,0.0253906,0
53530,-0.254883,0.954102,0.0205078,0
53550,-0.255859,0.96875,-0.00439453,0
53570,-0.276855,0.979492,-0.00244141,0
53590,-0.281738,0.975098,-0.000488281,0
53610,-0.282227,0.963379,-0.0112305,0
53630,-0.279297,0.961914,-0.00634766,0
53650,-0.278809,0.966309,-0.00439453,0
53670,-0.272461,0.960449,0.00439453,0
53690,-0.271973,0.95752,-0.00341797,0
53710,-0.274414,0.963379,0.00439453,0
53730,-0.270996,0.94873,0.0151367,0
53750,-0.272461,0.95752,0.0151367,0
53770,-0.268066,0.959961,0.0117188,0
53790,-0.276367,0.958496,0.00341797,0
53810,-0.28125,0.969238,0.00830078,0
53830,-0.287598,0.968262,0.00683594,0
53850,-0.276855,0.966309,0.0126953,0
53870,-0.276367,0.967773,0.000976562,0
53890,-0.281738,0.969727,0.00439453,0
53910,-0.284668,0.964355,0.0175781,0
53930,-0.273926,0.966309,0.00830078,0
53950,-0.271484,0.966309,0.000488281,0
53970,-0.263672,0.972168,0.00146484,0
53990,-0.270996,0.975098,0.0146484,0
54010,-0.277832,0.969238,0.00830078,0
54030,-0.278809,0.957031,0.00634766,0
54050,-0.271484,0.962402,-0.00976562,0
54070,-0.273926,0.970215,0.00292969,0
54090,-0.273438,0.976562,0.00488281,0
54110,-0.275391,0.969238,-0.0161133,0
54130,-0.274414,0.958496,-0.0327148,0
54150,-0.281738,0.964355,-0.0234375,0
54170,-0.295898,0.975098,-0.00244141,0
54190,-0.305664,0.964844,-0.0102539,0
54210,-0.308105,0.961914,-0.0322266,0
54230,-0.316406,0.954102,-0.0288086,0
54250,-0.320801,0.952637,-0.0249023,0
54270,-0.327148,0.953613,-0.0151367,0
54290,-0.350098,0.952637,-0.027832,0
54310,-0.352539,0.945312,-0.0405273,0
54330,-0.359863,0.945801,-0.0463867,0
54350,-0.367188,0.936035,-0.0375977,0
54370,-0.379883,0.928711,-0.0463867,0
54390,-0.391113,0.925293,-0.0522461,0
54410,-0.416992,0.914062,-0.0488281,0
54430,-0.428711,0.901855,-0.0634766,0
54450,-0.418457,0.904297,-0.081543,0
54470,-0.45166,0.89502,-0.0795898,0
54490,-0.435547,0.891113,-0.0776367,0
54510,-0.440918,0.876465,-0.0756836,0
54530,-0.469238,0.876953,-0.074707,0
54550,-0.474121,0.869629,-0.0888672,0
54570,-0.478516,0.863281,-0.0698242,0
54590,-0.471191,0.856934,-0.0737305,0
54610,-0.489258,0.855957,-0.0761719,0
54630,-0.498047,0.850586,-0.0830078,0
54650,-0.558105,0.799316,-0.0678711,0
54670,-0.533203,0.853027,-0.0771484,0
54690,-0.541992,0.821777,-0.078125,0
54710,-0.54541,0.830566,-0.0795898,0
54730,-0.561035,0.832031,-0.0844727,0
54750,-0.564453,0.8125,-0.0859375,0
54770,-0.576172,0.809082,-0.0932617,0
54790,-0.587891,0.80127,-0.0712891,0
54810,-0.598145,0.79541,-0.0458984,0
54830,-0.608398,0.794434,-0.0527344,0
54850,-0.612793,0.789551,-0.0546875,0
54870,-0.631836,0.787598,-0.0532227,0
54890,-0.639648,0.785156,-0.0444336,0
54910,-0.666016,0.791992,-0.0249023,0
54930,-0.672852,0.776367,-0.0136719,0
54950,-0.686035,0.760742,-0.00488281,0
54970,-0.698242,0.752441,-0.00146484,0
54990,-0.729004,0.745117,0,0
55010,-0.733398,0.758301,0.000488281,0
55030,-0.716309,0.750977,0.0273438,0
55040,-0.728027,0.745605,0.034668,0
55060,-0.725586,0.740234,0.0439453,0
55080,-0.771973,0.729492,0.0629883,0
55100,-0.776367,0.733887,0.0566406,0
55120,-0.764648,0.71875,0.0771484,0
55140,-0.731445,0.734863,0.0961914,0
55160,-0.749023,0.727051,0.100586,0
55180,-0.76416,0.71875,0.117188,0
55200,-0.77832,0.741699,0.120117,0
55220,-0.705078,0.737305,0.140137,0
55240,-0.681152,0.734375,0.177734,0
55260,-0.679688,0.739258,0.173828,0
55280,-0.730957,0.750488,0.157715,0
55300,-0.693359,0.761719,0.162598,0
55320,-0.621094,0.777344,0.181152,0
55340,-0.605957,0.766602,0.210938,0
55360,-0.616211,0.780762,0.237793,0
55380,-0.646484,0.807617,0.217773,0
55400,-0.60498,0.819336,0.206055,0
55420,-0.51123,0.848633,0.227539,0
55440,-0.496582,0.852051,0.256836,0
55460,-0.522949,0.855469,0.245605,0
55480,-0.514648,0.845215,0.229492,0
55500,-0.468262,0.861328,0.216309,0
55520,-0.419922,0.899902,0.263184,0
55540,-0.431152,0.916992,0.280762,0
55560,-0.432617,0.87207,0.236328,0
55580,-0.414551,0.838867,0.224609,0
55600,-0.38916,0.904297,0.255371,0
55620,-0.36377,0.927246,0.27002,0
55640,-0.358398,0.912598,0.265625,0
55660,-0.362305,0.898438,0.243652,0
55680,-0.37793,0.862305,0.213867,0
55700,-0.333496,0.888184,0.22998,0
55720,-0.285645,0.914551,0.256836,0
55740,-0.282715,0.941406,0.23877,0
55760,-0.3125,0.89209,0.245117,0
55780,-0.303711,0.875488,0.236816,0
55800,-0.256348,0.915527,0.217773,0
55820,-0.245117,0.936035,0.233887,0
55840,-0.258301,0.897461,0.221191,0
55860,-0.257324,0.879883,0.229004,0
55880,-0.244141,0.911621,0.20166,0
55900,-0.236328,0.953613,0.212891,0
55920,-0.243652,0.934082,0.202637,0
55940,-0.233887,0.925781,0.204102,0
55960,-0.229492,0.916992,0.188477,0
55980,-0.229492,0.923828,0.175293,0
56000,-0.221191,0.92334,0.171875,0
56020,-0.203125,0.919922,0.164551,0
56040,-0.198242,0.928711,0.14502,0
56060,-0.201172,0.937012,0.143555,0
56080,-0.220215,0.938965,0.146484,0
56100,-0.214844,0.943848,0.140137,0
56120,-0.213867,0.941895,0.111816,0
56140,-0.220215,0.933105,0.111328,0
56160,-0.236816,0.949219,0.125488,0
56180,-0.241211,0.966797,0.117188,0
56200,-0.241699,0.974121,0.0898438,0
56220,-0.242188,0.960449,0.0805664,0
56240,-0.250488,0.947754,0.0922852,0
56260,-0.229492,0.935547,0.0859375,0
56280,-0.238281,0.933594,0.0629883,0
56300,-0.253906,0.947754,0.0507812,0
56320,-0.26123,0.943848,0.0507812,0
56340,-0.277832,0.924805,0.0600586,0
56360,-0.28418,0.935547,0.0517578,0
56380,-0.294434,0.944824,0.00830078,0
56400,-0.303223,0.945312,0.0146484,0
56420,-0.335449,0.921875,0.0258789,0
56440,-0.345703,0.929688,0.0219727,0
56460,-0.361328,0.928711,-0.00732422,0
56480,-0.379395,0.923828,-0.00244141,0
56500,-0.40918,0.920898,0.0141602,0
56520,-0.442871,0.90332,0.012207,0
56540,-0.442383,0.90332,-0.0112305,0
56560,-0.438965,0.905273,-0.0361328,0
56580,-0.450195,0.874512,-0.0161133,0
56600,-0.481934,0.876465,-0.00244141,0
56620,-0.496094,0.883789,-0.0410156,0
56640,-0.50293,0.88623,-0.0668945,0
56660,-0.48877,0.870605,-0.0556641,0
56680,-0.481934,0.851562,-0.0336914,0
56700,-0.520508,0.852539,-0.03125,0
56720,-0.549316,0.849609,-0.0712891,0
56740,-0.544922,0.845215,-0.0864258,0
56760,-0.550781,0.806641,-0.0395508,0
56780,-0.607422,0.800781,-0.00439453,0
56800,-0.632324,0.813477,-0.0341797,0
56820,-0.639648,0.820801,-0.0649414,0
56840,-0.65625,0.831055,-0.0629883,0
56860,-0.629883,0.782715,-0.0551758,0
56880,-0.633789,0.75,-0.046875,0
56900,-0.65918,0.761719,-0.0688477,0
56920,-0.649902,0.759277,-0.0888672,0
56940,-0.690918,0.758789,-0.0883789,0
56960,-0.692383,0.731934,-0.0610352,0
56980,-0.690918,0.709473,-0.0649414,0
57000,-0.685059,0.677734,-0.0585938,0
57020,-0.694824,0.663574,-0.0581055,0
57040,-0.744141,0.685059,-0.074707,0
57050,-0.772949,0.674805,-0.0786133,0
57070,-0.795898,0.658203,-0.0185547,0
57090,-0.83252,0.618164,0.00292969,0
57110,-0.847168,0.606934,0.00146484,0
57130,-0.874512,0.596191,0.0126953,0
57150,-0.900879,0.598633,0.0209961,0
57170,-0.890137,0.564453,0.0317383,0
57190,-0.911621,0.567871,0.0493164,0
57210,-0.905273,0.556641,0.0615234,0
57230,-0.913574,0.548828,0.0732422,0
57250,-0.885742,0.543457,0.090332,0
57270,-0.878906,0.54541,0.120605,0
57290,-0.90918,0.541504,0.12207,0
57310,-0.944824,0.548828,0.132324,0
57330,-0.891113,0.540039,0.148926,0
57350,-0.857422,0.534668,0.182129,0
57370,-0.869141,0.53418,0.191895,0
57390,-0.875,0.537109,0.198242,0
57410,-0.895508,0.549316,0.216309,0
57430,-0.878418,0.544922,0.219238,0
57450,-0.877441,0.582031,0.218262,0
57470,-0.833496,0.602051,0.239258,0
57490,-0.836426,0.60791,0.305176,0
57510,-0.847168,0.607422,0.312012,0
57530,-0.833984,0.625977,0.312012,0
57550,-0.785645,0.620605,0.320801,0
57570,-0.708008,0.638672,0.325195,0
57590,-0.692383,0.695312,0.401367,0
57610,-0.682617,0.720215,0.424316,0
57630,-0.705566,0.638672,0.349609,0
57650,-0.660645,0.657715,0.325195,0
57670,-0.578125,0.715332,0.354492,0
57690,-0.556641,0.799316,0.406738,0
57710,-0.55957,0.777344,0.398438,0
57720,-0.569336,0.720215,0.294922,0
57740,-0.53418,0.709473,0.295898,0
57760,-0.429199,0.755371,0.362793,0
57780,-0.421387,0.813965,0.368164,0
57800,-0.496094,0.792969,0.332031,0
57820,-0.500977,0.78418,0.291504,0
57840,-0.456055,0.812988,0.288086,0
57860,-0.427734,0.850586,0.30127,0
57880,-0.424316,0.845215,0.265137,0
57900,-0.432129,0.828125,0.231934,0
57920,-0.426758,0.860352,0.227539,0
57940,-0.40332,0.862793,0.222168,0
57960,-0.380859,0.848633,0.206543,0
57980,-0.386719,0.854004,0.187012,0
58000,-0.378906,0.851074,0.17627,0
58020,-0.374023,0.864746,0.15625,0
58040,-0.358887,0.892578,0.143555,0
58060,-0.361328,0.893555,0.126953,0
58080,-0.361816,0.887207,0.12207,0
58100,-0.338867,0.886719,0.106934,0
58120,-0.349609,0.89502,0.0805664,0
58140,-0.369141,0.913086,0.0742188,0
58160,-0.376953,0.900879,0.0771484,0
58180,-0.353516,0.903809,0.0600586,0
58200,-0.364258,0.923828,0.0229492,0
58220,-0.424805,0.941895,0.0200195,0
58240,-0.403809,0.912109,-0.000976562,0
58260,-0.406738,0.882324,-0.0209961,0
58280,-0.429688,0.887695,-0.0327148,0
58300,-0.456055,0.890137,-0.0429688,0
58320,-0.48584,0.881348,-0.0454102,0
58340,-0.5,0.869141,-0.0629883,0
58360,-0.516602,0.874512,-0.0634766,0
58380,-0.535645,0.858398,-0.0615234,0
58400,-0.554688,0.830566,-0.081543,0
58420,-0.575195,0.818359,-0.0673828,0
58440,-0.61377,0.807129,-0.0488281,0
58460,-0.657715,0.776855,-0.0869141,0
58480,-0.645996,0.746582,-0.09375,0
58500,-0.645508,0.739746,-0.0942383,0
58520,-0.695312,0.75293,-0.0917969,0
58540,-0.712402,0.728516,-0.0786133,0
58560,-0.719238,0.723145,-0.110352,0
58580,-0.700684,0.70459,-0.144043,0
58600,-0.716797,0.675781,-0.143555,0
58620,-0.761719,0.647461,-0.123047,0
58640,-0.740723,0.628906,-0.111328,0
58660,-0.77002,0.630371,-0.152832,0
58680,-0.791992,0.629883,-0.145996,0
58700,-0.805664,0.59668,-0.11084,0
58720,-0.838867,0.537598,-0.0976562,0
58740,-0.861328,0.527832,-0.0932617,0
58760,-0.885742,0.540039,-0.12207,0
58780,-0.889648,0.529297,-0.126953,0
58800,-0.894043,0.508789,-0.0849609,0
58820,-0.900879,0.47998,-0.0825195,0
58840,-0.911621,0.467285,-0.112793,0
58860,-0.94043,0.460938,-0.0727539,0
58880,-0.972168,0.435547,-0.0336914,0
58900,-0.972656,0.419434,-0.0395508,0
58920,-0.956055,0.412109,-0.0341797,0
58940,-0.958496,0.382812,-0.0214844,0
58960,-0.967285,0.355469,0.00537109,0
58980,-0.963867,0.365723,-0.00976562,0
59000,-0.94043,0.36377,-0.0141602,0
59020,-0.947754,0.349121,0.0332031,0
59040,-0.967285,0.309082,0.0917969,0
59060,-0.961426,0.289062,0.0869141,0
59080,-0.959961,0.298828,0.0776367,0
59100,-0.963379,0.303223,0.101562,0
59120,-0.984375,0.286621,0.150391,0
59140,-0.983398,0.282715,0.175781,0
59160,-0.997559,0.288574,0.165039,0
59180,-1.05859,0.307617,0.176758,0
59200,-1.03857,0.310547,0.195312,0
59220,-0.994629,0.313965,0.230957,0
59240,-0.983398,0.312988,0.247559,0
59260,-1.01221,0.314453,0.26709,0
59280,-1.01465,0.331055,0.314941,0
59300,-0.983398,0.336914,0.337402,0
59320,-0.928711,0.32959,0.34668,0
59340,-0.923828,0.349609,0.358398,0
59360,-0.914551,0.35791,0.394531,0
59380,-0.918457,0.375977,0.407227,0
59400,-0.916016,0.38623,0.407227,0
59420,-0.907715,0.393066,0.40918,0
59440,-0.905273,0.415527,0.437012,0
59460,-0.854492,0.395508,0.422363,0
59480,-0.818848,0.424805,0.448242,0
59500,-0.809082,0.46875,0.445312,0
59520,-0.806641,0.469238,0.459961,0
59540,-0.750977,0.545898,0.483398,0
59560,-0.69873,0.523926,0.481934,0
59580,-0.673828,0.520996,0.457031,0
59600,-0.666016,0.544922,0.466797,0
59620,-0.627441,0.539062,0.45459,0
59640,-0.592285,0.563477,0.444824,0
59660,-0.579102,0.611328,0.444336,0
59680,-0.583008,0.638672,0.416504,0
59700,-0.587891,0.643066,0.413574,0
59720,-0.579102,0.659668,0.395996,0
59740,-0.569824,0.675293,0.389648,0
59760,-0.537598,0.694336,0.381836,0
59780,-0.546875,0.72168,0.350586,0
59800,-0.566895,0.720215,0.345215,0
59820,-0.524414,0.726562,0.328613,0
59840,-0.508789,0.729004,0.296875,0
59860,-0.529297,0.761719,0.295898,0
59880,-0.529297,0.756836,0.256836,0
59900,-0.519043,0.770508,0.237305,0
59920,-0.537598,0.788574,0.214355,0
59940,-0.558105,0.806152,0.192383,0
59960,-0.553711,0.807129,0.174805,0
59980,-0.551758,0.806641,0.139648,0
60000,-0.529785,0.823242,0.118652,0
60020,-0.526367,0.819824,0.100098,0
60040,-0.555664,0.807129,0.0766602,0
60060,-0.563965,0.813477,0.043457,0
60080,-0.587891,0.811523,0.0205078,0
60100,-0.568848,0.828125,0.00244141,0
60120,-0.555664,0.80957,-0.0229492,0
60140,-0.583008,0.794922,-0.0493164,0
60160,-0.589844,0.772461,-0.0493164,0
60180,-0.58252,0.748535,-0.0581055,0
60200,-0.597168,0.758301,-0.0825195,0
60220,-0.638184,0.769531,-0.0957031,0
60240,-0.679199,0.759277,-0.0678711,0
60260,-0.696777,0.746094,-0.0688477,0
60280,-0.724609,0.711914,-0.0751953,0
60300,-0.768066,0.695801,-0.101074,0
60320,-0.780273,0.682617,-0.0952148,0
60340,-0.767578,0.676758,-0.0952148,0
60360,-0.777832,0.640625,-0.0908203,0
60380,-0.83252,0.603027,-0.0986328,0
60400,-0.841797,0.566895,-0.101562,0
60420,-0.843262,0.555176,-0.103516,0
60440,-0.844727,0.542969,-0.102539,0
60460,-0.833984,0.499023,-0.0888672,0
60470,-0.838379,0.464355,-0.0932617,0
60490,-0.875,0.443848,-0.104492,0
60510,-0.932129,0.446777,-0.109863,0
60530,-0.950195,0.446289,-0.112793,0
60550,-0.964844,0.428711,-0.104492,0
60570,-0.958984,0.396484,-0.0922852,1001
60590,-0.991211,0.388184,-0.113281,0
60610,-1.02686,0.401367,-0.120605,0
60630,-1.03174,0.386719,-0.0893555,0
60650,-1.0166,0.373047,-0.0991211,0
60670,-0.996582,0.358887,-0.0893555,0
60690,-1.00244,0.370605,-0.0737305,0
60710,-0.972656,0.366699,-0.0722656,0
60730,-0.960449,0.359863,-0.0751953,0
60750,-0.943848,0.37207,-0.0654297,0
60770,-0.913086,0.369141,-0.0664062,0
60790,-0.898438,0.374512,-0.0517578,0
60810,-0.88623,0.382324,-0.0537109,0
60830,-0.876465,0.387207,-0.065918,0
60850,-0.871094,0.390625,-0.0664062,0
60870,-0.86377,0.395996,-0.0664062,0
60890,-0.867676,0.406738,-0.0546875,0
60910,-0.865723,0.423828,-0.0576172,0
60930,-0.854004,0.452637,-0.0664062,0
60950,-0.833496,0.460449,-0.0664062,0
60970,-0.799805,0.494141,-0.0566406,0
60990,-0.742188,0.505859,-0.0493164,0
61010,-0.694824,0.522461,-0.0170898,0
61030,-0.699707,0.556641,0.0415039,0
61050,-0.645996,0.572754,0.0327148,0
61070,-0.528809,0.552246,0.0336914,0
61090,-0.504883,0.598633,0.0786133,0
61110,-0.576172,0.67627,0.0839844,0
61130,-0.550781,0.677246,0.10498,0
61150,-0.515625,0.675293,0.192383,0
61170,-0.552246,0.71582,0.220703,0
61190,-0.65625,0.744629,0.145508,0
61210,-0.637207,0.821777,0.218262,0
61230,-0.623535,0.882812,0.292969,0
61250,-0.679688,0.921387,0.230957,0
61270,-0.689453,0.986816,0.185059,0
61290,-0.586914,1.03418,0.191895,0
61310,-0.541504,1.05078,0.140625,0
61330,-0.569336,1.08496,0.125488,0
61350,-0.531738,1.07715,0.157227,0
61370,-0.455078,1.04688,0.135254,0
61390,-0.416992,1.03809,0.0668945,0
61410,-0.412109,1.05859,0.0600586,0
61430,-0.356934,1.04346,0.0898438,0
61450,-0.307129,0.991211,0.0585938,0
61470,-0.327637,0.981934,0.0288086,0
61490,-0.337891,1.0376,0.0703125,0
61510,-0.330078,1.0376,0.0888672,0
61530,-0.288086,1.0166,0.0668945,0
61550,-0.277344,1.021,0.0571289,1000
61570,-0.269531,1.01221,0.074707,0
61590,-0.257324,0.983398,0.0844727,0
61610,-0.239258,0.959961,0.0849609,0
61630,-0.23584,0.975098,0.0698242,0
61650,-0.259277,0.987793,0.0810547,0
61670,-0.288086,0.969238,0.0825195,0
61690,-0.314941,0.952637,0.0961914,0
61710,-0.340332,0.961426,0.0751953,0
61730,-0.32959,0.959961,0.0649414,0
61750,-0.329102,0.955566,0.0766602,0
61770,-0.317383,0.952637,0.0629883,0
61790,-0.308594,0.952637,0.0595703,0
61810,-0.294922,0.940918,0.0537109,0
61830,-0.26709,0.937012,0.0561523,0
61850,-0.26709,0.943359,0.0688477,0
61870,-0.277344,0.949707,0.0849609,0
61890,-0.293945,0.945801,0.0893555,0
61910,-0.308594,0.947266,0.0800781,0
61930,-0.314453,0.958984,0.0791016,0
61950,-0.314941,0.958008,0.0844727,0
61970,-0.305664,0.945312,0.0839844,0
61990,-0.310059,0.954102,0.0859375,0
62010,-0.311035,0.952637,0.0825195,0
62030,-0.296387,0.958984,0.050293,0
62050,-0.272461,0.93457,0.0449219,0
62070,-0.262207,0.952148,0.0688477,0
62090,-0.281738,0.96875,0.0751953,0
62110,-0.288574,0.943359,0.0668945,0
62130,-0.28125,0.943848,0.0771484,0
62150,-0.281738,0.936035,0.0830078,0
62170,-0.281738,0.94043,0.0957031,0
62190,-0.279297,0.947266,0.0742188,0
62210,-0.253418,0.933594,0.059082,0
62230,-0.270508,0.956543,0.0805664,0
62250,-0.270508,0.944824,0.0683594,0
62270,-0.270996,0.951172,0.0820312,0
62290,-0.274902,0.943359,0.0786133,0
62310,-0.26709,0.947754,0.0698242,0
62330,-0.26709,0.953125,0.0683594,0
62350,-0.285156,0.971191,0.0678711,0
62370,-0.288574,0.968262,0.0742188,0
62390,-0.283203,0.951172,0.0712891,0
62410,-0.286621,0.953613,0.0698242,0
62430,-0.282227,0.96582,0.0683594,0
62450,-0.277832,0.959473,0.0766602,0
62470,-0.281738,0.950195,0.0708008,0
62480,-0.281738,0.94043,0.081543,0
62500,-0.287109,0.952637,0.0864258,0
62520,-0.290527,0.974121,0.0966797,0
62540,-0.283691,0.975586,0.0961914,0
62560,-0.276367,0.955078,0.0966797,0
62580,-0.289062,0.960449,0.105469,0
62600,-0.29834,0.959961,0.109863,0
62620,-0.288086,0.952637,0.0908203,0
62640,-0.283203,0.963867,0.0537109,0
62660,-0.290527,0.97168,0.0600586,0
62680,-0.308105,0.956543,0.0639648,0
62700,-0.324219,0.948242,0.0717773,0
62720,-0.326172,0.942383,0.0585938,0
62740,-0.338379,0.936035,0.0541992,0
62760,-0.34668,0.926758,0.0498047,0
62780,-0.349121,0.930176,0.0424805,0
62800,-0.347168,0.928711,0.0283203,0
62820,-0.345703,0.91748,0.0185547,0
62840,-0.36377,0.924805,0.00585938,0
62860,-0.368164,0.929688,0.00439453,0
62880,-0.389648,0.905762,0.0229492,0
62900,-0.398438,0.905762,0.0161133,0
62920,-0.393066,0.912109,0.00341797,0
62940,-0.412598,0.906738,0.00927734,0
62960,-0.432129,0.900879,0.0166016,0
62980,-0.430176,0.885742,0.012207,0
63000,-0.442383,0.879395,0.00488281,0
63020,-0.459473,0.898926,-0.0107422,0
63040,-0.491699,0.891113,-0.00195312,0
63060,-0.402344,0.898926,-0.0214844,0
63080,-0.520996,0.850098,-0.0126953,0
63100,-0.498047,0.859375,-0.0141602,0
63120,-0.525391,0.831055,-0.00683594,0
63140,-0.554199,0.832031,-0.0102539,0
63160,-0.535156,0.826172,-0.0107422,0
63180,-0.547852,0.844727,-0.0136719,0
63200,-0.561523,0.822754,-0.000488281,0
63220,-0.576172,0.825684,0.0136719,0
63240,-0.581055,0.813477,0.0136719,0
63260,-0.592285,0.809082,0.00976562,0
63280,-0.585449,0.8125,0.0263672,0
63300,-0.587891,0.80957,0.034668,0
63320,-0.576172,0.80127,0.0375977,0
63340,-0.572266,0.807617,0.03125,0
63360,-0.587891,0.80957,0.0327148,0
63380,-0.594727,0.797363,0.0581055,0
63400,-0.608398,0.790527,0.0615234,0
63420,-0.612305,0.786621,0.0610352,0
63440,-0.628906,0.799316,0.0507812,0
63460,-0.619141,0.794922,0.0537109,0
63480,-0.620605,0.782715,0.0571289,0
63500,-0.660645,0.772949,0.0854492,0
63520,-0.689941,0.75293,0.101074,0
63540,-0.672852,0.746094,0.0947266,0
63560,-0.672363,0.730469,0.108887,0
63580,-0.697754,0.727539,0.111816,0
63600,-0.71875,0.71875,0.121094,0
63620,-0.73584,0.70459,0.128906,0
63640,-0.740234,0.706055,0.120605,0
63660,-0.729004,0.712402,0.141602,0
63680,-0.733398,0.695801,0.152832,0
63700,-0.742188,0.6875,0.162598,0
63720,-0.770996,0.697754,0.173828,0
63740,-0.76416,0.689941,0.179199,0
63760,-0.741211,0.682129,0.193848,0
63780,-0.723633,0.677734,0.21582,0
63800,-0.713379,0.674805,0.229492,0
63820,-0.728516,0.682129,0.20752,0
63840,-0.710449,0.69043,0.212891,0
63860,-0.66748,0.691895,0.240234,0
63880,-0.672852,0.705078,0.262207,0
63900,-0.676758,0.714844,0.27002,0
63920,-0.694824,0.714355,0.274902,0
63940,-0.687988,0.697754,0.283203,0
63960,-0.685059,0.706055,0.280273,0
63980,-0.668457,0.716309,0.297852,0
64000,-0.649414,0.730469,0.3125,0
64020,-0.613281,0.725586,0.308594,0
64040,-0.629395,0.720703,0.316406,0
64060,-0.631348,0.729004,0.334473,0
64080,-0.615723,0.745605,0.338379,0
64100,-0.578125,0.766113,0.349121,0
64120,-0.567871,0.737305,0.353027,0
64140,-0.547852,0.733887,0.339355,0
64160,-0.552246,0.754395,0.368164,0
64180,-0.527344,0.791016,0.391113,0
64200,-0.518555,0.792969,0.390137,0
64220,-0.527344,0.768066,0.376465,0
64240,-0.522949,0.77832,0.373535,0
64260,-0.501465,0.80957,0.359375,0
64280,-0.470703,0.833984,0.372559,0
64300,-0.432617,0.822754,0.394531,0
64320,-0.460449,0.797852,0.375,0
64340,-0.467285,0.79541,0.373047,0
64360,-0.447266,0.816895,0.379883,0
64380,-0.425781,0.82959,0.375,0
64400,-0.383301,0.806152,0.378906,0
64420,-0.395996,0.789062,0.363281,0
64440,-0.436035,0.827148,0.35498,0
64460,-0.42334,0.84375,0.360352,0
64480,-0.37793,0.828613,0.363281,0
64500,-0.366699,0.824707,0.374023,0
64520,-0.38623,0.819336,0.338379,0
64540,-0.378906,0.816406,0.322754,0
64560,-0.358887,0.844238,0.345703,0
64580,-0.342285,0.852539,0.373047,0
64600,-0.331543,0.822754,0.355957,0
64620,-0.328613,0.822266,0.3125,0
64640,-0.339844,0.858398,0.335938,0
64660,-0.318848,0.873535,0.354004,0
64680,-0.313477,0.869629,0.327637,0
64700,-0.307129,0.867188,0.30957,0
64720,-0.293945,0.874023,0.313477,0
64740,-0.252441,0.887207,0.311523,0
64760,-0.260254,0.860352,0.306152,0
64780,-0.251953,0.853516,0.284668,0
64800,-0.239746,0.893066,0.282227,0
64820,-0.228027,0.916504,0.265137,0
64840,-0.239258,0.911133,0.262207,0
64860,-0.233398,0.873535,0.257324,0
64880,-0.23877,0.896973,0.269531,0
64900,-0.236328,0.932617,0.241699,0
64940,-0.246094,0.91748,0.232422,0
64960,-0.244629,0.912109,0.220215,0
64980,-0.253906,0.916992,0.200684,0
65000,-0.254883,0.919434,0.202148,0
65020,-0.263184,0.908691,0.213379,0
65040,-0.265137,0.905762,0.173828,0
65060,-0.257324,0.921875,0.13916,0
65080,-0.254395,0.911621,0.147949,0
65100,-0.255371,0.90332,0.168457,0
65120,-0.25,0.913574,0.139648,0
65140,-0.273926,0.921875,0.104492,0
65160,-0.298828,0.918457,0.121582,0
65180,-0.310547,0.902832,0.139648,0
65200,-0.316406,0.916504,0.105957,0
65220,-0.331055,0.930664,0.0834961,0
65240,-0.369141,0.929199,0.120605,0
65260,-0.402344,0.912598,0.128418,0
65280,-0.403809,0.904785,0.0908203,0
65300,-0.414551,0.902832,0.0820312,0
65320,-0.455566,0.88916,0.104492,0
65340,-0.469238,0.878906,0.121582,0
65360,-0.496582,0.882324,0.101562,0
65380,-0.507812,0.882812,0.0786133,0
65400,-0.497559,0.877441,0.0688477,0
65420,-0.482422,0.884766,0.0737305,0
65440,-0.524414,0.870605,0.0825195,0
65460,-0.541504,0.845703,0.0664062,0
65480,-0.546387,0.829102,0.0341797,0
65500,-0.583008,0.835938,0.0551758,0
65520,-0.623535,0.813965,0.0649414,0
65540,-0.611328,0.805176,0.0473633,0
65560,-0.623047,0.797363,0,0
65580,-0.623535,0.803711,0.0141602,0
65600,-0.644043,0.781738,0.0249023,0
65620,-0.606445,0.762695,0.0126953,0
65640,-0.635254,0.766602,-0.0234375,0
65660,-0.656738,0.764648,-0.0288086,0
65680,-0.662598,0.748535,-0.0214844,0
65700,-0.660645,0.723145,-0.012207,0
65720,-0.684082,0.737793,-0.0195312,0
65740,-0.658203,0.726562,-0.0351562,0
65760,-0.68457,0.715332,-0.00976562,0
65780,-0.707031,0.69873,0.0332031,0
65800,-0.722656,0.683105,0.0341797,0
65820,-0.746582,0.674805,0.0078125,0
65840,-0.737793,0.662598,0.0185547,0
65860,-0.75293,0.663574,0.0209961,0
65880,-0.768555,0.649902,0.0195312,0
65900,-0.797363,0.633301,0.034668,0
65910,-0.821289,0.62793,0.0600586,0
65930,-0.841797,0.59375,0.0664062,0
65950,-0.850098,0.566895,0.0537109,0
65970,-0.872559,0.562988,0.0776367,0
65990,-0.885742,0.541992,0.116699,0
66010,-0.870117,0.51709,0.140625,0
66030,-0.878418,0.493164,0.12207,0
66050,-0.900391,0.468262,0.129883,0
