Timestamp, Acceleration x, Acceleration y, Acceleration z, Marker
50,0.92041,-0.043457,-0.39502,0
90,0.916504,-0.0375977,-0.399414,0
110,0.918457,-0.0302734,-0.41748,0
130,0.914551,-0.0385742,-0.410645,0
150,0.906738,-0.0488281,-0.412109,0
170,0.89209,-0.0415039,-0.431152,0
190,0.877441,-0.0351562,-0.422363,0
210,0.869629,-0.0166016,-0.432129,0
230,0.850586,-0.0170898,-0.433594,0
250,0.835449,0.00976562,-0.412109,0
250,0.854492,0.0200195,-0.40918,0
290,0.849609,0.0151367,-0.37207,0
300,0.842773,0.0126953,-0.377441,0
320,0.838867,0.0317383,-0.37207,0
340,0.898438,0.0449219,-0.355469,0
360,0.930664,0.0283203,-0.339844,0
380,0.932617,-0.0141602,-0.347168,0
400,0.944336,-0.0341797,-0.347168,0
410,0.964355,-0.0620117,-0.341797,0
430,0.973145,-0.0834961,-0.349121,0
450,0.98877,-0.11084,-0.354004,0
470,0.993652,-0.126465,-0.36377,0
490,0.983398,-0.155762,-0.370117,0
510,0.97998,-0.170898,-0.374512,0
530,0.961426,-0.18457,-0.365234,0
550,0.940918,-0.181152,-0.357422,0
570,0.92334,-0.177246,-0.372559,0
590,0.936523,-0.171387,-0.380859,0
610,0.964844,-0.196289,-0.375,0
630,0.924805,-0.213867,-0.360352,0
650,0.893555,-0.221191,-0.339355,0
670,0.921387,-0.229004,-0.330566,0
690,0.923828,-0.216309,-0.32959,0
710,0.938965,-0.232422,-0.375,0
720,0.919434,-0.226562,-0.382812,0
750,0.921387,-0.235352,-0.36377,0
770,0.932617,-0.242188,-0.391113,0
790,0.936035,-0.247559,-0.404297,0
810,0.930176,-0.229492,-0.396484,0
830,0.913086,-0.229004,-0.398926,0
850,0.912598,-0.23584,-0.393555,0
870,0.898438,-0.233398,-0.399414,0
890,0.898926,-0.227539,-0.389648,0
910,0.895508,-0.224121,-0.389648,0
930,0.881836,-0.207031,-0.392578,0
950,0.889648,-0.212891,-0.398926,0
970,0.900391,-0.20166,-0.398926,0
990,0.894531,-0.216797,-0.399414,0
1010,0.898438,-0.196777,-0.414551,0
1030,0.905762,-0.185547,-0.400391,0
1050,0.90332,-0.179199,-0.399902,0
1070,0.898438,-0.179199,-0.404297,0
1090,0.898926,-0.172852,-0.399902,0
1110,0.905273,-0.170898,-0.395508,0
1130,0.90332,-0.163086,-0.383301,0
1150,0.900879,-0.161621,-0.383301,0
1170,0.912598,-0.159668,-0.391113,0
1190,0.927246,-0.157227,-0.388184,0
1210,0.925293,-0.151855,-0.382812,0
1230,0.914551,-0.146484,-0.395996,0
1250,0.909668,-0.147949,-0.38623,0
1270,0.907227,-0.145996,-0.367188,0
1290,0.924316,-0.160645,-0.370117,0
1310,0.93457,-0.146484,-0.38916,0
1330,0.927734,-0.141602,-0.397949,0
1350,0.917969,-0.135742,-0.386719,0
1370,0.906738,-0.141113,-0.38916,0
1390,0.907227,-0.137207,-0.398926,0
1410,0.911133,-0.150391,-0.415527,0
1430,0.879395,-0.160645,-0.433105,0
1450,0.852051,-0.154297,-0.419922,0
1470,0.866699,-0.157227,-0.421387,0
1490,0.889648,-0.132324,-0.438477,0
1510,0.875977,-0.141602,-0.447754,0
1530,0.905273,-0.169434,-0.431641,0
1550,0.902832,-0.186035,-0.424805,0
1570,0.872559,-0.172363,-0.42627,0
1590,0.861816,-0.168457,-0.432129,0
1610,0.865723,-0.182129,-0.40918,0
1630,0.873047,-0.186523,-0.412598,0
1650,0.89502,-0.182129,-0.40332,0
1670,0.899414,-0.186035,-0.384277,0
1690,0.889648,-0.181641,-0.381836,0
1710,0.883301,-0.174805,-0.384277,0
1730,0.888672,-0.184082,-0.411621,0
1750,0.85791,-0.161621,-0.402832,0
1770,0.810059,-0.171875,-0.405762,0
1790,0.818359,-0.188477,-0.373535,0
1810,0.867188,-0.1875,-0.410645,0
1830,0.861816,-0.182617,-0.427734,0
1850,0.857422,-0.20166,-0.412598,0
1870,0.905273,-0.212891,-0.405273,0
1890,0.927246,-0.219727,-0.395996,0
1910,0.932129,-0.211426,-0.426758,0
1930,0.95166,-0.187988,-0.447266,0
1950,0.963379,-0.193359,-0.398438,0
1970,0.991211,-0.210449,-0.388184,0
1990,0.990234,-0.190918,-0.426758,0
2010,0.970703,-0.183594,-0.405273,0
2030,0.958008,-0.195801,-0.404297,0
2050,0.975098,-0.20459,-0.401367,0
2070,0.950195,-0.234375,-0.404785,0
2090,0.895508,-0.216797,-0.400391,0
2110,0.901367,-0.216309,-0.401855,0
2130,0.853027,-0.240723,-0.388672,0
2150,0.808105,-0.241699,-0.350586,0
2170,0.835449,-0.200684,-0.387695,0
2190,0.869141,-0.212891,-0.399414,0
2210,0.895508,-0.22998,-0.410156,0
2230,0.929199,-0.239258,-0.425293,0
2250,1.021,-0.246094,-0.417969,0
2270,1.03662,-0.262207,-0.407715,0
2290,0.960449,-0.231934,-0.416016,0
2310,0.936523,-0.199219,-0.456543,0
2330,0.958008,-0.201172,-0.416504,0
2350,0.973633,-0.200684,-0.36084,0
2370,0.941406,-0.195312,-0.344238,0
2390,0.888672,-0.17041,-0.361816,0
2410,0.871094,-0.163574,-0.344727,0
2430,0.869141,-0.175293,-0.328613,0
2450,0.838867,-0.189453,-0.329102,0
2470,0.823242,-0.207031,-0.336914,0
2490,0.772949,-0.193359,-0.344727,0
2510,0.792969,-0.177734,-0.331543,0
2530,0.804688,-0.19043,-0.324219,0
2550,0.818359,-0.166504,-0.337402,0
2570,0.827148,-0.153809,-0.340332,0
2590,0.864258,-0.169922,-0.293945,0
2610,0.896484,-0.192383,-0.286133,0
2630,0.898438,-0.166504,-0.356934,0
2650,0.924805,-0.121094,-0.385742,0
2670,0.935059,-0.162598,-0.330566,0
2680,0.977539,-0.197754,-0.32373,0
2700,0.952148,-0.20166,-0.338379,0
2720,0.975586,-0.196289,-0.330078,0
2740,0.96875,-0.22168,-0.345215,0
2760,0.972656,-0.21582,-0.35498,0
2780,0.970703,-0.221191,-0.342773,0
2800,0.967285,-0.257324,-0.358887,0
2820,0.935059,-0.275391,-0.366699,0
2840,0.919434,-0.265137,-0.397461,0
2860,0.936035,-0.290527,-0.355469,0
2880,0.908691,-0.305664,-0.352539,0
2900,0.879883,-0.274902,-0.382324,0
2920,0.878418,-0.250977,-0.35498,0
2940,0.920898,-0.277832,-0.32666,0
2960,0.888672,-0.274414,-0.348633,0
2980,0.875,-0.246094,-0.365723,0
3000,0.882324,-0.258789,-0.344238,0
3020,0.898926,-0.264648,-0.354004,0
3040,0.90332,-0.263672,-0.354492,0
3060,0.88916,-0.256348,-0.352051,0
3080,0.907715,-0.259277,-0.350098,0
3100,0.918457,-0.257324,-0.358887,0
3120,0.912598,-0.238281,-0.373047,0
3140,0.920898,-0.240234,-0.368164,0
3160,0.908691,-0.22168,-0.365723,0
3180,0.912598,-0.216797,-0.339355,0
3200,0.93457,-0.214355,-0.306641,0
3220,0.947754,-0.226074,-0.312988,0
3240,0.934082,-0.200195,-0.34082,0
3260,0.916016,-0.174805,-0.347656,0
3280,0.916016,-0.171875,-0.342285,0
3300,0.927246,-0.183594,-0.320801,0
3320,0.912109,-0.18457,-0.335938,0
3340,0.898438,-0.165527,-0.346191,0
3360,0.898438,-0.145508,-0.331055,0
3380,0.908203,-0.149902,-0.319824,0
3400,0.926758,-0.14502,-0.339355,0
3420,0.92334,-0.120605,-0.353027,0
3440,0.92041,-0.106934,-0.347656,0
3460,0.937988,-0.129883,-0.36377,0
3480,0.939941,-0.141602,-0.374512,0
3500,0.938965,-0.143066,-0.394043,0
3520,0.921387,-0.144531,-0.401367,0
3540,0.904785,-0.140625,-0.402832,0
3560,0.894531,-0.155762,-0.411133,0
3580,0.907227,-0.15332,-0.40918,0
3600,0.900879,-0.143555,-0.400879,0
3620,0.88916,-0.138672,-0.393555,0
3640,0.888672,-0.147949,-0.385254,0
3660,0.893066,-0.152832,-0.38623,0
3680,0.896484,-0.148438,-0.38623,0
3700,0.890137,-0.14502,-0.395508,0
3720,0.881348,-0.155273,-0.395996,0
3740,0.88623,-0.165039,-0.387695,0
3760,0.894531,-0.165039,-0.395508,0
3780,0.88916,-0.171875,-0.406738,0
3800,0.907227,-0.152344,-0.408691,0
3820,0.919434,-0.150879,-0.401855,0
3840,0.933105,-0.160156,-0.395508,0
3860,0.924316,-0.164062,-0.398438,0
3880,0.92041,-0.157715,-0.395508,0
3900,0.922852,-0.151367,-0.397949,0
3920,0.929199,-0.14209,-0.393066,0
3940,0.928223,-0.142578,-0.38623,0
3960,0.924316,-0.144043,-0.384277,0
3980,0.921875,-0.139648,-0.395996,0
4000,0.919922,-0.130859,-0.395996,0
4020,0.913574,-0.139648,-0.39502,0
4040,0.908691,-0.146973,-0.384277,0
4060,0.898438,-0.140625,-0.37793,0
4080,0.891602,-0.136719,-0.397461,0
4100,0.903809,-0.126953,-0.394043,0
4120,0.896484,-0.12793,-0.38623,0
4140,0.895996,-0.135742,-0.393066,0
4160,0.895996,-0.140137,-0.399414,0
4180,0.907227,-0.140137,-0.405762,0
4200,0.924316,-0.146484,-0.39502,0
4220,0.926758,-0.136719,-0.40332,0
4240,0.922852,-0.130371,-0.407227,0
4260,0.932617,-0.117188,-0.417969,0
4280,0.929199,-0.134766,-0.402344,0
4300,0.930176,-0.13916,-0.403809,0
4320,0.928223,-0.134766,-0.412598,0
4340,0.928711,-0.131348,-0.410645,0
4360,0.928223,-0.126953,-0.404785,0
4380,0.925781,-0.128418,-0.402344,0
4400,0.91748,-0.129395,-0.395996,0
4420,0.918945,-0.129883,-0.38916,0
4440,0.915527,-0.129395,-0.397461,0
4460,0.919922,-0.122559,-0.403809,0
4480,0.915527,-0.105469,-0.40918,0
4500,0.890137,-0.0991211,-0.40625,0
4520,0.91748,-0.0966797,-0.37207,0
4540,0.907715,-0.10498,-0.363281,0
4560,0.904297,-0.0883789,-0.364258,0
4580,0.890137,-0.0874023,-0.375977,0
4600,0.851562,-0.078125,-0.366699,0
4620,0.872559,-0.081543,-0.398926,0
4640,0.857422,-0.0800781,-0.407227,0
4660,0.798828,-0.0776367,-0.382812,0
4680,0.786133,-0.0864258,-0.374512,0
4700,0.793945,-0.0751953,-0.384277,0
4720,0.795898,-0.0576172,-0.390137,0
4740,0.802246,-0.0673828,-0.365234,0
4760,0.790039,-0.0800781,-0.328613,0
4780,0.82373,-0.0849609,-0.343262,0
4800,0.813477,-0.0742188,-0.367188,0
4820,0.792969,-0.0585938,-0.358398,0
4840,0.784668,-0.0688477,-0.307129,0
4860,0.776367,-0.0830078,-0.252441,0
4880,0.759277,-0.104004,-0.249512,0
4900,0.750488,-0.102539,-0.228516,0
4920,0.751465,-0.141602,-0.20459,0
4940,0.751465,-0.182129,-0.20166,0
4960,0.724121,-0.223633,-0.158691,0
4980,0.681152,-0.282227,-0.10498,0
5000,0.706543,-0.313477,-0.11377,0
5020,0.768066,-0.360352,-0.0859375,0
5040,0.816895,-0.406738,-0.0141602,0
5060,0.811035,-0.469727,0.0454102,0
5080,0.847168,-0.542969,0.050293,0
5100,0.83252,-0.624512,0.121582,0
5120,0.80957,-0.722656,0.12207,0
5140,0.734863,-0.788574,0.225098,0
5160,0.553223,-0.807617,0.227539,0
5180,0.536621,-0.900879,0.219727,0
5200,0.576172,-0.922363,0.316406,0
5220,0.603027,-0.886719,0.313965,0
5240,0.398438,-0.908203,0.263672,0
5260,0.296387,-0.947754,0.279297,0
5280,0.256836,-0.94043,0.317871,0
5300,0.242188,-1.07373,0.344727,0
5310,0.127441,-1.03125,0.35791,0
5330,0.0512695,-1.05078,0.303711,0
5350,0.0341797,-1.0293,0.323242,0
5370,0.0229492,-1.00537,0.328613,0
5390,-0.129395,-0.946777,0.319336,0
5410,-0.402344,-0.959961,0.349121,0
5410,-0.483398,-0.983887,0.375977,0
5430,-0.343262,-0.98291,0.344727,0
5450,-0.228027,-0.964355,0.373047,0
5480,-0.437988,-0.949219,0.165527,0
5510,-0.60498,-1.00342,0.510742,0
5530,-0.518066,-0.908203,0.17334,0
5550,-0.513672,-0.919434,0.26123,0
5570,-0.643555,-0.79248,0.186523,0
5590,-0.657227,-0.759277,0.0942383,0
5610,-0.711426,-0.907715,0.10498,0
5630,-0.88916,-1.04932,0.131836,0
5650,-0.824707,-1.01123,-0.03125,0
5670,-0.637207,-0.838379,-0.0722656,0
5690,-0.644531,-0.646973,0.0131836,0
5710,-0.751953,-0.623535,0.0952148,0
5730,-0.774414,-0.650391,0.0605469,0
5750,-0.694336,-0.605957,0.0839844,0
5770,-0.681152,-0.574707,0.11084,0
5790,-0.74707,-0.682129,0.0898438,0
5810,-0.850098,-0.762695,0.101074,0
5830,-0.78125,-0.884766,0.131348,0
5850,-0.672363,-0.904297,0.0668945,0
5870,-0.673828,-0.810059,0.00830078,0
5890,-0.692871,-0.720703,-0.0341797,0
5910,-0.701172,-0.671875,-0.059082,0
5930,-0.742676,-0.635742,-0.0454102,0
5950,-0.767578,-0.642578,-0.0385742,0
5970,-0.771973,-0.662598,-0.0375977,0
5990,-0.765137,-0.712891,-0.0307617,0
6010,-0.763672,-0.759277,-0.0219727,0
6030,-0.763184,-0.774414,-0.00976562,0
6050,-0.748535,-0.760254,0.00341797,0
6070,-0.744629,-0.738281,0.0224609,0
6090,-0.741211,-0.708008,0.0195312,0
6110,-0.753418,-0.68457,0.0249023,0
6130,-0.764648,-0.682617,0.0302734,0
6150,-0.773926,-0.692871,0.0380859,0
6170,-0.770996,-0.712891,0.0341797,0
6190,-0.759766,-0.71875,0.0205078,0
6210,-0.765625,-0.710938,0.0170898,0
6230,-0.766602,-0.694824,-0.00195312,0
6250,-0.75293,-0.692383,-0.00537109,0
6270,-0.744141,-0.689941,-0.0117188,0
6290,-0.735352,-0.699707,-0.0151367,0
6310,-0.73877,-0.696289,-0.0141602,0
6330,-0.749512,-0.696777,-0.00292969,0
6350,-0.76709,-0.692871,0.0102539,0
6370,-0.771484,-0.689453,0.015625,0
6390,-0.777832,-0.70459,0.00732422,0
6410,-0.776367,-0.708008,0.00146484,0
6430,-0.774414,-0.718262,-0.012207,0
6450,-0.75293,-0.719727,-0.0234375,0
6470,-0.741211,-0.708008,-0.0341797,0
6490,-0.732422,-0.693848,-0.0336914,0
6510,-0.738281,-0.672852,-0.0415039,0
6530,-0.740723,-0.648926,-0.0473633,0
6550,-0.749023,-0.65625,-0.0371094,0
6570,-0.758789,-0.666016,-0.0351562,0
6590,-0.775391,-0.6875,-0.0209961,0
6610,-0.782715,-0.694336,-0.0219727,0
6630,-0.785156,-0.713867,-0.0151367,0
6650,-0.785645,-0.725586,-0.00488281,0
6670,-0.774902,-0.736328,-0.00488281,0
6690,-0.769043,-0.734375,-0.00878906,0
6710,-0.768555,-0.715332,-0.0224609,0
6730,-0.767578,-0.682129,-0.0249023,0
6750,-0.754883,-0.654297,-0.0429688,0
6770,-0.759277,-0.634277,-0.0478516,0
6790,-0.776855,-0.648926,-0.0517578,0
6810,-0.782227,-0.664551,-0.059082,0
6830,-0.772461,-0.67627,-0.0615234,0
6850,-0.76709,-0.702637,-0.0566406,0
6870,-0.773438,-0.712891,-0.0463867,0
6890,-0.765137,-0.708496,-0.0449219,0
6910,-0.759766,-0.701172,-0.043457,0
6930,-0.764648,-0.693848,-0.0375977,0
6950,-0.763184,-0.696289,-0.0395508,0
6970,-0.762207,-0.697266,-0.0429688,0
6990,-0.762207,-0.701172,-0.0424805,0
7010,-0.760254,-0.691895,-0.043457,0
7030,-0.762695,-0.694336,-0.0380859,0
7050,-0.761719,-0.693848,-0.0371094,0
7070,-0.765137,-0.695801,-0.0415039,0
7090,-0.760254,-0.693359,-0.0336914,0
7110,-0.761719,-0.698242,-0.0361328,0
7130,-0.768555,-0.702148,-0.034668,0
7150,-0.77002,-0.703613,-0.0258789,0
7170,-0.764648,-0.698242,-0.0297852,0
7190,-0.76416,-0.695801,-0.0288086,0
7210,-0.756348,-0.686523,-0.0263672,0
7230,-0.758301,-0.693359,-0.0332031,0
7250,-0.764648,-0.69043,-0.0258789,0
7270,-0.765137,-0.699707,-0.0322266,0
7290,-0.768555,-0.70166,-0.0292969,0
7310,-0.775879,-0.703613,-0.0327148,0
7330,-0.77002,-0.713379,-0.0253906,0
7350,-0.755371,-0.703613,-0.0268555,0
7370,-0.75,-0.705078,-0.0419922,0
7390,-0.755859,-0.704102,-0.0429688,0
7410,-0.764648,-0.700684,-0.0483398,0
7430,-0.769531,-0.687988,-0.0493164,0
7450,-0.774902,-0.700195,-0.0498047,0
7470,-0.77002,-0.709473,-0.0444336,0
7490,-0.760254,-0.720703,-0.0463867,0
7510,-0.743164,-0.721191,-0.0473633,0
7530,-0.731445,-0.724121,-0.0429688,0
7550,-0.719727,-0.709473,-0.0439453,0
7570,-0.716797,-0.700195,-0.0332031,0
7590,-0.73584,-0.687988,-0.0297852,0
7610,-0.757324,-0.680176,-0.0112305,0
7630,-0.759277,-0.695801,-0.00390625,0
7650,-0.742188,-0.720215,-0.00683594,0
7670,-0.743164,-0.73584,0.000488281,0
7690,-0.750488,-0.724121,-0.00537109,0
7710,-0.749023,-0.713867,-0.012207,0
7730,-0.749512,-0.705566,-0.0200195,0
7750,-0.74707,-0.709961,-0.0288086,0
7770,-0.745117,-0.714844,-0.0263672,0
7790,-0.740234,-0.729004,-0.027832,0
7810,-0.743652,-0.731445,-0.0224609,0
7830,-0.75,-0.726074,-0.0205078,0
7850,-0.739746,-0.709473,-0.0234375,0
7870,-0.736328,-0.705078,-0.0253906,0
7890,-0.741211,-0.699219,-0.027832,0
7910,-0.744141,-0.706543,-0.027832,0
7930,-0.737793,-0.709961,-0.0214844,0
7950,-0.736328,-0.720215,-0.0126953,0
7970,-0.735352,-0.72168,-0.0117188,0
7980,-0.73584,-0.715332,-0.0112305,0
8000,-0.735352,-0.713379,-0.0112305,0
8020,-0.731445,-0.712402,-0.0166016,0
8040,-0.737305,-0.720703,-0.000976562,0
8060,-0.73877,-0.728516,-0.00341797,0
8080,-0.740234,-0.73877,0.00341797,0
8100,-0.739258,-0.746094,0.00634766,0
8120,-0.746582,-0.756836,0.00488281,0
8140,-0.742676,-0.763184,0.015625,0
8160,-0.745605,-0.767578,0.00488281,0
8180,-0.740234,-0.754883,-0.00244141,0
8200,-0.73584,-0.730957,0,0
8220,-0.731445,-0.725098,0.000488281,0
8240,-0.718262,-0.710938,-0.0078125,0
8260,-0.731445,-0.709961,-0.00927734,0
8280,-0.742676,-0.708496,-0.00292969,0
8300,-0.726562,-0.716309,-0.0126953,0
8320,-0.728516,-0.709473,-0.012207,0
8340,-0.74707,-0.708008,-0.0102539,0
8360,-0.746094,-0.696777,-0.0175781,0
8380,-0.734863,-0.702637,-0.0126953,0
8400,-0.736816,-0.711914,-0.012207,0
8420,-0.746094,-0.722168,-0.00390625,0
8440,-0.751465,-0.718262,-0.00537109,0
8460,-0.754883,-0.712402,-0.0112305,0
8480,-0.746094,-0.713379,-0.0131836,0
8500,-0.738281,-0.713379,-0.0214844,0
8520,-0.740234,-0.722656,-0.0175781,0
8540,-0.730957,-0.730957,-0.0151367,0
8560,-0.737793,-0.743164,-0.0166016,0
8580,-0.73584,-0.737305,-0.0219727,0
8600,-0.728516,-0.734863,-0.0229492,0
8620,-0.729492,-0.725586,-0.0185547,0
8640,-0.744629,-0.719727,-0.012207,0
8660,-0.741211,-0.720215,-0.00390625,0
8680,-0.73584,-0.720703,0.00195312,0
8700,-0.737305,-0.723145,0.00341797,0
8720,-0.730469,-0.719727,0,0
8740,-0.731934,-0.707031,-0.012207,0
8760,-0.734375,-0.69873,-0.0136719,0
8780,-0.739746,-0.697754,-0.0117188,0
8800,-0.741211,-0.705078,-0.0107422,0
8820,-0.739746,-0.730957,-0.0131836,0
8840,-0.735352,-0.736816,-0.0136719,0
8860,-0.73584,-0.74707,-0.00927734,0
8880,-0.72998,-0.73584,-0.00439453,0
8900,-0.726074,-0.733887,-0.0112305,0
8920,-0.717773,-0.736816,-0.0175781,0
8940,-0.724609,-0.728516,-0.0117188,0
8960,-0.730469,-0.723145,-0.00878906,0
8980,-0.730957,-0.724121,-0.0107422,0
9000,-0.730957,-0.716797,-0.00439453,0
9020,-0.740723,-0.708984,0.00439453,0
9040,-0.723145,-0.727539,0.00488281,0
9060,-0.725586,-0.731934,0.00732422,0
9080,-0.751465,-0.73584,0.0141602,0
9100,-0.750488,-0.714844,-0.00732422,0
9120,-0.730957,-0.712402,-0.00732422,0
9140,-0.737305,-0.713867,0.00927734,0
9160,-0.733887,-0.723145,-0.00732422,0
9180,-0.724121,-0.71582,-0.0170898,0
9200,-0.743164,-0.713379,-0.00439453,0
9220,-0.740723,-0.709473,-0.0146484,0
9240,-0.73291,-0.717285,-0.00878906,0
9260,-0.733398,-0.722656,-0.00146484,0
9280,-0.729004,-0.73877,0.00634766,0
9300,-0.727539,-0.746582,0.012207,0
9320,-0.717773,-0.73877,0.0205078,0
9340,-0.720215,-0.734375,0.019043,0
9360,-0.730469,-0.712891,0.0205078,0
9380,-0.73291,-0.699707,0.0107422,0
9400,-0.73291,-0.696777,0.00537109,0
9420,-0.737793,-0.712891,0.00878906,0
9440,-0.739746,-0.720215,0.00927734,0
9460,-0.738281,-0.733398,0.0175781,0
9480,-0.733398,-0.735352,0.0195312,0
9500,-0.736328,-0.737793,0.0288086,0
9520,-0.740723,-0.729004,0.0375977,0
9540,-0.733398,-0.730957,0.0400391,0
9560,-0.725586,-0.729004,0.0419922,0
9580,-0.72168,-0.728027,0.050293,0
9600,-0.724609,-0.723633,0.0488281,0
9620,-0.732422,-0.720215,0.046875,0
9640,-0.731445,-0.720703,0.0473633,0
9660,-0.725098,-0.720215,0.0498047,0
9680,-0.730957,-0.723145,0.0488281,0
9700,-0.733887,-0.720215,0.0527344,0
9720,-0.728027,-0.722656,0.0581055,0
9740,-0.717285,-0.708496,0.0483398,0
9760,-0.728516,-0.710449,0.0498047,0
9780,-0.741211,-0.705078,0.0483398,0
9800,-0.741699,-0.705566,0.0512695,0
9820,-0.733398,-0.711426,0.0576172,0
9840,-0.724121,-0.726562,0.0517578,0
9860,-0.721191,-0.729492,0.0595703,0
9880,-0.716309,-0.721191,0.0537109,0
9900,-0.71875,-0.710449,0.0610352,0
9920,-0.71875,-0.70166,0.0571289,0
9940,-0.725098,-0.70752,0.0654297,0
9960,-0.736328,-0.715332,0.0668945,0
9980,-0.731934,-0.724609,0.0708008,0
10000,-0.728027,-0.725098,0.0878906,0
10020,-0.733398,-0.731934,0.0976562,0
10040,-0.726074,-0.724609,0.0932617,0
10060,-0.729004,-0.719238,0.0996094,0
10080,-0.730469,-0.714355,0.100098,0
10100,-0.728027,-0.710449,0.0991211,0
10120,-0.726074,-0.712402,0.10498,0
10140,-0.734375,-0.720703,0.104004,0
10160,-0.740234,-0.716309,0.10498,0
10180,-0.72998,-0.709473,0.10498,0
10200,-0.732422,-0.713867,0.101562,0
10220,-0.736328,-0.707031,0.0878906,0
10240,-0.742188,-0.716309,0.0874023,0
10260,-0.724609,-0.711914,0.0791016,0
10280,-0.706055,-0.710938,0.0786133,0
10300,-0.711426,-0.709961,0.0830078,0
10320,-0.722168,-0.715332,0.0820312,0
10340,-0.72998,-0.712891,0.0869141,0
10360,-0.733887,-0.714355,0.0883789,0
10380,-0.730957,-0.713379,0.0932617,0
10400,-0.735352,-0.723145,0.110352,0
10420,-0.736328,-0.718262,0.111328,0
10440,-0.744141,-0.719727,0.108887,0
10460,-0.762695,-0.722168,0.129395,0
10480,-0.750488,-0.725098,0.125977,0
10500,-0.720215,-0.723145,0.120605,0
10520,-0.714844,-0.710449,0.116699,0
10540,-0.715332,-0.697754,0.101074,0
10560,-0.724609,-0.679199,0.0952148,0
10580,-0.746094,-0.674316,0.0849609,0
10600,-0.76416,-0.670898,0.0874023,0
10620,-0.780762,-0.674316,0.0908203,0
10640,-0.774902,-0.682617,0.0986328,0
10650,-0.766113,-0.694824,0.102051,0
10670,-0.746582,-0.68457,0.103516,0
10690,-0.742188,-0.688477,0.0996094,0
10710,-0.744141,-0.681641,0.0976562,0
10730,-0.747559,-0.687988,0.0864258,0
10750,-0.76123,-0.696777,0.0864258,0
10770,-0.760254,-0.699707,0.0805664,0
10790,-0.75293,-0.702148,0.0732422,0
10810,-0.746582,-0.704102,0.0678711,0
10830,-0.742188,-0.699219,0.059082,0
10850,-0.734375,-0.68457,0.0532227,0
10870,-0.738281,-0.677246,0.0532227,0
10890,-0.75,-0.675293,0.0493164,0
10910,-0.763184,-0.67334,0.0561523,0
10930,-0.754395,-0.671875,0.0649414,0
10950,-0.756348,-0.68457,0.0629883,0
10970,-0.763184,-0.696289,0.0527344,0
10990,-0.770996,-0.709961,0.0205078,0
11010,-0.757812,-0.737305,-0.00488281,0
11030,-0.757324,-0.806152,0.00292969,0
11050,-0.843262,-0.845703,-0.0405273,0
11070,-0.933105,-0.788574,-0.0351562,0
11090,-0.919922,-0.825195,-0.0629883,0
11110,-0.757812,-0.787109,0.0751953,0
11130,-0.774414,-0.595215,0.180664,0
11150,-0.82666,-0.707031,0.172852,0
11170,-0.757812,-0.882324,0.29248,0
11190,-0.575195,-1.11035,0.354492,0
11210,-0.39502,-1.24561,0.404297,0
11230,-0.233887,-1.30225,0.422363,0
11250,-0.129883,-1.2832,0.446777,0
11270,-0.0786133,-1.20703,0.418457,0
11290,-0.0180664,-1.10156,0.393555,0
11310,0.0649414,-1.02441,0.39209,0
11330,0.118164,-0.995605,0.378906,0
11350,0.130859,-1.03076,0.362793,0
11370,0.123047,-0.971191,0.381348,0
11390,0.111816,-0.87207,0.348145,0
11410,0.145996,-0.840332,0.302734,0
11430,0.19873,-0.802734,0.269531,0
11450,0.230957,-0.733887,0.259277,0
11470,0.218262,-0.70459,0.20459,0
11490,0.236328,-0.670898,0.13916,0
11510,0.29248,-0.65332,0.0620117,0
11530,0.302246,-0.631348,0.0371094,0
11550,0.306152,-0.657715,-0.00439453,0
11570,0.267578,-0.741211,-0.131348,0
11620,0.146973,-0.867676,-0.330078,0
11630,0.175293,-0.890137,-0.337402,0
11660,0.274414,-1.01318,-0.065918,0
11690,0.305664,-0.915039,-0.401855,0
11710,0.396973,-1.00195,-0.294922,0
11730,0.394043,-0.938965,-0.280273,0
11740,0.437012,-0.923828,-0.290039,0
11760,0.44873,-0.92627,-0.304199,0
11780,0.415527,-0.91748,-0.306152,0
11780,0.370605,-0.950195,-0.32959,0
11800,0.342773,-0.959961,-0.309082,0
11820,0.291016,-0.970703,-0.334961,0
11840,0.375,-1.02051,-0.154297,0
11860,0.212402,-1.02441,-0.0102539,0
11880,0.439453,-0.760254,-0.556641,0
11910,-0.012207,-0.960449,-0.339844,0
11940,-0.399902,-1.08691,-0.015625,0
11960,-0.516602,-1.11621,0.0356445,0
11980,-0.638672,-1.13916,-0.0151367,0
12000,-0.82959,-1.1665,-0.147949,0
12020,-0.77002,-1.11475,-0.443848,0
12040,0.22998,-0.858887,-0.691895,0
12060,1.52832,-0.758301,-0.175781,0
12080,-0.396973,-1.21729,-0.266602,0
12100,0.909668,-0.745117,-0.379395,0
12120,-0.553711,-1.17236,-0.526367,0
12140,0.955078,-0.914062,0.196777,0
12160,0.821777,-0.711914,-0.234863,0
12180,-0.125977,-0.913574,-0.769043,0
12200,-0.523438,-1.0874,-0.859863,0
12220,-0.546875,-1.15625,-0.785645,0
12240,-0.523926,-1.17285,-0.804199,0
12260,-0.51709,-1.14941,-0.906738,0
12280,-0.393555,-1.06689,-0.989746,0
12300,0.0878906,-0.878906,-0.73877,0
12320,0.814941,-0.699707,0.0517578,0
12340,0.785645,-0.843262,0.486816,0
12360,-0.283691,-1.20508,-0.635254,0
12380,0.0805664,-0.938965,-0.882324,0
12380,0.85791,-0.765625,0.598633,0
12400,0.422852,-1.06445,-0.0498047,0
12420,-0.180176,-1.11816,0.0292969,0
12440,0.451172,-0.885254,-0.350098,0
12460,0.446289,-0.851562,-0.642578,0
12480,-0.149902,-1.06543,-0.263672,0
12520,-0.293457,-1.14209,0.0561523,0
12540,0.0141602,-1.06982,0.0581055,0
12560,0.319824,-0.985352,-0.050293,0
12580,0.460449,-0.959473,-0.0664062,0
12600,0.351074,-1.0127,0.00244141,0
12620,-0.145508,-1.12549,0.0673828,0
12640,-0.893555,-1.21387,-0.14502,0
12660,-0.587402,-1.0083,-0.620117,0
12680,1.24414,-0.711426,-0.300781,0
12700,-0.179688,-1.16113,-0.0820312,0
12720,0.65625,-0.745117,-0.41748,0
12740,-0.683105,-1.17969,-0.553223,0
12760,0.619141,-1.0083,0.13916,0
12780,1.0127,-0.744141,0.0703125,0
12800,0.496582,-0.742188,-0.335938,0
12820,0.0634766,-0.830566,-0.610352,0
12840,-0.104492,-0.906738,-0.73877,0
12860,0.000976562,-0.878418,-0.691406,0
12880,0.331055,-0.787109,-0.431152,0
12900,0.782715,-0.701172,0.0722656,0
12920,0.880859,-0.791504,0.475098,0
12940,0.126465,-1.08789,0.00927734,0
12960,-0.554688,-1.22754,-1.05664,0
12980,0.416504,-0.81543,-0.44873,0
13000,0.589355,-0.879883,0.516602,0
13020,-0.502441,-1.19482,-1.16504,0
13040,0.888672,-0.727539,0.419922,0
13060,-0.480469,-1.22363,-0.901367,0
13080,0.864746,-0.736328,0.42627,0
13100,-0.448242,-1.19092,-1.22754,0
13110,0.463867,-0.904785,0.57959,0
13130,0.576172,-0.822266,-0.357422,0
13150,-0.423828,-1.20312,-1.22363,0
13170,0.0478516,-1.04248,0.192871,0
13190,0.778809,-0.751953,0.721191,0
13210,0.628418,-0.802246,-0.239258,0
13230,0.0112305,-1.0542,-1.21533,0
13250,-0.419434,-1.22705,-1.19141,0
13270,-0.178223,-1.12109,-0.159668,0
13290,0.416992,-0.870605,0.708008,0
13310,0.802734,-0.72168,0.609863,0
13330,0.521973,-0.854492,-0.442871,0
13350,-0.121582,-1.1123,-1.28125,0
13360,-0.524414,-1.25,-1.16797,0
13390,-0.23291,-1.12354,-0.110352,0
13400,0.429199,-0.860352,0.776855,0
13420,0.873535,-0.831055,-0.341309,0
13440,0.28418,-0.988281,-0.273438,0
13460,0.180176,-0.980957,-0.274414,0
13480,0.168457,-0.981445,-0.28125,0
13500,0.188477,-0.975586,-0.279297,0
13520,0.193848,-0.964844,-0.257324,0
13540,0.405762,-0.911621,-0.296875,0
13560,0.350586,-1.06885,0.0483398,0
13580,-0.0561523,-1.06689,-1.18848,0
13600,-0.253418,-1.13818,-0.500977,0
13620,0.419922,-0.838379,0.645996,0
13640,0.884766,-0.663086,0.746582,0
13660,0.893066,-0.702148,0.0141602,0
13680,0.38623,-0.928711,-0.977051,0
13700,-0.119141,-1.13135,-1.38184,0
13720,-0.277344,-1.20361,-0.997559,0
13740,0.76709,-0.62207,-0.290527,0
13760,0.580566,-0.891602,-0.183105,0
13780,0.363281,-0.893066,-0.266113,0
13800,0.383301,-0.915527,-0.272461,0
13820,0.335449,-0.916016,-0.277344,0
13840,0.291992,-0.908691,-0.300293,0
13860,0.358887,-0.937988,-0.27832,0
13880,0.345215,-0.958984,-0.254883,0
13900,0.259277,-0.924805,-0.246094,0
13920,0.237305,-0.917969,-0.252441,0
13940,0.271973,-0.929688,-0.242676,0
13960,0.302246,-0.934082,-0.23291,0
13980,0.302246,-0.932129,-0.250977,0
14000,0.288574,-0.931641,-0.253906,0
14020,0.319824,-0.928711,-0.243652,0
14040,0.378418,-0.934082,-0.23584,0
14060,0.413086,-0.931641,-0.238281,0
14080,0.459961,-0.938965,-0.280762,0
14100,0.520996,-0.808105,-0.362305,0
14120,0.535156,-0.824707,-0.31543,0
14140,0.479492,-0.827637,-0.32373,0
14160,0.485352,-0.86377,-0.369141,0
14180,0.463867,-0.873047,-0.351562,0
14200,0.370117,-0.898926,-0.299805,0
14220,0.345703,-0.908203,-0.279297,0
14240,0.30957,-0.860352,-0.283691,0
14260,0.275879,-0.881836,-0.307617,0
14280,0.1875,-0.897949,-0.263184,0
14300,0.135742,-0.924316,-0.258301,0
14320,0.157227,-0.978516,-0.257812,0
14340,0.164062,-0.983398,-0.245605,0
14360,0.13916,-0.98584,-0.259766,0
14380,0.105957,-0.976562,-0.268555,0
14400,0.113281,-1.00732,-0.28418,0
14420,0.149414,-1.03613,-0.269043,0
14440,0.183105,-1.05566,-0.291504,0
14460,0.178711,-1.01953,-0.308105,0
14480,0.166016,-0.997559,-0.316895,0
14500,0.171875,-0.987305,-0.294434,0
14520,0.204102,-0.985352,-0.303223,0
14540,0.229492,-0.976562,-0.302734,0
14560,0.21582,-0.968262,-0.303223,0
14580,0.199707,-0.968262,-0.300293,0
14600,0.213867,-0.955078,-0.304199,0
14620,0.235352,-0.956055,-0.293945,0
14640,0.233398,-0.957031,-0.29248,0
14660,0.229492,-0.95166,-0.285645,0
14680,0.241699,-0.944336,-0.28125,0
14700,0.230469,-0.927734,-0.289551,0
14720,0.231445,-0.910645,-0.275391,0
14740,0.224609,-0.932129,-0.273926,0
14760,0.205566,-0.9375,-0.301758,0
14780,0.173828,-0.947266,-0.29248,0
14800,0.169434,-0.982422,-0.277832,0
14820,0.17041,-0.981445,-0.297852,0
14840,0.161621,-0.957031,-0.296387,0
14860,0.171875,-0.96582,-0.269531,0
14880,0.181152,-0.981934,-0.300781,0
14900,0.166992,-0.994629,-0.300293,0
14920,0.147461,-0.999023,-0.306152,0
14940,0.160156,-0.984863,-0.291992,0
14960,0.18457,-0.986328,-0.294434,0
14980,0.169922,-0.967773,-0.300781,0
15000,0.157227,-0.970215,-0.28418,0
15020,0.164551,-0.96875,-0.283203,0
15040,0.184082,-0.976562,-0.279785,0
15050,0.181641,-0.96875,-0.27832,0
15070,0.171387,-0.964844,-0.289062,0
15090,0.166504,-0.964355,-0.274902,0
15110,0.17334,-0.966797,-0.266602,0
15130,0.182129,-0.971191,-0.270508,0
15150,0.180664,-0.968262,-0.283691,0
15170,0.180664,-0.963379,-0.275391,0
15190,0.1875,-0.973145,-0.284668,0
15210,0.186035,-0.98877,-0.270508,0
15230,0.171387,-0.979004,-0.276367,0
15250,0.168457,-0.975098,-0.285645,0
15270,0.169922,-0.961914,-0.268555,0
15290,0.17041,-0.976562,-0.256348,0
15310,0.15625,-0.978516,-0.254883,0
15330,0.125488,-0.968262,-0.26123,0
15350,0.106934,-0.984375,-0.236816,0
15370,0.121094,-0.972656,-0.233887,0
15390,0.141113,-0.973145,-0.227539,0
15410,0.15918,-0.975098,-0.239258,0
15430,0.16748,-0.984375,-0.246094,0
15450,0.191895,-0.979492,-0.231445,0
15470,0.220703,-0.986328,-0.232422,0
15490,0.209473,-0.98584,-0.238281,0
15510,0.194336,-0.974121,-0.262695,0
15530,0.236816,-0.963867,-0.225586,0
15550,0.286621,-0.974121,-0.230469,0
15570,0.291992,-0.972168,-0.248047,0
15590,0.250488,-0.950684,-0.258301,0
15610,0.263672,-0.941406,-0.23584,0
15630,0.305176,-0.958008,-0.223633,0
15650,0.317871,-0.952637,-0.240723,0
15670,0.312988,-0.936035,-0.269043,0
15690,0.33252,-0.937988,-0.247559,0
15710,0.362793,-0.950684,-0.23291,0
15730,0.35498,-0.929688,-0.243164,0
15750,0.350586,-0.910156,-0.245117,0
15770,0.345703,-0.94043,-0.22168,0
15790,0.327637,-0.934082,-0.231934,0
15810,0.292969,-0.937988,-0.219238,0
15830,0.262207,-0.928223,-0.218262,0
15850,0.262695,-0.933105,-0.212891,0
15870,0.30127,-0.943848,-0.20459,0
15890,0.345215,-0.933105,-0.199707,0
15910,0.370605,-0.909668,-0.209473,0
15930,0.400391,-0.912598,-0.243652,0
15950,0.390137,-0.909668,-0.277344,0
15970,0.400391,-0.92627,-0.27002,0
15990,0.439453,-0.949219,-0.259277,0
16010,0.478516,-0.950195,-0.297852,0
16030,0.373047,-0.946289,-0.279297,0
16050,0.270508,-0.878906,-0.259277,0
16070,0.26123,-0.873047,-0.224609,0
16090,0.268066,-0.913086,-0.204102,0
16110,0.254395,-0.932617,-0.240234,0
16130,0.186035,-0.930176,-0.221191,0
16150,0.13916,-0.930664,-0.225098,0
16170,0.15625,-0.981934,-0.241211,0
16190,0.148438,-1.02051,-0.224121,0
16210,0.121094,-1.03223,-0.234863,0
16230,0.0888672,-1.01465,-0.250488,0
16250,0.0991211,-0.975098,-0.262207,0
16270,0.12207,-0.974121,-0.257324,0
16290,0.146973,-0.991699,-0.258301,0
16310,0.167969,-1.02295,-0.260742,0
16330,0.156738,-1.01855,-0.261719,0
16350,0.166504,-0.991211,-0.270996,0
16370,0.183105,-0.980957,-0.287109,0
16390,0.203125,-0.97168,-0.282227,0
16410,0.198242,-0.986328,-0.265137,0
16430,0.203613,-0.969727,-0.274902,0
16450,0.215332,-0.963867,-0.276855,0
16470,0.211914,-0.946777,-0.280273,0
16490,0.208984,-0.953613,-0.273438,0
16510,0.21582,-0.964355,-0.269531,0
16530,0.220215,-0.963379,-0.26416,0
16550,0.208496,-0.945312,-0.262207,0
16570,0.220215,-0.946777,-0.273926,0
16590,0.221191,-0.960938,-0.275879,0
16610,0.21582,-0.973633,-0.279785,0
16630,0.209473,-0.96875,-0.273926,0
16650,0.217285,-0.962891,-0.279297,0
16670,0.218262,-0.966797,-0.280273,0
16690,0.211426,-0.958984,-0.281738,0
16710,0.207031,-0.962891,-0.280273,0
16730,0.200195,-0.963867,-0.283691,0
16750,0.196289,-0.962402,-0.282715,0
16770,0.201172,-0.963379,-0.285645,1000
16790,0.20459,-0.967773,-0.293945,0
16810,0.193848,-0.962891,-0.287598,0
16830,0.183105,-0.974121,-0.270508,0
16850,0.171875,-0.973633,-0.273926,0
16870,0.156738,-0.969238,-0.28125,0
16890,0.158203,-0.981934,-0.274414,0
16910,0.165527,-0.976074,-0.274902,0
16930,0.155273,-0.973145,-0.265137,0
16950,0.145996,-0.963379,-0.26123,0
16970,0.162109,-0.970703,-0.272461,0
16990,0.167969,-0.977539,-0.275391,0
17010,0.159668,-0.990234,-0.281738,0
17030,0.152832,-0.979492,-0.276367,0
17050,0.161621,-0.967773,-0.271484,0
17070,0.164062,-0.972168,-0.276855,0
17090,0.164062,-0.973145,-0.288086,0
17110,0.156738,-0.985352,-0.277832,0
17130,0.168945,-0.987305,-0.279297,0
17150,0.166016,-0.97998,-0.260254,0
17170,0.163574,-0.972168,-0.286133,0
17190,0.185059,-0.975098,-0.280762,0
17210,0.198242,-0.983887,-0.266602,0
17230,0.18457,-0.974121,-0.266602,0
17250,0.195801,-0.96875,-0.280762,0
17270,0.217773,-0.966309,-0.28125,0
17290,0.206543,-0.960938,-0.280762,0
17310,0.194336,-0.967285,-0.28418,0
17330,0.199219,-0.95752,-0.279297,0
17350,0.210938,-0.95752,-0.28418,0
17370,0.202148,-0.95459,-0.289062,0
17390,0.186035,-0.943848,-0.290039,0
17410,0.1875,-0.958496,-0.26416,0
17430,0.189941,-0.98877,-0.269531,0
17450,0.163086,-0.958984,-0.301758,0
17470,0.154785,-0.942383,-0.258789,0
17490,0.148926,-0.973633,-0.260742,0
17510,0.157715,-0.979004,-0.262207,0
17530,0.151367,-0.986816,-0.26709,0
17550,0.158691,-0.984375,-0.263184,0
17570,0.147461,-0.990234,-0.263184,0
17590,0.135254,-0.993652,-0.26123,0
17610,0.14209,-0.977539,-0.271484,0
17630,0.149902,-0.972168,-0.282227,0
17650,0.144043,-0.983887,-0.26709,0
17670,0.149414,-0.983398,-0.266602,0
17690,0.15625,-0.976562,-0.262207,0
17710,0.164062,-0.975586,-0.26709,0
17730,0.171875,-0.97998,-0.265137,0
17750,0.157715,-0.974609,-0.245605,0
17770,0.164551,-0.981445,-0.247559,0
17790,0.166504,-0.992676,-0.261719,0
17810,0.159668,-0.992188,-0.261719,0
17830,0.158203,-0.997559,-0.241699,0
17850,0.14502,-0.993652,-0.230957,0
17870,0.134277,-0.984375,-0.220215,0
17890,0.143066,-0.977051,-0.210938,0
17910,0.159668,-0.967773,-0.196289,0
17930,0.149902,-0.967773,-0.202148,0
17950,0.140137,-0.956543,-0.17334,0
17970,0.160156,-0.966309,-0.188477,0
17990,0.181641,-0.972168,-0.216797,0
18010,0.180176,-0.946289,-0.203613,0
18030,0.168945,-0.947266,-0.205078,0
18050,0.200684,-0.976074,-0.195801,0
18070,0.264648,-0.98584,-0.209473,0
18090,0.27002,-0.994629,-0.218262,0
18110,0.283691,-0.98291,-0.218262,0
18130,0.286621,-0.966309,-0.200195,0
18150,0.303711,-0.961914,-0.209961,0
18170,0.339355,-0.974609,-0.217285,0
18190,0.322754,-0.975586,-0.187988,0
18210,0.259277,-0.969727,-0.167969,0
18230,0.267578,-0.953125,-0.177734,0
18250,0.303223,-0.947754,-0.178223,0
18270,0.344238,-0.956055,-0.167969,0
18290,0.345215,-0.95752,-0.175293,0
18310,0.338867,-0.958008,-0.171875,0
18330,0.318848,-0.945801,-0.160156,0
18350,0.282715,-0.939453,-0.163574,0
18370,0.284668,-0.937012,-0.159668,0
18390,0.282715,-0.955566,-0.164551,0
18410,0.26709,-0.956543,-0.154785,0
18420,0.272949,-0.96582,-0.15332,0
18440,0.248047,-0.961914,-0.118164,0
18460,0.237793,-0.959473,-0.113281,0
18480,0.262207,-0.961914,-0.132812,0
18500,0.270508,-0.954102,-0.133789,0
18520,0.29541,-0.95459,-0.13623,0
18540,0.314453,-0.947266,-0.132812,0
18560,0.323242,-0.944336,-0.123535,0
18580,0.336426,-0.942383,-0.137695,0
18600,0.350586,-0.949707,-0.116211,0
18620,0.351074,-0.937012,-0.124023,0
18640,0.365723,-0.931152,-0.112793,0
18660,0.373047,-0.917969,-0.116211,0
18680,0.381348,-0.919922,-0.130371,0
18700,0.368164,-0.914551,-0.12793,0
18720,0.395996,-0.91748,-0.114258,0
18740,0.397949,-0.900879,-0.111816,0
18760,0.421875,-0.900879,-0.111816,0
18780,0.435059,-0.883789,-0.123535,0
18800,0.44873,-0.87793,-0.112305,0
18820,0.458984,-0.870605,-0.116211,0
18840,0.461426,-0.854004,-0.115234,0
18860,0.463867,-0.848633,-0.120605,0
18880,0.496582,-0.856445,-0.125977,0
18900,0.512695,-0.858398,-0.128906,0
18920,0.537109,-0.847168,-0.102539,0
18940,0.533203,-0.828613,-0.139648,0
18960,0.553711,-0.826172,-0.128906,0
18980,0.557617,-0.816895,-0.108887,0
19000,0.592773,-0.813477,-0.0991211,0
19020,0.583496,-0.793945,-0.108887,0
19040,0.592285,-0.803711,-0.106934,0
19060,0.570312,-0.796875,-0.0961914,0
19080,0.560059,-0.800781,-0.0922852,0
19100,0.549805,-0.798828,-0.0947266,0
19120,0.538086,-0.796387,-0.0820312,0
19140,0.563965,-0.80127,-0.0712891,0
19160,0.569336,-0.791992,-0.0673828,0
19180,0.583496,-0.776367,-0.0766602,0
19200,0.578125,-0.766602,-0.0771484,0
19220,0.589844,-0.775391,-0.0805664,0
19240,0.606934,-0.769043,-0.0668945,0
19260,0.612793,-0.753906,-0.0727539,0
19280,0.63916,-0.741699,-0.0810547,0
19300,0.696777,-0.752441,-0.0678711,0
19320,0.675293,-0.741211,-0.0693359,0
19340,0.671387,-0.733398,-0.0610352,0
19360,0.676758,-0.751465,-0.0751953,0
19380,0.694824,-0.759277,-0.0415039,0
19400,0.665527,-0.776855,-0.0249023,0
19420,0.609863,-0.76709,-0.034668,0
19440,0.618164,-0.762207,-0.043457,0
19460,0.686035,-0.802246,-0.0361328,0
19480,0.635742,-0.814941,-0.0117188,0
19500,0.604492,-0.813477,-0.0151367,0
19520,0.555176,-0.800781,-0.0151367,0
19540,0.586426,-0.808105,-0.0151367,0
19560,0.603516,-0.834961,0.0234375,0
19580,0.585938,-0.839355,0.0449219,0
19600,0.592773,-0.821777,0.0288086,0
19620,0.586914,-0.811035,0.0224609,0
19640,0.554688,-0.821777,0.0268555,0
19660,0.520996,-0.849609,0.034668,0
19680,0.508301,-0.852539,0.0405273,0
19700,0.52832,-0.859375,0.0478516,0
19720,0.543457,-0.85498,0.0507812,0
19740,0.487793,-0.878418,0.0673828,0
19770,0.430664,-0.875977,0.0771484,0
19820,0.453613,-0.856934,0.078125,0
19840,0.441895,-0.862793,0.0791016,0
19860,0.452148,-0.862793,0.0854492,0
19880,0.414062,-0.867188,0.0693359,0
19900,0.400391,-0.914551,0.0688477,0
19920,0.428223,-0.92041,0.0424805,0
19940,0.431641,-0.92334,0.0512695,0
19960,0.422852,-0.916504,0.0512695,0
19980,0.405762,-0.901855,0.027832,0
20000,0.398438,-0.916016,0.0166016,0
20020,0.387207,-0.924316,0.019043,0
20040,0.376953,-0.941895,0.0283203,0
20060,0.361328,-0.955078,-0.000976562,0
20080,0.303711,-0.967773,-0.034668,0
20100,0.265625,-0.958984,-0.0229492,0
20120,0.299316,-0.959473,-0.0166016,0
20140,0.319336,-0.947754,-0.0351562,0
20160,0.290039,-0.92334,-0.0541992,0
20180,0.282715,-0.921875,-0.0336914,0
20200,0.309082,-0.9375,-0.00537109,0
20220,0.324707,-0.938477,-0.0556641,0
20240,0.304199,-0.962402,-0.0693359,0
20260,0.27832,-0.956543,-0.0693359,0
20280,0.270996,-0.934082,-0.0693359,0
20300,0.28125,-0.935547,-0.115234,0
20320,0.301758,-0.933105,-0.119141,0
20340,0.299805,-0.950195,-0.0878906,0
20350,0.272949,-0.954102,-0.0908203,0
20370,0.248535,-0.956543,-0.129883,0
20390,0.236328,-0.963379,-0.125,0
20400,0.237793,-0.958496,-0.112793,0
20430,0.309082,-0.93457,-0.175293,0
20470,0.389648,-0.931152,-0.223145,0
20490,0.396973,-0.924805,-0.211914,0
20490,0.390137,-0.905762,-0.205566,0
20510,0.375488,-0.916992,-0.21875,0
20530,0.364746,-0.916016,-0.223145,0
20550,0.369629,-0.913574,-0.238281,0
20570,0.392578,-0.898926,-0.234863,0
20590,0.377441,-0.883301,-0.231445,0
20620,0.413574,-0.916504,-0.209473,0
20640,0.483398,-0.907715,-0.218262,0
20660,0.431152,-0.878418,-0.216797,0
20680,0.391113,-0.86377,-0.218262,0
20700,0.432617,-0.865234,-0.224121,0
20720,0.484863,-0.852051,-0.224609,0
20740,0.496582,-0.849121,-0.245605,0
20760,0.507812,-0.855957,-0.273926,0
20780,0.54248,-0.86377,-0.22998,0
20800,0.564941,-0.879883,-0.205566,0
20820,0.558105,-0.845703,-0.196777,0
20840,0.520996,-0.816895,-0.177246,0
20860,0.574707,-0.796875,-0.17334,0
20880,0.625,-0.77832,-0.177734,0
20900,0.640625,-0.768555,-0.177734,0
20920,0.735352,-0.757812,-0.167969,0
20940,0.726562,-0.729492,-0.165527,0
20960,0.655273,-0.691895,-0.163574,0
20970,0.705566,-0.678711,-0.137695,0
20990,0.776855,-0.681152,-0.118652,0
21010,0.749512,-0.650879,-0.124023,0
21030,0.722656,-0.624512,-0.130859,0
21050,0.727051,-0.595703,-0.103516,0
21070,0.770508,-0.591309,-0.0913086,0
21090,0.807617,-0.588379,-0.117188,0
21110,0.795898,-0.562988,-0.0942383,0
21130,0.776367,-0.558105,-0.0869141,0
21150,0.779785,-0.567383,-0.0932617,0
21170,0.768066,-0.578613,-0.0805664,0
21190,0.763184,-0.566406,-0.0639648,0
21210,0.759766,-0.561035,-0.0395508,0
21230,0.775391,-0.554688,-0.0483398,0
21250,0.802246,-0.583496,-0.0532227,0
21270,0.764648,-0.582031,-0.015625,0
21290,0.741699,-0.581543,-0.0146484,0
21310,0.754395,-0.596191,-0.0297852,0
21330,0.748047,-0.614746,-0.0234375,0
21350,0.774902,-0.636719,0.000488281,0
21380,0.70459,-0.635254,0.0166016,0
21400,0.711914,-0.637695,0.0263672,0
21420,0.776855,-0.664551,0.0268555,0
21440,0.739746,-0.668945,0.0786133,0
21450,0.736328,-0.656738,0.0600586,0
21470,0.781738,-0.686035,0.0795898,0
21500,0.740723,-0.690918,0.119141,0
21540,0.699707,-0.701172,0.128906,0
21560,0.675293,-0.737305,0.145996,0
21580,0.661621,-0.744629,0.158203,0
21610,0.633789,-0.784668,0.135254,0
21630,0.597168,-0.793945,0.135742,0
21650,0.539551,-0.803223,0.179199,0
21670,0.531738,-0.816895,0.147949,0
21690,0.570312,-0.821777,0.127441,0
21710,0.551758,-0.819824,0.150391,0
21730,0.501465,-0.825684,0.130371,0
21750,0.48291,-0.842773,0.157227,0
21770,0.477539,-0.845703,0.166504,0
21790,0.456543,-0.846191,0.0957031,0
21810,0.431641,-0.854492,0.109863,0
21830,0.430176,-0.874512,0.138184,0
21850,0.450684,-0.873047,0.144531,0
21870,0.455078,-0.866699,0.101074,0
21890,0.428223,-0.864746,0.0893555,0
21910,0.425293,-0.858398,0.0776367,0
21930,0.453125,-0.861328,0.0942383,0
21950,0.444824,-0.874023,0.0458984,0
21970,0.396973,-0.898926,0.027832,0
21990,0.383301,-0.904785,0.00683594,0
22010,0.407227,-0.888672,0.0195312,0
22030,0.38623,-0.894043,0.00341797,0
22050,0.35791,-0.902344,-0.0512695,0
22070,0.375977,-0.904297,-0.059082,0
22090,0.383789,-0.885254,-0.0219727,0
22110,0.376953,-0.887207,-0.0561523,0
22130,0.369629,-0.905273,-0.0766602,0
22150,0.379395,-0.918457,-0.0839844,0
22170,0.39209,-0.911133,-0.109375,0
22190,0.393555,-0.907227,-0.129395,0
22210,0.375488,-0.899414,-0.118164,0
22230,0.363281,-0.900879,-0.114258,0
22250,0.364746,-0.907715,-0.149414,0
22270,0.362305,-0.876953,-0.158691,0
22290,0.359863,-0.866211,-0.154297,0
22310,0.387207,-0.856445,-0.175293,0
22330,0.437012,-0.875977,-0.210449,0
22350,0.432617,-0.873535,-0.200684,0
22370,0.404297,-0.873535,-0.183105,0
22390,0.428223,-0.867676,-0.244141,0
22410,0.48877,-0.858398,-0.245117,0
22430,0.495605,-0.856934,-0.238281,0
22450,0.438477,-0.852051,-0.255859,0
22470,0.453613,-0.837402,-0.241699,0
22490,0.535645,-0.820801,-0.236816,0
22510,0.593262,-0.806641,-0.24707,0
22530,0.589355,-0.793945,-0.245117,0
22550,0.550781,-0.774414,-0.229492,0
22570,0.558594,-0.73584,-0.199707,0
22590,0.57959,-0.723145,-0.226074,0
22610,0.592773,-0.748047,-0.264648,0
22630,0.587402,-0.757324,-0.188965,0
22650,0.572266,-0.716797,-0.171875,0
22670,0.658203,-0.716309,-0.252441,0
22690,0.720703,-0.703125,-0.202637,0
22710,0.732422,-0.667969,-0.123047,0
22730,0.755371,-0.655273,-0.131348,0
22750,0.778809,-0.625488,-0.169434,0
22770,0.791992,-0.625488,-0.165039,0
22790,0.804199,-0.619141,-0.124023,0
22810,0.777832,-0.585449,-0.0966797,0
22830,0.842773,-0.568359,-0.130371,0
22850,0.864746,-0.558594,-0.100586,0
22870,0.796875,-0.510742,-0.0454102,0
22890,0.777344,-0.483398,-0.0561523,0
22910,0.794922,-0.472168,-0.0585938,0
22930,0.8125,-0.478516,-0.0341797,0
22950,0.809082,-0.48291,-0.0532227,0
22970,0.818359,-0.458496,-0.0200195,0
22990,0.841797,-0.449219,0.00244141,0
23010,0.874023,-0.435547,-0.0102539,0
23030,0.878906,-0.42627,-0.000488281,0
23050,0.896973,-0.410156,0.0302734,0
23070,0.90625,-0.394043,0.0639648,0
23090,0.924805,-0.375,0.0522461,0
23110,0.937988,-0.378418,0.046875,0
23130,0.919922,-0.364746,0.0664062,0
23150,0.887695,-0.354004,0.0961914,0
23170,0.887207,-0.359863,0.097168,0
23190,0.91748,-0.356934,0.106445,0
23210,0.915039,-0.355957,0.117188,0
23230,0.853027,-0.349609,0.15918,0
23250,0.813477,-0.344238,0.183105,0
23270,0.830078,-0.364746,0.182129,0
23290,0.898438,-0.37793,0.186035,0
23310,0.913574,-0.374023,0.214355,0
23330,0.848633,-0.387695,0.246582,0
23340,0.848633,-0.413574,0.249512,0
23360,0.887695,-0.433594,0.260254,0
23380,0.931152,-0.445801,0.301758,0
23400,0.92334,-0.448242,0.319824,0
23420,0.856445,-0.469727,0.305176,0
23440,0.86377,-0.513672,0.311523,0
23460,0.87793,-0.515137,0.335938,0
23480,0.813477,-0.537109,0.334473,0
23500,0.700195,-0.52832,0.299805,0
23520,0.696777,-0.577637,0.307129,0
23540,0.723145,-0.587891,0.359863,0
23560,0.706055,-0.604004,0.349121,0
23580,0.6875,-0.60791,0.280273,0
23600,0.673828,-0.614258,0.304199,0
23620,0.637207,-0.658691,0.35791,0
23640,0.60498,-0.672852,0.305664,0
23660,0.56543,-0.668457,0.332031,0
23680,0.529785,-0.682617,0.348145,0
23700,0.51123,-0.710938,0.348145,0
23720,0.518066,-0.706543,0.32373,0
23740,0.530273,-0.753418,0.308594,0
23760,0.522461,-0.743164,0.321777,0
23780,0.501465,-0.756348,0.312988,0
23800,0.512207,-0.754883,0.286133,0
23820,0.515137,-0.774414,0.280273,0
23840,0.469238,-0.790527,0.260742,0
23860,0.486816,-0.790527,0.237305,0
23880,0.496094,-0.787598,0.228516,0
23900,0.472656,-0.779785,0.209961,0
23920,0.456055,-0.796387,0.181641,0
23940,0.477539,-0.800293,0.16748,0
23960,0.481445,-0.794434,0.16748,0
23980,0.464844,-0.799316,0.143066,0
24000,0.465332,-0.807617,0.14502,0
24020,0.432129,-0.814941,0.123535,0
24040,0.433105,-0.807617,0.0737305,0
24060,0.466797,-0.805664,0.0581055,0
24080,0.48584,-0.789551,0.0771484,0
24100,0.455078,-0.817383,0.034668,0
24120,0.450684,-0.827637,-0.00244141,0
24140,0.461914,-0.848633,-0.0170898,0
24160,0.490723,-0.83252,-0.0415039,0
24180,0.492676,-0.817383,-0.0727539,0
24200,0.464844,-0.821289,-0.106934,0
24220,0.443848,-0.830078,-0.124023,0
24240,0.460449,-0.843262,-0.160156,0
24260,0.478027,-0.823242,-0.178711,0
24280,0.513184,-0.831543,-0.169922,0
24300,0.561523,-0.794434,-0.196777,0
24320,0.564941,-0.765625,-0.181641,0
24340,0.570801,-0.769043,-0.115234,0
24360,0.656738,-0.78418,-0.166992,0
24380,0.700684,-0.755859,-0.223145,0
24400,0.646973,-0.760742,-0.183105,0
24420,0.666992,-0.741699,-0.17627,0
24440,0.740723,-0.702148,-0.196777,0
24460,0.757812,-0.678711,-0.213867,0
24480,0.740234,-0.67627,-0.187988,0
24500,0.73877,-0.661621,-0.131836,0
24520,0.790039,-0.645996,-0.15918,0
24540,0.816406,-0.598633,-0.163574,0
24560,0.790527,-0.575195,-0.154785,0
24580,0.76709,-0.568848,-0.15332,0
24600,0.793457,-0.548828,-0.138184,0
24620,0.794434,-0.538574,-0.135254,0
24640,0.770996,-0.521973,-0.180176,0
24660,0.780762,-0.522949,-0.189453,0
24680,0.794922,-0.506836,-0.15918,0
24700,0.816895,-0.483398,-0.176758,0
24720,0.80957,-0.46582,-0.210449,0
24740,0.811523,-0.473145,-0.191406,0
24760,0.847656,-0.504883,-0.155762,0
24780,0.874023,-0.48584,-0.17334,0
24800,0.896484,-0.439941,-0.148926,0
24820,0.883789,-0.436035,-0.120605,1001
24840,0.87207,-0.429199,-0.125977,0
24860,0.880859,-0.449707,-0.134277,0
24880,0.879395,-0.431152,-0.0961914,0
24900,0.875488,-0.410156,-0.0800781,0
24930,0.855957,-0.40918,-0.0839844,0
24990,0.793945,-0.479492,-0.0429688,0
25010,0.770508,-0.464844,-0.0424805,0
25030,0.779785,-0.47168,-0.0869141,0
25050,0.768066,-0.46875,-0.139648,0
25070,0.686523,-0.521973,-0.0932617,0
25090,0.652832,-0.512695,-0.116211,0
25110,0.663086,-0.467773,-0.126465,0
25130,0.657227,-0.461914,-0.12207,0
25150,0.621094,-0.498047,-0.097168,0
25160,0.516113,-0.524902,-0.0585938,0
25180,0.424805,-0.585938,-0.0742188,0
25200,0.427734,-0.604492,-0.102539,0
25220,0.555664,-0.595215,-0.158691,0
25240,0.820312,-0.574219,-0.0898438,0
25260,0.923828,-0.604004,-0.0483398,0
25280,0.791016,-0.641602,-0.0864258,0
25300,0.803223,-0.696777,-0.183105,0
25320,0.906738,-0.772949,-0.166504,0
25340,0.849121,-0.825684,-0.128418,0
25380,0.598145,-0.968262,-0.122559,0
25410,0.515137,-1.00781,-0.159668,0
25430,0.437012,-0.983887,-0.145996,0
25450,0.305176,-0.97998,-0.119629,0
25470,0.243652,-1.00879,-0.143555,0
25490,0.269531,-1.02832,-0.201172,0
25510,0.320312,-1.04736,-0.151367,0
25530,0.284668,-1.03662,-0.143066,0
25550,0.237793,-1.02979,-0.182129,0
25570,0.273926,-1.03906,-0.199219,0
25590,0.31543,-1.04346,-0.179199,0
25610,0.323242,-1.01172,-0.160156,0
25630,0.313477,-0.997559,-0.162109,0
25650,0.316406,-0.992676,-0.131348,1000
25670,0.335938,-1.00537,-0.114258,0
25690,0.341797,-0.99707,-0.108887,0
25710,0.29541,-1.00098,-0.126465,0
25730,0.282227,-0.986816,-0.114746,0
25750,0.30127,-0.992188,-0.113281,0
25770,0.306152,-0.975586,-0.0766602,0
25790,0.288086,-0.966797,-0.0854492,0
25810,0.277344,-0.95459,-0.0864258,0
25830,0.278809,-0.94043,-0.0966797,0
25850,0.285645,-0.928223,-0.0761719,0
25870,0.30127,-0.939453,-0.0854492,0
25890,0.316895,-0.961426,-0.100098,0
25910,0.315918,-0.969727,-0.0795898,0
25930,0.294434,-0.958008,-0.0610352,0
25950,0.29541,-0.944824,-0.0751953,0
25970,0.298828,-0.952637,-0.0966797,0
25990,0.31543,-0.969727,-0.106445,0
26010,0.354004,-0.975586,-0.0859375,0
26030,0.32373,-0.976562,-0.119141,0
26050,0.263672,-0.939453,-0.0830078,0
26070,0.237793,-0.922363,-0.0610352,0
26090,0.311523,-0.948242,-0.0712891,0
26110,0.313965,-0.983398,-0.0722656,0
26130,0.270996,-0.98291,-0.0854492,0
26150,0.257812,-0.977539,-0.0922852,0
26170,0.274414,-0.962402,-0.0766602,0
26190,0.258301,-0.960938,-0.0888672,0
26210,0.230957,-0.960449,-0.103027,0
26230,0.245117,-0.960938,-0.109863,0
26250,0.262207,-0.963867,-0.0898438,0
26270,0.246582,-0.973145,-0.0766602,0
26290,0.242188,-0.970215,-0.0673828,0
26310,0.256348,-0.975098,-0.0610352,0
26330,0.246094,-0.985352,-0.0527344,0
26350,0.22998,-0.963379,-0.0390625,0
26370,0.245117,-0.974121,-0.0322266,0
26390,0.251953,-0.980957,-0.0429688,0
26410,0.249023,-0.98584,-0.0458984,0
26430,0.244629,-0.980469,-0.0336914,0
26450,0.277832,-0.974121,-0.0332031,0
26470,0.28125,-0.973633,-0.0439453,0
26490,0.261719,-0.96582,-0.081543,0
26510,0.308105,-0.947754,-0.0898438,0
26530,0.367188,-0.958008,-0.074707,0
26550,0.335938,-0.932617,-0.0698242,0
26570,0.323242,-0.929199,-0.0629883,0
26590,0.341797,-0.930664,-0.0942383,0
26610,0.353027,-0.922852,-0.100098,0
26630,0.360352,-0.917969,-0.0610352,0
26650,0.393555,-0.91748,-0.0595703,0
26670,0.411621,-0.921387,-0.0976562,0
26690,0.37207,-0.904297,-0.0996094,0
26710,0.311035,-0.907715,-0.105469,0
26730,0.32666,-0.90918,-0.103516,0
26750,0.381836,-0.916016,-0.135742,0
26770,0.393066,-0.912109,-0.141113,0
26790,0.392578,-0.926758,-0.0942383,0
26810,0.349609,-0.922852,-0.0825195,0
26830,0.328613,-0.918457,-0.0952148,0
26850,0.383789,-0.935059,-0.0888672,0
26870,0.39502,-0.936035,-0.0556641,0
26890,0.374512,-0.939941,-0.0483398,0
26910,0.350586,-0.930176,-0.0390625,0
26930,0.321289,-0.925293,-0.0395508,0
26950,0.364746,-0.928223,-0.0532227,0
26970,0.404297,-0.946289,-0.0581055,0
26990,0.399902,-0.933105,-0.0493164,0
27010,0.374512,-0.919434,-0.0498047,0
27030,0.418457,-0.911621,-0.0415039,0
27050,0.440918,-0.906738,-0.0610352,0
27070,0.45166,-0.882324,-0.0332031,0
27090,0.470703,-0.880371,-0.0473633,0
27110,0.467285,-0.865723,-0.0332031,0
27130,0.479004,-0.849609,-0.0209961,0
27150,0.501465,-0.850098,-0.0712891,0
27170,0.528809,-0.844727,-0.0410156,0
27190,0.531738,-0.825684,-0.0219727,0
27210,0.528809,-0.808594,-0.0200195,0
27230,0.53125,-0.802246,-0.00927734,0
27250,0.54248,-0.786133,-0.00146484,0
27270,0.587402,-0.780273,0.0356445,0
27290,0.562012,-0.762207,-0.00292969,0
27310,0.558594,-0.758789,-0.00830078,0
27330,0.608887,-0.745605,-0.0170898,0
27350,0.634766,-0.75,-0.0253906,0
27370,0.639648,-0.74707,-0.0371094,0
27390,0.652832,-0.752441,-0.0527344,0
27410,0.666504,-0.747559,-0.0258789,0
27430,0.655273,-0.751953,-0.0175781,0
27450,0.617188,-0.73584,-0.00634766,0
27470,0.651367,-0.733887,0.0117188,0
27490,0.675293,-0.723145,0.00732422,0
27510,0.650391,-0.708984,-0.0219727,0
27540,0.676758,-0.720215,-0.015625,0
27560,0.690918,-0.720215,-0.0205078,0
27580,0.683594,-0.699707,-0.0234375,0
27600,0.697266,-0.687012,-0.00634766,0
27620,0.70166,-0.685059,0.00195312,0
27640,0.709473,-0.685547,-0.00537109,0
27660,0.726562,-0.693848,0.00439453,0
27680,0.70166,-0.694824,0.0200195,0
27700,0.668945,-0.676758,0.0200195,0
27720,0.668945,-0.686035,0.0488281,0
27740,0.682129,-0.699219,0.0712891,0
27760,0.689453,-0.706543,0.0761719,0
27780,0.649902,-0.699219,0.0610352,0
27800,0.637695,-0.701172,0.0708008,0
27820,0.681641,-0.731445,0.0766602,0
27840,0.655762,-0.743164,0.0947266,0
27860,0.625488,-0.727539,0.0864258,0
27880,0.633789,-0.727539,0.081543,0
27900,0.631836,-0.748535,0.0947266,0
27920,0.664551,-0.765137,0.101074,0
27940,0.623535,-0.753906,0.111328,0
27960,0.621582,-0.739258,0.108398,0
27980,0.661621,-0.75,0.0917969,0
28000,0.644043,-0.774902,0.105469,0
28020,0.595703,-0.776855,0.121582,0
28040,0.571289,-0.783203,0.127441,0
28060,0.581055,-0.773926,0.127441,0
28080,0.595215,-0.774414,0.128906,0
28100,0.57666,-0.777344,0.139648,0
28120,0.553223,-0.781738,0.147461,0
28150,0.516602,-0.800781,0.133789,0
28170,0.544434,-0.80127,0.129395,0
28220,0.482422,-0.84668,0.157715,0
28250,0.486816,-0.833496,0.171875,0
28270,0.495605,-0.818359,0.15625,0
28290,0.492676,-0.833008,0.136719,0
28310,0.479004,-0.839844,0.143555,0
28330,0.47168,-0.846191,0.150879,0
28350,0.484863,-0.844238,0.141602,0
28370,0.488281,-0.836914,0.138184,0
28390,0.466309,-0.850586,0.165527,0
28410,0.440918,-0.853027,0.151367,0
28430,0.449219,-0.857422,0.120117,0
28450,0.457031,-0.844727,0.143066,0
28470,0.432129,-0.887207,0.152344,0
28490,0.42627,-0.882324,0.104492,0
28510,0.449707,-0.871582,0.11084,0
28530,0.458984,-0.884766,0.140625,0
28550,0.433105,-0.895996,0.120605,0
28570,0.429688,-0.905762,0.117676,0
28590,0.429688,-0.899902,0.119629,0
28610,0.42041,-0.884277,0.109863,0
28630,0.422363,-0.900879,0.081543,0
28650,0.416992,-0.905762,0.0864258,0
28670,0.413574,-0.913086,0.106445,0
28690,0.393555,-0.922852,0.0839844,0
28710,0.359863,-0.897949,0.0708008,0
28730,0.342285,-0.90332,0.0620117,0
28750,0.34668,-0.919922,0.0649414,0
28770,0.371582,-0.929199,0.0449219,0
28790,0.381348,-0.909668,0.0439453,0
28810,0.379395,-0.915527,0.034668,0
28830,0.376953,-0.926758,0.0336914,0
28850,0.364258,-0.92627,0.0214844,0
28870,0.347168,-0.898438,-0.00488281,0
28890,0.322266,-0.927734,0.0249023,0
28910,0.278809,-0.921875,0.0170898,0
28930,0.299316,-0.915039,-0.0112305,0
28950,0.327148,-0.916016,0.0136719,0
28970,0.275391,-0.896484,0.0112305,0
28990,0.250977,-0.916504,0.00390625,0
29010,0.273438,-0.932617,-0.00146484,0
29030,0.295898,-0.937988,0.0102539,0
29050,0.287598,-0.950684,0.00830078,0
29070,0.286133,-0.941406,-0.0341797,0
29090,0.312012,-0.930664,-0.0561523,0
29110,0.307129,-0.948242,-0.0380859,0
29130,0.286133,-0.984375,-0.0698242,0
29150,0.271484,-0.982422,-0.0981445,0
29190,0.273926,-0.950195,-0.129395,0
29190,0.38623,-0.942383,-0.147949,0
29210,0.380371,-0.922852,-0.156738,0
29210,0.40332,-0.930176,-0.15625,0
29230,0.419922,-0.919922,-0.151855,0
29250,0.430176,-0.892578,-0.160645,0
29270,0.462402,-0.885254,-0.180176,0
29290,0.46875,-0.882324,-0.182617,0
29310,0.422363,-0.870117,-0.164062,0
29330,0.434082,-0.874023,-0.182129,0
29350,0.51709,-0.854492,-0.209961,0
29370,0.577148,-0.841309,-0.21875,0
29390,0.546875,-0.831543,-0.202148,0
29410,0.526855,-0.838867,-0.212402,0
29430,0.552246,-0.836426,-0.22168,0
29450,0.588379,-0.829102,-0.230469,0
29470,0.582031,-0.8125,-0.210449,0
29490,0.524414,-0.79541,-0.219727,0
29510,0.544434,-0.816406,-0.246582,0
29530,0.541992,-0.80957,-0.21875,0
29550,0.507812,-0.787109,-0.209473,0
29570,0.525879,-0.78125,-0.234375,0
29590,0.545898,-0.79541,-0.251465,0
29610,0.538574,-0.80957,-0.237793,0
29630,0.512207,-0.802246,-0.228516,0
29650,0.529297,-0.808594,-0.26709,0
29670,0.538574,-0.812012,-0.239258,0
29690,0.592773,-0.809082,-0.23584,0
29710,0.602051,-0.78125,-0.215332,0
29730,0.574219,-0.737793,-0.223145,0
29750,0.586426,-0.748535,-0.258301,0
29770,0.645508,-0.754883,-0.252441,0
29790,0.652344,-0.754883,-0.227051,0
29810,0.629395,-0.741699,-0.240723,0
29830,0.653809,-0.737305,-0.250977,0
29850,0.699707,-0.711914,-0.218262,0
29870,0.709961,-0.693359,-0.214844,0
29890,0.668457,-0.643066,-0.219238,0
29910,0.702637,-0.62793,-0.216309,0
29930,0.75293,-0.620117,-0.207031,0
29940,0.724121,-0.608398,-0.199707,0
29960,0.723145,-0.609863,-0.23291,0
29980,0.749512,-0.583984,-0.209961,0
30000,0.769043,-0.576172,-0.180664,0
30020,0.779297,-0.557617,-0.1875,0
30030,0.796875,-0.557617,-0.197754,0
30040,0.795898,-0.557129,-0.210938,0
30060,0.783203,-0.534668,-0.151855,0
30080,0.793457,-0.53125,-0.178711,0
30100,0.808594,-0.524902,-0.189453,0
30120,0.785156,-0.513184,-0.191895,0
30140,0.83252,-0.506348,-0.156738,0
30160,0.834473,-0.498535,-0.13623,0
30180,0.824219,-0.491699,-0.154785,0
30200,0.824707,-0.486328,-0.193848,0
30220,0.854004,-0.477539,-0.143555,0
30240,0.86084,-0.465332,-0.119629,0
30260,0.84082,-0.451172,-0.128906,0
30280,0.814941,-0.44873,-0.133301,0
30300,0.84375,-0.446777,-0.112305,0
30320,0.884766,-0.440918,-0.0908203,0
30340,0.874512,-0.429688,-0.0986328,0
30360,0.846191,-0.413574,-0.0952148,0
30380,0.845215,-0.422852,-0.0712891,0
30400,0.849121,-0.430176,-0.043457,0
30420,0.875,-0.435059,-0.0581055,0
30440,0.867676,-0.429199,-0.0488281,0
30460,0.880859,-0.430664,-0.00878906,0
30480,0.87793,-0.456055,-0.0239258,0
30500,0.86084,-0.459473,-0.0219727,0
30520,0.883789,-0.453125,-0.0141602,0
30540,0.941895,-0.468262,0.012207,0
30560,0.895996,-0.484863,0.0283203,0
30580,0.85791,-0.48291,0.0244141,0
30600,0.866211,-0.489258,0.0268555,0
30620,0.864258,-0.495117,0.0454102,0
30640,0.87207,-0.522949,0.0561523,0
30660,0.865723,-0.530762,0.078125,0
30680,0.816895,-0.53125,0.0566406,0
30700,0.783691,-0.541016,0.0771484,0
30720,0.783203,-0.536133,0.0976562,0
30740,0.782227,-0.552246,0.0991211,0
30760,0.778809,-0.564941,0.100098,0
30780,0.789062,-0.563965,0.115723,0
30800,0.777832,-0.572754,0.126953,0
30820,0.72998,-0.586426,0.137207,0
30840,0.73877,-0.606445,0.139648,0
30860,0.733398,-0.602539,0.141113,0
30880,0.726074,-0.634766,0.133301,0
30900,0.710938,-0.675293,0.140625,0
30920,0.712891,-0.677246,0.160156,0
30940,0.715332,-0.663574,0.169434,0
30960,0.700684,-0.643066,0.18457,0
30980,0.693359,-0.674316,0.176758,0
31000,0.685547,-0.689941,0.175781,0
31020,0.668457,-0.709473,0.175781,0
31040,0.640137,-0.703125,0.212402,0
31060,0.622559,-0.704102,0.217285,0
31080,0.635742,-0.691406,0.20752,0
31100,0.640137,-0.712891,0.211914,0
31120,0.608887,-0.720703,0.236328,0
31140,0.585449,-0.733398,0.227539,0
31160,0.599609,-0.724609,0.227539,0
31180,0.631836,-0.730469,0.24707,0
31200,0.640137,-0.739746,0.241699,0
31220,0.621582,-0.719238,0.220215,0
31240,0.586914,-0.746094,0.222168,0
31260,0.57373,-0.752441,0.223145,0
31280,0.591309,-0.769043,0.212402,0
31300,0.584961,-0.784668,0.203613,0
31320,0.566895,-0.791016,0.179688,0
31340,0.546875,-0.775879,0.194336,0
31360,0.526855,-0.804199,0.186523,0
31380,0.522949,-0.796875,0.181152,0
31400,0.511719,-0.801758,0.175293,0
31420,0.503906,-0.802734,0.148926,0
31440,0.507324,-0.8125,0.149414,0
31460,0.498535,-0.835449,0.147461,0
31480,0.502441,-0.839355,0.143555,0
31500,0.507324,-0.818848,0.14209,0
31520,0.498535,-0.810059,0.123047,0
31540,0.462891,-0.804688,0.119141,0
31560,0.475586,-0.826172,0.115234,0
31580,0.481934,-0.842773,0.121582,0
31600,0.461426,-0.821777,0.101562,0
31620,0.463379,-0.825684,0.106445,0
31640,0.458496,-0.821289,0.0898438,0
31660,0.452148,-0.828125,0.0908203,0
31680,0.470703,-0.840332,0.0805664,0
31700,0.478516,-0.846191,0.0483398,0
31720,0.483887,-0.833984,0.0571289,0
31740,0.48584,-0.847656,0.0410156,0
31760,0.498047,-0.853027,0.0161133,0
31780,0.50293,-0.852051,0.00439453,0
31800,0.492676,-0.853027,0.00634766,0
31820,0.499512,-0.842773,-0.00146484,0
31840,0.496582,-0.855957,-0.0136719,0
31860,0.478027,-0.847168,-0.0273438,0
31880,0.486328,-0.86377,-0.0322266,0
31900,0.5,-0.865234,-0.0297852,0
31920,0.479492,-0.85791,-0.0209961,0
31940,0.460938,-0.861816,-0.0424805,0
31960,0.468262,-0.848633,-0.0571289,0
31980,0.479492,-0.866699,-0.0419922,0
32000,0.450195,-0.864746,-0.0458984,0
32020,0.458008,-0.850586,-0.0649414,0
32040,0.504883,-0.854492,-0.0576172,0
32060,0.494629,-0.864258,-0.0600586,0
32080,0.479492,-0.869141,-0.0771484,0
32100,0.495117,-0.87207,-0.0761719,0
32120,0.508789,-0.864746,-0.0717773,0
32140,0.487793,-0.861328,-0.0869141,0
32160,0.486816,-0.856934,-0.101562,0
32180,0.51416,-0.858887,-0.100586,0
32200,0.536621,-0.839355,-0.116211,0
32220,0.546875,-0.838379,-0.127441,0
32240,0.547363,-0.830078,-0.143066,0
32260,0.530273,-0.830566,-0.147461,0
32280,0.53125,-0.838867,-0.140625,0
32300,0.542969,-0.831543,-0.157227,0
32320,0.520508,-0.811035,-0.177734,0
32340,0.511719,-0.792969,-0.164551,0
32360,0.532715,-0.802246,-0.177246,0
32380,0.587891,-0.793457,-0.191406,0
32400,0.584961,-0.780273,-0.189941,0
32420,0.562988,-0.775391,-0.194336,0
32440,0.592773,-0.776367,-0.195312,0
32460,0.651367,-0.77002,-0.222168,0
32480,0.665527,-0.751465,-0.229492,0
32500,0.626953,-0.75293,-0.22168,0
32520,0.617188,-0.749023,-0.198242,0
32540,0.654297,-0.741699,-0.240234,0
32560,0.65625,-0.714844,-0.22998,0
32580,0.635254,-0.70752,-0.200195,0
32600,0.621094,-0.695801,-0.199707,0
32620,0.651855,-0.697266,-0.220215,0
32640,0.688965,-0.698242,-0.218262,0
32660,0.703613,-0.679688,-0.214844,0
32680,0.689941,-0.649902,-0.225586,0
32700,0.690918,-0.652344,-0.237793,0
32720,0.726074,-0.649902,-0.215332,0
32740,0.75293,-0.630371,-0.20459,0
32760,0.74707,-0.621582,-0.220703,0
32780,0.749023,-0.600586,-0.219238,0
32800,0.778809,-0.600586,-0.231934,0
32820,0.784668,-0.592285,-0.209473,0
32840,0.768555,-0.571777,-0.206055,0
32860,0.751465,-0.554688,-0.224609,0
32880,0.761719,-0.554688,-0.240234,0
32900,0.770508,-0.551758,-0.234863,0
32920,0.803711,-0.554688,-0.195801,0
32940,0.789062,-0.525391,-0.193848,0
32960,0.802734,-0.519043,-0.234375,0
32980,0.805664,-0.510742,-0.214355,0
33000,0.817383,-0.513184,-0.188965,0
33020,0.860352,-0.515625,-0.186035,0
33040,0.842773,-0.490723,-0.209961,0
33060,0.83252,-0.474609,-0.199219,0
33080,0.856934,-0.472168,-0.174805,0
33100,0.892578,-0.476562,-0.172852,0
33120,0.869141,-0.462402,-0.174316,0
33140,0.868652,-0.444336,-0.174805,0
33160,0.881348,-0.437988,-0.148926,0
33180,0.878418,-0.435059,-0.13623,0
33200,0.873535,-0.417969,-0.133789,0
33220,0.878418,-0.40625,-0.135254,0
33240,0.879395,-0.402344,-0.117188,0
33260,0.894043,-0.388184,-0.104004,0
33280,0.890137,-0.370605,-0.111328,0
33290,0.892578,-0.369141,-0.126953,0
33310,0.914062,-0.369629,-0.101074,0
33330,0.898438,-0.358398,-0.0708008,0
33350,0.895996,-0.34082,-0.0952148,0
33370,0.907715,-0.319824,-0.108887,0
33390,0.915527,-0.327148,-0.0688477,0
33410,0.904785,-0.316406,-0.0595703,0
33430,0.89502,-0.310059,-0.0874023,0
33450,0.89502,-0.301758,-0.0673828,0
33470,0.891113,-0.299316,-0.0356445,0
33490,0.874512,-0.280762,-0.034668,0
33510,0.882324,-0.280762,-0.0249023,0
33530,0.887207,-0.275391,-0.019043,0
33550,0.90918,-0.263672,-0.00634766,0
33570,0.926758,-0.26123,0.0200195,0
33590,0.904785,-0.26416,0.03125,0
33610,0.896484,-0.255371,0.0136719,0
33630,0.900391,-0.245605,0.03125,0
33650,0.909668,-0.234375,0.0532227,0
33670,0.924316,-0.219727,0.0668945,0
33690,0.914062,-0.226074,0.0766602,0
33710,0.916504,-0.226074,0.100586,0
33730,0.916992,-0.226074,0.090332,0
33750,0.925293,-0.230469,0.105957,0
33770,0.924805,-0.242188,0.156738,0
33790,0.914062,-0.249512,0.169922,0
33810,0.930176,-0.263672,0.151855,0
33830,0.917969,-0.270996,0.175781,0
33850,0.899902,-0.286621,0.195801,0
33870,0.915527,-0.312988,0.20459,0
33890,0.95166,-0.314453,0.211426,0
33910,0.932129,-0.329102,0.210449,0
33930,0.904785,-0.323242,0.229004,0
33950,0.882812,-0.342285,0.242676,0
33970,0.897461,-0.36084,0.246582,0
33990,0.888672,-0.381836,0.229004,0
34010,0.864258,-0.38916,0.249512,0
34030,0.848145,-0.403809,0.256348,0
34050,0.850098,-0.418945,0.248535,0
34070,0.828613,-0.461914,0.268555,0
34090,0.814453,-0.463379,0.285156,0
34110,0.824707,-0.466309,0.257812,0
34130,0.811523,-0.477539,0.276855,0
34150,0.782227,-0.522949,0.319336,0
34170,0.753418,-0.536621,0.3125,0
34190,0.752441,-0.535645,0.300293,0
34210,0.734863,-0.548828,0.306152,0
34230,0.682129,-0.570312,0.299805,0
34250,0.668457,-0.59668,0.305664,0
34270,0.671875,-0.590332,0.307617,0
34290,0.65625,-0.618164,0.296875,0
34310,0.63916,-0.617676,0.283203,0
34330,0.662109,-0.625,0.290527,0
34350,0.658203,-0.650391,0.292969,0
34370,0.646484,-0.649902,0.279297,0
34390,0.656738,-0.662109,0.282227,0
34410,0.658203,-0.674316,0.264648,0
34430,0.632812,-0.683105,0.253418,0
34450,0.63623,-0.683105,0.260742,0
34470,0.649902,-0.683105,0.251465,0
34490,0.651367,-0.693848,0.246582,0
34510,0.621582,-0.705566,0.228027,0
34530,0.616211,-0.701172,0.230469,0
34550,0.611328,-0.694336,0.224609,0
34570,0.598633,-0.705078,0.203613,0
34590,0.598633,-0.716309,0.190918,0
34610,0.598145,-0.725586,0.187988,0
34630,0.604492,-0.716309,0.177246,0
34650,0.60498,-0.713867,0.1875,0
34670,0.609863,-0.729004,0.175293,0
34690,0.607422,-0.750488,0.17334,0
34710,0.61377,-0.744141,0.177734,0
34730,0.598145,-0.739258,0.148926,0
34750,0.600586,-0.723145,0.135254,0
34770,0.620605,-0.73584,0.13916,0
34790,0.607422,-0.750488,0.135254,0
34810,0.590332,-0.770508,0.119629,0
34830,0.571289,-0.751953,0.0805664,0
34850,0.583496,-0.740723,0.0791016,0
34870,0.598633,-0.759277,0.0996094,0
34890,0.576172,-0.766602,0.0610352,0
34910,0.562988,-0.779785,0.0419922,0
34930,0.540527,-0.77832,0.0239258,0
34950,0.560547,-0.774902,0.0195312,0
34970,0.571289,-0.776367,0.0161133,0
34990,0.556152,-0.790039,-0.0180664,0
35010,0.55127,-0.790527,-0.0283203,0
35030,0.589355,-0.791016,-0.0371094,0
35050,0.613281,-0.785645,-0.0405273,0
35070,0.595703,-0.78125,-0.0620117,0
35090,0.572266,-0.768555,-0.0737305,0
35110,0.568359,-0.769531,-0.0961914,0
35130,0.566406,-0.753418,-0.0854492,0
35150,0.585449,-0.757324,-0.0849609,0
35170,0.621582,-0.751953,-0.109375,0
35190,0.637695,-0.736816,-0.106934,0
35210,0.646484,-0.731934,-0.110352,0
35230,0.677734,-0.708984,-0.120117,0
35250,0.6875,-0.712402,-0.115723,0
35260,0.695801,-0.718262,-0.145508,0
35280,0.711914,-0.723633,-0.149902,0
35300,0.731445,-0.699219,-0.133789,0
35320,0.731934,-0.660645,-0.140137,0
35340,0.717773,-0.643066,-0.125,0
35360,0.724609,-0.652832,-0.136719,0
35380,0.765137,-0.649414,-0.174805,0
35400,0.76709,-0.643066,-0.160645,0
35420,0.720703,-0.609375,-0.160156,0
35440,0.730957,-0.599121,-0.16748,0
35460,0.770996,-0.57959,-0.162598,0
35480,0.780762,-0.586914,-0.162598,0
35500,0.769531,-0.574219,-0.168945,0
35520,0.78125,-0.553223,-0.185547,0
35540,0.785645,-0.545898,-0.168945,0
35560,0.790527,-0.525391,-0.174805,0
35580,0.804199,-0.533203,-0.212891,0
35600,0.817383,-0.530762,-0.186523,0
35620,0.833496,-0.537109,-0.181152,0
35640,0.833984,-0.511719,-0.172363,0
35660,0.813477,-0.494629,-0.187012,0
35680,0.822754,-0.492676,-0.161621,0
35700,0.854492,-0.485352,-0.142578,0
35720,0.831055,-0.46875,-0.176758,0
35740,0.833008,-0.447754,-0.177734,0
35760,0.87207,-0.450195,-0.168457,0
35780,0.869141,-0.435059,-0.166504,0
35800,0.839844,-0.429199,-0.184082,0
35820,0.82959,-0.416504,-0.205566,0
35840,0.857422,-0.413574,-0.202148,0
35860,0.864258,-0.393555,-0.194336,0
35880,0.855469,-0.389648,-0.187988,0
35900,0.877441,-0.394043,-0.181641,0
35920,0.899902,-0.393555,-0.195312,1001
35940,0.90625,-0.369141,-0.19043,0
35960,0.907715,-0.361328,-0.153809,0
35980,0.901855,-0.339844,-0.153809,0
36000,0.900879,-0.334473,-0.154785,0
36020,0.899414,-0.334961,-0.149414,0
36040,0.912109,-0.353027,-0.121094,0
36060,0.91748,-0.34082,-0.101562,0
36080,0.895508,-0.306641,-0.119141,0
36100,0.860352,-0.327148,-0.128418,0
36120,0.831543,-0.350586,-0.122559,0
36140,0.824219,-0.372559,-0.145508,0
36160,0.824707,-0.375977,-0.157715,0
36180,0.801758,-0.381348,-0.180664,0
36200,0.776855,-0.37793,-0.200195,0
36220,0.750977,-0.400879,-0.202637,0
36240,0.731445,-0.400391,-0.149902,0
36260,0.751465,-0.401367,-0.168945,0
36280,0.738281,-0.393555,-0.178223,0
36300,0.747559,-0.390137,-0.193848,0
36320,0.791504,-0.425781,-0.121094,0
36340,0.827148,-0.459473,-0.050293,0
36360,0.813477,-0.441895,-0.0922852,0
36380,0.783691,-0.431152,-0.114258,0
36400,0.751465,-0.451172,-0.112793,0
36420,0.748047,-0.499023,-0.0473633,0
36440,0.75293,-0.571289,-0.0195312,0
36460,0.73877,-0.568359,-0.046875,0
36480,0.72998,-0.572266,0.00390625,0
36500,0.730957,-0.598633,0.101074,0
36520,0.725098,-0.654297,0.0854492,0
36540,0.730957,-0.692383,-0.0078125,0
36560,0.728027,-0.725586,0.00732422,0
36580,0.696289,-0.777344,0.0356445,0
36600,0.660645,-0.816406,0.0639648,0
36620,0.633789,-0.838867,0.0327148,0
36640,0.591797,-0.869141,-0.0141602,0
36660,0.519531,-0.903809,-0.00683594,0
36680,0.45752,-0.949707,-0.00292969,0
36700,0.419434,-0.984863,-0.00146484,0
36720,0.415039,-1.01074,0.0205078,0
36740,0.405273,-0.986816,0.0244141,0
36760,0.375,-0.976562,0.000488281,0
36780,0.335938,-0.997559,0.00488281,0
36800,0.314941,-1.02295,0.00390625,0
36820,0.350586,-1.0166,-0.00634766,0
36840,0.419922,-0.998535,0.00683594,0
36860,0.438477,-0.980957,0.0214844,0
36880,0.38623,-0.994629,-0.0151367,0
36900,0.365723,-1.01611,-0.0932617,0
36920,0.436523,-0.988281,-0.0859375,0
36940,0.480469,-0.977051,-0.0356445,0
36960,0.453613,-0.929199,-0.0263672,0
36980,0.440918,-0.937988,-0.0532227,0
37000,0.399414,-0.953125,-0.0795898,0
37020,0.379395,-0.95166,-0.065918,0
37040,0.367676,-0.943359,-0.046875,0
37060,0.365723,-0.953613,-0.0258789,0
37080,0.359375,-0.945801,-0.0405273,0
37100,0.339844,-0.947754,-0.0473633,0
37120,0.320801,-0.963379,-0.0234375,0
37140,0.306152,-0.932129,-0.0170898,0
37160,0.325195,-0.915527,-0.019043,0
37180,0.345703,-0.934082,0.00927734,0
37200,0.330078,-0.941895,0.0375977,0
37220,0.334473,-0.950195,0.034668,0
37240,0.345703,-0.956543,-0.0151367,0
37260,0.363281,-0.949219,-0.00341797,0
37280,0.374023,-0.929688,0.019043,0
37300,0.395996,-0.915527,0.0288086,0
37320,0.419922,-0.925781,0.0395508,1000
37340,0.389648,-0.925781,0.0478516,0
37360,0.366699,-0.930664,0.0400391,0
37380,0.366211,-0.92627,0.0488281,0
37400,0.343262,-0.916992,0.065918,0
37420,0.314941,-0.902832,0.0756836,0
37440,0.283691,-0.900879,0.0541992,0
37460,0.27002,-0.901367,0.0605469,0
37480,0.258301,-0.915527,0.0517578,0
37500,0.24707,-0.932617,0.0820312,0
37520,0.220703,-0.970703,0.119141,0
37540,0.196777,-0.992188,0.171875,0
37560,0.21875,-1.00928,0.198242,0
37580,0.284668,-1.00293,0.166504,0
37600,0.313965,-0.964844,0.186035,0
37620,0.282715,-0.955566,0.215332,0
37640,0.289062,-0.946777,0.211914,0
37660,0.313965,-0.94873,0.239746,0
37680,0.286133,-0.958008,0.234863,0
37700,0.22998,-0.915527,0.202148,0
37720,0.234863,-0.885254,0.219727,0
37740,0.240723,-0.90625,0.251465,0
37760,0.272461,-0.885254,0.214844,0
37780,0.345703,-0.866699,0.123535,0
37800,0.410156,-0.850586,0.108887,0
37820,0.404785,-0.855957,0.185547,0
37840,0.399414,-0.88623,0.190918,0
37860,0.446289,-0.915527,0.137207,0
37880,0.477051,-0.916992,0.0981445,0
37900,0.440918,-0.880859,0.0986328,0
37920,0.363281,-0.836426,0.109375,0
37940,0.360352,-0.831055,0.090332,0
37960,0.383301,-0.867676,0.0605469,0
37980,0.402344,-0.885742,0.0629883,0
38000,0.388184,-0.914062,0.0927734,0
38020,0.369141,-0.905273,0.0908203,0
38040,0.408203,-0.900391,0.0566406,0
38060,0.455078,-0.898926,0.0761719,0
38080,0.461426,-0.873047,0.102539,0
38100,0.489746,-0.85498,0.0874023,0
38120,0.541504,-0.878418,0.0864258,0
38140,0.572266,-0.920898,0.10791,0
38160,0.561523,-0.960938,0.137695,0
38180,0.526367,-0.989258,0.138184,0
38200,0.526855,-0.992188,0.0717773,0
38220,0.525391,-0.947754,0.0180664,0
38240,0.479004,-0.893555,0.019043,0
38260,0.398926,-0.858398,0.0654297,0
38280,0.353027,-0.861328,0.0708008,0
38300,0.327148,-0.914062,0.050293,0
38320,0.311523,-0.930664,0.0351562,0
38340,0.30127,-0.916504,0.0385742,0
38360,0.271973,-0.916016,0.0268555,0
38380,0.24707,-0.933105,0.0268555,0
38400,0.259766,-0.956543,0.0141602,0
38420,0.26416,-0.970215,0.00244141,0
38440,0.249023,-0.964355,0.0224609,0
38460,0.233398,-0.944824,0.0576172,0
38480,0.262695,-0.943359,0.0405273,0
38500,0.291016,-0.951172,0.0415039,0
38520,0.265625,-0.955566,0.0595703,0
38540,0.232422,-0.967285,0.0737305,0
38560,0.257812,-1.01074,0.0585938,0
38580,0.291016,-1.05078,0.11377,0
38600,0.301758,-1.02734,0.193359,0
38620,0.30127,-0.961426,0.168457,0
38640,0.307617,-0.917969,0.153809,0
38650,0.271484,-0.90332,0.118652,0
38670,0.286133,-0.88916,0.160645,0
38690,0.268066,-0.913574,0.192871,0
38710,0.234863,-0.905273,0.157227,0
38730,0.228027,-0.910156,0.0766602,0
38750,0.29834,-0.939941,0.0610352,0
38770,0.321777,-0.901367,0.122559,0
38790,0.286621,-0.847168,0.097168,0
38810,0.221191,-0.849121,0.0532227,0
38830,0.240234,-0.860352,0.0673828,0
38850,0.296387,-0.888672,0.134766,0
38870,0.288574,-0.90918,0.19043,0
38890,0.214355,-0.880371,0.192383,0
38910,0.197754,-0.825684,0.179199,0
38930,0.182129,-0.820312,0.199707,0
38950,0.132812,-0.898438,0.182129,0
38970,0.135742,-0.973633,0.172852,0
38990,0.205078,-0.98291,0.140137,0
39010,0.247559,-0.948242,0.137695,0
39030,0.210938,-0.917969,0.168457,0
39050,0.227051,-0.92041,0.176758,0
39070,0.275391,-0.959961,0.156738,0
39090,0.291992,-0.979492,0.114746,0
39110,0.248047,-0.989746,0.09375,0
39130,0.165527,-0.990234,0.0864258,0
39150,0.166504,-1.00098,0.0703125,0
39170,0.241211,-1.03369,-0.00244141,0
39190,0.309082,-1.02783,-0.0341797,0
39210,0.314941,-0.98877,-0.0537109,0
39230,0.38623,-0.94873,-0.0664062,0
39250,0.472656,-0.941895,-0.0639648,0
39270,0.486328,-0.931641,-0.065918,0
39290,0.492188,-0.913086,-0.0615234,0
39310,0.490234,-0.885254,-0.0683594,0
39330,0.474121,-0.888672,-0.0634766,0
39350,0.478516,-0.895508,-0.0566406,0
39370,0.416992,-0.905762,-0.0478516,0
39390,0.382812,-0.889648,-0.0146484,0
39410,0.388672,-0.868652,-0.00732422,0
39430,0.374512,-0.862305,-0.0126953,0
39450,0.341797,-0.865234,0.000488281,0
39470,0.372559,-0.894531,0.0615234,0
39490,0.434082,-0.912598,0.0810547,0
39510,0.432129,-0.90332,0.0410156,0
39530,0.405762,-0.895996,0.0341797,0
39550,0.429688,-0.918457,0.0869141,0
39570,0.497559,-0.924316,0.0830078,0
39590,0.486328,-0.908691,0.012207,0
39630,0.541992,-0.848145,-0.00878906,0
39640,0.581055,-0.761719,-0.0361328,0
39660,0.545898,-0.774902,-0.0302734,0
39680,0.5625,-0.777832,0.00585938,0
39690,0.592773,-0.762207,-0.015625,0
39720,0.560059,-0.748535,-0.0273438,0
39740,0.569336,-0.771484,0.00292969,0
39760,0.585938,-0.781738,0.00390625,0
39780,0.58252,-0.770508,0.0078125,0
39800,0.609863,-0.769531,0.0170898,0
39820,0.599121,-0.772461,0.0361328,0
39840,0.603516,-0.764648,0.0234375,0
39860,0.58252,-0.762207,0.0175781,0
39880,0.617188,-0.761719,0.0356445,0
39900,0.643555,-0.783203,0.0522461,0
39920,0.618164,-0.772461,0.0419922,0
39940,0.62207,-0.762207,0.0268555,0
39960,0.677246,-0.777344,0.0537109,0
39980,0.683105,-0.772461,0.0712891,0
40000,0.63916,-0.763184,0.0693359,0
40020,0.62793,-0.770996,0.0668945,0
40040,0.649902,-0.782715,0.0810547,0
40070,0.621582,-0.773926,0.105469,0
40090,0.604492,-0.776855,0.115723,0
40110,0.591309,-0.790527,0.145996,0
40130,0.585449,-0.802734,0.136719,0
40150,0.564941,-0.836426,0.148926,0
40170,0.53418,-0.828613,0.142578,0
40190,0.523438,-0.82959,0.128418,0
40210,0.529785,-0.827148,0.152344,0
40230,0.482422,-0.845703,0.183105,0
40250,0.480957,-0.853516,0.145996,0
40270,0.493652,-0.850586,0.14209,0
40290,0.509277,-0.864746,0.187988,0
40310,0.479004,-0.84668,0.16748,0
40320,0.431641,-0.863281,0.15332,0
40340,0.404785,-0.873047,0.163574,0
40360,0.416992,-0.867188,0.146973,0
40380,0.456055,-0.845703,0.138184,0
40400,0.449219,-0.879883,0.146973,0
40420,0.400391,-0.904297,0.156738,0
40440,0.371094,-0.896484,0.134277,0
40460,0.39502,-0.884766,0.124023,0
40480,0.399414,-0.902344,0.145996,0
40500,0.40332,-0.916992,0.143555,0
40520,0.387207,-0.910156,0.11377,0
40540,0.375488,-0.887695,0.116211,0
40560,0.361328,-0.898438,0.153809,0
40580,0.361328,-0.916504,0.115234,0
40600,0.395508,-0.913086,0.0922852,0
40620,0.401855,-0.939941,0.116211,0
40640,0.352051,-0.937012,0.0981445,0
40660,0.314941,-0.936035,0.0717773,0
40680,0.344238,-0.923828,0.0688477,0
40700,0.354004,-0.918945,0.0927734,0
40720,0.320312,-0.931152,0.0908203,0
40740,0.29834,-0.941406,0.0615234,0
40760,0.307129,-0.933594,0.059082,0
40780,0.286621,-0.949707,0.0527344,0
40800,0.236328,-0.932129,0.0429688,0
40820,0.239258,-0.922363,0.0498047,0
40840,0.273438,-0.935547,0.0317383,0
40860,0.291992,-0.928711,0.0415039,0
40880,0.277344,-0.92334,0.0288086,0
40900,0.293457,-0.915039,0.0185547,0
40920,0.322754,-0.927246,0.0366211,0
40940,0.320801,-0.93457,0.0263672,0
40960,0.29541,-0.941895,-0.0141602,0
40980,0.277344,-0.9375,-0.0229492,0
41000,0.285156,-0.931152,0.00292969,0
41020,0.295898,-0.925293,-0.0244141,0
41040,0.296387,-0.933105,-0.0356445,0
41060,0.294434,-0.942871,-0.0478516,0
41080,0.319336,-0.939941,-0.0356445,0
41100,0.311035,-0.934082,-0.0444336,0
41120,0.284668,-0.929688,-0.0639648,0
41140,0.275879,-0.949707,-0.0874023,0
41160,0.318359,-0.965332,-0.0742188,0
41180,0.358398,-0.953613,-0.0737305,0
41200,0.341797,-0.930664,-0.0986328,0
41220,0.335449,-0.950195,-0.11084,0
41240,0.356934,-0.955566,-0.0888672,0
41260,0.367188,-0.949707,-0.110352,0
41280,0.336914,-0.934082,-0.120117,0
41300,0.313477,-0.939941,-0.127441,0
41320,0.328125,-0.928711,-0.109863,0
41340,0.359863,-0.910156,-0.105469,0
41360,0.333008,-0.916016,-0.119141,0
41370,0.300781,-0.911621,-0.12207,0
41390,0.318359,-0.914062,-0.140137,0
41410,0.344727,-0.904297,-0.146484,0
41430,0.333984,-0.915039,-0.135254,0
41450,0.338379,-0.930664,-0.144531,0
41470,0.375,-0.927734,-0.159668,0
41490,0.413086,-0.92041,-0.175781,0
41510,0.402832,-0.919922,-0.171875,0
41530,0.350586,-0.894043,-0.152344,0
41550,0.362305,-0.887695,-0.169434,0
41570,0.436523,-0.893555,-0.185059,0
41590,0.451172,-0.885254,-0.174805,0
41610,0.402344,-0.884277,-0.17041,0
41630,0.390625,-0.868164,-0.19043,0
41650,0.425293,-0.887695,-0.199219,0
41670,0.447754,-0.890625,-0.199219,0
41690,0.440918,-0.902344,-0.192871,0
41710,0.464355,-0.899414,-0.177246,0
41730,0.466797,-0.869141,-0.180664,0
41750,0.481445,-0.85498,-0.189453,0
41770,0.463867,-0.862793,-0.173828,0
41790,0.472168,-0.878418,-0.181641,0
41810,0.504395,-0.871094,-0.158203,0
41830,0.55127,-0.844238,-0.183105,0
41850,0.553711,-0.818848,-0.181641,0
41870,0.538086,-0.822266,-0.18457,0
41890,0.523438,-0.815918,-0.188965,0
41910,0.516602,-0.807617,-0.186523,0
41930,0.570312,-0.803711,-0.190918,0
41950,0.57666,-0.803711,-0.196777,0
41970,0.558594,-0.774902,-0.16748,0
41990,0.574219,-0.769531,-0.14209,0
42010,0.611816,-0.754883,-0.154785,0
42030,0.621582,-0.744629,-0.144043,0
42060,0.56543,-0.748535,-0.134766,0
42080,0.61377,-0.751953,-0.143066,0
42100,0.666016,-0.739258,-0.133301,0
42120,0.64502,-0.719727,-0.117676,0
42140,0.616699,-0.708008,-0.101074,0
42160,0.67334,-0.724609,-0.123047,0
42180,0.748047,-0.722168,-0.106934,0
42200,0.727539,-0.713379,-0.10498,0
42220,0.693848,-0.684082,-0.111328,0
42240,0.719727,-0.689453,-0.097168,0
42260,0.777344,-0.690918,-0.115234,0
42280,0.775391,-0.668457,-0.0996094,0
42300,0.731445,-0.648926,-0.0966797,0
42320,0.76123,-0.630859,-0.0595703,0
42340,0.798828,-0.624023,-0.0703125,0
42360,0.816406,-0.604004,-0.0732422,0
42380,0.768555,-0.582031,-0.0571289,0
42400,0.783691,-0.584473,-0.0400391,0
42420,0.8125,-0.570801,-0.0258789,0
42440,0.821777,-0.553711,-0.0356445,0
42460,0.791504,-0.543945,-0.0263672,0
42480,0.774902,-0.549316,-0.0151367,0
42500,0.777344,-0.559082,-0.00927734,0
42520,0.791504,-0.551758,-0.0175781,0
42540,0.774902,-0.540527,-0.019043,0
42560,0.802246,-0.533691,-0.00341797,0
42580,0.83252,-0.536621,0.0283203,0
42600,0.833984,-0.539062,0.0214844,0
42620,0.818848,-0.543945,0.0244141,0
42640,0.805176,-0.543457,0.0273438,0
42660,0.836426,-0.544922,0.0234375,0
42680,0.84668,-0.569824,0.0185547,0
42700,0.783203,-0.568848,0.0610352,0
42720,0.751953,-0.57666,0.0957031,0
42740,0.76416,-0.567871,0.112793,0
42760,0.760254,-0.589355,0.0976562,0
42780,0.750488,-0.619141,0.114746,0
42800,0.774902,-0.636719,0.138672,0
42820,0.799316,-0.64502,0.133301,0
42840,0.757812,-0.661621,0.123047,0
42860,0.714844,-0.663086,0.126465,0
42880,0.707031,-0.662598,0.140137,0
42900,0.708496,-0.664551,0.14502,0
42920,0.706055,-0.685059,0.150391,0
42940,0.711914,-0.689941,0.155273,0
42960,0.719238,-0.69043,0.125488,0
42980,0.660156,-0.689453,0.175781,0
43000,0.646973,-0.719727,0.17334,0
43020,0.666016,-0.718262,0.181641,0
43040,0.676758,-0.705078,0.200684,0
43060,0.649414,-0.708984,0.198242,0
43080,0.612793,-0.726562,0.185059,0
43100,0.601074,-0.739258,0.194824,0
43120,0.583984,-0.73584,0.191895,0
43140,0.585449,-0.740723,0.17627,0
43160,0.566406,-0.746582,0.188477,0
43180,0.555176,-0.77002,0.188965,0
43200,0.571777,-0.763672,0.172852,0
43220,0.580566,-0.755859,0.159668,0
43240,0.541992,-0.776367,0.132324,0
43260,0.515137,-0.804199,0.134277,0
43280,0.524902,-0.821777,0.124512,0
43300,0.533203,-0.820801,0.0898438,0
43320,0.547852,-0.791992,0.09375,0
43340,0.544922,-0.821777,0.123535,0
43360,0.497559,-0.842285,0.113281,0
43380,0.49707,-0.856934,0.118164,0
43400,0.509766,-0.863281,0.129883,0
43420,0.477051,-0.856934,0.121582,0
43440,0.442383,-0.847656,0.0737305,0
43460,0.444824,-0.862793,0.0771484,0
43480,0.461426,-0.860352,0.0776367,0
43500,0.45166,-0.854492,0.0551758,0
43520,0.43457,-0.864258,0.0507812,0
43540,0.44043,-0.873047,0.0351562,0
43560,0.468262,-0.879395,0.0371094,0
43580,0.456055,-0.882324,0.0253906,0
43600,0.437988,-0.875977,-0.00976562,0
43620,0.458008,-0.874512,-0.0356445,0
43640,0.477051,-0.891602,-0.0195312,0
43660,0.458984,-0.884766,-0.0263672,0
43680,0.453125,-0.874512,-0.0180664,0
43690,0.45752,-0.87207,-0.0249023,0
43710,0.452637,-0.878906,-0.0546875,0
43730,0.460938,-0.879395,-0.0541992,0
43750,0.423828,-0.871094,-0.0332031,0
43770,0.378418,-0.84668,-0.0322266,0
43790,0.388184,-0.870117,-0.078125,0
43810,0.454102,-0.864258,-0.0898438,0
43830,0.506348,-0.866211,-0.0844727,0
43850,0.48877,-0.875977,-0.0991211,0
43870,0.456543,-0.870605,-0.122559,0
43890,0.463867,-0.886719,-0.149414,0
43910,0.477539,-0.880371,-0.119141,0
43930,0.444336,-0.871094,-0.145996,0
43950,0.439941,-0.882812,-0.184082,0
43970,0.45752,-0.858887,-0.151855,0
43990,0.484863,-0.858887,-0.173828,0
44010,0.477051,-0.855957,-0.189941,0
44030,0.463867,-0.859375,-0.214844,0
44050,0.47998,-0.846191,-0.210449,0
44070,0.515137,-0.837402,-0.20459,0
44090,0.500977,-0.837402,-0.23584,0
44110,0.491211,-0.85498,-0.23291,0
44130,0.49707,-0.849121,-0.223145,0
44150,0.492676,-0.829102,-0.205078,0
44170,0.509277,-0.805176,-0.223145,0
44190,0.515625,-0.805176,-0.227051,0
44210,0.508789,-0.796387,-0.209961,0
44230,0.515625,-0.806152,-0.177734,0
44250,0.557129,-0.76416,-0.163574,0
44270,0.601562,-0.754883,-0.222656,0
44290,0.587402,-0.749023,-0.249512,0
44310,0.563477,-0.759277,-0.241211,0
44330,0.59082,-0.770996,-0.228027,0
44350,0.629395,-0.772949,-0.243652,0
44370,0.644043,-0.75293,-0.259277,0
44390,0.666016,-0.727539,-0.243652,0
44410,0.681641,-0.73291,-0.23291,0
44430,0.692383,-0.730469,-0.236816,0
44450,0.701172,-0.723145,-0.24707,0
44470,0.710938,-0.70459,-0.220215,0
44490,0.712402,-0.704102,-0.209473,0
44510,0.727051,-0.678711,-0.223145,0
44530,0.734375,-0.652344,-0.243652,0
44550,0.726562,-0.624512,-0.194336,0
44570,0.725098,-0.619141,-0.180176,0
44590,0.717773,-0.606934,-0.182617,0
44610,0.731445,-0.598633,-0.186523,0
44630,0.75,-0.574707,-0.182129,0
44650,0.751465,-0.577148,-0.192871,0
44670,0.750977,-0.567383,-0.189453,0
44690,0.768555,-0.575684,-0.177246,0
44710,0.789551,-0.564941,-0.181641,0
44730,0.804688,-0.54834,-0.177246,0
44750,0.804688,-0.532227,-0.170898,0
44770,0.817871,-0.52002,-0.174316,0
44790,0.846191,-0.522949,-0.161133,0
44810,0.850098,-0.511719,-0.13623,0
44830,0.851074,-0.501465,-0.146973,0
44850,0.858887,-0.475098,-0.145508,0
44870,0.862305,-0.456543,-0.0991211,0
44890,0.853027,-0.437988,-0.0947266,0
44910,0.86084,-0.424805,-0.100586,0
44930,0.868164,-0.425781,-0.0922852,0
44950,0.872559,-0.42334,-0.0654297,0
44970,0.875488,-0.413086,-0.0615234,0
44990,0.880371,-0.405762,-0.0703125,0
45010,0.863281,-0.410645,-0.0307617,0
45030,0.857422,-0.39502,0.0234375,0
45050,0.850098,-0.375977,-0.0136719,0
45070,0.853516,-0.383301,-0.03125,0
45090,0.86084,-0.393066,0.0351562,0
45110,0.840332,-0.372559,0.0864258,0
45130,0.837402,-0.378906,0.0336914,0
45150,0.849609,-0.394043,0.0244141,0
45170,0.856445,-0.410156,0.0556641,0
45190,0.843262,-0.414551,0.111816,0
45210,0.849609,-0.407715,0.103027,0
45230,0.864746,-0.404297,0.0922852,0
45250,0.866699,-0.405762,0.0986328,0
45270,0.867676,-0.421387,0.119629,0
45290,0.878418,-0.424316,0.129883,0
45310,0.868164,-0.429688,0.118164,0
45330,0.858887,-0.424316,0.140625,0
45350,0.863281,-0.435547,0.16748,0
45370,0.873047,-0.431152,0.158691,0
45390,0.885742,-0.44043,0.155762,0
45410,0.86084,-0.437012,0.220215,0
45430,0.823242,-0.430664,0.232422,0
45450,0.846191,-0.441895,0.217773,0
45470,0.855469,-0.459473,0.256836,0
45490,0.851074,-0.46582,0.259766,0
45510,0.853027,-0.464355,0.255371,0
45530,0.825684,-0.481934,0.287598,0
45550,0.811035,-0.498535,0.302734,0
45570,0.804688,-0.510254,0.297363,0
45590,0.791992,-0.515625,0.314453,0
45610,0.787109,-0.532715,0.308594,0
45630,0.76709,-0.541504,0.325195,0
45640,0.74707,-0.567871,0.311523,0
45660,0.76123,-0.568848,0.31543,0
45680,0.756348,-0.583008,0.311523,0
45700,0.713379,-0.59668,0.312012,0
45720,0.690918,-0.619141,0.320801,0
45740,0.728027,-0.624023,0.310059,0
45760,0.742676,-0.620117,0.290527,0
45780,0.685547,-0.61084,0.28418,0
45800,0.653809,-0.637207,0.256836,0
45820,0.657227,-0.672363,0.226562,0
45840,0.650391,-0.666504,0.226074,0
45860,0.642578,-0.653809,0.222656,0
45880,0.639648,-0.651855,0.223145,0
45900,0.620605,-0.683105,0.207031,0
45920,0.581055,-0.723633,0.164062,0
45940,0.562012,-0.755859,0.165039,0
45960,0.572266,-0.73291,0.177734,0
45980,0.585938,-0.725098,0.174805,0
46000,0.58252,-0.744629,0.124023,0
46020,0.591797,-0.753418,0.129395,0
46040,0.585938,-0.749512,0.144043,0
46060,0.588379,-0.752441,0.133301,0
46080,0.574219,-0.763184,0.115234,0
46100,0.594727,-0.786621,0.0986328,0
46120,0.611816,-0.764648,0.0996094,0
46150,0.54541,-0.774902,0.0522461,0
46170,0.594238,-0.780273,0.0493164,0
46190,0.623047,-0.78418,0.0307617,0
46210,0.614258,-0.765137,0.0136719,0
46230,0.583496,-0.772461,0.00537109,0
46250,0.579102,-0.77002,-0.00878906,0
46270,0.612793,-0.785156,-0.0239258,0
46290,0.604492,-0.777344,-0.0424805,0
46310,0.583008,-0.768066,-0.0576172,0
46330,0.591309,-0.76709,-0.0678711,0
46350,0.618164,-0.773438,-0.0834961,0
46370,0.602539,-0.77002,-0.0844727,0
46390,0.583496,-0.764648,-0.109863,0
46410,0.599121,-0.772461,-0.0820312,0
46430,0.619629,-0.779785,-0.114258,0
46450,0.613281,-0.767578,-0.135742,0
46470,0.611816,-0.756836,-0.123535,0
46490,0.615234,-0.759766,-0.126465,0
46510,0.625,-0.775879,-0.154785,0
46530,0.64209,-0.765137,-0.132324,0
46550,0.638672,-0.740234,-0.135742,0
46570,0.657715,-0.737793,-0.155762,0
46590,0.651367,-0.752441,-0.144043,0
46600,0.631348,-0.727051,-0.157715,0
46620,0.636719,-0.710449,-0.155273,0
46640,0.665527,-0.692383,-0.144531,0
46660,0.694824,-0.67041,-0.154785,0
46680,0.714844,-0.647949,-0.190918,0
46700,0.72168,-0.642578,-0.185059,0
46720,0.731445,-0.634766,-0.147949,0
46740,0.779785,-0.628418,-0.175781,0
46760,0.781738,-0.601562,-0.196777,0
46780,0.745605,-0.578613,-0.181641,0
46800,0.737305,-0.568848,-0.172852,0
46820,0.77002,-0.577148,-0.183594,0
46840,0.804688,-0.578125,-0.181641,0
46860,0.79834,-0.551758,-0.179199,0
46880,0.801758,-0.522461,-0.180664,0
46910,0.833008,-0.514648,-0.152832,0
46930,0.826172,-0.501953,-0.161133,0
46950,0.817383,-0.484375,-0.179688,0
46970,0.802734,-0.464355,-0.164551,0
46990,0.811035,-0.449219,-0.148926,0
47010,0.810547,-0.446289,-0.183105,0
47030,0.810547,-0.430176,-0.206543,0
47050,0.827148,-0.416016,-0.185059,0
47070,0.841797,-0.401855,-0.17041,0
47090,0.855957,-0.402832,-0.180664,1001
47110,0.86377,-0.405273,-0.192383,0
47130,0.871582,-0.393555,-0.17627,0
47150,0.870117,-0.391602,-0.138672,0
47170,0.870117,-0.369629,-0.134766,0
47190,0.880371,-0.378418,-0.141602,0
47210,0.85791,-0.39502,-0.131348,0
47230,0.84375,-0.390625,-0.119141,0
47250,0.900879,-0.38916,-0.0869141,0
47270,0.9375,-0.379883,-0.0888672,0
47290,0.91748,-0.389648,-0.0849609,0
47310,0.862305,-0.400879,-0.0927734,0
47330,0.82373,-0.398926,-0.0957031,0
47350,0.772461,-0.415527,-0.116699,0
47370,0.692871,-0.413086,-0.183105,0
47390,0.683105,-0.430664,-0.200195,0
47410,0.710449,-0.452637,-0.118164,0
47430,0.711426,-0.427734,-0.0849609,0
47450,0.703613,-0.42041,-0.163574,0
47470,0.739746,-0.418945,-0.162598,0
47490,0.756836,-0.472656,-0.0737305,0
47510,0.769531,-0.506836,-0.0292969,0
47530,0.769531,-0.525879,-0.0336914,0
47550,0.734863,-0.535156,-0.0610352,0
47570,0.722168,-0.540527,-0.0336914,0
47590,0.767578,-0.588379,0.0615234,0
47610,0.769531,-0.60791,0.0664062,0
47630,0.734863,-0.644531,0.0522461,0
47650,0.681152,-0.665039,0.0458984,0
47670,0.739258,-0.727051,0.104004,0
47690,0.806152,-0.753418,0.0991211,0
47710,0.763672,-0.742188,0.0551758,0
47730,0.74707,-0.752441,0.0639648,0
47750,0.769531,-0.796875,0.177734,0
47770,0.756836,-0.810059,0.171875,0
47790,0.727539,-0.813965,0.136719,0
47810,0.679688,-0.792969,0.151855,0
47830,0.634277,-0.771484,0.165039,0
47850,0.619629,-0.794922,0.186523,0
47870,0.625977,-0.812988,0.16748,0
47890,0.621094,-0.812012,0.160645,0
47910,0.586426,-0.784668,0.144043,0
47930,0.557129,-0.79541,0.129395,0
47950,0.559082,-0.796387,0.148926,0
47970,0.555176,-0.815918,0.157227,0
47990,0.538574,-0.804688,0.125,0
48010,0.513672,-0.816406,0.10791,0
48030,0.50293,-0.818848,0.119141,0
48050,0.524414,-0.810547,0.135254,0
48070,0.529785,-0.807617,0.140137,0
48090,0.522949,-0.818848,0.16748,0
48110,0.499512,-0.838867,0.164551,0
48130,0.495117,-0.858887,0.177734,0
48150,0.50293,-0.85498,0.152344,0
48170,0.525391,-0.836914,0.141602,0
48190,0.510254,-0.830078,0.158203,0
48210,0.471191,-0.830566,0.169922,0
48230,0.441406,-0.840332,0.17041,0
48250,0.420898,-0.825195,0.136719,0
48270,0.41748,-0.79834,0.133301,0
48290,0.427734,-0.772949,0.128906,0
48310,0.459961,-0.786621,0.131348,0
48330,0.496094,-0.828613,0.120117,0
48350,0.526367,-0.862793,0.118164,0
48370,0.500488,-0.911621,0.113281,0
48390,0.453125,-0.918945,0.0908203,0
48410,0.430664,-0.942383,0.0732422,0
48430,0.416504,-0.946289,0.0581055,0
48450,0.388672,-0.94043,0.0415039,0
48470,0.371094,-0.947754,0.0307617,0
48490,0.337891,-0.971191,0.0429688,0
48510,0.316895,-0.981445,0.0517578,0
48530,0.305664,-0.987305,0.0273438,0
48550,0.318848,-0.986816,0.0229492,0
48570,0.323242,-0.977539,0.0234375,0
48590,0.313965,-0.96582,0.0424805,0
48610,0.305664,-0.949219,0.0639648,0
48630,0.299805,-0.944824,0.0498047,0
48650,0.311523,-0.939941,0.0546875,0
48670,0.309082,-0.912109,0.0546875,0
48690,0.30957,-0.902832,0.046875,0
48710,0.321777,-0.909668,0.0771484,0
48730,0.330566,-0.915039,0.0991211,0
48750,0.338379,-0.932617,0.0844727,0
48770,0.35498,-0.933105,0.0830078,0
48790,0.373535,-0.933105,0.0952148,0
48810,0.362305,-0.92334,0.09375,0
48830,0.351074,-0.911621,0.097168,0
48850,0.338867,-0.925293,0.103516,0
48870,0.313965,-0.928223,0.107422,0
48890,0.308105,-0.927734,0.10791,0
48910,0.320312,-0.932129,0.0952148,0
48930,0.326172,-0.926758,0.0761719,0
48950,0.300781,-0.912109,0.0859375,0
48970,0.261719,-0.916016,0.0722656,0
48980,0.226562,-0.918457,0.0942383,0
49000,0.179199,-0.952637,0.0830078,0
49020,0.155273,-0.950684,0.0917969,0
49040,0.149902,-0.958008,0.125488,0
49060,0.160156,-0.957031,0.121094,0
49080,0.162598,-0.945801,0.103516,0
49100,0.178223,-0.956055,0.104004,0
49120,0.209961,-0.970215,0.0996094,0
49140,0.239746,-0.987305,0.097168,0
49160,0.267578,-0.992676,0.0952148,0
49180,0.275879,-1.00488,0.0844727,0
49200,0.273438,-0.992676,0.0766602,0
49220,0.265137,-0.988281,0.0712891,0
49240,0.257324,-0.97168,0.0742188,0
49260,0.23877,-0.970215,0.0727539,0
49280,0.224121,-0.957031,0.0693359,0
49300,0.203125,-0.950684,0.0795898,0
49320,0.180664,-0.944824,0.0766602,0
49340,0.179688,-0.9375,0.0800781,0
49360,0.1875,-0.940918,0.0800781,0
49380,0.182129,-0.955566,0.0869141,0
49400,0.168945,-0.956543,0.0898438,0
49420,0.170898,-0.959961,0.0791016,0
49440,0.180664,-0.956055,0.0864258,0
49460,0.19043,-0.963379,0.103516,0
49480,0.181641,-0.984863,0.114258,0
49500,0.18457,-0.990234,0.109375,0
49520,0.1875,-1.00049,0.0996094,0
49540,0.194336,-0.996094,0.104004,0
49560,0.189941,-0.997559,0.111816,0
49580,0.188965,-0.996582,0.111328,0
49600,0.193848,-0.998047,0.109863,0
49620,0.187988,-1.00098,0.120605,0
49640,0.180664,-0.999023,0.133789,0
49660,0.184082,-0.99707,0.129883,0
49680,0.191406,-0.992188,0.117188,0
49700,0.189941,-0.978516,0.121582,0
49720,0.199707,-0.965332,0.135254,0
49740,0.206055,-0.956055,0.138672,0
49760,0.215332,-0.948242,0.13623,0
49780,0.218262,-0.950684,0.14209,0
49800,0.217773,-0.941406,0.12793,0
49820,0.227539,-0.932617,0.121582,0
49840,0.227051,-0.931152,0.116211,0
49860,0.224609,-0.936523,0.111816,0
49880,0.224121,-0.935059,0.0991211,0
49900,0.222656,-0.938477,0.0957031,0
49920,0.220703,-0.95752,0.0859375,0
49940,0.219727,-0.963379,0.101074,0
49960,0.216797,-0.963379,0.0957031,0
49980,0.204102,-0.95459,0.0751953,0
50000,0.199707,-0.95166,0.081543,0
50020,0.19873,-0.941895,0.0957031,0
50040,0.183594,-0.961426,0.11084,0
50060,0.169922,-0.96582,0.117676,0
50080,0.168457,-0.973633,0.105957,0
50100,0.186523,-0.962402,0.137207,0
50120,0.185547,-0.949707,0.148438,0
50140,0.180664,-0.949707,0.131348,0
50160,0.217285,-0.950195,0.132812,0
50180,0.245117,-0.95166,0.129883,0
50200,0.272949,-0.95166,0.111816,0
50220,0.290527,-0.953613,0.11084,0
50240,0.30127,-0.967285,0.114746,0
50260,0.296875,-0.974121,0.0942383,0
50280,0.289551,-0.974121,0.0834961,0
50300,0.289062,-0.974121,0.0751953,0
50320,0.291016,-0.968262,0.0874023,0
50340,0.287109,-0.95166,0.0839844,0
50360,0.276367,-0.943848,0.0800781,0
50380,0.269043,-0.948242,0.0766602,0
50400,0.257324,-0.948242,0.0776367,0
50420,0.246094,-0.95459,0.090332,0
50440,0.246094,-0.958984,0.0952148,0
50460,0.257324,-0.954102,0.0864258,0
50480,0.263672,-0.942383,0.0800781,0
50500,0.269531,-0.94043,0.0888672,0
50520,0.25293,-0.937988,0.0942383,0
50540,0.249023,-0.936523,0.0888672,0
50560,0.268066,-0.948242,0.081543,0
50580,0.280273,-0.947266,0.0786133,0
50600,0.277832,-0.952637,0.0922852,0
50620,0.269043,-0.944824,0.0874023,0
50640,0.272949,-0.945801,0.0961914,0
50660,0.275879,-0.947754,0.0883789,0
50680,0.268555,-0.952148,0.0766602,0
50700,0.25,-0.956055,0.0732422,0
50720,0.233887,-0.957031,0.0776367,0
50740,0.236816,-0.95166,0.0742188,0
50760,0.236328,-0.949219,0.0703125,0
50780,0.231934,-0.964844,0.0576172,0
50800,0.229492,-0.962891,0.0629883,0
50820,0.237793,-0.960938,0.0761719,0
50840,0.244141,-0.962402,0.0864258,0
50860,0.247559,-0.958008,0.0908203,0
50880,0.254395,-0.953125,0.0893555,0
50900,0.256836,-0.955566,0.0952148,0
50920,0.241211,-0.958008,0.0986328,0
50930,0.225586,-0.95752,0.0839844,0
50950,0.224609,-0.956543,0.0805664,0
50970,0.23584,-0.947266,0.09375,0
50990,0.233398,-0.935547,0.104492,0
51010,0.225586,-0.928711,0.090332,0
51030,0.231934,-0.938477,0.0800781,0
51050,0.244141,-0.950684,0.0854492,0
51070,0.252441,-0.961914,0.0913086,0
51090,0.230957,-0.944336,0.097168,0
51110,0.205566,-0.958008,0.0810547,0
51130,0.215332,-0.958496,0.0708008,0
51150,0.220703,-0.954102,0.0761719,0
51170,0.218262,-0.953613,0.0693359,0
51190,0.216309,-0.952637,0.0605469,0
51210,0.208008,-0.940918,0.0756836,0
51230,0.20752,-0.938965,0.0864258,0
51250,0.213379,-0.953125,0.0849609,0
51270,0.228027,-0.950195,0.0717773,0
51290,0.229492,-0.952148,0.0888672,0
51310,0.212402,-0.94043,0.104004,0
51330,0.217285,-0.945312,0.0932617,0
51350,0.241699,-0.958496,0.0869141,0
51370,0.234863,-0.978027,0.0693359,0
51390,0.237305,-0.989746,0.0800781,0
51410,0.238281,-0.988281,0.0883789,0
51430,0.231934,-0.995605,0.0839844,0
51450,0.233887,-0.997559,0.0888672,0
51470,0.220703,-0.987305,0.0761719,0
51490,0.200195,-0.96875,0.0883789,0
51510,0.197266,-0.973145,0.0991211,0
51530,0.203613,-0.963867,0.0913086,0
51550,0.19873,-0.962402,0.0825195,0
51570,0.191895,-0.957031,0.0805664,0
51590,0.177246,-0.955078,0.0908203,0
51610,0.177246,-0.953613,0.0869141,0
51630,0.178711,-0.947266,0.0834961,0
51650,0.170898,-0.956543,0.074707,0
51670,0.160645,-0.952148,0.0786133,0
51690,0.165039,-0.964355,0.0776367,0
51710,0.169434,-0.969238,0.0717773,0
51730,0.158691,-0.962891,0.0888672,0
51750,0.148438,-0.958496,0.0810547,0
51770,0.15918,-0.958008,0.0991211,0
51790,0.177246,-0.954102,0.0922852,0
51810,0.183105,-0.973145,0.0844727,0
51830,0.172363,-0.969238,0.105957,0
51850,0.177734,-0.983398,0.126953,0
51870,0.210938,-0.993652,0.105469,0
51890,0.217285,-1,0.0756836,0
51910,0.21582,-1.01807,0.0878906,0
51930,0.226074,-1.01172,0.105957,0
51950,0.208984,-0.984375,0.115234,0
51970,0.202148,-0.961426,0.0957031,0
51990,0.199707,-0.964355,0.105957,0
52010,0.197266,-0.98291,0.10791,0
52030,0.193359,-0.992188,0.114746,0
52050,0.200684,-0.980957,0.110352,0
52070,0.195801,-0.970215,0.109863,0
52090,0.187012,-0.946289,0.10791,0
52110,0.172852,-0.956055,0.090332,0
52130,0.162109,-0.953613,0.100098,0
52150,0.149902,-0.962402,0.10498,0
52170,0.145508,-0.970703,0.100586,0
52190,0.15625,-0.96582,0.097168,0
52210,0.163086,-0.957031,0.104004,0
52230,0.165527,-0.960938,0.104492,0
52250,0.155273,-0.95166,0.114258,0
52270,0.157715,-0.959961,0.106934,0
52290,0.162109,-0.962402,0.115723,0
52310,0.158203,-0.956055,0.122559,0
52330,0.145996,-0.953125,0.119141,0
52350,0.147949,-0.95752,0.10791,0
52370,0.15332,-0.971191,0.106445,0
52390,0.154785,-0.975586,0.108398,0
52410,0.155273,-0.972168,0.111328,0
52430,0.156738,-0.961914,0.11084,0
52450,0.141113,-0.950684,0.11377,0
52470,0.137695,-0.952637,0.126465,0
52490,0.15918,-0.967773,0.128906,0
52510,0.17334,-0.96875,0.125977,0
52530,0.177246,-0.962402,0.132812,0
52550,0.169434,-0.974121,0.137207,0
52570,0.172363,-0.962891,0.128906,0
52590,0.17627,-0.964844,0.141602,0
52610,0.178711,-0.959473,0.140625,0
52630,0.185547,-0.963379,0.146484,0
52650,0.185059,-0.953613,0.162109,0
52670,0.17627,-0.958496,0.169922,0
52690,0.165039,-0.957031,0.17334,0
52710,0.154785,-0.952148,0.180176,0
52730,0.156738,-0.944336,0.162598,0
52750,0.163574,-0.932617,0.155273,0
52770,0.166992,-0.937988,0.161133,0
52790,0.16748,-0.950684,0.188477,0
52810,0.156738,-0.960938,0.187988,0
52830,0.147461,-0.963867,0.17627,0
52850,0.15332,-0.969238,0.182129,0
52870,0.163086,-0.965332,0.183105,0
52890,0.166016,-0.970703,0.19043,0
52910,0.152344,-0.953613,0.191406,0
52930,0.148438,-0.949219,0.205566,0
52950,0.14209,-0.946289,0.199219,0
52970,0.136719,-0.943848,0.203125,0
52990,0.137695,-0.961914,0.203613,0
53010,0.137207,-0.969727,0.227539,0
53030,0.126465,-0.96875,0.220215,0
53050,0.124023,-0.960938,0.21875,0
53070,0.120117,-0.950195,0.213379,0
53090,0.127441,-0.95459,0.221191,0
53110,0.12207,-0.966797,0.234863,0
53130,0.112305,-0.95752,0.230469,0
53150,0.10791,-0.960449,0.22168,0
53170,0.112305,-0.956543,0.230957,0
53190,0.108887,-0.965332,0.224121,0
53210,0.116211,-0.959961,0.231934,0
53230,0.116699,-0.956543,0.23291,0
53250,0.110352,-0.950684,0.230957,0
53270,0.108887,-0.945312,0.231445,0
53290,0.114258,-0.95752,0.224121,0
53310,0.108887,-0.95459,0.233887,0
53330,0.120117,-0.955078,0.22168,0
53350,0.123535,-0.951172,0.228516,0
53370,0.11377,-0.945801,0.229492,0
53390,0.116699,-0.950195,0.231445,0
53410,0.117676,-0.95459,0.233887,0
53430,0.111816,-0.950195,0.234375,0
53450,0.109375,-0.953613,0.226562,0
53470,0.121094,-0.941895,0.225586,0
53490,0.115234,-0.949707,0.231445,0
53510,0.10498,-0.953125,0.233398,0
53530,0.104004,-0.960938,0.228516,0
53550,0.115234,-0.958496,0.217773,0
53570,0.121582,-0.94873,0.218262,0
53590,0.113281,-0.942871,0.227539,0
53610,0.117676,-0.946777,0.226562,0
53630,0.119629,-0.956055,0.223145,0
53650,0.117188,-0.952637,0.21582,0
53670,0.114258,-0.948242,0.22168,0
53690,0.118164,-0.94873,0.217285,0
53710,0.118164,-0.958984,0.218262,0
53730,0.118164,-0.937988,0.224121,0
53750,0.116699,-0.943359,0.22168,0
53770,0.114746,-0.938965,0.223633,0
53790,0.108398,-0.940918,0.224609,0
53810,0.111328,-0.944824,0.218262,0
53830,0.116211,-0.951172,0.222168,0
53850,0.112793,-0.950684,0.220215,0
53870,0.115234,-0.942383,0.214844,0
53890,0.117188,-0.941406,0.221191,0
53910,0.114258,-0.941406,0.227051,0
53930,0.111328,-0.947754,0.226562,0
53950,0.119629,-0.953125,0.229004,0
53970,0.115234,-0.956055,0.229004,0
53990,0.109863,-0.95166,0.225098,0
54010,0.116211,-0.954102,0.227539,0
54030,0.114746,-0.95752,0.229004,0
54050,0.111328,-0.952148,0.241699,0
54070,0.101562,-0.952148,0.23291,0
54090,0.111328,-0.946777,0.230957,0
54110,0.107422,-0.955078,0.237305,0
54130,0.103516,-0.949219,0.236816,0
54150,0.102051,-0.959473,0.234375,0
54170,0.109375,-0.951172,0.234863,0
54190,0.104004,-0.947754,0.230469,0
54210,0.11084,-0.946777,0.223633,0
54230,0.117676,-0.957031,0.22168,0
54250,0.117676,-0.949707,0.220703,0
54270,0.117188,-0.945312,0.217285,0
54290,0.120117,-0.947754,0.231934,0
54310,0.109375,-0.952637,0.229004,0
54320,0.112305,-0.961914,0.236816,0
54340,0.109863,-0.949219,0.237793,0
54360,0.109375,-0.939453,0.247559,0
54380,0.10498,-0.937012,0.246582,0
54400,0.103027,-0.936035,0.246094,0
54420,0.100586,-0.931152,0.232422,0
54440,0.106934,-0.939453,0.23877,0
54460,0.108887,-0.932617,0.241699,0
54480,0.115723,-0.947266,0.233887,0
54500,0.130371,-0.943359,0.230469,0
54520,0.131836,-0.943848,0.237305,0
54540,0.141602,-0.937988,0.236816,0
54560,0.157715,-0.946289,0.22998,0
54580,0.15625,-0.95166,0.231934,0
54600,0.157227,-0.981934,0.23877,0
54620,0.166992,-0.968262,0.241211,0
54640,0.203613,-0.973145,0.247559,0
54660,0.235352,-0.966797,0.294922,0
54680,0.273926,-0.977051,0.302246,0
54700,0.309082,-0.970703,0.314453,0
54720,0.369141,-0.967285,0.279297,0
54740,0.438965,-0.953613,0.270508,0
54760,0.458008,-0.947266,0.28125,0
54780,0.421875,-0.974121,0.29834,0
54800,0.337402,-0.997559,0.315918,0
54820,0.236328,-0.98291,0.305664,0
54840,0.133789,-0.971191,0.274414,0
54860,0.0556641,-0.980469,0.224121,0
54880,0.0175781,-0.979492,0.182617,0
54900,0.00830078,-0.967285,0.170898,0
54920,-0.0166016,-0.961426,0.114258,0
54940,-0.00341797,-0.960938,0.0786133,0
54960,0.0258789,-0.947266,0.0947266,0
54980,0.034668,-0.933105,0.0356445,0
55000,0.0253906,-0.916992,-0.00830078,0
55020,0.00732422,-0.946777,-0.0151367,0
55040,-0.0214844,-0.943848,0.0107422,0
55060,-0.059082,-0.938965,-0.0205078,0
55080,-0.0249023,-0.959961,-0.0429688,0
55100,0.0595703,-0.977539,-0.0390625,0
55120,0.102051,-0.980957,-0.0273438,0
55140,0.0952148,-0.960938,-0.00585938,0
55160,0.134766,-0.960449,-0.00683594,0
55180,0.20166,-0.986816,-0.0141602,0
55200,0.211426,-0.973145,0.00439453,0
55220,0.174316,-0.958008,0.00341797,0
55240,0.174316,-0.97168,-0.000488281,0
55260,0.224609,-0.970703,0.00390625,0
55280,0.240723,-0.965332,-0.00488281,0
55300,0.212891,-0.976562,-0.0185547,0
55320,0.219727,-0.979004,-0.00146484,0
55340,0.266602,-0.994141,0.00878906,0
55360,0.29541,-0.977539,0.0170898,0
55380,0.293457,-0.956055,0.00292969,0
55400,0.283691,-0.950684,0.0224609,0
55420,0.274902,-0.950195,0.0507812,0
55440,0.254883,-0.9375,0.0405273,0
55460,0.240234,-0.945801,0.0273438,0
55480,0.242676,-0.989258,-0.0107422,0
55500,0.211914,-0.960938,-0.0424805,0
55520,0.168457,-0.974121,-0.00976562,0
55540,0.151367,-0.993164,0.0361328,1000
55560,0.15918,-0.973633,0.0185547,0
55580,0.171875,-0.961426,0.000976562,0
55600,0.150879,-0.973633,0.0102539,0
55620,0.153809,-0.998047,0.034668,0
55640,0.168945,-1.01514,0.0166016,0
55660,0.146973,-1.0166,0.0166016,0
55680,0.115723,-0.995117,0.0302734,0
55700,0.115723,-1.00781,0.0415039,0
55720,0.123047,-1.01318,0.0322266,0
55740,0.11377,-1.0249,0.0234375,0
55760,0.114258,-1.01562,0.0429688,0
55780,0.112793,-1.00049,0.0629883,0
55800,0.132812,-0.984375,0.0683594,0
55820,0.141602,-0.975586,0.0620117,0
55840,0.120117,-0.952637,0.0371094,0
55860,0.137695,-0.947266,0.0141602,0
55880,0.23877,-0.940918,0.0209961,0
55900,0.30957,-0.947754,0.015625,0
55920,0.268555,-0.944336,-0.0126953,0
55940,0.245117,-0.939453,-0.00537109,0
55960,0.278809,-0.958496,0.0258789,0
55980,0.307129,-0.972656,0.034668,0
56000,0.297852,-0.968262,0.0419922,0
56020,0.249512,-0.945801,0.03125,0
56040,0.249512,-0.944824,0.0385742,0
56060,0.258789,-0.943848,0.0737305,0
56080,0.273438,-0.960449,0.0805664,0
56100,0.285156,-0.955566,0.0693359,0
56120,0.288086,-0.942871,0.0668945,0
56140,0.283691,-0.952637,0.0756836,0
56160,0.324707,-0.943359,0.0605469,0
56180,0.348633,-0.942383,0.0600586,0
56200,0.31543,-0.925293,0.0722656,0
56220,0.313477,-0.932617,0.0698242,0
56240,0.342773,-0.927246,0.0791016,0
56260,0.382812,-0.94043,0.0678711,0
56270,0.362793,-0.925293,0.0893555,0
56290,0.347168,-0.923828,0.078125,0
56310,0.356445,-0.910645,0.0849609,0
56330,0.380371,-0.912109,0.106934,0
56350,0.375488,-0.907715,0.104492,0
56370,0.345215,-0.885742,0.114258,0
56390,0.343262,-0.885742,0.10791,0
56410,0.381348,-0.872559,0.102051,0
56430,0.397949,-0.872559,0.103027,0
56450,0.408203,-0.86084,0.127441,0
56470,0.427734,-0.873535,0.120117,0
56490,0.444336,-0.868164,0.110352,0
56510,0.45752,-0.874023,0.102539,0
56520,0.458008,-0.861328,0.11084,0
56540,0.449219,-0.858398,0.130371,0
56560,0.474121,-0.861328,0.140137,0
56580,0.456543,-0.868652,0.129395,0
56600,0.431641,-0.866211,0.120117,0
56630,0.450684,-0.865723,0.141602,0
56650,0.437012,-0.858398,0.133301,0
56670,0.428711,-0.848145,0.122559,0
56690,0.442871,-0.846191,0.128906,0
56710,0.458008,-0.84375,0.143066,0
56730,0.469238,-0.837891,0.142578,0
56750,0.478516,-0.842285,0.138672,0
56770,0.463867,-0.833496,0.133301,0
56790,0.484863,-0.828613,0.161133,0
56810,0.504395,-0.822266,0.164551,0
56830,0.52002,-0.808105,0.16748,0
56850,0.522461,-0.79248,0.177246,0
56870,0.519531,-0.793457,0.169922,0
56890,0.492188,-0.790527,0.180176,0
56910,0.494629,-0.800293,0.176758,0
56930,0.510254,-0.815918,0.182617,0
56950,0.512207,-0.809082,0.179199,0
56970,0.483398,-0.810547,0.182617,0
56990,0.489746,-0.802246,0.205078,0
57010,0.517578,-0.813965,0.215332,0
57030,0.507812,-0.818359,0.202637,0
57050,0.469727,-0.814941,0.200684,0
57070,0.453613,-0.809082,0.218262,0
57090,0.466797,-0.80127,0.212402,0
57110,0.497559,-0.817383,0.212402,0
57130,0.49707,-0.827637,0.233398,0
57150,0.470703,-0.838379,0.25,0
57170,0.462891,-0.837891,0.257324,0
57190,0.477051,-0.856934,0.246582,0
57210,0.490234,-0.860352,0.256836,0
57230,0.444824,-0.861328,0.26416,0
57250,0.390625,-0.831055,0.275391,0
57270,0.397949,-0.841309,0.271973,0
57290,0.431152,-0.847168,0.269531,0
57310,0.390137,-0.845703,0.288574,0
57330,0.344238,-0.849121,0.286621,0
57350,0.343262,-0.862305,0.274902,0
57360,0.369629,-0.874023,0.293457,0
57380,0.399902,-0.874023,0.293457,0
57400,0.393066,-0.864258,0.27832,0
57420,0.37793,-0.838379,0.271973,0
57440,0.375977,-0.845215,0.276855,0
57460,0.381836,-0.847656,0.287109,0
57480,0.36084,-0.864258,0.273926,0
57500,0.359375,-0.845703,0.26709,0
57520,0.372559,-0.847168,0.275391,0
57540,0.381836,-0.856934,0.298828,0
57560,0.375977,-0.880371,0.28418,0
57580,0.380371,-0.87793,0.291016,0
57600,0.386719,-0.874023,0.307617,0
57620,0.393555,-0.846191,0.303711,0
57640,0.396484,-0.849121,0.302246,0
57660,0.373047,-0.852051,0.324219,0
57680,0.360352,-0.852051,0.33252,0
57700,0.336426,-0.866211,0.321289,0
57720,0.323242,-0.850098,0.318848,0
57740,0.312012,-0.866699,0.313477,0
57760,0.331543,-0.866699,0.310547,0
57780,0.337891,-0.873047,0.327637,0
57800,0.319824,-0.85498,0.308105,0
57820,0.288086,-0.883789,0.310059,0
57840,0.274902,-0.887207,0.314453,0
57860,0.289062,-0.884277,0.313965,0
57880,0.306152,-0.873047,0.308105,0
57900,0.291992,-0.884766,0.308105,0
57920,0.271973,-0.89502,0.300781,0
57940,0.28125,-0.885254,0.308594,0
57960,0.283203,-0.892578,0.282227,0
57980,0.258301,-0.895508,0.275391,0
58000,0.233887,-0.902832,0.294434,0
58020,0.241699,-0.90332,0.27832,0
58040,0.245605,-0.910645,0.251953,0
58060,0.220703,-0.900391,0.249512,0
58080,0.212891,-0.897949,0.251953,0
58100,0.217285,-0.898926,0.241699,0
58120,0.213379,-0.901367,0.20752,0
58140,0.205566,-0.906738,0.211914,0
58160,0.223633,-0.925781,0.233887,0
58180,0.26416,-0.924805,0.197266,0
58200,0.273926,-0.903809,0.190918,0
58220,0.262695,-0.91748,0.213867,0
58240,0.263184,-0.910645,0.202637,0
58260,0.27832,-0.921387,0.1875,0
58280,0.290039,-0.904297,0.206543,0
58300,0.283203,-0.902832,0.183105,0
58320,0.269531,-0.901855,0.174805,0
58340,0.272461,-0.915039,0.183594,0
58360,0.259277,-0.912598,0.182129,0
58380,0.26123,-0.915039,0.15918,0
58400,0.25293,-0.900391,0.156738,0
58420,0.236816,-0.901367,0.158691,0
58440,0.255371,-0.896484,0.155273,0
58460,0.287109,-0.906738,0.133789,0
58480,0.294922,-0.914062,0.128418,0
58500,0.273926,-0.892578,0.140137,0
58520,0.257812,-0.910645,0.133301,0
58540,0.25,-0.904297,0.113281,0
58560,0.269531,-0.911621,0.0986328,0
58580,0.282227,-0.921387,0.100586,0
58590,0.266113,-0.928711,0.0986328,0
58610,0.276367,-0.935059,0.0786133,0
58630,0.291504,-0.942383,0.0600586,0
58650,0.300781,-0.949707,0.0673828,0
58670,0.293457,-0.954102,0.0610352,0
58690,0.295898,-0.951172,0.0571289,0
58710,0.292969,-0.960938,0.0703125,0
58730,0.277344,-0.953613,0.0625,0
58750,0.277344,-0.946777,0.0429688,0
58770,0.303223,-0.953125,0.0517578,0
58790,0.316895,-0.945801,0.0673828,0
58810,0.291016,-0.951172,0.050293,0
58830,0.260742,-0.946777,0.0380859,0
58850,0.244141,-0.952637,0.03125,0
58870,0.277832,-0.9375,0.0498047,0
58890,0.325195,-0.930664,0.0449219,0
58910,0.32666,-0.933594,0.0244141,0
58930,0.299805,-0.936035,0.0175781,0
58950,0.293945,-0.927246,0.0458984,0
58970,0.334473,-0.930664,0.034668,0
58990,0.375,-0.943848,0.00683594,0
59010,0.375488,-0.949219,0.00390625,0
59030,0.346191,-0.938965,0.0161133,0
59050,0.321289,-0.927246,0.0444336,0
59070,0.374023,-0.930176,0.0112305,0
59090,0.418457,-0.921875,-0.0151367,0
59110,0.413574,-0.916992,0.00585938,0
59130,0.392578,-0.914551,0.0258789,0
59150,0.39209,-0.916992,0.0180664,0
59170,0.423828,-0.904297,0.00585938,0
59190,0.410645,-0.897949,-0.000976562,0
59210,0.393555,-0.884277,0.0112305,0
59240,0.423828,-0.888672,0.00439453,0
59260,0.440918,-0.889648,-0.00195312,0
59280,0.430664,-0.875,0.00439453,0
59300,0.428223,-0.861816,0.00634766,0
59330,0.453125,-0.881348,-0.000488281,0
59350,0.476562,-0.882812,-0.00439453,0
59370,0.466309,-0.854004,0.00927734,0
59390,0.489746,-0.848633,0.0195312,0
59410,0.476562,-0.845215,0.0136719,0
59430,0.479492,-0.852051,0.0185547,0
59450,0.479492,-0.84082,0.0244141,0
59470,0.503418,-0.841797,0.027832,0
59490,0.512207,-0.838379,0.0317383,0
59510,0.498535,-0.841797,0.0317383,0
59530,0.502441,-0.844727,0.034668,0
59550,0.535156,-0.828125,0.0307617,0
59570,0.541504,-0.823242,0.0395508,0
59580,0.557617,-0.819824,0.034668,0
59600,0.565918,-0.81543,0.0439453,0
59620,0.568848,-0.811035,0.0449219,0
59640,0.563477,-0.800781,0.0405273,0
59660,0.577637,-0.800293,0.0297852,0
59680,0.580566,-0.791504,0.043457,0
59700,0.586914,-0.786621,0.0571289,0
59720,0.598633,-0.765137,0.0595703,0
59740,0.601562,-0.763672,0.0551758,0
59760,0.601074,-0.764648,0.0634766,0
59780,0.59375,-0.771484,0.0615234,0
59800,0.600586,-0.770996,0.0668945,0
59820,0.620605,-0.752441,0.0820312,0
59840,0.626953,-0.741699,0.0830078,0
59860,0.629395,-0.731445,0.0766602,0
59880,0.615234,-0.727539,0.0839844,0
59900,0.621094,-0.75,0.0986328,0
59920,0.621582,-0.751953,0.0908203,0
59940,0.634277,-0.73877,0.0776367,0
59960,0.619629,-0.730469,0.0742188,0
59980,0.625,-0.73291,0.107422,0
60000,0.637207,-0.731445,0.102051,0
60020,0.640137,-0.720215,0.081543,0
60040,0.643066,-0.719727,0.0927734,0
60060,0.668457,-0.706055,0.136719,0
60080,0.666016,-0.708984,0.129395,0
60100,0.651367,-0.688477,0.123047,0
60120,0.642578,-0.683594,0.123047,0
60140,0.659668,-0.683594,0.126465,0
60160,0.6875,-0.681152,0.157227,0
60180,0.689453,-0.668457,0.151367,0
60200,0.680664,-0.663086,0.147461,0
60220,0.671387,-0.672852,0.146484,0
60240,0.654297,-0.662109,0.161621,0
60260,0.658203,-0.662598,0.172852,0
60280,0.665039,-0.662598,0.165039,0
60300,0.658203,-0.662109,0.1875,0
60320,0.657227,-0.666992,0.19873,0
60340,0.66748,-0.666016,0.187988,0
60360,0.670898,-0.665039,0.200684,0
60380,0.696777,-0.674805,0.197266,0
60400,0.687988,-0.663574,0.208008,0
60420,0.658203,-0.647461,0.215332,0
60440,0.661133,-0.648926,0.201172,0
60460,0.672852,-0.671875,0.210938,0
60480,0.652344,-0.677246,0.246094,0
60500,0.632324,-0.68457,0.233398,0
60520,0.661133,-0.678223,0.221191,0
60540,0.680176,-0.678223,0.237793,0
60560,0.672363,-0.68457,0.23584,0
60580,0.640625,-0.681641,0.253418,0
60600,0.620605,-0.691406,0.262207,0
60620,0.615234,-0.692871,0.263184,0
60640,0.669434,-0.684082,0.278809,0
60660,0.628418,-0.67627,0.316406,0
60680,0.579102,-0.695801,0.291016,0
60700,0.58252,-0.715332,0.281738,0
60720,0.585449,-0.737793,0.28418,0
60740,0.573242,-0.742676,0.316406,0
60760,0.553223,-0.748047,0.314941,0
60780,0.547363,-0.765137,0.300293,0
60800,0.55127,-0.767578,0.314941,0
60820,0.541016,-0.766602,0.32666,0
60840,0.526855,-0.758789,0.35791,0
60860,0.510254,-0.755371,0.344238,0
60880,0.500977,-0.746582,0.325195,0
60900,0.490234,-0.761719,0.316895,0
60920,0.463867,-0.758301,0.328613,0
60940,0.452148,-0.779297,0.322754,0
60960,0.446777,-0.779297,0.331543,0
60980,0.435547,-0.780762,0.324707,0
61000,0.429688,-0.798828,0.341309,0
61020,0.445312,-0.800781,0.343262,0
61040,0.435059,-0.818848,0.313477,0
61060,0.425293,-0.814453,0.300781,0
61080,0.404785,-0.822754,0.30127,0
61100,0.400879,-0.824219,0.308594,0
61120,0.40625,-0.845215,0.285156,0
61140,0.414062,-0.828125,0.238281,0
61160,0.433105,-0.815918,0.237793,0
61180,0.41748,-0.815918,0.286133,0
61200,0.377441,-0.847168,0.283203,0
61220,0.378418,-0.866699,0.260742,0
61240,0.401367,-0.857422,0.253418,0
61260,0.402344,-0.841797,0.249023,0
61280,0.39502,-0.838867,0.250977,0
61300,0.382324,-0.836426,0.243652,0
61320,0.385742,-0.847656,0.233398,0
61340,0.373047,-0.854492,0.222656,0
61360,0.37207,-0.852051,0.197754,0
61380,0.396484,-0.854004,0.205566,0
61400,0.404297,-0.847168,0.210449,0
61420,0.384277,-0.851562,0.1875,0
61440,0.381836,-0.856934,0.181641,0
61460,0.385742,-0.859863,0.185547,0
61480,0.375,-0.876953,0.15918,0
61500,0.384766,-0.880371,0.134766,0
61520,0.403809,-0.868652,0.136719,0
61530,0.401855,-0.880859,0.118652,0
61550,0.371094,-0.888672,0.130859,0
61570,0.36084,-0.890625,0.125,0
61590,0.389648,-0.890137,0.112305,0
61610,0.414551,-0.888184,0.0996094,0
61630,0.385254,-0.905762,0.0839844,0
61650,0.37207,-0.90918,0.0668945,0
61670,0.383301,-0.91748,0.0776367,0
61690,0.383789,-0.908691,0.0708008,0
61710,0.379395,-0.907227,0.0625,0
61730,0.366699,-0.907227,0.0537109,0
61750,0.36377,-0.908691,0.0498047,0
61770,0.359863,-0.912109,0.0629883,0
61790,0.347656,-0.913574,0.0307617,0
61810,0.361328,-0.911133,0.00976562,0
61830,0.367188,-0.88916,0.0327148,0
61850,0.34668,-0.881836,0.0356445,0
61870,0.341309,-0.885254,0.0375977,0
61890,0.365234,-0.914062,-0.0317383,0
61910,0.400391,-0.91748,-0.0517578,0
61930,0.416016,-0.907715,-0.043457,0
61950,0.415039,-0.887207,-0.0566406,0
61970,0.425781,-0.882812,-0.0830078,0
61990,0.432129,-0.899902,-0.0859375,0
62010,0.411133,-0.897949,-0.0771484,0
62030,0.405762,-0.877441,-0.0947266,0
62050,0.416992,-0.861328,-0.104004,0
62070,0.410645,-0.891602,-0.111816,0
62090,0.434082,-0.875,-0.0986328,0
62110,0.475586,-0.894531,-0.0996094,0
62130,0.487793,-0.883301,-0.0942383,0
62150,0.495605,-0.862793,-0.0952148,0
62170,0.486816,-0.846191,-0.0893555,0
62190,0.478516,-0.83252,-0.0966797,0
62210,0.514648,-0.835938,-0.11377,0
62230,0.552734,-0.852051,-0.106934,0
62250,0.55127,-0.845215,-0.106934,0
62270,0.54834,-0.830566,-0.11084,0
62290,0.574707,-0.828125,-0.106445,0
62310,0.59668,-0.80957,-0.0742188,0
62330,0.583008,-0.80127,-0.0888672,0
62350,0.594727,-0.790527,-0.108398,0
62370,0.62793,-0.793457,-0.074707,0
62390,0.625977,-0.783691,-0.0703125,0
62410,0.609863,-0.792969,-0.104004,0
62430,0.600098,-0.759277,-0.0830078,0
62450,0.596191,-0.744141,-0.078125,0
62470,0.605469,-0.72998,-0.0864258,0
62490,0.616699,-0.73584,-0.0913086,0
62510,0.638672,-0.724121,-0.0922852,0
62530,0.654297,-0.714355,-0.074707,0
62550,0.634766,-0.698242,-0.0668945,0
62570,0.632324,-0.690918,-0.0703125,0
62590,0.679199,-0.699219,-0.0693359,0
62610,0.701172,-0.683105,-0.0439453,0
62630,0.709961,-0.683594,-0.034668,0
62650,0.708984,-0.676758,-0.0556641,0
62670,0.733887,-0.680176,-0.0517578,0
62690,0.744141,-0.673828,-0.0195312,0
62710,0.742676,-0.673828,-0.027832,0
62730,0.745605,-0.653809,-0.0390625,0
62750,0.779297,-0.648438,-0.0327148,0
62770,0.796387,-0.636719,-0.00292969,0
62790,0.784668,-0.620605,0.00976562,0
62810,0.768066,-0.605469,-0.000976562,0
62830,0.777344,-0.587891,-0.000488281,0
62850,0.787109,-0.577148,0.0146484,0
62870,0.780273,-0.566406,0.0463867,0
62890,0.775879,-0.557617,0.034668,0
62910,0.785645,-0.547852,0.0102539,0
62930,0.786133,-0.536621,0.0307617,0
62950,0.779297,-0.527344,0.0522461,0
62970,0.76709,-0.520996,0.0551758,0
62990,0.786621,-0.51416,0.0478516,0
63010,0.811523,-0.515137,0.0571289,0
63030,0.802246,-0.498535,0.09375,0
63050,0.79834,-0.496582,0.0981445,0
63070,0.807129,-0.493652,0.0800781,0
63090,0.808594,-0.478027,0.106934,0
63110,0.832031,-0.467773,0.138672,0
63130,0.843262,-0.458984,0.143066,0
63150,0.84668,-0.47998,0.118164,0
63170,0.856934,-0.475586,0.131348,0
63190,0.841309,-0.463867,0.162598,0
63210,0.825684,-0.457031,0.183105,0
63230,0.82959,-0.455566,0.185059,0
63250,0.828613,-0.457031,0.186035,0
63270,0.799805,-0.460449,0.177246,0
63290,0.806152,-0.463867,0.206055,0
63310,0.819824,-0.45752,0.22998,0
63330,0.845703,-0.467773,0.223145,0
63350,0.818359,-0.47168,0.231934,0
63370,0.780273,-0.478516,0.258301,0
63390,0.77832,-0.48584,0.29834,0
63410,0.802246,-0.483398,0.271484,0
63430,0.829102,-0.495117,0.257812,0
63450,0.784668,-0.507324,0.291504,0
63470,0.75293,-0.513672,0.314453,0
63490,0.754883,-0.516602,0.316895,0
63510,0.765625,-0.532227,0.283691,0
63530,0.746582,-0.529785,0.275879,0
63550,0.739746,-0.537598,0.290527,0
63570,0.716309,-0.5625,0.311523,0
63590,0.720703,-0.574219,0.313965,0
63610,0.722168,-0.583984,0.29834,0
63630,0.71582,-0.60498,0.317383,0
63650,0.722656,-0.588379,0.322754,0
63670,0.709961,-0.600098,0.341797,0
63690,0.689453,-0.597168,0.366699,0
63710,0.653809,-0.609375,0.357422,0
63740,0.601562,-0.623047,0.370605,0
63750,0.631836,-0.634766,0.351562,0
63760,0.635254,-0.642578,0.350098,0
63780,0.605469,-0.655762,0.343262,0
63800,0.58252,-0.678711,0.32959,0
63820,0.589355,-0.691895,0.328613,0
63840,0.590332,-0.682129,0.344727,0
63860,0.587402,-0.686523,0.32666,0
63880,0.569336,-0.684082,0.296875,0
63900,0.527344,-0.702637,0.296875,0
63920,0.464355,-0.72168,0.308594,0
63940,0.490723,-0.743164,0.277832,0
63960,0.540527,-0.725098,0.312012,0
63980,0.521484,-0.724121,0.306641,0
64000,0.495117,-0.745117,0.266602,0
64020,0.510742,-0.773926,0.250488,0
64040,0.52002,-0.798828,0.258301,0
64060,0.487793,-0.777832,0.251953,0
64080,0.464355,-0.784668,0.212891,0
64100,0.491211,-0.785645,0.20752,0
64120,0.498047,-0.789551,0.213379,0
64140,0.487793,-0.796387,0.209473,0
64160,0.495117,-0.828125,0.200684,0
64180,0.49707,-0.835449,0.20752,0
64200,0.480469,-0.81543,0.179199,0
64220,0.50293,-0.797363,0.169922,0
64240,0.501465,-0.794922,0.184082,0
64260,0.462891,-0.810059,0.154785,0
64280,0.513672,-0.839844,0.120605,0
64300,0.547852,-0.825684,0.112793,0
64320,0.511719,-0.79834,0.106445,0
64340,0.488281,-0.806152,0.0839844,0
64360,0.520508,-0.818359,0.0786133,0
64380,0.536621,-0.839844,0.0766602,0
64400,0.510254,-0.839844,0.0761719,0
64420,0.476562,-0.826172,0.0449219,0
64440,0.48584,-0.822754,0.0488281,0
64460,0.500977,-0.829102,0.0610352,0
64480,0.522949,-0.836426,0.0498047,0
64500,0.526367,-0.850098,0.0288086,0
64520,0.495605,-0.830078,0.0605469,0
64540,0.486816,-0.819336,0.0366211,0
64560,0.51123,-0.82666,0.00341797,0
64580,0.547363,-0.830566,0.0205078,0
64600,0.520996,-0.818848,0.0341797,0
64620,0.521484,-0.818359,0.00292969,0
64640,0.547852,-0.822266,-0.0356445,0
64660,0.563477,-0.814941,-0.034668,0
64680,0.523438,-0.807617,-0.0244141,0
64700,0.518555,-0.807129,-0.0458984,0
64720,0.562988,-0.811035,-0.0688477,0
64740,0.589844,-0.796387,-0.0551758,0
64760,0.551758,-0.779785,-0.0317383,0
64780,0.539551,-0.772461,-0.050293,0
64800,0.606445,-0.764648,-0.0419922,0
64820,0.64209,-0.748535,-0.0263672,0
64840,0.601074,-0.738281,-0.0458984,0
64850,0.592773,-0.750488,-0.0576172,0
64870,0.646484,-0.725098,-0.0263672,0
64890,0.647949,-0.699707,-0.00585938,0
64910,0.615723,-0.689453,-0.0473633,0
64930,0.637207,-0.705078,-0.0556641,0
64950,0.692383,-0.709473,-0.0136719,0
64970,0.718262,-0.689453,-0.019043,0
64990,0.706055,-0.665039,-0.0512695,0
65010,0.703613,-0.650879,-0.0551758,0
65030,0.728027,-0.669434,-0.0112305,0
65050,0.750488,-0.66748,-0.0205078,0
65070,0.765137,-0.64209,-0.0317383,0
65090,0.750488,-0.603027,-0.0107422,0
65110,0.755371,-0.604004,0.000488281,0
65130,0.791504,-0.597656,0.00585938,0
65150,0.776855,-0.588867,-0.00244141,0
65170,0.750977,-0.557617,-0.0195312,0
65190,0.765625,-0.554688,0.0136719,0
65210,0.79248,-0.557617,0.0244141,0
65230,0.786621,-0.557617,-0.000488281,0
65250,0.776367,-0.540039,-0.00927734,0
65270,0.810059,-0.53125,-0.000488281,0
65290,0.82666,-0.535156,0.0375977,0
65310,0.827148,-0.523926,0.0327148,0
65330,0.824707,-0.513184,0.0136719,0
65350,0.833984,-0.497559,0.0302734,1001
65370,0.84375,-0.507812,0.0668945,0
65390,0.847656,-0.497559,0.0722656,0
65410,0.845703,-0.477051,0.0556641,0
65430,0.845215,-0.478027,0.0517578,0
65450,0.834961,-0.486328,0.0541992,0
65470,0.84375,-0.47998,0.0732422,0
65490,0.825195,-0.480469,0.0688477,0
65510,0.80957,-0.474121,0.0600586,0
65530,0.768555,-0.475098,0.059082,0
65550,0.711426,-0.493652,0.0483398,0
65570,0.661133,-0.486328,0.012207,0
65590,0.649902,-0.51123,-0.0449219,0
65610,0.681641,-0.528809,-0.034668,0
65630,0.680176,-0.526367,-0.0375977,0
65650,0.657227,-0.518555,-0.0166016,0
65670,0.624512,-0.519043,0.0766602,0
