Timestamp, Acceleration x, Acceleration y, Acceleration z, Marker
40,0.211914,-0.665527,0.612305,0
60,0.214844,-0.658203,0.611816,0
80,0.219727,-0.672363,0.613281,0
90,0.210938,-0.665527,0.612305,0
110,0.208008,-0.660645,0.608398,0
130,0.210449,-0.658203,0.604004,0
150,0.221191,-0.678711,0.606934,0
170,0.204102,-0.668945,0.598145,0
170,0.202637,-0.671875,0.609375,0
170,0.201172,-0.665039,0.625977,0
220,0.204102,-0.666992,0.623535,0
240,0.210449,-0.663086,0.620605,0
280,0.214844,-0.664062,0.611328,0
300,0.214844,-0.666016,0.615234,0
320,0.217773,-0.665039,0.608398,0
340,0.210938,-0.65332,0.613281,0
360,0.211426,-0.657715,0.612793,0
380,0.21582,-0.661621,0.615234,0
400,0.208496,-0.661621,0.61084,0
420,0.210938,-0.661621,0.611816,0
440,0.208008,-0.661621,0.614746,0
460,0.20752,-0.660645,0.608398,0
480,0.210938,-0.659668,0.607422,0
500,0.214844,-0.661133,0.612305,0
520,0.211914,-0.665527,0.613281,0
540,0.212402,-0.663086,0.61084,0
560,0.212402,-0.65918,0.612305,0
580,0.215332,-0.664062,0.610352,0
600,0.209473,-0.664551,0.615723,0
620,0.208984,-0.663086,0.620605,0
640,0.214355,-0.665039,0.614746,0
660,0.212891,-0.658203,0.616211,0
680,0.208496,-0.656738,0.617676,0
700,0.210449,-0.668945,0.619141,0
720,0.206055,-0.662109,0.614258,0
740,0.204102,-0.656738,0.612793,0
760,0.20459,-0.656738,0.617188,0
780,0.205566,-0.663086,0.618164,0
800,0.20752,-0.665527,0.621094,0
820,0.205078,-0.661621,0.618164,0
840,0.20459,-0.661621,0.615723,0
870,0.203125,-0.661133,0.61377,0
890,0.206055,-0.660645,0.617676,0
910,0.202637,-0.663574,0.616211,0
930,0.206055,-0.663574,0.614258,0
940,0.204102,-0.665039,0.618164,0
960,0.207031,-0.662109,0.613281,0
980,0.205566,-0.661621,0.614746,0
1000,0.210449,-0.654785,0.620605,0
1020,0.213379,-0.65918,0.616211,0
1040,0.208496,-0.657715,0.614746,0
1060,0.210938,-0.657227,0.609863,0
1080,0.204102,-0.660156,0.618652,0
1100,0.19873,-0.654297,0.619629,0
1120,0.199707,-0.659668,0.62207,0
1140,0.196289,-0.656738,0.622559,0
1160,0.19873,-0.658203,0.621094,0
1180,0.200684,-0.65918,0.623535,0
1200,0.1875,-0.65625,0.61084,0
1220,0.179688,-0.662109,0.606934,0
1240,0.173828,-0.674316,0.620605,0
1260,0.171387,-0.680664,0.640625,0
1280,0.164062,-0.680664,0.626465,0
1300,0.157227,-0.677246,0.609375,0
1320,0.149902,-0.671387,0.606445,0
1340,0.129883,-0.678711,0.608398,0
1360,0.125977,-0.689453,0.611328,0
1380,0.105469,-0.681152,0.625488,0
1400,0.100098,-0.71875,0.640137,0
1420,0.090332,-0.69043,0.646973,0
1440,0.0834961,-0.666016,0.651855,0
1460,0.0732422,-0.678711,0.657227,0
1480,0.0678711,-0.694824,0.669434,0
1500,0.0498047,-0.701172,0.657227,0
1520,0.046875,-0.703613,0.652344,0
1540,0.0166016,-0.696777,0.65625,0
1560,0.000976562,-0.670898,0.674316,0
1580,0.0078125,-0.701172,0.671387,0
1600,0.0249023,-0.672852,0.681152,0
1620,0.0219727,-0.627441,0.677246,0
1640,0.03125,-0.632324,0.674316,0
1660,0.0371094,-0.652344,0.663574,0
1680,0.0131836,-0.660156,0.65332,0
1700,-0.000976562,-0.655762,0.643555,0
1720,0.000488281,-0.650391,0.636719,0
1740,-0.00830078,-0.631348,0.639648,0
1760,-0.00244141,-0.644043,0.625977,0
1760,0.00488281,-0.648926,0.625,0
1780,-0.0136719,-0.645508,0.626465,0
1800,0.00830078,-0.654297,0.64502,0
1820,-0.108398,-0.628418,0.523438,0
1840,-0.0336914,-0.635254,0.379395,0
1880,-0.03125,-0.72998,0.910645,0
1900,0.267578,-0.730469,0.455078,0
1920,0.0537109,-0.584961,0.317383,0
1940,-0.0405273,-0.552246,0.32373,0
1960,0.0917969,-0.585449,0.337402,0
1980,0.333984,-0.689941,0.517578,0
2000,0.0673828,-0.822266,0.923828,0
2020,-0.486816,-0.663574,0.682617,0
2040,0.256836,-0.586914,0.469727,0
2060,-0.24707,-0.758789,0.926758,0
2080,0.166016,-0.499512,0.436523,0
2100,-0.472168,-0.688477,0.805176,0
2120,0.34668,-0.643555,0.82373,0
2140,-0.116699,-0.459473,0.406738,0
2160,-0.57373,-0.636719,0.612305,0
2180,-0.270996,-0.770508,0.920898,0
2200,0.125488,-0.777344,0.958496,0
2220,0.29541,-0.736328,0.918457,0
2240,0.3125,-0.693359,0.915039,0
2260,0.296875,-0.734863,0.904297,0
2280,0.227051,-0.79248,0.981934,0
2300,-0.0561523,-0.867676,0.975098,0
2320,-0.466797,-0.88623,0.717773,0
2340,-0.519531,-0.728516,0.373047,0
2360,0.169434,-0.634277,0.576172,0
2380,0.259766,-0.876953,1.06299,0
2400,-0.480469,-0.859863,0.509277,0
2420,0.387207,-0.649902,0.577637,0
2440,-0.0405273,-0.931152,0.85791,0
2460,0.243164,-0.703613,0.294922,0
2460,0.0922852,-0.979492,0.830566,0
2480,0.0102539,-0.713379,0.353516,0
2500,0.351074,-0.84668,0.71875,0
2520,0.318359,-0.787109,0.54834,0
2520,0.361328,-0.77832,0.509277,0
2570,0.393555,-0.746094,0.469727,0
2600,0.422852,-0.710449,0.431152,0
2620,0.438965,-0.66748,0.400391,0
2640,0.450684,-0.644531,0.360352,0
2660,0.481934,-0.61377,0.313965,0
2680,0.52002,-0.593262,0.317871,0
2700,0.536621,-0.590332,0.285645,0
2720,0.544434,-0.588379,0.242188,0
2740,0.572266,-0.577637,0.237305,0
2760,0.572266,-0.551758,0.23291,0
2780,0.575684,-0.535645,0.258789,0
2800,0.599609,-0.541992,0.257324,0
2820,0.630859,-0.546875,0.265625,0
2840,0.648438,-0.519531,0.26709,0
2860,0.647461,-0.516602,0.252441,0
2880,0.656738,-0.541992,0.265625,0
2900,0.694336,-0.537109,0.260254,0
2920,0.704102,-0.544434,0.270996,0
2940,0.692871,-0.541504,0.279785,0
2960,0.680176,-0.525879,0.293945,0
2980,0.683105,-0.51123,0.30127,0
3000,0.697266,-0.501953,0.294434,0
3020,0.689453,-0.507324,0.294434,0
3040,0.695312,-0.510254,0.297363,0
3060,0.713867,-0.511719,0.300781,0
3080,0.721191,-0.53418,0.294434,0
3100,0.719727,-0.540039,0.287109,0
3120,0.721191,-0.537598,0.264648,0
3140,0.727051,-0.547852,0.261719,0
3160,0.741699,-0.546875,0.258789,0
3180,0.745605,-0.533691,0.264648,0
3200,0.742676,-0.550293,0.275879,0
3220,0.746094,-0.551758,0.266113,0
3240,0.748535,-0.54834,0.259277,0
3260,0.739258,-0.530762,0.259277,0
3280,0.71875,-0.528809,0.276367,0
3300,0.71875,-0.533691,0.285156,0
3320,0.706055,-0.537598,0.297363,0
3340,0.699219,-0.53418,0.289551,0
3360,0.702637,-0.524902,0.284668,0
3380,0.711914,-0.530273,0.285645,0
3400,0.722656,-0.524902,0.291016,0
3420,0.725586,-0.533691,0.308105,0
3440,0.724609,-0.539062,0.307617,0
3450,0.721191,-0.525391,0.300293,0
3470,0.733887,-0.52002,0.289062,0
3490,0.743164,-0.522949,0.291504,0
3510,0.75,-0.512207,0.280273,0
3530,0.751465,-0.509766,0.285645,0
3550,0.752441,-0.512207,0.296875,0
3570,0.758789,-0.507324,0.289551,0
3590,0.76123,-0.508301,0.296387,0
3610,0.759277,-0.502441,0.290527,0
3630,0.759277,-0.496094,0.291016,0
3650,0.755859,-0.504395,0.29248,0
3670,0.755859,-0.513184,0.310547,0
3690,0.761719,-0.492188,0.289062,0
3710,0.762207,-0.491699,0.287598,0
3730,0.754883,-0.48877,0.302246,0
3750,0.74707,-0.500977,0.322754,0
3770,0.75,-0.485352,0.312012,0
3790,0.728516,-0.494141,0.305664,0
3810,0.706543,-0.505859,0.327148,0
3830,0.708496,-0.496582,0.342773,0
3850,0.726074,-0.455566,0.341797,0
3870,0.680176,-0.488281,0.354004,0
3890,0.652832,-0.481445,0.366211,0
3910,0.676758,-0.458496,0.389648,0
3930,0.682617,-0.439941,0.404297,0
3950,0.650879,-0.482422,0.405273,0
3970,0.657227,-0.483398,0.404785,0
3990,0.65625,-0.498535,0.409668,0
4010,0.64502,-0.5,0.416504,0
4030,0.662109,-0.486816,0.421387,0
4050,0.671875,-0.480957,0.416504,0
4070,0.671387,-0.491211,0.403809,0
4090,0.67627,-0.501465,0.398438,0
4110,0.683594,-0.508301,0.400879,0
4130,0.680176,-0.51123,0.40918,0
4150,0.684082,-0.498535,0.401367,0
4170,0.6875,-0.497559,0.408203,0
4190,0.679688,-0.487793,0.400391,0
4210,0.684082,-0.483398,0.413086,0
4230,0.68457,-0.478516,0.411133,0
4250,0.682617,-0.46875,0.402832,0
4270,0.686035,-0.467773,0.407715,0
4290,0.683105,-0.473633,0.410156,0
4310,0.693359,-0.473145,0.40625,0
4330,0.688477,-0.472168,0.406738,0
4350,0.689453,-0.477051,0.418457,0
4370,0.685059,-0.48291,0.413086,0
4390,0.689453,-0.469727,0.412109,0
4410,0.692871,-0.45752,0.415039,0
4430,0.689453,-0.458984,0.419922,0
4450,0.679688,-0.463379,0.418945,0
4470,0.683105,-0.471191,0.422852,0
4490,0.679199,-0.471191,0.424316,0
4510,0.668945,-0.457031,0.427246,0
4530,0.675781,-0.456055,0.429688,0
4550,0.686035,-0.459961,0.425293,0
4570,0.685059,-0.460938,0.427734,0
4590,0.679199,-0.465332,0.441895,0
4610,0.682129,-0.470215,0.443359,0
4630,0.682617,-0.466797,0.439453,0
4650,0.678711,-0.464844,0.43457,0
4670,0.677246,-0.45752,0.435547,0
4690,0.681152,-0.462402,0.436523,0
4710,0.686035,-0.468262,0.444824,0
4730,0.678711,-0.46875,0.446777,0
4750,0.677734,-0.460938,0.440918,0
4770,0.680176,-0.470215,0.427246,0
4790,0.669434,-0.45752,0.443848,0
4810,0.678711,-0.45166,0.436523,0
4830,0.680664,-0.460938,0.439453,0
4850,0.67334,-0.449219,0.435059,0
4870,0.681152,-0.443359,0.434082,0
4890,0.674316,-0.453125,0.439453,0
4910,0.67334,-0.447754,0.4375,0
4930,0.675293,-0.449707,0.43457,0
4950,0.671387,-0.45166,0.432129,0
4970,0.678223,-0.443359,0.447754,0
4990,0.683594,-0.452637,0.44043,0
5010,0.681152,-0.452637,0.435547,0
5030,0.682617,-0.45459,0.43457,0
5050,0.686523,-0.449219,0.44873,0
5070,0.685059,-0.445801,0.444336,0
5090,0.677734,-0.435547,0.440918,0
5110,0.672363,-0.441895,0.433594,0
5130,0.67627,-0.439941,0.44873,0
5150,0.66748,-0.437988,0.452148,0
5180,0.626465,-0.407227,0.458984,0
5200,0.607422,-0.400391,0.469727,0
5220,0.591309,-0.393066,0.484375,0
5240,0.546875,-0.377441,0.504395,0
5260,0.498047,-0.371582,0.493164,0
5280,0.531738,-0.398438,0.450195,0
5300,0.558105,-0.387695,0.492676,0
5320,0.524902,-0.367188,0.513184,0
5340,0.490234,-0.369629,0.533691,0
5360,0.490723,-0.378418,0.527344,0
5380,0.518555,-0.406738,0.527344,0
5400,0.543457,-0.437012,0.567383,0
5420,0.550293,-0.422852,0.58252,0
5440,0.522949,-0.472656,0.585938,0
5460,0.526367,-0.48877,0.597656,0
5480,0.541016,-0.562988,0.606934,0
5500,0.524414,-0.604492,0.594238,0
5520,0.504883,-0.628906,0.580078,0
5540,0.479492,-0.646973,0.62793,0
5560,0.421875,-0.700195,0.63623,0
5580,0.400391,-0.755371,0.587402,0
5600,0.348633,-0.786621,0.625,0
5610,0.312012,-0.815918,0.669922,0
5630,0.312988,-0.837891,0.691895,0
5630,0.308594,-0.809082,0.702148,0
5650,0.297852,-0.796875,0.699707,0
5670,0.272461,-0.752441,0.72168,0
5690,0.266602,-0.731445,0.698242,0
5690,0.273438,-0.742188,0.667969,0
5710,0.240234,-0.711914,0.671387,0
5730,0.193848,-0.694824,0.706543,0
5750,0.188965,-0.635254,0.711426,0
5770,0.166992,-0.620117,0.6875,0
5790,0.138672,-0.585449,0.697266,0
5810,0.114258,-0.586914,0.694824,0
5870,0.0825195,-0.611816,0.665039,0
5890,0.0786133,-0.598633,0.656738,0
5910,0.0629883,-0.570801,0.671387,0
5920,0.078125,-0.555176,0.688477,0
5940,0.0849609,-0.576172,0.674316,0
5940,0.0834961,-0.56543,0.649902,0
5960,0.0395508,-0.555176,0.64502,0
6000,0.0292969,-0.568359,0.655762,0
6020,0.0166016,-0.588379,0.649414,0
6020,0.0117188,-0.617188,0.64209,0
6040,0.0512695,-0.645508,0.64502,0
6060,0.0449219,-0.642578,0.644531,0
6060,0.0498047,-0.630371,0.643066,0
6080,0.0673828,-0.630859,0.638184,0
6100,0.0683594,-0.625,0.631348,0
6140,0.0712891,-0.636719,0.632812,0
6150,0.074707,-0.655762,0.625,0
6170,0.0761719,-0.668457,0.628906,0
6180,0.0898438,-0.674316,0.661621,0
6200,0.121094,-0.654297,0.658203,0
6220,0.129395,-0.647949,0.652344,0
6240,0.138184,-0.662109,0.649902,0
6260,0.144531,-0.663574,0.648926,0
6280,0.151855,-0.661133,0.647949,0
6300,0.162109,-0.652344,0.645508,0
6320,0.161133,-0.654785,0.640625,0
6340,0.166016,-0.63623,0.650391,0
6360,0.175781,-0.626953,0.657715,0
6380,0.171387,-0.626953,0.63916,0
6400,0.178223,-0.625,0.639648,0
6420,0.174316,-0.591309,0.638672,0
6440,0.183594,-0.601562,0.61084,0
6460,0.204102,-0.600586,0.599609,0
6480,0.179199,-0.563477,0.606934,0
6500,0.161621,-0.592285,0.628906,0
6520,0.0756836,-0.612793,0.624023,0
6540,0.0322266,-0.63623,0.681152,0
6560,0.027832,-0.639648,0.689941,0
6580,0.0102539,-0.59375,0.697754,0
6600,0.0180664,-0.584473,0.737793,0
6620,0.03125,-0.591797,0.779297,0
6640,0.0351562,-0.597656,0.807129,0
6660,0.0922852,-0.601562,0.810547,0
6680,0.118652,-0.611328,0.79248,0
6700,0.126953,-0.595215,0.757812,0
6720,0.120605,-0.622559,0.754395,0
6740,0.106445,-0.612793,0.725098,0
6760,0.102539,-0.631836,0.71582,0
6780,0.0981445,-0.61377,0.715332,0
6800,0.0854492,-0.61377,0.706055,0
6820,0.0688477,-0.604004,0.737305,0
6840,0.0664062,-0.592285,0.736328,0
6860,0.0854492,-0.563477,0.724121,0
6900,0.119141,-0.549316,0.732422,0
6920,0.121582,-0.543945,0.717285,0
6940,0.147949,-0.553711,0.716309,0
6960,0.170898,-0.532227,0.706543,0
6980,0.150391,-0.529297,0.672852,0
7000,0.141602,-0.539551,0.675781,0
7020,0.153809,-0.559082,0.699219,0
7040,0.164551,-0.549805,0.691406,0
7060,0.141602,-0.562012,0.674316,0
7080,0.0961914,-0.584473,0.719238,0
7100,0.0922852,-0.586914,0.712891,0
7120,0.12207,-0.590332,0.710938,0
7140,0.129395,-0.596191,0.725586,0
7160,0.142578,-0.558105,0.712891,0
7180,0.134766,-0.585938,0.701172,0
7200,0.141602,-0.575195,0.697266,0
7200,0.143066,-0.563477,0.693848,0
7220,0.12793,-0.557129,0.698242,0
7240,0.128906,-0.550293,0.721191,0
7260,0.188477,-0.554688,0.638672,0
7280,0.301758,-0.585449,0.724609,0
7310,-0.00732422,-0.539062,0.75,0
7340,0.228027,-0.632324,0.93457,0
7360,0.371582,-0.655273,0.756348,0
7380,0.427246,-0.644531,0.729004,0
7400,0.39502,-0.657715,0.856445,0
7420,0.126465,-0.666016,1.00391,0
7440,-0.15625,-0.59375,0.788574,0
7460,0.27832,-0.512207,0.457031,0
7480,0.284668,-0.708984,0.973145,0
7500,-0.0922852,-0.518066,0.415527,0
7520,0.381836,-0.685059,0.944336,0
7540,0.0712891,-0.487793,0.391113,0
7560,-0.00585938,-0.703613,0.932617,0
7580,0.584961,-0.580078,0.812988,0
7600,0.212891,-0.453125,0.375488,0
7620,-0.195312,-0.544434,0.478027,0
7640,-0.17334,-0.652832,0.753418,0
7660,0.00976562,-0.675781,0.931152,0
7680,0.0957031,-0.664062,0.982422,0
7700,0.0751953,-0.651367,0.972656,0
7720,-0.0483398,-0.63623,0.882812,0
7740,-0.212891,-0.614746,0.660645,0
7760,-0.157715,-0.51123,0.393555,0
7780,0.325684,-0.424316,0.474609,0
7800,0.0131836,-0.460938,0.541504,0
7820,0.178711,-0.545898,0.683594,0
7840,0.200195,-0.550293,0.699707,0
7860,0.187988,-0.55127,0.700195,0
7880,0.188477,-0.55957,0.716309,0
7900,0.187012,-0.564453,0.709961,0
7920,0.183594,-0.567383,0.708496,0
7940,0.172852,-0.572266,0.708008,0
7960,0.177246,-0.55957,0.710449,0
7980,0.177246,-0.567383,0.70166,0
8010,0.176758,-0.568359,0.711914,0
8030,0.17627,-0.565918,0.695801,0
8050,0.174316,-0.567871,0.703613,0
8070,0.168945,-0.557617,0.711426,0
8090,0.174805,-0.558105,0.710449,0
8110,0.170898,-0.571777,0.70166,0
8130,0.171875,-0.558594,0.711914,0
8150,0.171387,-0.560547,0.710449,0
8170,0.178223,-0.550781,0.716309,0
8190,0.179688,-0.561523,0.712891,0
8210,0.166504,-0.542969,0.720215,0
8230,0.171387,-0.557129,0.715332,0
8250,0.174316,-0.549805,0.714844,0
8270,0.15918,-0.546875,0.709473,0
8290,0.162598,-0.560547,0.713867,0
8310,0.166016,-0.549805,0.709961,0
8330,0.161621,-0.547363,0.714355,0
8350,0.15918,-0.550781,0.714844,0
8370,0.158691,-0.55957,0.719727,0
8380,0.152832,-0.553223,0.728027,0
8400,0.15918,-0.552246,0.725586,0
8420,0.153809,-0.550293,0.726074,0
8440,0.152344,-0.545898,0.730957,0
8460,0.151367,-0.540039,0.724121,0
8480,0.146484,-0.54541,0.726562,0
8500,0.146484,-0.54541,0.727539,0
8520,0.154297,-0.541504,0.739258,0
8540,0.159668,-0.540527,0.730957,0
8560,0.155762,-0.541504,0.727051,0
8580,0.154785,-0.530762,0.726562,0
8600,0.164062,-0.537109,0.730469,0
8620,0.164551,-0.538086,0.727051,0
8640,0.160156,-0.541504,0.736328,0
8660,0.158203,-0.539062,0.720215,0
8680,0.156738,-0.539551,0.722656,0
8700,0.152344,-0.542969,0.721191,0
8720,0.150391,-0.538086,0.725586,0
8740,0.145996,-0.535645,0.724121,0
8760,0.139648,-0.535156,0.730469,0
8780,0.139648,-0.535645,0.729492,0
8800,0.137695,-0.53418,0.735352,0
8820,0.137207,-0.530273,0.72998,0
8840,0.140625,-0.530273,0.736328,0
8860,0.141602,-0.529785,0.729492,0
8880,0.147461,-0.536621,0.729004,0
8900,0.146484,-0.531738,0.733398,0
8920,0.139648,-0.528809,0.725098,0
8940,0.138672,-0.530273,0.728027,0
8960,0.137695,-0.532227,0.730957,0
8980,0.131836,-0.527344,0.732422,0
9000,0.121582,-0.526855,0.730957,0
9020,0.115234,-0.526367,0.72998,0
9040,0.11084,-0.523438,0.728027,0
9060,0.104004,-0.522949,0.71875,0
9080,0.100586,-0.519531,0.716797,0
9100,0.106934,-0.520996,0.710449,0
9120,0.115723,-0.518066,0.709961,0
9140,0.115234,-0.520508,0.681152,0
9160,0.0942383,-0.492676,0.682617,0
9180,0.0756836,-0.452148,0.699219,0
9200,0.0668945,-0.477539,0.662109,0
9220,-0.0151367,-0.463379,0.671875,0
9240,-0.0947266,-0.506836,0.668945,0
9260,-0.0585938,-0.593262,0.662598,0
9280,-0.124023,-0.707031,0.683105,0
9300,-0.181641,-0.643066,0.733398,0
9320,-0.225586,-0.529785,0.680664,0
9340,-0.258789,-0.580078,0.699707,0
9360,-0.262207,-0.584961,0.703613,0
9380,-0.285645,-0.566406,0.719727,0
9400,-0.366699,-0.562012,0.756836,0
9410,-0.397949,-0.574219,0.700684,0
9430,-0.444336,-0.615234,0.671875,0
9450,-0.433105,-0.569336,0.75,0
9450,-0.431152,-0.507812,0.723633,0
9500,-0.441895,-0.615723,0.691406,0
9520,-0.429688,-0.796387,0.748047,0
9540,-0.38623,-0.782227,0.711426,0
9560,-0.374512,-0.62793,0.61377,0
9580,-0.394531,-0.538086,0.597168,0
9600,-0.416016,-0.542969,0.628418,0
9620,-0.433594,-0.575684,0.62793,0
9640,-0.430664,-0.586914,0.638184,0
9660,-0.429199,-0.566895,0.653809,0
9680,-0.420898,-0.557129,0.654297,0
9700,-0.414551,-0.532227,0.664551,0
9720,-0.408203,-0.52832,0.672363,0
9740,-0.40625,-0.524902,0.672852,0
9760,-0.399902,-0.526367,0.661621,0
9780,-0.396973,-0.529297,0.666016,0
9800,-0.405762,-0.537109,0.67041,0
9820,-0.411621,-0.538574,0.668945,0
9840,-0.418457,-0.53418,0.664551,0
9860,-0.414551,-0.535156,0.661133,0
9880,-0.410645,-0.540527,0.663086,0
9900,-0.418457,-0.546387,0.670898,0
9900,-0.415039,-0.553223,0.666992,0
9920,-0.406738,-0.554688,0.666992,0
9940,-0.416016,-0.558594,0.668457,0
9960,-0.424316,-0.55127,0.665039,0
9980,-0.429688,-0.539551,0.661133,0
10000,-0.422363,-0.540527,0.649902,0
10020,-0.424805,-0.538574,0.642578,0
10040,-0.432129,-0.534668,0.649902,0
10060,-0.419434,-0.532715,0.64502,0
10080,-0.409668,-0.540039,0.641602,0
10100,-0.408203,-0.533203,0.64502,0
10120,-0.412598,-0.53418,0.649414,0
10140,-0.412598,-0.532715,0.654785,0
10160,-0.428223,-0.555176,0.648926,0
10180,-0.433594,-0.566406,0.666016,0
10200,-0.428711,-0.592773,0.674805,0
10220,-0.439453,-0.608887,0.692383,0
10240,-0.42627,-0.602051,0.699219,0
10260,-0.446777,-0.594238,0.698242,0
10280,-0.476562,-0.583008,0.703613,0
10300,-0.463379,-0.566406,0.721191,0
10320,-0.447754,-0.566406,0.706055,0
10330,-0.425781,-0.544922,0.696289,0
10350,-0.406738,-0.500977,0.656738,0
10370,-0.398926,-0.499023,0.644531,0
10390,-0.388672,-0.498535,0.631836,0
10410,-0.368164,-0.515625,0.639648,0
10430,-0.353027,-0.52832,0.659668,0
10450,-0.329102,-0.567871,0.670898,0
10470,-0.303711,-0.583984,0.689453,0
10490,-0.290527,-0.581543,0.695801,0
10510,-0.25293,-0.617188,0.697266,0
10530,-0.23291,-0.608398,0.70166,0
10550,-0.199219,-0.603516,0.714355,0
10570,-0.197754,-0.604492,0.696777,0
10590,-0.162109,-0.57373,0.705566,0
10610,-0.185547,-0.488281,0.700195,0
10630,-0.211426,-0.549316,0.712891,0
10650,-0.196777,-0.503906,0.635254,0
10670,-0.240723,-0.59082,0.623535,0
10690,-0.293945,-0.591309,0.603516,0
10710,-0.408691,-0.653809,0.670898,0
10730,-0.378418,-0.633301,0.675293,0
10750,-0.346191,-0.590332,0.625977,0
10770,-0.463379,-0.67041,0.678711,0
10790,-0.583008,-0.538086,0.70459,0
10810,-0.480469,-0.651367,0.592773,0
10830,-0.408691,-0.466797,0.592285,0
10840,-0.474609,-0.450684,0.644531,0
10860,-0.48877,-0.549805,0.600098,0
10880,-0.421387,-0.509277,0.59668,0
10900,-0.374512,-0.475586,0.608398,0
10920,-0.332031,-0.462891,0.637207,0
10940,-0.277832,-0.585938,0.6875,0
10960,-0.286621,-0.656738,0.649902,0
10980,-0.347656,-0.592773,0.607422,0
11000,-0.360352,-0.561035,0.626953,0
11020,-0.38623,-0.593262,0.607422,0
11040,-0.484375,-0.600098,0.638672,0
11060,-0.592773,-0.588379,0.606934,0
11080,-0.628906,-0.492676,0.611816,0
11100,-0.683594,-0.51416,0.587402,0
11120,-0.696777,-0.551758,0.644043,0
11140,-0.620605,-0.585449,0.61084,0
11160,-0.538574,-0.605469,0.592773,0
11180,-0.532227,-0.595215,0.573242,0
11200,-0.57666,-0.579102,0.569336,0
11220,-0.554688,-0.557617,0.563477,0
11240,-0.507812,-0.542969,0.53418,0
11260,-0.522461,-0.542969,0.503418,0
11280,-0.574219,-0.534668,0.46875,0
11300,-0.603516,-0.539551,0.453613,0
11320,-0.609375,-0.562988,0.455566,0
11340,-0.631836,-0.580078,0.450195,0
11360,-0.669922,-0.588867,0.400879,0
11380,-0.67041,-0.574707,0.417969,0
11400,-0.644043,-0.559082,0.450195,0
11420,-0.650391,-0.5625,0.431641,0
11440,-0.673828,-0.583984,0.417969,0
11460,-0.656738,-0.572266,0.438965,0
11480,-0.664551,-0.582031,0.433105,0
11500,-0.649414,-0.606445,0.423828,0
11520,-0.646484,-0.611328,0.427734,0
11540,-0.691895,-0.558594,0.446289,0
11560,-0.700195,-0.532715,0.450195,0
11580,-0.678711,-0.502441,0.455078,0
11600,-0.693359,-0.533691,0.429199,0
11620,-0.749023,-0.541016,0.422852,0
11640,-0.794434,-0.490234,0.441406,0
11660,-0.830566,-0.483398,0.468262,0
11680,-0.821777,-0.513184,0.458496,0
11700,-0.827148,-0.544434,0.441406,0
11720,-0.831543,-0.522461,0.441406,0
11740,-0.816895,-0.506836,0.443359,0
11760,-0.791504,-0.506348,0.426758,0
11780,-0.724609,-0.491699,0.438965,0
11800,-0.688965,-0.535156,0.459961,0
11820,-0.65625,-0.576172,0.406738,0
11840,-0.618164,-0.634277,0.321777,0
11860,-0.556641,-0.625,0.359375,0
11880,-0.582031,-0.516113,0.398926,0
11900,-0.592773,-0.567871,0.390625,0
11920,-0.664062,-0.623535,0.451172,0
11940,-0.686035,-0.600586,0.544922,0
11960,-0.632324,-0.598633,0.498535,0
11980,-0.620605,-0.567871,0.582031,0
12000,-0.572754,-0.604004,0.521973,0
12020,-0.5625,-0.621094,0.484863,0
12040,-0.562988,-0.562988,0.539062,0
12060,-0.529785,-0.554688,0.512207,0
12080,-0.521484,-0.612793,0.493164,0
12100,-0.562012,-0.530273,0.507324,0
12120,-0.561523,-0.522461,0.464844,0
12140,-0.572266,-0.528809,0.469727,0
12160,-0.584473,-0.595703,0.45459,0
12180,-0.575684,-0.642578,0.492676,0
12200,-0.688477,-0.643066,0.525879,0
12220,-0.740234,-0.475586,0.60498,0
12240,-0.498047,-0.549316,0.461426,0
12260,-0.424805,-0.626465,0.42627,0
12280,-0.634766,-0.580078,0.554199,0
12300,-0.631836,-0.64209,0.544922,0
12320,-0.549805,-0.663574,0.483887,0
12340,-0.603027,-0.56543,0.503418,0
12360,-0.604004,-0.507324,0.468262,0
12380,-0.593262,-0.561035,0.444824,0
12400,-0.685547,-0.606445,0.453125,0
12420,-0.819824,-0.572266,0.475098,0
12440,-0.806152,-0.520508,0.527344,0
12460,-0.721191,-0.503906,0.530762,0
12480,-0.729004,-0.546875,0.54248,0
12500,-0.719238,-0.591309,0.558105,0
12520,-0.653809,-0.571777,0.564941,0
12540,-0.608887,-0.558105,0.566406,0
12560,-0.587402,-0.567871,0.537109,0
12580,-0.588379,-0.539062,0.547852,0
12600,-0.61084,-0.553223,0.570801,0
12620,-0.607422,-0.572266,0.589844,0
12640,-0.579102,-0.537598,0.541016,0
12660,-0.580078,-0.584961,0.594238,0
12680,-0.562012,-0.469238,0.580078,0
12700,-0.489258,-0.532715,0.55957,0
12720,-0.432617,-0.628906,0.628418,0
12740,-0.418457,-0.65918,0.599609,0
12760,-0.395996,-0.594727,0.424316,0
12780,-0.462402,-0.54541,0.443359,0
12800,-0.59375,-0.592285,0.474121,0
12820,-0.637207,-0.577637,0.573242,0
12840,-0.567383,-0.628906,0.591797,0
12860,-0.480469,-0.44873,0.620605,0
12880,-0.430664,-0.337402,0.537109,0
12900,-0.529785,-0.294922,0.628418,0
12920,-0.539551,-0.34082,0.639648,0
12940,-0.413086,-0.424805,0.537109,0
12960,-0.475098,-0.492188,0.563965,0
12980,-0.623047,-0.488281,0.678711,0
13000,-0.589355,-0.561035,0.767578,0
13020,-0.493652,-0.464844,0.774414,0
13040,-0.429199,-0.350586,0.673828,0
13060,-0.461914,-0.410645,0.64502,0
13080,-0.561035,-0.544922,0.723145,0
13100,-0.567383,-0.568848,0.685547,0
13120,-0.446777,-0.492188,0.623047,0
13140,-0.366699,-0.486816,0.600586,0
13160,-0.375977,-0.568848,0.65625,0
13180,-0.368164,-0.555664,0.612305,0
13200,-0.361816,-0.639648,0.634766,0
13220,-0.375977,-0.702637,0.703125,0
13240,-0.491699,-0.664551,0.645508,0
13260,-0.624512,-0.552734,0.539551,0
13280,-0.641602,-0.397461,0.540527,0
13300,-0.659668,-0.359375,0.543457,0
13320,-0.828613,-0.424316,0.474121,0
13340,-1.07275,-0.54834,0.398438,0
13360,-1.21289,-0.71582,0.381836,0
13380,-1.09229,-0.713867,0.407227,0
13390,-0.916504,-0.554199,0.407227,0
13410,-0.779785,-0.378418,0.490234,0
13430,-0.598145,-0.275879,0.459961,0
13450,-0.44043,-0.286621,0.466797,0
13470,-0.410156,-0.321289,0.467773,0
13490,-0.498047,-0.348633,0.439941,0
13510,-0.640625,-0.452148,0.460938,0
13530,-0.677734,-0.510254,0.56543,0
13550,-0.61084,-0.532715,0.645996,0
13570,-0.611816,-0.444336,0.675781,0
13590,-0.63623,-0.393555,0.609863,0
13610,-0.557617,-0.547852,0.464844,0
13630,-0.563965,-0.745605,0.441895,0
13650,-0.708496,-0.783203,0.444824,0
13670,-0.811523,-0.674316,0.398926,0
13690,-0.799316,-0.574219,0.366211,0
13710,-0.805176,-0.502441,0.343262,0
13730,-0.869629,-0.40625,0.344727,0
13750,-0.96875,-0.364258,0.32373,0
13770,-0.973145,-0.425293,0.293457,0
13790,-0.96875,-0.47998,0.337402,0
13810,-0.919922,-0.443848,0.388672,0
13830,-0.84375,-0.434082,0.46875,0
13850,-0.800293,-0.583496,0.576172,0
13870,-0.759766,-0.701172,0.600586,0
13890,-0.710938,-0.748047,0.558105,0
13910,-0.672852,-0.730957,0.533691,0
13930,-0.613281,-0.631348,0.594238,0
13950,-0.519043,-0.466797,0.648438,0
13970,-0.319824,-0.547852,0.602539,0
13990,-0.233887,-0.621582,0.623535,0
14010,-0.250488,-0.639648,0.532227,0
14030,-0.22168,-0.522949,0.555664,0
14050,-0.100098,-0.463867,0.614746,0
14070,0.000976562,-0.559082,0.65625,0
14090,-0.0209961,-0.619629,0.713379,0
14110,-0.059082,-0.628906,0.638672,0
14130,-0.0317383,-0.65918,0.745117,0
14150,-0.0766602,-0.72998,0.810059,0
14170,-0.0512695,-0.723633,0.699219,0
14190,-0.0800781,-0.557129,0.672852,0
14210,-0.120605,-0.400879,0.80127,0
14230,-0.147461,-0.20752,0.799316,0
14250,-0.182617,-0.198242,0.675781,0
14270,-0.210449,-0.320312,0.700195,0
14280,-0.230957,-0.436523,0.722656,0
14290,-0.354492,-0.594727,0.741211,0
14330,-0.483398,-0.688965,0.730957,0
14350,-0.552734,-0.702637,0.671387,0
14370,-0.601074,-0.670898,0.641113,0
14390,-0.640137,-0.583496,0.597656,0
14410,-0.703125,-0.444336,0.599609,0
14430,-0.767578,-0.367188,0.615723,0
14450,-0.771973,-0.32373,0.640625,0
14470,-0.725586,-0.338379,0.583008,0
14490,-0.702637,-0.464355,0.558105,0
14510,-0.707031,-0.60498,0.539062,0
14530,-0.580566,-0.572266,0.495605,0
14550,-0.490234,-0.619141,0.452637,0
14570,-0.524414,-0.560059,0.549805,0
14590,-0.548828,-0.486328,0.591309,0
14610,-0.518555,-0.556641,0.634277,0
14630,-0.478516,-0.553711,0.706055,0
14650,-0.443848,-0.541504,0.734375,0
14670,-0.418457,-0.502441,0.72998,0
14690,-0.432129,-0.470703,0.723145,0
14710,-0.45166,-0.473145,0.695801,0
14730,-0.4375,-0.476562,0.650879,0
14750,-0.428711,-0.508301,0.613281,0
14770,-0.421387,-0.51416,0.620605,0
14790,-0.433594,-0.501953,0.62207,0
14810,-0.440918,-0.524414,0.65332,0
14830,-0.443359,-0.548828,0.675293,0
14850,-0.453613,-0.526855,0.716797,0
14870,-0.460938,-0.491211,0.71875,0
14890,-0.480957,-0.482422,0.70459,0
14910,-0.493652,-0.47998,0.688477,0
14930,-0.513672,-0.472656,0.659668,0
14950,-0.520996,-0.480469,0.63916,0
14970,-0.498535,-0.451172,0.635742,0
14990,-0.494141,-0.454102,0.62207,0
15010,-0.470703,-0.464844,0.623047,0
15030,-0.462402,-0.497559,0.623535,0
15050,-0.461914,-0.508301,0.635742,0
15070,-0.473633,-0.512207,0.649902,0
15090,-0.481934,-0.514648,0.666016,0
15110,-0.466309,-0.501953,0.670898,0
15140,-0.393066,-0.481934,0.67041,0
15160,-0.407227,-0.48584,0.688965,0
15180,-0.446777,-0.460938,0.713867,0
15200,-0.480469,-0.448242,0.733398,0
15220,-0.509766,-0.430664,0.712402,0
15240,-0.538086,-0.435059,0.690918,0
15270,-0.515625,-0.425781,0.69043,0
15290,-0.481445,-0.447266,0.69873,0
15310,-0.467285,-0.460449,0.711426,0
15330,-0.465332,-0.45459,0.71875,0
15350,-0.464844,-0.480957,0.706543,0
15370,-0.479492,-0.492188,0.707031,0
15390,-0.535645,-0.486328,0.688477,0
15410,-0.598145,-0.556152,0.644043,0
15430,-0.72168,-0.519531,0.639648,0
15450,-0.817871,-0.50293,0.683105,0
15470,-0.768066,-0.666992,0.795898,0
15490,-0.546875,-0.80957,0.899902,0
15510,-0.366211,-0.883301,0.921875,0
15530,-0.299316,-0.924805,1.02881,0
15550,-0.1875,-0.958984,1.04395,0
15570,0.0283203,-0.839355,0.946289,0
15590,0.186523,-0.716797,0.939941,0
15610,0.345703,-0.640625,0.826172,0
15630,0.432617,-0.605957,0.71875,0
15650,0.441406,-0.568359,0.678711,0
15670,0.412598,-0.532715,0.585449,0
15690,0.437012,-0.483887,0.494141,0
15710,0.520508,-0.504883,0.48877,0
15730,0.515625,-0.458984,0.418457,0
15750,0.583008,-0.431641,0.317871,0
15770,0.651367,-0.475586,0.214844,0
15790,0.647461,-0.426758,0.213379,0
15810,0.673828,-0.406738,0.196289,0
15830,0.696777,-0.410156,0.0883789,0
15850,0.665039,-0.424316,-0.00537109,0
15870,0.601074,-0.436523,-0.0532227,0
15880,0.59375,-0.452637,-0.0605469,0
15900,0.580078,-0.453125,-0.0883789,0
15920,0.572266,-0.458008,-0.0996094,0
15940,0.601562,-0.515137,-0.118652,0
15960,0.57373,-0.513672,-0.124512,0
15980,0.639648,-0.513672,-0.10498,0
16000,0.636719,-0.493652,-0.163086,0
16020,0.67334,-0.567871,-0.164551,0
16040,0.699707,-0.641602,-0.194824,0
16060,0.728516,-0.615234,-0.209961,0
16080,0.754883,-0.633789,-0.231934,0
16100,0.804688,-0.646484,-0.193359,0
16120,0.85498,-0.587402,-0.219727,0
16140,0.840332,-0.59082,-0.230469,0
16160,0.845215,-0.566406,-0.241699,0
16180,0.821289,-0.558105,-0.244629,0
16200,0.802734,-0.534668,-0.248535,0
16220,0.790039,-0.496094,-0.224121,0
16240,0.789062,-0.473633,-0.25,0
16260,0.736328,-0.467773,-0.280762,0
16280,0.770996,-0.473633,-0.240234,0
16300,0.765137,-0.443359,-0.186523,0
16320,0.765625,-0.444824,-0.210449,0
16340,0.780762,-0.444824,-0.224609,0
16360,0.773926,-0.492188,-0.227539,0
16380,0.758301,-0.507324,-0.242676,0
16400,0.750488,-0.525879,-0.223633,0
16420,0.718262,-0.532227,-0.222656,0
16440,0.720703,-0.54248,-0.23877,0
16460,0.759277,-0.536133,-0.248047,0
16480,0.805176,-0.503906,-0.233398,0
16500,0.817383,-0.507324,-0.236816,0
16520,0.806641,-0.512695,-0.262207,0
16540,0.834473,-0.513672,-0.236816,0
16560,0.851074,-0.51416,-0.220215,0
16580,0.839355,-0.54248,-0.191895,0
16600,0.841797,-0.555664,-0.196777,0
16620,0.818848,-0.567383,-0.212891,0
16640,0.801758,-0.567871,-0.233398,0
16660,0.791016,-0.555664,-0.20166,0
16680,0.772461,-0.541992,-0.175781,0
16700,0.779785,-0.561523,-0.200684,0
16720,0.777344,-0.546875,-0.197266,0
16740,0.799316,-0.53418,-0.186035,0
16760,0.794434,-0.540527,-0.188477,0
16780,0.785645,-0.532715,-0.189941,0
16800,0.807129,-0.515625,-0.175781,0
16820,0.856934,-0.549805,-0.183594,0
16840,0.822754,-0.549316,-0.193848,0
16860,0.8125,-0.545898,-0.224121,0
16880,0.837891,-0.560059,-0.238281,0
16900,0.841797,-0.552246,-0.239258,0
16920,0.83252,-0.559082,-0.229492,0
16940,0.828613,-0.566406,-0.208496,0
16960,0.815918,-0.546387,-0.212402,0
16980,0.819336,-0.543945,-0.21582,0
17000,0.837402,-0.543457,-0.228516,0
17020,0.841797,-0.539062,-0.243652,0
17040,0.802734,-0.541504,-0.241211,0
17060,0.781738,-0.537109,-0.222656,0
17080,0.763672,-0.530273,-0.227051,0
17100,0.774414,-0.522461,-0.227051,0
17120,0.789062,-0.538574,-0.222656,0
17140,0.775391,-0.518066,-0.230469,0
17160,0.762695,-0.528809,-0.224121,0
17180,0.790527,-0.530762,-0.227539,0
17200,0.781738,-0.54834,-0.224121,0
17220,0.766113,-0.510742,-0.213867,0
17240,0.78125,-0.510742,-0.241699,0
17280,0.800781,-0.525391,-0.233398,0
17300,0.819824,-0.536133,-0.247559,0
17320,0.828125,-0.536133,-0.254395,0
17340,0.847168,-0.49707,-0.257812,0
17360,0.864746,-0.492676,-0.255371,0
17380,0.879883,-0.529297,-0.303711,0
17410,0.843262,-0.496094,-0.231445,0
17430,0.841797,-0.515137,-0.202148,0
17450,0.830566,-0.523926,-0.220703,0
17470,0.79248,-0.504395,-0.187988,0
17510,0.79541,-0.531738,-0.208496,0
17530,0.804199,-0.51123,-0.20166,0
17560,0.817871,-0.502441,-0.191406,0
17580,0.851074,-0.498047,-0.177734,0
17600,0.865234,-0.5,-0.188477,0
17620,0.858887,-0.498047,-0.193848,0
17640,0.84668,-0.490723,-0.211914,0
17660,0.859375,-0.493652,-0.209961,0
17670,0.848145,-0.495117,-0.210938,0
17700,0.86377,-0.492188,-0.217773,0
17720,0.865234,-0.49707,-0.210938,0
17740,0.855957,-0.492676,-0.208984,0
17760,0.855469,-0.495605,-0.208008,0
17770,0.824707,-0.481934,-0.222168,0
17790,0.81543,-0.477051,-0.226074,0
17810,0.82666,-0.480957,-0.23291,0
17830,0.784668,-0.489258,-0.222656,0
17850,0.775391,-0.48877,-0.21875,0
17880,0.847656,-0.496582,-0.268555,0
17900,0.851562,-0.486816,-0.305176,0
17920,0.856934,-0.480957,-0.293945,0
17930,0.842285,-0.506348,-0.316406,0
17950,0.827148,-0.505859,-0.314941,0
17970,0.805664,-0.50293,-0.306152,0
17990,0.777344,-0.478516,-0.289551,0
18010,0.783203,-0.469238,-0.292969,0
18030,0.79834,-0.456055,-0.276855,0
18050,0.818359,-0.458496,-0.266113,0
18070,0.818848,-0.440918,-0.258301,0
18100,0.862793,-0.460449,-0.228516,0
18130,0.867676,-0.466309,-0.243652,0
18160,0.859863,-0.486816,-0.237793,0
18170,0.84375,-0.498535,-0.23291,0
18180,0.834473,-0.48877,-0.239746,0
18200,0.822266,-0.492188,-0.240723,0
18220,0.835449,-0.48877,-0.23291,0
18240,0.822266,-0.481445,-0.227051,0
18260,0.817871,-0.475586,-0.225098,0
18280,0.833984,-0.480469,-0.227051,0
18290,0.821777,-0.472656,-0.223633,0
18310,0.847656,-0.481934,-0.223633,0
18310,0.837402,-0.490723,-0.25,0
18330,0.830078,-0.498535,-0.272949,0
18350,0.763672,-0.500488,-0.259277,0
18380,0.794922,-0.48877,-0.265137,0
18410,0.844238,-0.483398,-0.273438,0
18430,0.855469,-0.47998,-0.275879,0
18440,0.851562,-0.501465,-0.249023,0
18460,0.82959,-0.503418,-0.257812,0
18460,0.814453,-0.503906,-0.258789,0
18480,0.802246,-0.504883,-0.244629,0
18500,0.823242,-0.485352,-0.265137,0
18520,0.838867,-0.481934,-0.274414,0
18540,0.82373,-0.494141,-0.27832,0
18560,0.810547,-0.479492,-0.304688,0
18560,0.793945,-0.483398,-0.32373,0
18560,0.78125,-0.480957,-0.328125,0
18570,0.824707,-0.487305,-0.344727,0
18590,0.82373,-0.490234,-0.342285,0
18590,0.78125,-0.491211,-0.328613,0
18610,0.790039,-0.48291,-0.34668,0
18620,0.810547,-0.501953,-0.34375,0
18640,0.793945,-0.504883,-0.347656,0
18680,0.792969,-0.484863,-0.317871,0
18710,0.784668,-0.447266,-0.286133,0
18710,0.894531,-0.416992,-0.271484,0
18730,0.908203,-0.436035,-0.280762,0
18750,0.920898,-0.452148,-0.250977,0
18770,0.910645,-0.442383,-0.225586,0
18790,0.904297,-0.484375,-0.225586,0
18810,0.852539,-0.505859,-0.229004,0
18830,0.800781,-0.499512,-0.153809,0
18850,0.810547,-0.490234,-0.166992,0
18880,0.808105,-0.497559,-0.166016,0
18900,0.798828,-0.500977,-0.154785,0
18920,0.791016,-0.493164,-0.147949,0
18940,0.805176,-0.505371,-0.148926,0
18960,0.805664,-0.526367,-0.149414,0
18980,0.807617,-0.533203,-0.144531,0
19000,0.819336,-0.54541,-0.160645,0
19040,0.831055,-0.541992,-0.154785,0
19080,0.792969,-0.549316,-0.160156,0
19090,0.802734,-0.549316,-0.146484,0
19110,0.797363,-0.537109,-0.149414,0
19130,0.82666,-0.535645,-0.15625,0
19150,0.837402,-0.521973,-0.157227,0
19170,0.810547,-0.534668,-0.161133,0
19190,0.808594,-0.53125,-0.165527,0
19210,0.816406,-0.52832,-0.166504,0
19230,0.827148,-0.524902,-0.165527,0
19250,0.833984,-0.504883,-0.195801,0
19270,0.824219,-0.50293,-0.200195,0
19270,0.837891,-0.519043,-0.185059,0
19290,0.807617,-0.511719,-0.184082,0
19310,0.816895,-0.514648,-0.192383,0
19330,0.810547,-0.512695,-0.189453,0
19350,0.825684,-0.51123,-0.208008,0
19370,0.832031,-0.513184,-0.211426,0
19390,0.82373,-0.513672,-0.205566,0
19430,0.828613,-0.511719,-0.216797,0
19480,0.792969,-0.48877,-0.195801,0
19500,0.793945,-0.509766,-0.192871,0
19540,0.875977,-0.540039,-0.213379,0
19560,0.85791,-0.552734,-0.208496,0
19580,0.813965,-0.541504,-0.203125,0
19590,0.793945,-0.548828,-0.20459,0
19600,0.746094,-0.422852,-0.161133,0
19610,0.751953,-0.39502,-0.208008,0
19630,0.76709,-0.430664,-0.227051,0
19650,0.807617,-0.428223,-0.195312,0
19670,0.863281,-0.390625,-0.202148,0
19690,0.895508,-0.380859,-0.223145,0
19710,0.831543,-0.396484,-0.25293,0
19730,0.753418,-0.416016,-0.196289,0
19750,0.753418,-0.418945,-0.155762,0
19770,0.733398,-0.411133,-0.0991211,0
19790,0.680664,-0.406738,-0.0322266,0
19810,0.618652,-0.411621,0.0351562,0
19830,0.605957,-0.379883,0.11377,0
19850,0.643555,-0.370117,0.172852,0
19870,0.70459,-0.356445,0.233398,0
19890,0.73291,-0.348633,0.272461,0
19910,0.786133,-0.379395,0.311035,0
19930,0.776855,-0.402344,0.356934,0
19950,0.744141,-0.409668,0.435547,0
19960,0.724609,-0.511719,0.492188,0
19980,0.749512,-0.569824,0.561523,0
20000,0.664551,-0.600098,0.611328,0
20020,0.625488,-0.639648,0.625,0
20040,0.575684,-0.625,0.690918,0
20060,0.483398,-0.580566,0.790527,0
20080,0.374512,-0.458496,0.819336,0
20100,0.293945,-0.477051,0.864746,0
20120,0.171387,-0.555664,0.88623,0
20140,-0.00585938,-0.461914,0.921387,0
20160,-0.097168,-0.481445,0.985352,0
20180,-0.122559,-0.591797,1.06104,0
20200,-0.0986328,-0.530273,0.989258,0
20220,-0.150879,-0.428711,0.920898,0
20240,-0.210449,-0.456055,0.877441,0
20260,-0.243652,-0.500488,0.82959,0
20280,-0.368164,-0.59668,0.827637,0
20300,-0.232422,-0.544922,0.810059,0
20320,-0.162109,-0.441895,0.692383,0
20340,-0.390625,-0.350098,0.687988,0
20360,-0.571777,-0.286621,0.73291,0
20380,-0.568848,-0.353027,0.697266,0
20400,-0.491211,-0.421875,0.714844,0
20420,-0.393555,-0.38623,0.760742,0
20440,-0.440918,-0.39209,0.771973,0
20460,-0.33252,-0.298828,0.699219,0
20480,-0.391113,-0.230469,0.742676,0
20500,-0.357422,-0.172363,0.731445,0
20520,-0.425293,-0.238281,0.763184,0
20540,-0.550293,-0.404785,0.816406,0
20560,-0.648926,-0.48877,0.911621,0
20580,-0.612305,-0.563477,0.91748,0
20600,-0.486328,-0.488281,0.749023,0
20620,-0.467285,-0.424316,0.674316,0
20640,-0.412598,-0.462402,0.660156,0
20660,-0.416504,-0.459961,0.670898,0
20680,-0.445801,-0.390625,0.746094,0
20700,-0.437012,-0.319824,0.808105,0
20720,-0.430176,-0.308594,0.79248,0
20740,-0.419922,-0.354004,0.765625,0
20760,-0.408203,-0.414551,0.741699,0
20780,-0.408691,-0.425781,0.741211,0
20800,-0.430176,-0.404785,0.748047,0
20820,-0.44873,-0.381836,0.739746,0
20840,-0.449219,-0.368652,0.726562,0
20860,-0.456055,-0.388184,0.725098,0
20880,-0.443359,-0.391602,0.724121,0
20900,-0.443359,-0.394043,0.726562,0
20920,-0.435547,-0.379395,0.733887,0
20940,-0.428711,-0.372559,0.750488,0
20960,-0.425781,-0.373047,0.75293,0
20980,-0.426758,-0.374512,0.751465,0
21000,-0.429688,-0.373047,0.762695,0
21020,-0.433105,-0.369629,0.755371,0
21040,-0.43457,-0.370117,0.755371,0
21060,-0.439941,-0.379395,0.745117,0
21080,-0.439453,-0.383789,0.744629,0
21100,-0.441406,-0.379395,0.745605,0
21120,-0.430176,-0.370605,0.75293,0
21140,-0.427734,-0.373047,0.753906,0
21160,-0.430176,-0.374023,0.750488,0
21180,-0.433105,-0.373535,0.75,0
21200,-0.432617,-0.372559,0.752441,0
21220,-0.429688,-0.369141,0.753906,0
21240,-0.432129,-0.373047,0.757324,0
21260,-0.43457,-0.371094,0.746582,0
21300,-0.4375,-0.378418,0.739746,0
21320,-0.433594,-0.375977,0.749023,0
21340,-0.4375,-0.374512,0.742676,0
21360,-0.429688,-0.373047,0.742676,0
21380,-0.430664,-0.374023,0.756836,0
21400,-0.432129,-0.367188,0.753418,0
21420,-0.429199,-0.374023,0.759766,0
21440,-0.430664,-0.371582,0.752441,0
21460,-0.433105,-0.367676,0.75,0
21480,-0.430176,-0.375488,0.755859,0
21500,-0.436035,-0.375,0.749512,0
21520,-0.420898,-0.375977,0.754395,0
21540,-0.42041,-0.368164,0.759277,0
21560,-0.4375,-0.365723,0.755371,0
21580,-0.431152,-0.371094,0.753906,0
21600,-0.431152,-0.369629,0.743652,0
21620,-0.436523,-0.376953,0.746094,0
21640,-0.445801,-0.380371,0.746582,0
21660,-0.436523,-0.387207,0.745117,0
21680,-0.427734,-0.382324,0.755371,0
21700,-0.429199,-0.369629,0.755371,0
21720,-0.426758,-0.36084,0.759766,0
21740,-0.42041,-0.364258,0.765137,0
21760,-0.421387,-0.369141,0.756348,0
21780,-0.423828,-0.375,0.74707,0
21790,-0.429688,-0.37207,0.751953,0
21810,-0.429199,-0.368164,0.74707,0
21830,-0.436523,-0.370605,0.756836,0
21850,-0.434082,-0.367188,0.751465,0
21870,-0.435059,-0.370605,0.749023,0
21890,-0.432617,-0.369141,0.75,0
21910,-0.426758,-0.371094,0.751953,0
21930,-0.429688,-0.366211,0.743652,0
21950,-0.430664,-0.371094,0.743164,0
21970,-0.428711,-0.374023,0.751953,0
21990,-0.430664,-0.372559,0.749512,0
22010,-0.430176,-0.371582,0.759766,0
22030,-0.428223,-0.373047,0.754395,0
22040,-0.42627,-0.367188,0.755371,0
22060,-0.427246,-0.370117,0.748535,0
22080,-0.426758,-0.361816,0.754395,0
22100,-0.428711,-0.365234,0.755859,0
22120,-0.427246,-0.363281,0.758789,0
22140,-0.425293,-0.36377,0.756348,0
22160,-0.427246,-0.363281,0.757812,0
22180,-0.427246,-0.366211,0.752441,0
22200,-0.430176,-0.362793,0.75293,0
22220,-0.427734,-0.369629,0.758789,0
22240,-0.425293,-0.367676,0.756348,0
22260,-0.424316,-0.377441,0.756348,0
22280,-0.421875,-0.373047,0.758301,0
22300,-0.42041,-0.369141,0.757324,0
22320,-0.421387,-0.356445,0.758789,0
22340,-0.428711,-0.356934,0.757324,0
22360,-0.432129,-0.36084,0.762695,0
22380,-0.428711,-0.354004,0.756836,0
22400,-0.433105,-0.368164,0.755371,0
22420,-0.42627,-0.37207,0.753906,0
22440,-0.430176,-0.374023,0.754883,0
22460,-0.431152,-0.364746,0.759766,0
22480,-0.433105,-0.365723,0.757324,0
22500,-0.424805,-0.366699,0.75293,0
22550,-0.424805,-0.364258,0.768066,0
22570,-0.42627,-0.367188,0.768555,0
22590,-0.428711,-0.36084,0.762695,0
22610,-0.427246,-0.359375,0.754883,0
22630,-0.43457,-0.362305,0.751465,0
22650,-0.430664,-0.355957,0.747559,0
22670,-0.434082,-0.359863,0.748047,0
22690,-0.433105,-0.356934,0.750977,0
22710,-0.437988,-0.359375,0.76123,0
22730,-0.430176,-0.365234,0.751953,0
22750,-0.430664,-0.360352,0.751465,0
22770,-0.430176,-0.367676,0.761719,0
22790,-0.431152,-0.366699,0.752441,0
22810,-0.432129,-0.365234,0.751953,0
22830,-0.428223,-0.364746,0.753418,0
22850,-0.427734,-0.364258,0.756348,0
22890,-0.432129,-0.359863,0.752441,0
22910,-0.432129,-0.361328,0.754395,0
22930,-0.433105,-0.360352,0.758301,0
22950,-0.435059,-0.364746,0.750977,0
22970,-0.433594,-0.365234,0.752441,0
22990,-0.433105,-0.363281,0.755371,0
23010,-0.434082,-0.359375,0.753906,0
23030,-0.431641,-0.356445,0.755859,0
23050,-0.428223,-0.360352,0.757324,0
23070,-0.433105,-0.364258,0.747559,0
23090,-0.427734,-0.35791,0.752441,0
23110,-0.426758,-0.360352,0.755859,0
23130,-0.429688,-0.360352,0.758301,0
23150,-0.428711,-0.368652,0.76123,0
23170,-0.428223,-0.36377,0.753418,0
23190,-0.430664,-0.367676,0.756348,0
23210,-0.429199,-0.362793,0.75293,0
23230,-0.428223,-0.370117,0.758789,0
23250,-0.428711,-0.365723,0.758301,0
23270,-0.432617,-0.365234,0.759277,0
23290,-0.434082,-0.361328,0.760742,0
23310,-0.429199,-0.367676,0.75293,0
23330,-0.426758,-0.369141,0.756348,0
23350,-0.431641,-0.364746,0.757812,0
23370,-0.431152,-0.359863,0.75293,0
23390,-0.42627,-0.357422,0.758789,0
23410,-0.427734,-0.358398,0.759277,0
23430,-0.425781,-0.360352,0.757324,0
23450,-0.429688,-0.363281,0.762695,0
23470,-0.424316,-0.364258,0.760254,0
23490,-0.430176,-0.359375,0.759277,0
23510,-0.428223,-0.35791,0.762695,0
23530,-0.431641,-0.356934,0.759766,0
23550,-0.428223,-0.358887,0.759766,0
23590,-0.430664,-0.361328,0.76123,0
23610,-0.428223,-0.35791,0.753906,0
23630,-0.425293,-0.359375,0.748535,0
23650,-0.429199,-0.364258,0.758789,0
23670,-0.42627,-0.362793,0.756348,0
23690,-0.430664,-0.361816,0.755371,0
23710,-0.42334,-0.361328,0.751465,0
23730,-0.428223,-0.36084,0.76123,0
23750,-0.426758,-0.363281,0.765625,0
23770,-0.430176,-0.355469,0.756836,0
23790,-0.429199,-0.361816,0.754395,0
23810,-0.431152,-0.358398,0.757324,0
23830,-0.429688,-0.366211,0.756348,0
23850,-0.430176,-0.362793,0.755859,0
23870,-0.429688,-0.359375,0.755859,0
23890,-0.424805,-0.35498,0.758789,0
23910,-0.42627,-0.359863,0.762207,0
23930,-0.427246,-0.363281,0.749512,0
23950,-0.425781,-0.369629,0.749023,0
23970,-0.427734,-0.36377,0.759277,0
23990,-0.427734,-0.360352,0.754395,0
24010,-0.42627,-0.361816,0.755371,0
24050,-0.425781,-0.361328,0.759277,0
24070,-0.425293,-0.362305,0.756348,0
24090,-0.426758,-0.362793,0.756348,0
24110,-0.42627,-0.360352,0.760742,0
24130,-0.430176,-0.361816,0.753418,0
24150,-0.432129,-0.36377,0.759766,0
24170,-0.430176,-0.362305,0.756836,0
24190,-0.427246,-0.367188,0.756836,0
24210,-0.430176,-0.36377,0.755371,0
24230,-0.430664,-0.358887,0.760254,0
24250,-0.429199,-0.361328,0.755859,0
24310,-0.425781,-0.362305,0.759277,0
24330,-0.429199,-0.35791,0.756836,0
24350,-0.423828,-0.359863,0.757812,0
24370,-0.429688,-0.360352,0.76709,0
24390,-0.428711,-0.358398,0.765137,0
24410,-0.425781,-0.360352,0.759277,0
24430,-0.430176,-0.358398,0.755371,0
24450,-0.428223,-0.362793,0.758789,0
24470,-0.430176,-0.359863,0.751465,0
24490,-0.429199,-0.36084,0.753418,0
24510,-0.427734,-0.355957,0.760254,0
24530,-0.426758,-0.355469,0.757812,0
24540,-0.42627,-0.356934,0.76123,0
24560,-0.424805,-0.358398,0.752441,0
24580,-0.424316,-0.364746,0.756348,0
24600,-0.425781,-0.358887,0.760254,0
24620,-0.42627,-0.35498,0.758301,0
24640,-0.423828,-0.351562,0.758789,0
24660,-0.428711,-0.36084,0.760742,0
24680,-0.424316,-0.35791,0.758301,0
24700,-0.422852,-0.359863,0.753418,0
24720,-0.427734,-0.354492,0.759766,0
24740,-0.427246,-0.35791,0.756836,0
24760,-0.427734,-0.35791,0.764648,0
24780,-0.432129,-0.356934,0.755371,0
24800,-0.429688,-0.354492,0.758301,0
24820,-0.427246,-0.360352,0.759766,0
24840,-0.428711,-0.359375,0.76123,0
24860,-0.424805,-0.356934,0.765625,0
24880,-0.423828,-0.357422,0.760254,0
24900,-0.429199,-0.358398,0.762207,0
24920,-0.423828,-0.358887,0.758301,0
24940,-0.421875,-0.359375,0.756836,0
24960,-0.424805,-0.359375,0.76123,0
24970,-0.424805,-0.358887,0.754395,0
24990,-0.424316,-0.358887,0.756836,0
25010,-0.42334,-0.351562,0.769043,0
25030,-0.430664,-0.352051,0.762207,0
25040,-0.424805,-0.356934,0.757324,0
25060,-0.425293,-0.362793,0.756836,0
25080,-0.42627,-0.35791,0.76416,0
25100,-0.428223,-0.359863,0.755859,0
25120,-0.426758,-0.351074,0.762207,0
25140,-0.427734,-0.354004,0.768066,0
25160,-0.425293,-0.346191,0.762695,0
25180,-0.426758,-0.353516,0.758301,0
25200,-0.42627,-0.354492,0.760254,0
25220,-0.42627,-0.356445,0.758301,0
25240,-0.424805,-0.349609,0.759277,0
25250,-0.424805,-0.347168,0.769043,0
25270,-0.42627,-0.348633,0.765625,0
25290,-0.429199,-0.353027,0.762207,0
25310,-0.42627,-0.353516,0.758789,0
25330,-0.428711,-0.359375,0.754395,0
25350,-0.428711,-0.350586,0.755859,0
25370,-0.425781,-0.348145,0.756348,0
25390,-0.427734,-0.350098,0.763184,0
25410,-0.427734,-0.347168,0.760742,0
25430,-0.429688,-0.350098,0.760742,0
25450,-0.427734,-0.350098,0.76416,0
25470,-0.425781,-0.356934,0.761719,0
25490,-0.425293,-0.355957,0.766113,0
25530,-0.420898,-0.350098,0.763184,0
25550,-0.423828,-0.349121,0.773438,0
25570,-0.418457,-0.34375,0.774902,0
25590,-0.420898,-0.348633,0.761719,0
25610,-0.42627,-0.351074,0.761719,0
25630,-0.419922,-0.343262,0.758789,0
25650,-0.417969,-0.348633,0.768066,0
25670,-0.416504,-0.355469,0.766602,0
25690,-0.421875,-0.35498,0.776367,0
25710,-0.434082,-0.382812,0.766602,0
25730,-0.449707,-0.410645,0.757812,0
25740,-0.450684,-0.405273,0.784668,0
25760,-0.472656,-0.372559,0.791016,0
25780,-0.513184,-0.409668,0.712891,0
25800,-0.541992,-0.505859,0.692383,0
25820,-0.588379,-0.53418,0.693359,0
25840,-0.565918,-0.564941,0.675293,0
25860,-0.491211,-0.561523,0.616211,0
25880,-0.508301,-0.536133,0.644043,0
25900,-0.481445,-0.497559,0.65625,0
25920,-0.436523,-0.462891,0.640137,0
25940,-0.39209,-0.474609,0.648926,0
25960,-0.391602,-0.458984,0.658203,0
25980,-0.414062,-0.478516,0.599609,0
26000,-0.439453,-0.539551,0.575684,0
26020,-0.538574,-0.539062,0.598633,0
26040,-0.649902,-0.523926,0.560547,0
26060,-0.674805,-0.536133,0.518555,0
26080,-0.633301,-0.541504,0.521484,0
26100,-0.638672,-0.48584,0.539551,0
26120,-0.660645,-0.480469,0.563965,0
26140,-0.697754,-0.515137,0.592773,0
26160,-0.655762,-0.606445,0.552734,0
26180,-0.665527,-0.626465,0.640625,0
26200,-0.67627,-0.638184,0.665039,0
26220,-0.630371,-0.668457,0.699219,0
26240,-0.585938,-0.720703,0.722656,0
26260,-0.493164,-0.709473,0.721191,0
26280,-0.421387,-0.711914,0.700195,0
26300,-0.361328,-0.75293,0.717285,0
26320,-0.337402,-0.709961,0.678223,0
26340,-0.337402,-0.626465,0.64209,0
26360,-0.275391,-0.611328,0.658203,0
26380,-0.237305,-0.586914,0.730957,0
26400,-0.199219,-0.561035,0.697266,0
26420,-0.186523,-0.583496,0.692871,0
26440,-0.164551,-0.560059,0.703125,0
26460,-0.10791,-0.560059,0.677246,0
26480,-0.0849609,-0.56543,0.634766,0
26500,-0.0742188,-0.564941,0.602539,0
26520,0.00976562,-0.541992,0.571777,0
26540,0.0541992,-0.581543,0.540039,0
26560,0.0390625,-0.592285,0.519531,0
26580,0.0629883,-0.585449,0.493164,0
26600,0.0625,-0.608398,0.519043,0
26620,0.0458984,-0.631348,0.510742,0
26640,0.0585938,-0.648438,0.523926,0
26660,0.0302734,-0.652344,0.537109,0
26660,-0.00488281,-0.658203,0.548828,0
26680,-0.0463867,-0.65625,0.57666,0
26700,-0.046875,-0.649902,0.583496,0
26720,-0.0234375,-0.650391,0.498047,0
26740,-0.0327148,-0.627441,0.424316,0
26760,0.143066,-0.625,0.697754,0
26780,0.162109,-0.602539,0.392578,0
26810,0.0405273,-0.587891,0.388672,0
26840,0.050293,-0.67334,0.501465,0
26860,-0.364746,-0.545898,0.623047,0
26880,-0.484863,-0.97168,1.35693,0
26900,-0.150391,-1.125,0.755859,0
26920,-0.385742,-0.924805,0.848145,0
26930,-0.475098,-0.802246,0.791016,0
26950,-0.373535,-0.818848,0.855957,0
26970,-0.325684,-0.848633,0.847656,0
26990,-0.366211,-0.931152,0.811523,0
27010,-0.451172,-1.01172,0.856934,0
27030,-0.425781,-0.947754,0.848633,0
27050,-0.44043,-0.90625,0.714844,0
27070,-0.514648,-0.891602,0.615234,0
27090,-0.589355,-0.809082,0.626953,0
27110,-0.564941,-0.723633,0.533203,0
27140,-0.541992,-0.681152,0.458984,0
27160,-0.574707,-0.594727,0.427734,0
27180,-0.580078,-0.569336,0.304199,0
27200,-0.541504,-0.584473,0.279785,0
27220,-0.501953,-0.553711,0.318848,0
27240,-0.479492,-0.578125,0.286621,0
27260,-0.495117,-0.647461,0.268066,0
27280,-0.445312,-0.633789,0.25293,0
27300,-0.402832,-0.631836,0.278809,0
27320,-0.342773,-0.637207,0.331055,0
27340,-0.320801,-0.611328,0.361328,0
27360,-0.229492,-0.630859,0.351562,0
27380,-0.131348,-0.61084,0.405273,0
27400,-0.0786133,-0.584473,0.350098,0
27400,0.0375977,-0.627441,0.353027,0
27420,0.13623,-0.63916,0.316406,0
27440,0.164062,-0.685547,0.27002,0
27460,0.181641,-0.731934,0.196777,0
27500,-0.0126953,-1.06006,0.172363,0
27510,-0.0224609,-1.00391,0.351562,0
27530,0.0844727,-1.02002,0.614746,0
27550,-0.186523,-1.02539,0.534668,0
27570,-0.291992,-0.880859,0.485352,0
27590,-0.170898,-0.788086,0.731934,0
27610,-0.20459,-0.805176,0.73877,0
27630,-0.338867,-0.817871,0.696777,0
27650,-0.424316,-0.699219,0.659668,0
27670,-0.440918,-0.616699,0.806641,0
27690,-0.518066,-0.449707,1.00928,0
27710,-0.638672,-0.45752,0.839844,0
27730,-0.886719,-0.570801,0.789551,0
27750,-0.989746,-0.73291,0.817871,0
27770,-0.924316,-0.77832,0.864746,0
27790,-0.664062,-0.674805,0.779785,0
27810,-0.516602,-0.512695,0.663574,0
27830,-0.470703,-0.410645,0.577148,0
27850,-0.413574,-0.383789,0.546875,0
27870,-0.410645,-0.394531,0.545898,0
27890,-0.570312,-0.380859,0.589844,0
27910,-0.682617,-0.410645,0.62207,0
27930,-0.649902,-0.513184,0.571777,0
27950,-0.60791,-0.626465,0.549805,0
27970,-0.655762,-0.613281,0.546387,0
27990,-0.65625,-0.612305,0.538574,0
28010,-0.569824,-0.615234,0.571777,0
28030,-0.504883,-0.556641,0.603027,0
28050,-0.472168,-0.51123,0.587402,0
28070,-0.450684,-0.480469,0.56543,0
28090,-0.445801,-0.453125,0.558105,0
28110,-0.469238,-0.487793,0.566895,0
28130,-0.634766,-0.563477,0.688477,0
28150,-0.835449,-0.625488,0.919922,0
28170,-0.713379,-0.699219,0.891602,0
28190,-0.560547,-0.694824,0.674805,0
28210,-0.461914,-0.683105,0.555664,0
28230,-0.409668,-0.688965,0.525879,0
28250,-0.379883,-0.681641,0.526855,0
28270,-0.381348,-0.603516,0.601074,0
28290,-0.35791,-0.498535,0.719238,0
28310,-0.347656,-0.412598,0.772949,0
28330,-0.344727,-0.39209,0.766602,0
28350,-0.365234,-0.425293,0.73877,0
28370,-0.383789,-0.479004,0.726562,0
28390,-0.381836,-0.496582,0.717285,0
28410,-0.391113,-0.468262,0.708496,0
28430,-0.416504,-0.430176,0.714355,0
28450,-0.437988,-0.430664,0.720703,0
28470,-0.448242,-0.461426,0.704102,0
28490,-0.45459,-0.500977,0.683105,0
28510,-0.443359,-0.514648,0.676758,0
28530,-0.441895,-0.515137,0.672852,0
28550,-0.437012,-0.51416,0.691406,0
28570,-0.432129,-0.494141,0.704102,0
28590,-0.425781,-0.488281,0.701172,0
28610,-0.422363,-0.47998,0.711426,0
28630,-0.424316,-0.475586,0.707031,0
28650,-0.411621,-0.469727,0.708984,0
28670,-0.416016,-0.478027,0.694824,0
28690,-0.421875,-0.477539,0.699707,0
28740,-0.431152,-0.488281,0.694824,0
28760,-0.425781,-0.487793,0.697754,0
28780,-0.420898,-0.484375,0.697754,0
28800,-0.419434,-0.47998,0.698242,0
28820,-0.418945,-0.475586,0.695312,0
28840,-0.416016,-0.479004,0.696777,0
28860,-0.419434,-0.481445,0.700684,0
28880,-0.41748,-0.479004,0.690918,0
28900,-0.422363,-0.484375,0.692871,0
28920,-0.424805,-0.487305,0.698242,0
28940,-0.424805,-0.48291,0.691895,0
28960,-0.429688,-0.486816,0.695801,0
28980,-0.431641,-0.481934,0.695801,0
29000,-0.428711,-0.486816,0.691406,0
29020,-0.432129,-0.487793,0.68457,0
29040,-0.43457,-0.489746,0.689453,0
29060,-0.433594,-0.48584,0.702148,0
29080,-0.436035,-0.491211,0.705078,0
29100,-0.443359,-0.519531,0.699219,0
29120,-0.444336,-0.532715,0.696777,0
29140,-0.431641,-0.553223,0.721191,0
29160,-0.432617,-0.605957,0.773926,0
29180,-0.430664,-0.700684,0.834961,0
29200,-0.347168,-0.81543,0.862793,0
29220,-0.29248,-0.812988,0.858887,0
29240,-0.239746,-0.731445,0.779785,0
29260,-0.164062,-0.774902,0.762207,0
29280,-0.0239258,-0.749512,0.911621,0
29300,0.0268555,-0.54541,0.986816,0
29320,0.0932617,-0.475098,1.01953,0
29340,0.0371094,-0.702148,0.826172,0
29360,-0.339844,-0.59668,0.930176,0
29370,-0.845703,-0.514648,0.992676,0
29390,-0.742676,-0.556641,0.925293,0
29410,-0.629883,-0.580078,0.871094,0
29430,-0.554199,-0.228516,0.904297,0
29450,-0.426758,0.034668,0.92334,0
29470,-0.32959,0.0576172,0.879883,0
29490,-0.247559,-0.0732422,0.898926,0
29510,-0.109375,-0.193359,0.846191,0
29530,-0.00537109,-0.169922,0.834473,0
29550,0.0673828,-0.0869141,0.822266,0
29570,0.1875,-0.0458984,0.75293,0
29590,0.271484,-0.0581055,0.672852,0
29610,0.329102,-0.123535,0.596191,0
29630,0.356934,-0.109375,0.541992,0
29650,0.400391,-0.101562,0.466797,0
29670,0.446289,-0.137695,0.430176,0
29690,0.584961,-0.163086,0.326172,0
29710,0.644531,-0.149902,0.258301,0
29730,0.683594,-0.131348,0.240234,0
29750,0.756348,-0.140137,0.214355,0
29770,0.82666,-0.143555,0.132812,0
29790,0.767578,-0.106934,0.131348,0
29810,0.80127,-0.104004,0.0947266,0
29830,0.847656,-0.126953,0.0615234,0
29850,0.885742,-0.112305,0.0463867,0
29870,0.898926,-0.090332,0.0473633,0
29890,0.924316,-0.0722656,0.0371094,0
29910,0.951172,-0.0839844,0.0146484,0
29930,0.956055,-0.0981445,0.000488281,0
29950,0.95166,-0.0991211,0.0258789,0
29970,0.945801,-0.11084,0.0493164,0
29990,0.939941,-0.128418,0.0678711,0
30010,0.926758,-0.137207,0.0839844,0
30030,0.905762,-0.137695,0.121094,0
30050,0.886719,-0.126953,0.175781,0
30070,0.853027,-0.120605,0.227051,0
30090,0.79248,-0.111816,0.265137,0
30110,0.733398,-0.134277,0.300781,0
30130,0.686523,-0.152832,0.311035,0
30150,0.665527,-0.146973,0.314941,0
30170,0.570801,-0.210449,0.390625,0
30190,0.424805,-0.259277,0.425293,0
30210,0.330078,-0.320801,0.48584,0
30230,0.211426,-0.375977,0.61377,0
30250,0.134277,-0.382812,0.669434,0
30270,0.196289,-0.308594,0.662598,0
30290,0.0375977,-0.137695,0.81543,0
30310,-0.486816,0.347656,0.805176,0
30330,-0.730957,0.403809,1.06445,0
30350,-0.498535,-0.0771484,0.998047,0
30370,-0.481934,-0.384766,1.04443,0
30390,-0.414062,-0.512207,1.13232,0
30410,-0.383789,-0.45752,1.1084,0
30430,-0.366211,-0.390137,1.01172,0
30450,-0.367188,-0.376465,0.971191,0
30470,-0.407227,-0.416504,0.887695,0
30490,-0.614746,-0.719238,1.06348,0
30510,-0.776855,-0.597168,1.50635,0
30530,-0.194824,-0.802734,0.90918,0
30550,-0.416504,-0.612793,0.887695,0
30570,-0.375488,-0.474609,0.74707,0
30590,-0.345215,-0.37207,0.612305,0
30610,-0.347656,-0.333984,0.526367,0
30630,-0.383301,-0.328125,0.522949,0
30650,-0.373535,-0.251465,0.554199,0
30670,-0.46582,-0.320801,0.858398,0
30690,-0.472168,-0.481934,0.925781,0
30710,-0.34668,-0.652344,0.816406,0
30730,-0.331055,-0.650391,0.709473,0
30750,-0.353027,-0.567871,0.712402,0
30770,-0.387695,-0.500977,0.714844,0
30790,-0.425293,-0.472656,0.715332,0
30810,-0.42334,-0.469727,0.720703,0
30830,-0.417969,-0.425781,0.749023,0
30850,-0.421387,-0.380859,0.76709,0
30870,-0.41748,-0.374023,0.764648,0
30890,-0.419434,-0.388184,0.759277,0
30910,-0.416504,-0.414551,0.742676,0
30930,-0.416504,-0.412598,0.73584,0
30950,-0.42041,-0.404785,0.733398,0
30990,-0.412598,-0.402344,0.733398,0
31010,-0.40918,-0.405762,0.740234,0
31030,-0.411621,-0.417969,0.746094,0
31050,-0.413574,-0.415039,0.750977,0
31070,-0.412109,-0.416992,0.748535,0
31090,-0.408203,-0.410156,0.752441,0
31110,-0.413574,-0.40332,0.743164,0
31130,-0.415039,-0.394043,0.744629,0
31150,-0.415039,-0.388672,0.744141,0
31170,-0.414062,-0.391602,0.741211,0
31180,-0.41748,-0.395996,0.744141,0
31200,-0.411621,-0.395996,0.739746,0
31220,-0.418945,-0.404297,0.731934,0
31240,-0.415039,-0.418457,0.740723,0
31260,-0.41748,-0.415039,0.740234,0
31280,-0.413574,-0.41748,0.743164,0
31300,-0.411133,-0.413574,0.745117,0
31320,-0.411133,-0.412109,0.743652,0
31340,-0.414062,-0.405762,0.741699,0
31360,-0.419434,-0.406738,0.743164,0
31380,-0.420898,-0.395996,0.744141,0
31400,-0.42334,-0.397949,0.740234,0
31420,-0.419922,-0.399902,0.742676,0
31440,-0.42041,-0.400879,0.742676,0
31460,-0.416016,-0.398926,0.741211,0
31480,-0.416016,-0.401855,0.742188,0
31500,-0.413574,-0.396973,0.742188,0
31520,-0.413086,-0.400879,0.742676,0
31540,-0.412109,-0.398438,0.748535,0
31560,-0.412598,-0.401855,0.74707,0
31580,-0.411133,-0.398438,0.745605,0
31600,-0.414062,-0.399414,0.744629,0
31620,-0.413574,-0.400879,0.748047,0
31640,-0.416016,-0.402344,0.75,0
31660,-0.418457,-0.405273,0.745605,0
31680,-0.416504,-0.40625,0.741211,0
31700,-0.414551,-0.412109,0.734863,0
31720,-0.411621,-0.409668,0.740234,0
31740,-0.416016,-0.408203,0.743164,0
31760,-0.415527,-0.40918,0.751953,0
31780,-0.416016,-0.409668,0.750977,0
31800,-0.413574,-0.406738,0.746094,0
31820,-0.412109,-0.406738,0.73291,0
31840,-0.413086,-0.411621,0.735352,0
31860,-0.411621,-0.40918,0.739746,0
31880,-0.412109,-0.410156,0.737793,0
31890,-0.408203,-0.408691,0.745117,0
31910,-0.411621,-0.408691,0.740723,0
31930,-0.414551,-0.407715,0.739746,0
31950,-0.413086,-0.405762,0.740234,0
31970,-0.411621,-0.414062,0.744141,0
31990,-0.41748,-0.411621,0.744141,0
32010,-0.414062,-0.412109,0.741699,0
32030,-0.414062,-0.408691,0.739258,0
32050,-0.414062,-0.408691,0.740723,0
32070,-0.416992,-0.411133,0.73877,0
32090,-0.414062,-0.413086,0.734863,0
32110,-0.415039,-0.411133,0.739258,0
32130,-0.413086,-0.415527,0.739258,0
32150,-0.415527,-0.414551,0.740723,0
32170,-0.416504,-0.412109,0.736816,0
32190,-0.418945,-0.415527,0.743652,0
32210,-0.41748,-0.407715,0.737305,0
32230,-0.415527,-0.414062,0.738281,0
32250,-0.415039,-0.408203,0.743652,0
32270,-0.416016,-0.413086,0.742188,0
32290,-0.415527,-0.40918,0.740723,0
32310,-0.414551,-0.406738,0.73877,0
32330,-0.411133,-0.408691,0.73584,0
32350,-0.419922,-0.412109,0.741699,0
32370,-0.419434,-0.416504,0.734863,0
32390,-0.419434,-0.414551,0.734863,0
32410,-0.416992,-0.416016,0.736816,0
32430,-0.414062,-0.406738,0.741211,0
32450,-0.415039,-0.411133,0.740723,0
32470,-0.413086,-0.413086,0.736816,0
32490,-0.411621,-0.416504,0.740723,0
32510,-0.412109,-0.411621,0.744141,0
32530,-0.411133,-0.410156,0.738281,0
32550,-0.415527,-0.407715,0.736816,0
32570,-0.413574,-0.413574,0.741211,0
32590,-0.415039,-0.415527,0.73584,0
32610,-0.413086,-0.407715,0.742676,0
32630,-0.415527,-0.40918,0.744141,0
32650,-0.413574,-0.408691,0.740234,0
32670,-0.42041,-0.40918,0.73877,0
32690,-0.414551,-0.411133,0.741211,0
32710,-0.416992,-0.414062,0.739258,0
32730,-0.415039,-0.413574,0.739746,0
32750,-0.413086,-0.411621,0.741211,0
32770,-0.413086,-0.412598,0.740723,0
32790,-0.416504,-0.409668,0.740723,0
32810,-0.414551,-0.411133,0.739258,0
32830,-0.414062,-0.411133,0.73291,0
32850,-0.416504,-0.410156,0.739258,0
32870,-0.418457,-0.409668,0.742676,0
32890,-0.418945,-0.414551,0.744629,0
32910,-0.413574,-0.411133,0.739746,0
32930,-0.416016,-0.409668,0.739258,0
32950,-0.415527,-0.411133,0.739258,0
32970,-0.416016,-0.419434,0.735352,0
32990,-0.419922,-0.416016,0.73877,0
33010,-0.415039,-0.416504,0.746582,0
33030,-0.412598,-0.409668,0.746094,0
33050,-0.414551,-0.410156,0.742188,0
33070,-0.409668,-0.414551,0.742676,0
33090,-0.414551,-0.419434,0.741211,0
33110,-0.413574,-0.409668,0.745117,0
33130,-0.415039,-0.413086,0.744629,0
33150,-0.415039,-0.407715,0.738281,0
33170,-0.416504,-0.40918,0.740723,0
33190,-0.415039,-0.415527,0.73877,0
33210,-0.415527,-0.414062,0.73877,0
33230,-0.416016,-0.406738,0.743164,0
33250,-0.416992,-0.414062,0.742676,0
33270,-0.414551,-0.412598,0.746094,0
33290,-0.41748,-0.409668,0.740234,0
33310,-0.414062,-0.409668,0.73584,0
33330,-0.414062,-0.412109,0.738281,0
33350,-0.412109,-0.413086,0.744629,0
33370,-0.415039,-0.410156,0.741211,0
33390,-0.413086,-0.410156,0.741211,0
33410,-0.410645,-0.407715,0.739258,0
33430,-0.418945,-0.410156,0.745605,0
33450,-0.41748,-0.413086,0.737305,0
33470,-0.412598,-0.414062,0.73584,0
33490,-0.414551,-0.412598,0.742676,0
33510,-0.422363,-0.413574,0.744141,0
33530,-0.415527,-0.405762,0.745117,0
33550,-0.414551,-0.413574,0.741211,0
33570,-0.413574,-0.407715,0.745117,0
33590,-0.416504,-0.413086,0.737305,0
33610,-0.421387,-0.410645,0.740234,0
33650,-0.413574,-0.410645,0.746094,0
33680,-0.409668,-0.415527,0.738281,0
33700,-0.411621,-0.412598,0.73584,0
33720,-0.412109,-0.407227,0.741211,0
33740,-0.415527,-0.412109,0.742188,0
33760,-0.414062,-0.405273,0.743164,0
33780,-0.411133,-0.412598,0.740723,0
33800,-0.415039,-0.411621,0.738281,0
33820,-0.415527,-0.415527,0.745605,0
33840,-0.416016,-0.410156,0.738281,0
33860,-0.41748,-0.409668,0.738281,0
33880,-0.417969,-0.40918,0.741211,0
33900,-0.416504,-0.409668,0.73877,0
33920,-0.415527,-0.414062,0.742188,0
33940,-0.415039,-0.407227,0.748535,0
33960,-0.412598,-0.414062,0.738281,0
33980,-0.415527,-0.412598,0.744629,0
34000,-0.415527,-0.411621,0.73877,0
34020,-0.413086,-0.404297,0.743652,0
34040,-0.410156,-0.408203,0.737305,0
34060,-0.413574,-0.412109,0.743164,0
34080,-0.416016,-0.412109,0.73584,0
34100,-0.417969,-0.408203,0.730469,0
34120,-0.415527,-0.412598,0.739746,0
34140,-0.415527,-0.404785,0.742188,0
34160,-0.42041,-0.403809,0.744629,0
34180,-0.414551,-0.409668,0.746582,0
34200,-0.415527,-0.411621,0.742676,0
34220,-0.412109,-0.404297,0.739258,0
34240,-0.418945,-0.410156,0.737305,0
34260,-0.418457,-0.416504,0.740234,0
34280,-0.418945,-0.414062,0.743164,0
34300,-0.416016,-0.409668,0.745117,0
34320,-0.415039,-0.409668,0.743164,0
34340,-0.40918,-0.411133,0.72998,0
34360,-0.409668,-0.415039,0.734863,0
34380,-0.418945,-0.410645,0.742188,0
34400,-0.416504,-0.411133,0.73877,0
34410,-0.414062,-0.408203,0.742676,0
34430,-0.41748,-0.408691,0.742676,0
34460,-0.416504,-0.410645,0.737793,0
34480,-0.416992,-0.408203,0.73584,0
34500,-0.415039,-0.409668,0.740234,0
34520,-0.418457,-0.407227,0.746582,0
34540,-0.418457,-0.410645,0.742676,0
34560,-0.419434,-0.408203,0.74707,0
34580,-0.418457,-0.405762,0.736328,0
34600,-0.41748,-0.411133,0.743652,0
34620,-0.416504,-0.408203,0.739746,0
34640,-0.416504,-0.414062,0.740723,0
34660,-0.414551,-0.408203,0.741699,0
34680,-0.415527,-0.408691,0.746582,0
34700,-0.416016,-0.408691,0.742188,0
34720,-0.421875,-0.407715,0.744141,0
34740,-0.419434,-0.402832,0.745117,0
34760,-0.418945,-0.40918,0.737793,0
34780,-0.420898,-0.404297,0.736328,0
34800,-0.416504,-0.407715,0.741211,0
34820,-0.421387,-0.406738,0.748047,0
34840,-0.419922,-0.402832,0.745117,0
34860,-0.416016,-0.397949,0.742188,0
34880,-0.416992,-0.404297,0.738281,0
34900,-0.420898,-0.403809,0.734863,0
34920,-0.421387,-0.404297,0.741699,0
34950,-0.419922,-0.404297,0.742676,0
34970,-0.41748,-0.399902,0.743652,0
34990,-0.417969,-0.408691,0.739746,0
35010,-0.413574,-0.416504,0.742188,0
35030,-0.415039,-0.411621,0.73877,0
35050,-0.413574,-0.409668,0.741211,0
35070,-0.419922,-0.412109,0.74707,0
35090,-0.414551,-0.405762,0.744629,0
35110,-0.418945,-0.410156,0.742188,0
35130,-0.418457,-0.40918,0.742676,0
35150,-0.42041,-0.400391,0.743652,0
35170,-0.420898,-0.403809,0.741211,0
35190,-0.418945,-0.413574,0.743652,0
35210,-0.414062,-0.412598,0.743164,0
35230,-0.411133,-0.407227,0.736328,0
35250,-0.416992,-0.410156,0.739258,0
35270,-0.414062,-0.408203,0.740723,0
35290,-0.41748,-0.411133,0.737793,0
35310,-0.415039,-0.40918,0.740723,0
35330,-0.419922,-0.416016,0.741699,0
35350,-0.42041,-0.414062,0.73877,0
35370,-0.419434,-0.408691,0.741211,0
35390,-0.418457,-0.407227,0.736328,0
35410,-0.41748,-0.408203,0.741699,0
35430,-0.416016,-0.405273,0.739746,0
35450,-0.410645,-0.40332,0.73291,0
35470,-0.410156,-0.402832,0.740723,0
35490,-0.411133,-0.405273,0.748535,0
35510,-0.411133,-0.404297,0.754395,0
35530,-0.415527,-0.407227,0.742676,0
35550,-0.413574,-0.407227,0.740723,0
35570,-0.419922,-0.409668,0.744141,0
35590,-0.41748,-0.416992,0.741699,0
35610,-0.418457,-0.416504,0.744141,0
35630,-0.415039,-0.413574,0.742676,0
35650,-0.412598,-0.40918,0.74707,0
35670,-0.412598,-0.407715,0.75,0
35690,-0.41748,-0.405273,0.749512,0
35710,-0.416992,-0.409668,0.745117,0
35730,-0.422852,-0.411133,0.744629,0
35750,-0.417969,-0.415527,0.740723,0
35770,-0.414062,-0.404297,0.735352,0
35800,-0.41748,-0.391602,0.73584,0
35820,-0.419922,-0.410645,0.747559,0
35840,-0.419922,-0.411621,0.739746,0
35860,-0.41748,-0.418945,0.742188,0
35880,-0.41748,-0.414551,0.743164,0
35900,-0.413574,-0.419434,0.741699,0
35920,-0.404785,-0.40918,0.741211,0
35940,-0.405273,-0.409668,0.741211,0
35960,-0.404785,-0.40918,0.747559,0
35980,-0.40625,-0.413574,0.752441,0
36000,-0.418457,-0.433105,0.744629,0
36020,-0.42041,-0.435059,0.741699,0
36040,-0.437988,-0.431641,0.743164,0
36060,-0.450684,-0.441406,0.741699,0
36080,-0.464355,-0.446777,0.727539,0
36100,-0.475586,-0.438477,0.727051,0
36120,-0.509766,-0.416016,0.736328,0
36140,-0.589844,-0.407227,0.709473,0
36160,-0.678223,-0.388184,0.710938,0
36180,-0.672852,-0.319824,0.687012,0
36200,-0.643066,-0.297852,0.70752,0
36220,-0.581055,-0.379883,0.758789,0
36240,-0.537598,-0.402344,0.804688,0
36260,-0.499512,-0.449219,0.833496,0
36280,-0.379395,-0.59668,0.876953,0
36300,-0.312988,-0.522461,0.907227,0
36320,-0.136719,-0.490234,0.841309,0
36340,-0.0249023,-0.543457,0.867188,0
36350,0.0634766,-0.585449,0.869141,0
36370,0.182129,-0.50293,0.736328,0
36390,0.325195,-0.498047,0.782715,0
36410,0.361816,-0.399414,0.807617,0
36430,0.44043,-0.40918,0.597656,0
36450,0.392578,-0.373047,0.564453,0
36470,0.308594,-0.270996,0.611328,0
36490,0.313477,-0.340332,0.577148,0
36510,0.331055,-0.382812,0.509277,0
36530,0.234375,-0.42334,0.592285,0
36550,0.0546875,-0.423828,0.647461,0
36570,-0.0214844,-0.54834,0.695312,0
36590,-0.0366211,-0.647461,0.783203,0
36610,-0.034668,-0.664062,0.764648,0
36630,-0.074707,-0.622559,0.788086,0
36650,-0.0839844,-0.550293,0.808594,0
36670,-0.00732422,-0.501465,0.78125,0
36690,0.00830078,-0.438477,0.688477,0
36710,-0.0332031,-0.422363,0.698242,0
36730,-0.138184,-0.502441,0.687988,0
36750,-0.134766,-0.637207,0.661621,0
36770,-0.0727539,-0.663086,0.6875,0
36790,-0.0390625,-0.672363,0.69873,0
36820,-0.154785,-0.684082,0.678223,0
36840,-0.132812,-0.680176,0.710938,0
36860,-0.138672,-0.680664,0.757812,0
36870,-0.145996,-0.716309,0.732422,0
36880,-0.0541992,-0.622559,0.728027,0
36900,-0.0532227,-0.619141,0.711914,0
36920,-0.0625,-0.623535,0.689941,0
36940,-0.0473633,-0.620605,0.672363,0
36960,-0.0410156,-0.658203,0.680664,0
36980,-0.0620117,-0.649414,0.658203,0
37000,-0.0888672,-0.647949,0.612793,0
37020,-0.0625,-0.633301,0.639648,0
37040,-0.0356445,-0.618164,0.68457,0
37060,-0.0395508,-0.645508,0.675293,0
37070,-0.0703125,-0.645508,0.619141,0
37090,-0.0708008,-0.67627,0.550781,0
37110,-0.059082,-0.725586,0.563477,0
37130,-0.0756836,-0.709961,0.602051,0
37150,-0.0761719,-0.703125,0.654785,0
37170,-0.0444336,-0.724609,0.678223,0
37190,0.00830078,-0.687012,0.650391,0
37210,0.0273438,-0.697266,0.645996,0
37230,0.00585938,-0.72998,0.624023,0
37250,0.0610352,-0.729004,0.654297,0
37270,0.0981445,-0.710449,0.657227,0
37290,0.0966797,-0.708496,0.631348,0
37310,0.124023,-0.72168,0.649902,0
37330,0.13916,-0.678711,0.671875,0
37350,0.156738,-0.687988,0.701172,0
37370,0.178711,-0.661133,0.682129,0
37390,0.201172,-0.654785,0.707031,0
37410,0.223145,-0.65918,0.695312,0
37430,0.260254,-0.687988,0.68457,0
37450,0.274414,-0.632324,0.655762,0
37470,0.298828,-0.662598,0.634277,0
37490,0.342773,-0.643555,0.628418,0
37510,0.34375,-0.589844,0.606445,0
37530,0.358887,-0.630859,0.585938,0
37550,0.362793,-0.635742,0.582031,0
37570,0.361328,-0.610352,0.566895,0
37590,0.357422,-0.598633,0.561035,0
37610,0.37793,-0.581055,0.583496,0
37630,0.402832,-0.580078,0.566895,0
37650,0.40332,-0.59082,0.546875,0
37670,0.414062,-0.600586,0.540527,0
37690,0.414062,-0.587891,0.525879,0
37710,0.387695,-0.58252,0.515137,0
37730,0.404297,-0.595215,0.525391,0
37750,0.421387,-0.608887,0.509766,0
37760,0.403809,-0.583984,0.50293,0
37780,0.423828,-0.59082,0.526367,0
37800,0.445312,-0.617188,0.498047,0
37820,0.438477,-0.630371,0.475098,0
37840,0.450195,-0.616699,0.496094,0
37860,0.477539,-0.626465,0.496094,0
37880,0.493652,-0.611328,0.482422,0
37900,0.509766,-0.637207,0.482422,0
37920,0.520508,-0.637207,0.462891,0
37940,0.534668,-0.651367,0.455078,0
37960,0.538086,-0.658691,0.44043,0
37980,0.541016,-0.671387,0.450195,0
38000,0.543457,-0.662109,0.428223,0
38020,0.543945,-0.665039,0.420898,0
38040,0.556152,-0.661621,0.414062,0
38060,0.560059,-0.666016,0.378906,0
38080,0.555176,-0.663086,0.365723,0
38100,0.545898,-0.654297,0.359375,0
38120,0.543457,-0.649902,0.353027,0
38140,0.552734,-0.654297,0.345703,0
38160,0.566406,-0.664062,0.340332,0
38180,0.569824,-0.661621,0.338379,0
38200,0.558105,-0.656738,0.336426,0
38220,0.563477,-0.656738,0.336426,0
38240,0.563477,-0.67041,0.326172,0
38260,0.582031,-0.681152,0.322266,0
38280,0.579102,-0.69043,0.302246,0
38300,0.5625,-0.669922,0.305664,0
38320,0.557129,-0.657227,0.298828,0
38340,0.578125,-0.663574,0.299316,0
38360,0.585938,-0.678711,0.296875,0
38380,0.583984,-0.672852,0.280273,0
38400,0.571289,-0.670898,0.281738,0
38420,0.588379,-0.667969,0.287109,0
38440,0.571289,-0.67334,0.29541,0
38460,0.566895,-0.649902,0.288086,0
38480,0.58252,-0.674805,0.279297,0
38500,0.573242,-0.678223,0.269043,0
38520,0.562988,-0.672852,0.259766,0
38540,0.556152,-0.671875,0.275391,0
38560,0.561523,-0.660156,0.280762,0
38580,0.564453,-0.644043,0.294434,0
38600,0.578125,-0.634766,0.301758,0
38620,0.592285,-0.638184,0.315918,0
38640,0.60498,-0.62793,0.32373,0
38660,0.609375,-0.614258,0.333496,0
38680,0.612793,-0.554688,0.388184,0
38700,0.619141,-0.557129,0.362793,0
38720,0.64502,-0.555664,0.334473,0
38740,0.649902,-0.530762,0.366699,0
38760,0.628906,-0.539062,0.353027,0
38780,0.596191,-0.557129,0.374023,0
38800,0.555176,-0.477051,0.37793,0
38820,0.489258,-0.444824,0.398926,0
38840,0.424805,-0.449219,0.474121,0
38860,0.392578,-0.420898,0.432617,0
38880,0.390625,-0.456055,0.339355,0
38900,0.460938,-0.558594,0.508789,0
38920,0.522461,-0.538086,0.549805,0
38940,0.619141,-0.605957,0.434082,0
38960,0.672852,-0.675293,0.583496,0
38980,0.695801,-0.71875,0.587402,0
39000,0.729492,-0.754883,0.482422,0
39020,0.674805,-0.745605,0.4375,0
39040,0.651367,-0.76123,0.466309,0
39060,0.655273,-0.73584,0.396973,0
39080,0.604492,-0.714844,0.424316,0
39100,0.540527,-0.745117,0.445801,0
39120,0.482422,-0.752441,0.504395,0
39140,0.463867,-0.747559,0.587402,0
39160,0.425293,-0.701172,0.546387,0
39180,0.390137,-0.666504,0.567871,0
39200,0.345703,-0.625488,0.558105,0
39220,0.318359,-0.625977,0.481934,0
39240,0.352051,-0.625977,0.506348,0
39260,0.339355,-0.577637,0.54248,0
39280,0.379883,-0.57666,0.619141,0
39300,0.418457,-0.614746,0.628418,0
39320,0.446289,-0.594238,0.602051,0
39330,0.467773,-0.567383,0.563477,0
39350,0.475586,-0.55957,0.581055,0
39370,0.469727,-0.589355,0.572754,0
39390,0.442383,-0.591797,0.557129,0
39410,0.436035,-0.580566,0.534668,0
39420,0.430176,-0.613281,0.542969,0
39440,0.413574,-0.601562,0.535156,0
39460,0.414551,-0.603516,0.530762,0
39480,0.40918,-0.629883,0.554688,0
39500,0.379883,-0.64209,0.575684,0
39520,0.368652,-0.641113,0.538086,0
39540,0.330566,-0.653809,0.585938,0
39560,0.293457,-0.658203,0.618164,0
39580,0.291504,-0.658691,0.570312,0
39600,0.294922,-0.687988,0.575195,0
39620,0.262207,-0.647949,0.583496,0
39640,0.28418,-0.612305,0.580566,0
39660,0.316895,-0.626465,0.583008,0
39680,0.310547,-0.631836,0.625,0
39700,0.314941,-0.646973,0.615234,0
39720,0.333008,-0.631348,0.586914,0
39740,0.318359,-0.616211,0.604492,0
39760,0.324707,-0.641113,0.615723,0
39780,0.333008,-0.66748,0.624023,0
39800,0.36377,-0.631348,0.604492,0
39820,0.375488,-0.606934,0.615234,0
39840,0.38916,-0.593262,0.630859,0
39860,0.405273,-0.574707,0.598633,0
39880,0.40918,-0.601562,0.59375,0
39900,0.417969,-0.591309,0.599609,0
39920,0.449219,-0.546387,0.623535,0
39940,0.456543,-0.475586,0.630859,0
39960,0.443848,-0.444824,0.606445,0
39980,0.442871,-0.483887,0.619141,0
40000,0.451172,-0.543457,0.624023,0
40020,0.467285,-0.543457,0.615723,0
40040,0.476074,-0.556152,0.592773,0
40060,0.462402,-0.529297,0.59375,0
40080,0.458984,-0.556152,0.588867,0
40100,0.461426,-0.582031,0.589844,0
40120,0.46875,-0.575195,0.554199,0
40140,0.460449,-0.601074,0.552246,0
40160,0.466797,-0.601074,0.541992,0
40180,0.467285,-0.57373,0.546875,0
40200,0.472656,-0.560547,0.531738,0
40210,0.481445,-0.564941,0.529297,0
40220,0.477051,-0.581055,0.529297,0
40240,0.474609,-0.561035,0.527832,0
40250,0.46875,-0.573242,0.544434,0
40270,0.474609,-0.578613,0.533691,0
40290,0.463379,-0.553711,0.538086,0
40310,0.467285,-0.55127,0.562012,0
40330,0.46582,-0.557617,0.562012,0
40350,0.465332,-0.546875,0.577148,0
40370,0.485352,-0.581055,0.562988,0
40390,0.500977,-0.596191,0.539062,0
40410,0.488281,-0.594727,0.527344,0
40430,0.482422,-0.595703,0.533203,0
40450,0.467285,-0.61084,0.536621,0
40470,0.474609,-0.601562,0.540039,0
40490,0.459473,-0.58252,0.543457,0
40510,0.463379,-0.58252,0.55127,0
40530,0.45752,-0.584961,0.558105,0
40550,0.465332,-0.557129,0.566406,0
40570,0.45752,-0.547363,0.562988,0
40590,0.444336,-0.533691,0.560059,0
40610,0.449707,-0.523438,0.570312,0
40630,0.480957,-0.535645,0.570801,0
40650,0.5,-0.530762,0.571777,0
40670,0.501953,-0.526367,0.557129,0
40690,0.499512,-0.529297,0.547852,0
40710,0.495605,-0.562012,0.537109,0
40730,0.473145,-0.592285,0.517578,0
40750,0.450195,-0.609375,0.521484,0
40770,0.436523,-0.587402,0.532715,0
40790,0.395996,-0.560059,0.542969,0
40810,0.354004,-0.568848,0.541504,0
40830,0.30957,-0.56543,0.559082,0
40850,0.300781,-0.541992,0.59082,0
40870,0.279297,-0.521973,0.592285,0
40890,0.249512,-0.492188,0.614258,0
40910,0.245605,-0.489258,0.680176,0
40930,0.244629,-0.458984,0.772949,0
40950,0.247559,-0.37793,0.82373,0
40970,0.394531,-0.393066,0.838379,0
40990,0.501465,-0.368652,0.817383,0
41010,0.489258,-0.341797,0.645508,0
41030,0.453613,-0.323242,0.59082,0
41050,0.555176,-0.431152,0.748047,0
41070,0.571289,-0.384766,0.822266,0
41090,0.456055,-0.399414,0.64502,0
41110,0.51709,-0.412109,0.758789,0
41130,0.695801,-0.499023,0.788574,0
41150,0.77832,-0.458008,0.730957,0
41170,0.705566,-0.143555,0.663574,0
41190,0.688965,-0.316895,0.515137,0
41210,0.483887,-0.599121,0.490234,0
41230,0.416016,-0.611816,0.549316,0
41250,0.645996,-0.755371,0.637695,0
41270,0.455566,-0.474609,0.527344,0
41290,0.191895,-0.731445,0.369629,0
41300,0.0761719,-0.69043,0.61377,0
41320,0.285156,-0.729004,0.675293,0
41340,0.494629,-0.595703,0.729004,0
41360,0.406738,-0.572266,0.638184,0
41380,0.402832,-0.559082,0.651855,0
41390,0.376953,-0.544434,0.699707,0
41390,0.358398,-0.623047,0.67041,0
41410,0.373047,-0.669434,0.668945,0
41450,0.406738,-0.652832,0.679688,0
41470,0.382812,-0.605469,0.647461,0
41490,0.30957,-0.545898,0.596191,0
41510,0.321289,-0.57373,0.623535,0
41530,0.322266,-0.59082,0.660645,0
41540,0.302246,-0.623047,0.67041,0
41560,0.294434,-0.553711,0.626465,0
41590,0.30957,-0.51416,0.645996,0
41610,0.377441,-0.522461,0.60498,0
41630,0.336914,-0.51416,0.639648,0
41650,0.320312,-0.458984,0.636719,0
41670,0.35791,-0.488281,0.665527,0
41690,0.416504,-0.513184,0.672363,0
41700,0.45752,-0.516602,0.664062,0
41720,0.455566,-0.479004,0.625977,0
41740,0.475098,-0.502441,0.604004,0
41760,0.48584,-0.529297,0.614258,0
41780,0.459961,-0.510254,0.579102,0
41800,0.46582,-0.556641,0.589844,0
41820,0.462891,-0.537109,0.602539,0
41840,0.473633,-0.522949,0.592773,0
41860,0.48877,-0.52832,0.587402,0
41880,0.48584,-0.526367,0.593262,0
41900,0.483887,-0.528809,0.592773,0
41920,0.485352,-0.524902,0.583008,0
41940,0.499023,-0.53125,0.570312,0
41960,0.486328,-0.528809,0.574707,0
41980,0.478027,-0.525879,0.584473,0
42000,0.483887,-0.509766,0.603516,0
42020,0.484375,-0.506348,0.575195,0
42040,0.483887,-0.512695,0.574707,0
42060,0.491211,-0.516113,0.572754,0
42080,0.480957,-0.511719,0.577148,0
42100,0.47998,-0.508301,0.571777,0
42120,0.486328,-0.52002,0.578125,0
42140,0.493164,-0.523438,0.577148,0
42160,0.496582,-0.522461,0.566406,0
42180,0.479492,-0.543945,0.553711,0
42200,0.481934,-0.574707,0.567871,0
42220,0.473633,-0.552246,0.569336,0
42220,0.476562,-0.567383,0.559082,0
42240,0.475586,-0.558594,0.565918,0
42270,0.461914,-0.555176,0.56543,0
42290,0.475098,-0.553711,0.571289,0
42310,0.475098,-0.5625,0.55957,0
42330,0.478516,-0.547363,0.562012,0
42350,0.47168,-0.547363,0.567383,0
42370,0.462402,-0.552246,0.562012,0
42370,0.474609,-0.553223,0.552734,0
42390,0.466309,-0.55127,0.56543,0
42390,0.466309,-0.561035,0.5625,0
42410,0.474609,-0.552246,0.5625,0
42420,0.470215,-0.551758,0.571289,0
42450,0.469238,-0.555664,0.560547,0
42470,0.464355,-0.562012,0.564941,0
42470,0.467285,-0.550293,0.558105,0
42490,0.471191,-0.55957,0.551758,0
42530,0.483398,-0.567871,0.562012,0
42550,0.467773,-0.566895,0.553711,0
42570,0.470215,-0.557617,0.533203,0
42590,0.483398,-0.570801,0.564941,0
42610,0.482422,-0.563965,0.567871,0
42630,0.473633,-0.567871,0.552246,0
42650,0.489746,-0.568848,0.543457,0
42680,0.496094,-0.557129,0.538086,0
42700,0.499023,-0.562012,0.548828,0
42720,0.491699,-0.564453,0.550293,0
42740,0.483887,-0.564941,0.550293,0
42760,0.486816,-0.571289,0.557129,0
42780,0.490234,-0.568848,0.540039,0
42800,0.493652,-0.568848,0.537109,0
42820,0.497559,-0.577148,0.541992,0
42840,0.50293,-0.578125,0.550293,0
42840,0.505859,-0.57373,0.541992,0
42860,0.51416,-0.579102,0.550293,0
42870,0.516602,-0.575195,0.550781,0
42890,0.51416,-0.575195,0.550781,0
42910,0.50293,-0.556641,0.547852,0
42930,0.5,-0.569824,0.562012,0
42950,0.483887,-0.553223,0.549805,0
42970,0.465332,-0.562988,0.547852,0
42990,0.466797,-0.577637,0.570312,0
43010,0.458984,-0.567871,0.563965,0
43030,0.452637,-0.557617,0.558594,0
43050,0.448242,-0.563477,0.56543,0
43070,0.439453,-0.563965,0.567871,0
43090,0.439941,-0.570801,0.560059,0
43110,0.444824,-0.571777,0.560547,0
43130,0.449707,-0.571777,0.552246,0
43150,0.441895,-0.580078,0.554199,0
43170,0.443359,-0.582031,0.558594,0
43190,0.443848,-0.591309,0.553223,0
43210,0.439453,-0.59375,0.557129,0
43230,0.437988,-0.59375,0.551758,0
43250,0.443359,-0.59082,0.544434,0
43270,0.435059,-0.598633,0.546387,0
43290,0.434082,-0.592285,0.554199,0
43310,0.436035,-0.606934,0.55127,0
43330,0.434082,-0.59668,0.551758,0
43350,0.428711,-0.603027,0.558594,0
43370,0.428711,-0.603516,0.543457,0
43390,0.432129,-0.605469,0.553223,0
43410,0.437988,-0.597656,0.548828,0
43430,0.433594,-0.600098,0.546875,0
43450,0.44043,-0.605469,0.553223,0
43470,0.430176,-0.603516,0.558105,0
43490,0.442871,-0.604492,0.552734,0
43510,0.437012,-0.591309,0.560547,0
43530,0.445312,-0.593262,0.552734,0
43550,0.444336,-0.595703,0.550293,0
43570,0.441895,-0.606445,0.541504,0
43590,0.445312,-0.604004,0.546387,0
43610,0.45166,-0.606934,0.54541,0
43630,0.444824,-0.59082,0.549316,0
43650,0.445801,-0.603027,0.546875,0
43670,0.454102,-0.605957,0.544922,0
43690,0.451172,-0.59375,0.535645,0
43710,0.457031,-0.592285,0.544922,0
43730,0.463867,-0.595703,0.547363,0
43750,0.456543,-0.591309,0.536621,0
43770,0.463867,-0.595215,0.536621,0
43790,0.461914,-0.591797,0.549805,0
43810,0.462402,-0.590332,0.545898,0
43830,0.466797,-0.585449,0.551758,0
43850,0.466797,-0.585938,0.546875,0
43870,0.48584,-0.596191,0.544434,0
43890,0.490723,-0.603516,0.539062,0
43910,0.48584,-0.591797,0.535156,0
43930,0.492188,-0.587891,0.527832,0
43950,0.504395,-0.579102,0.538574,0
43970,0.508301,-0.586426,0.53418,0
43990,0.515625,-0.592285,0.522949,0
44010,0.520996,-0.594238,0.53418,0
44020,0.532227,-0.594238,0.530762,0
44040,0.542969,-0.599609,0.530762,0
44060,0.558594,-0.603027,0.519043,0
44080,0.574219,-0.605469,0.513184,0
44100,0.558594,-0.602539,0.52832,0
44120,0.552246,-0.591309,0.524414,0
44140,0.54541,-0.603027,0.506348,0
44160,0.543945,-0.606934,0.494629,0
44180,0.538574,-0.605957,0.494141,0
44200,0.536133,-0.589844,0.495117,0
44220,0.520996,-0.612793,0.484375,0
44240,0.507812,-0.594727,0.503418,0
44260,0.459473,-0.581055,0.513184,0
44280,0.416016,-0.57959,0.515625,0
44300,0.395996,-0.581543,0.519043,0
44320,0.369629,-0.586914,0.521973,0
44340,0.355469,-0.599609,0.541504,0
44360,0.338379,-0.585938,0.556152,0
44380,0.322754,-0.598633,0.54541,0
44400,0.336426,-0.606445,0.547363,0
44420,0.353027,-0.617676,0.571289,0
44440,0.366211,-0.620117,0.558594,0
44460,0.38916,-0.616211,0.552246,0
44480,0.405762,-0.631836,0.546387,0
44500,0.438477,-0.636719,0.532227,0
44520,0.456055,-0.64209,0.51709,0
44540,0.477051,-0.634277,0.524902,0
44560,0.483887,-0.633789,0.529785,0
44580,0.493652,-0.628418,0.519043,0
44600,0.498047,-0.65918,0.523926,0
44620,0.497559,-0.646484,0.525879,0
44640,0.479492,-0.65918,0.519043,0
44660,0.458984,-0.65918,0.520996,0
44680,0.429688,-0.642578,0.520996,0
44700,0.408203,-0.616699,0.527344,0
44720,0.385254,-0.622559,0.537109,0
44740,0.371094,-0.636719,0.539062,0
44760,0.359375,-0.671875,0.54248,0
44780,0.366699,-0.658691,0.54834,0
44800,0.355957,-0.646484,0.555176,0
44820,0.346191,-0.632324,0.543457,0
44840,0.355957,-0.642578,0.551758,0
44860,0.341797,-0.647949,0.564941,0
44880,0.312988,-0.632324,0.563965,0
44900,0.319824,-0.638184,0.558594,0
44920,0.333984,-0.63623,0.564453,0
44940,0.318359,-0.629883,0.560547,0
44960,0.30957,-0.629395,0.564941,0
44980,0.331055,-0.651367,0.568359,0
45000,0.349121,-0.65332,0.574707,0
45020,0.338867,-0.651367,0.562988,0
45040,0.347168,-0.637207,0.567383,0
45060,0.368164,-0.64209,0.562988,0
45080,0.371582,-0.655762,0.564941,0
45100,0.368164,-0.661133,0.555176,0
45120,0.370117,-0.652344,0.572754,0
45140,0.361816,-0.633301,0.558594,0
45160,0.358398,-0.641113,0.563477,0
45180,0.371094,-0.626953,0.54834,2000
45200,0.376953,-0.656738,0.559082,0
45220,0.374512,-0.67334,0.543945,0
45240,0.367188,-0.650879,0.539551,0
45260,0.360352,-0.643555,0.54834,0
45280,0.355957,-0.662109,0.556641,0
45300,0.358398,-0.65625,0.55127,0
45320,0.364746,-0.658691,0.545898,0
45340,0.362793,-0.666016,0.556152,0
45360,0.364258,-0.666504,0.557129,0
45380,0.36084,-0.645508,0.55957,0
45400,0.350098,-0.63916,0.560547,0
45420,0.35791,-0.649902,0.552734,0
45440,0.358398,-0.65625,0.558594,0
45460,0.342285,-0.647461,0.556641,0
45480,0.334961,-0.658203,0.554199,0
45500,0.332031,-0.65918,0.556152,0
45520,0.328613,-0.647949,0.55957,0
45540,0.31543,-0.640137,0.556152,0
45560,0.32373,-0.648438,0.550781,0
45580,0.317383,-0.649902,0.566895,0
45600,0.289551,-0.643066,0.563477,0
45620,0.304688,-0.654785,0.546875,0
45640,0.319336,-0.657227,0.556152,0
45660,0.319336,-0.64502,0.554199,0
45680,0.325195,-0.646973,0.550781,0
45700,0.334961,-0.641602,0.564941,0
45720,0.345703,-0.648438,0.561523,0
45740,0.347656,-0.652344,0.536621,0
45760,0.385254,-0.648926,0.549805,0
45780,0.403809,-0.63623,0.553223,0
45800,0.395996,-0.638672,0.536133,0
45820,0.413086,-0.638672,0.54541,0
45840,0.429688,-0.629883,0.549805,0
45860,0.434082,-0.642578,0.544434,0
45880,0.423828,-0.644531,0.53418,0
45900,0.421875,-0.661133,0.530762,0
45920,0.426758,-0.652832,0.530762,0
45940,0.430664,-0.655762,0.532227,0
45960,0.432617,-0.646973,0.53418,0
45980,0.420898,-0.642578,0.533691,0
46000,0.41748,-0.638672,0.527832,0
46020,0.424316,-0.640625,0.539551,0
46040,0.423828,-0.634766,0.540039,0
46060,0.407227,-0.639648,0.532227,0
46080,0.409668,-0.643555,0.537598,0
46100,0.407715,-0.630371,0.540039,0
46120,0.397461,-0.637207,0.533203,0
46140,0.40332,-0.641113,0.531738,0
46160,0.421387,-0.628906,0.538574,0
46180,0.426758,-0.628418,0.541992,0
46200,0.423828,-0.624512,0.539551,0
46220,0.411133,-0.624023,0.52832,0
46240,0.404297,-0.630371,0.523438,0
46260,0.434082,-0.62793,0.524414,0
46280,0.445312,-0.633789,0.525391,0
46300,0.44043,-0.634277,0.53125,0
46320,0.428223,-0.62207,0.52832,0
46340,0.454102,-0.615723,0.532715,0
46360,0.46875,-0.624023,0.537598,0
46380,0.451172,-0.611816,0.531738,0
46400,0.437012,-0.612793,0.517578,0
46420,0.475586,-0.615723,0.530762,0
46440,0.475586,-0.609863,0.535156,0
46460,0.467773,-0.595703,0.523438,0
46480,0.493652,-0.611816,0.518066,0
46500,0.511719,-0.603027,0.511719,0
46520,0.508789,-0.595703,0.511719,0
46540,0.504883,-0.600586,0.506836,0
46560,0.513184,-0.598145,0.504883,0
46580,0.520508,-0.602539,0.494629,0
46590,0.514648,-0.598145,0.504395,0
46610,0.519043,-0.597656,0.499512,0
46630,0.533203,-0.588867,0.491211,0
46650,0.532227,-0.58252,0.498047,0
46670,0.526855,-0.589844,0.493164,0
46690,0.511719,-0.587402,0.488281,0
46710,0.514648,-0.583496,0.500977,0
46730,0.526855,-0.581055,0.507812,0
46750,0.509766,-0.565918,0.499512,0
46770,0.506348,-0.563965,0.498047,0
46790,0.522949,-0.574707,0.500977,0
46810,0.532227,-0.573242,0.50293,0
46830,0.522461,-0.561035,0.500488,0
46850,0.518066,-0.563477,0.492188,0
46870,0.54541,-0.55957,0.500977,0
46890,0.552734,-0.552246,0.5,0
46910,0.560547,-0.554688,0.504395,0
46930,0.568359,-0.561523,0.499023,0
46950,0.562012,-0.553223,0.478027,0
46960,0.570312,-0.564453,0.478027,0
46980,0.58252,-0.560059,0.483887,0
47020,0.594727,-0.552734,0.467773,0
47040,0.601074,-0.55127,0.470215,0
47060,0.606445,-0.538574,0.469727,0
47080,0.62793,-0.540039,0.44873,0
47100,0.625,-0.543457,0.45752,0
47120,0.621094,-0.535156,0.452148,0
47140,0.641602,-0.541504,0.452148,0
47160,0.62793,-0.538574,0.444336,0
47180,0.611816,-0.534668,0.44873,0
47200,0.612793,-0.524902,0.452148,0
47220,0.605469,-0.543945,0.460938,0
47230,0.59082,-0.536133,0.459473,0
47240,0.594727,-0.539551,0.469727,0
47270,0.567383,-0.555176,0.483887,0
47290,0.55127,-0.55127,0.484863,0
47310,0.554199,-0.554688,0.477051,0
47330,0.542969,-0.560059,0.481934,0
47350,0.541016,-0.55957,0.486328,0
47370,0.550781,-0.563477,0.48291,0
47390,0.54834,-0.562012,0.491699,0
47410,0.550781,-0.562988,0.492188,0
47430,0.557129,-0.5625,0.487305,0
47450,0.56543,-0.560547,0.5,0
47470,0.563477,-0.558105,0.48584,0
47490,0.570312,-0.561035,0.485352,0
47510,0.564941,-0.561523,0.494629,0
47510,0.566406,-0.56543,0.487305,0
47530,0.565918,-0.557617,0.484375,0
47550,0.568848,-0.558105,0.483887,0
47570,0.570801,-0.54541,0.480469,0
47590,0.57373,-0.554199,0.477051,0
47610,0.57373,-0.548828,0.471191,0
47630,0.5625,-0.549805,0.477539,0
47650,0.576172,-0.541504,0.488281,0
47670,0.576172,-0.541992,0.478027,0
47690,0.570801,-0.541992,0.473633,0
47710,0.578125,-0.548828,0.474121,0
47730,0.580566,-0.54248,0.473633,0
47750,0.569824,-0.538086,0.474609,0
47770,0.573242,-0.535156,0.478516,0
47790,0.580566,-0.537109,0.474121,0
47810,0.585449,-0.536133,0.482422,0
47830,0.582031,-0.538574,0.48291,0
47850,0.576172,-0.54541,0.470703,0
47870,0.587402,-0.532715,0.480957,0
47890,0.589844,-0.527832,0.478027,0
47910,0.586914,-0.529297,0.47998,0
47930,0.592773,-0.533203,0.482422,0
47950,0.594238,-0.527832,0.484375,0
47970,0.594727,-0.527344,0.48291,0
47990,0.594238,-0.523438,0.483887,0
48010,0.602539,-0.520996,0.483398,0
48030,0.606445,-0.516602,0.483398,0
48050,0.601074,-0.52002,0.487305,0
48070,0.603516,-0.506348,0.492676,0
48090,0.604004,-0.510742,0.489746,0
48110,0.600586,-0.509766,0.486328,0
48130,0.605469,-0.509277,0.490723,0
48150,0.609375,-0.5,0.491211,0
48170,0.605957,-0.50293,0.492676,0
48190,0.604492,-0.502441,0.487793,0
48210,0.606445,-0.505371,0.495117,0
48230,0.602051,-0.499512,0.495117,0
48250,0.594727,-0.49707,0.493652,0
48270,0.59082,-0.491699,0.49707,0
48290,0.60791,-0.494629,0.507324,0
48310,0.602539,-0.48291,0.510742,0
48330,0.609863,-0.48291,0.510254,0
48350,0.60791,-0.480469,0.515625,0
48370,0.625488,-0.474609,0.516602,0
48390,0.621582,-0.475098,0.51416,0
48410,0.620605,-0.470703,0.507812,0
48430,0.624023,-0.469238,0.505859,0
48450,0.626953,-0.465332,0.509277,0
48470,0.622559,-0.46582,0.510742,0
48490,0.62793,-0.465332,0.508301,0
48510,0.617188,-0.45752,0.513672,0
48530,0.616211,-0.449219,0.515137,0
48550,0.611816,-0.452148,0.522949,0
48570,0.608887,-0.444336,0.521484,0
48590,0.613281,-0.454102,0.515137,0
48610,0.616211,-0.447754,0.520508,0
48630,0.615723,-0.449707,0.535156,0
48650,0.608398,-0.442871,0.526367,0
48670,0.611816,-0.442383,0.521973,0
48690,0.623535,-0.439941,0.525391,0
48710,0.615723,-0.439453,0.532715,0
48730,0.617676,-0.438965,0.523926,0
48750,0.618652,-0.438477,0.530762,0
48770,0.618652,-0.431152,0.530273,0
48790,0.601074,-0.429688,0.530762,0
48810,0.61084,-0.421387,0.537109,0
48830,0.616699,-0.419922,0.536621,0
48850,0.614746,-0.418945,0.54541,0
48870,0.621094,-0.421387,0.541504,0
48890,0.621582,-0.42041,0.541504,0
48910,0.609375,-0.421875,0.541992,0
48930,0.614258,-0.420898,0.548828,0
48950,0.613281,-0.411621,0.549316,0
48970,0.616699,-0.422363,0.547852,0
48990,0.628906,-0.41748,0.550293,0
49010,0.620605,-0.418457,0.560059,0
49030,0.612305,-0.42334,0.555176,0
49050,0.619141,-0.419922,0.561035,0
49070,0.611816,-0.405273,0.552246,0
49090,0.614746,-0.412109,0.544434,0
49100,0.611816,-0.419922,0.549316,0
49120,0.609863,-0.421387,0.554688,0
49140,0.607422,-0.423828,0.549316,0
49160,0.618652,-0.438477,0.54541,0
49180,0.609863,-0.429199,0.545898,0
49200,0.616699,-0.416504,0.543457,0
49220,0.626953,-0.427246,0.541016,0
49240,0.629395,-0.420898,0.543945,0
49260,0.618164,-0.421387,0.558594,0
49280,0.61084,-0.423828,0.555664,0
49300,0.59668,-0.431641,0.545898,0
49320,0.597168,-0.430176,0.546875,0
49340,0.601074,-0.417969,0.55127,0
49360,0.592285,-0.410156,0.548828,0
49380,0.59082,-0.421875,0.544922,0
49400,0.587402,-0.41748,0.545898,0
49420,0.590332,-0.415527,0.558594,0
49440,0.592773,-0.416016,0.550293,0
49460,0.588867,-0.417969,0.553223,0
49480,0.596191,-0.416504,0.549805,0
49500,0.605469,-0.424316,0.552734,0
49520,0.597168,-0.435547,0.550293,0
49540,0.593262,-0.441895,0.549805,0
49560,0.587891,-0.435547,0.557129,0
49580,0.583008,-0.42334,0.557129,0
49600,0.581055,-0.426758,0.553223,0
49620,0.590332,-0.4375,0.554199,0
49640,0.596191,-0.445801,0.566895,0
49660,0.582031,-0.436035,0.570312,0
49680,0.579102,-0.441895,0.55957,0
49700,0.588867,-0.439453,0.550293,0
49720,0.589844,-0.439453,0.563965,0
49740,0.580566,-0.444336,0.571289,0
49760,0.583984,-0.447754,0.560059,0
49780,0.59375,-0.45459,0.572266,0
49800,0.58252,-0.438965,0.571289,0
49820,0.580566,-0.436035,0.554688,0
49840,0.579102,-0.447754,0.556152,0
49860,0.57959,-0.440918,0.562988,0
49880,0.585449,-0.441895,0.560059,0
49900,0.587402,-0.461426,0.556152,0
49920,0.587402,-0.449219,0.560059,0
49940,0.566406,-0.436035,0.567383,0
49960,0.561035,-0.438477,0.547852,0
49980,0.569824,-0.445801,0.563965,0
50000,0.564941,-0.439941,0.566406,0
50020,0.558105,-0.447266,0.564941,0
50040,0.545898,-0.45166,0.558594,0
50060,0.557129,-0.462891,0.570312,0
50080,0.558594,-0.445801,0.573242,0
50100,0.553223,-0.441406,0.564941,0
50120,0.55127,-0.444336,0.561035,0
50140,0.557617,-0.455566,0.576172,0
50160,0.576172,-0.472656,0.57373,0
50180,0.570312,-0.486328,0.569824,0
50200,0.558594,-0.464355,0.560547,0
50220,0.568359,-0.454102,0.567383,0
50240,0.565918,-0.455566,0.571289,0
50260,0.569336,-0.480957,0.564941,0
50280,0.560059,-0.473145,0.578613,0
50300,0.544922,-0.46582,0.568848,0
50320,0.54541,-0.472168,0.562988,0
50340,0.539551,-0.466797,0.570801,0
50360,0.535645,-0.480957,0.568359,0
50380,0.533691,-0.483887,0.571289,0
50400,0.518066,-0.471191,0.580078,0
50420,0.495605,-0.477051,0.580078,0
50440,0.521484,-0.484375,0.574707,0
50460,0.533203,-0.469238,0.579102,0
50480,0.518066,-0.453125,0.581055,0
50500,0.524902,-0.461914,0.569824,0
50520,0.544922,-0.469238,0.578613,0
50540,0.541504,-0.461426,0.581543,0
50560,0.536133,-0.463379,0.582031,0
50580,0.538574,-0.457031,0.581055,0
50600,0.545898,-0.461914,0.584473,0
50620,0.545898,-0.45752,0.591309,0
50640,0.536133,-0.466309,0.580566,0
50660,0.541016,-0.466309,0.578125,0
50680,0.547852,-0.44873,0.585449,0
50700,0.547363,-0.449219,0.583984,0
50720,0.543945,-0.468262,0.566895,0
50740,0.547363,-0.48584,0.574219,0
50760,0.542969,-0.484375,0.575684,0
50780,0.537109,-0.473633,0.5625,0
50800,0.530762,-0.490234,0.562012,0
50820,0.54541,-0.488281,0.567871,0
50840,0.539062,-0.47998,0.57959,0
50860,0.525391,-0.480469,0.562012,0
50880,0.522949,-0.490723,0.567383,0
50900,0.519531,-0.503418,0.57666,0
50920,0.518066,-0.491699,0.568359,0
50940,0.520508,-0.498535,0.571289,0
50960,0.510742,-0.500977,0.573242,0
50980,0.51123,-0.492188,0.578613,0
51000,0.519043,-0.496094,0.569336,0
51020,0.519531,-0.500977,0.573242,0
51040,0.519043,-0.495605,0.571777,0
51060,0.521484,-0.48877,0.57959,0
51080,0.512207,-0.489746,0.568848,0
51100,0.523926,-0.510254,0.57666,0
51120,0.510742,-0.492676,0.578613,0
51140,0.503906,-0.487793,0.572754,0
51160,0.509277,-0.499023,0.57373,0
51180,0.512207,-0.505371,0.577637,0
51200,0.515137,-0.50293,0.578613,0
51220,0.506836,-0.50293,0.57373,0
51240,0.513672,-0.5,0.566406,0
51260,0.533203,-0.497559,0.580078,0
51280,0.506348,-0.502441,0.576172,0
51300,0.505371,-0.504395,0.559082,0
51320,0.537598,-0.509277,0.56543,0
51340,0.523438,-0.504395,0.575684,0
51360,0.5,-0.498535,0.572754,0
51380,0.508301,-0.500977,0.56543,0
51400,0.521484,-0.494629,0.570801,0
51420,0.51123,-0.500488,0.577148,0
51440,0.503418,-0.510254,0.564941,0
51460,0.51123,-0.510742,0.569824,0
51480,0.518555,-0.514648,0.571777,0
51500,0.516113,-0.50293,0.570801,0
51520,0.51123,-0.520508,0.561523,0
51540,0.52002,-0.524902,0.550293,0
51560,0.548828,-0.526367,0.571777,0
51580,0.523926,-0.51123,0.577148,0
51600,0.50293,-0.525391,0.553711,0
51620,0.515625,-0.527832,0.556152,0
51640,0.519531,-0.520996,0.571289,0
51660,0.500488,-0.506836,0.558105,0
51670,0.499512,-0.523926,0.560059,0
51690,0.516602,-0.533203,0.567383,0
51710,0.509766,-0.529297,0.562988,0
51730,0.514648,-0.515137,0.5625,0
51750,0.526367,-0.523438,0.565918,0
51770,0.513184,-0.525879,0.568359,0
51790,0.50293,-0.534668,0.558105,0
51810,0.515625,-0.530273,0.573242,0
51830,0.501953,-0.530273,0.575195,0
51850,0.499512,-0.526855,0.555176,0
51870,0.512695,-0.538574,0.558594,0
51890,0.519531,-0.539551,0.566406,0
51910,0.499023,-0.529785,0.573242,0
51930,0.491211,-0.521973,0.546875,0
51950,0.504883,-0.530762,0.560547,0
51970,0.495117,-0.540039,0.555664,0
51990,0.495117,-0.537109,0.547363,0
52010,0.498535,-0.53125,0.551758,0
52030,0.481445,-0.527344,0.564453,0
52050,0.469727,-0.541504,0.557129,0
52070,0.472656,-0.544922,0.550293,0
52090,0.478516,-0.555176,0.553711,0
52110,0.481445,-0.543945,0.55127,0
52130,0.479004,-0.546875,0.554688,0
52150,0.484375,-0.553223,0.54541,0
52170,0.505859,-0.56543,0.546875,0
52190,0.510254,-0.570312,0.544922,0
52210,0.497559,-0.57666,0.538086,0
52230,0.511719,-0.581543,0.538086,0
52250,0.513184,-0.586914,0.541504,0
52270,0.500488,-0.582031,0.535156,0
52290,0.50293,-0.593262,0.537598,0
52310,0.508789,-0.594727,0.546875,0
52330,0.494629,-0.589355,0.537109,0
52350,0.490234,-0.585938,0.529785,0
52370,0.498535,-0.59668,0.536621,0
52390,0.487305,-0.595215,0.525879,0
52410,0.490723,-0.600586,0.522949,0
52430,0.489258,-0.595703,0.529785,0
52450,0.484863,-0.587891,0.524414,0
52470,0.489258,-0.596191,0.522949,0
52490,0.492188,-0.589355,0.532227,0
52510,0.488281,-0.596191,0.525879,0
52530,0.491699,-0.583984,0.517578,0
52550,0.498535,-0.597168,0.517578,0
52570,0.494629,-0.59082,0.520996,0
52590,0.480469,-0.596191,0.51416,0
52610,0.481445,-0.591309,0.510254,0
52630,0.478516,-0.595703,0.51416,0
52650,0.472168,-0.590332,0.5,0
52670,0.481445,-0.59668,0.515137,0
52690,0.456055,-0.598633,0.52002,0
52710,0.444336,-0.606934,0.505371,0
52730,0.458496,-0.615234,0.505371,0
52750,0.437988,-0.608398,0.512695,0
52770,0.430664,-0.611816,0.501953,0
52790,0.45166,-0.624023,0.505859,0
52810,0.43457,-0.620117,0.507324,0
52830,0.436523,-0.618164,0.493652,0
52850,0.463867,-0.629883,0.496094,0
52870,0.464355,-0.635742,0.504395,0
52890,0.446289,-0.635254,0.48877,0
52910,0.474609,-0.646973,0.486328,0
52930,0.486328,-0.645508,0.500488,0
52950,0.464355,-0.639648,0.494141,0
52970,0.465332,-0.645508,0.482422,0
52990,0.474609,-0.64502,0.490234,0
53010,0.460449,-0.651367,0.48877,0
53030,0.465332,-0.645996,0.485352,0
53050,0.494141,-0.649414,0.491211,0
53050,0.473145,-0.643555,0.486328,0
53070,0.46582,-0.65332,0.480469,0
53090,0.483398,-0.644531,0.489746,0
53110,0.456543,-0.641113,0.490234,0
53130,0.453125,-0.647461,0.483887,0
53150,0.46875,-0.647949,0.478516,0
53170,0.454102,-0.639648,0.483398,0
53190,0.432617,-0.646484,0.475098,0
53210,0.437988,-0.653809,0.469727,0
53230,0.445312,-0.651855,0.473145,0
53250,0.433105,-0.648926,0.476074,0
53270,0.444336,-0.647949,0.470703,0
53290,0.452148,-0.653809,0.473145,0
53310,0.439941,-0.65332,0.473145,0
53330,0.443848,-0.661621,0.470703,0
53350,0.471191,-0.666016,0.481445,0
53370,0.455566,-0.660156,0.477051,0
53390,0.45752,-0.657715,0.467773,0
53410,0.480957,-0.678711,0.466309,0
53430,0.472656,-0.675781,0.473145,0
53450,0.458496,-0.680176,0.458984,0
53470,0.480469,-0.68457,0.459961,0
53490,0.490723,-0.683594,0.468262,0
53510,0.477051,-0.672363,0.461426,0
53530,0.475098,-0.689941,0.444336,0
53550,0.48877,-0.69043,0.450195,0
53570,0.475586,-0.680664,0.455078,0
53590,0.455078,-0.670898,0.44873,0
53610,0.445801,-0.671875,0.438965,0
53630,0.456055,-0.674316,0.429688,0
53650,0.453125,-0.676758,0.446777,0
53670,0.433105,-0.67041,0.437012,0
53690,0.439941,-0.681641,0.430664,0
53710,0.45752,-0.678223,0.430176,0
53730,0.455078,-0.666504,0.441895,0
53750,0.445312,-0.666016,0.435547,0
53770,0.460938,-0.678711,0.427734,0
53790,0.468262,-0.677246,0.434082,0
53810,0.463867,-0.675293,0.427734,0
53830,0.456543,-0.685547,0.434082,0
53850,0.487793,-0.673828,0.438477,0
53870,0.491699,-0.666504,0.436523,0
53890,0.48291,-0.669922,0.425781,0
53910,0.490723,-0.678223,0.428223,0
53930,0.503418,-0.684082,0.431641,0
53950,0.497559,-0.675293,0.421875,0
53970,0.508301,-0.679199,0.416992,0
53990,0.510742,-0.675293,0.42627,0
54010,0.505371,-0.671387,0.428711,0
54030,0.512695,-0.67334,0.414551,0
54050,0.518066,-0.674805,0.412598,0
54070,0.537598,-0.684082,0.409668,0
54090,0.541504,-0.67627,0.408203,0
54110,0.51416,-0.666992,0.39502,0
54130,0.51709,-0.658203,0.397949,0
54150,0.532715,-0.656738,0.412598,0
54170,0.523926,-0.668945,0.402832,0
54190,0.521484,-0.682129,0.38623,0
54210,0.531738,-0.67334,0.390625,0
54220,0.538574,-0.661621,0.397461,0
54240,0.538574,-0.65918,0.394043,0
54260,0.534668,-0.665527,0.377441,0
54280,0.541504,-0.66748,0.387695,0
54300,0.546875,-0.664551,0.402344,0
54320,0.537109,-0.664062,0.382324,0
54340,0.540039,-0.654785,0.381348,0
54360,0.543457,-0.650879,0.38916,0
54380,0.552734,-0.651855,0.380371,0
54400,0.545898,-0.655273,0.376465,0
54420,0.552246,-0.648926,0.37793,0
54440,0.567383,-0.64502,0.378906,0
54460,0.571777,-0.636719,0.369629,0
54480,0.563965,-0.63916,0.376953,0
54500,0.568848,-0.64209,0.37207,0
54520,0.586426,-0.636719,0.370605,0
54540,0.586914,-0.637695,0.370605,0
54560,0.579102,-0.63623,0.36084,0
54580,0.579102,-0.63916,0.357422,0
54600,0.590332,-0.629883,0.363281,0
54620,0.600586,-0.619629,0.356445,0
54640,0.604492,-0.629883,0.348145,0
54660,0.610352,-0.626953,0.345703,0
54680,0.609375,-0.626953,0.358887,0
54700,0.605469,-0.629395,0.343262,0
54720,0.616699,-0.636719,0.341797,0
54740,0.628418,-0.633301,0.344727,0
54760,0.618652,-0.62207,0.34082,0
54780,0.612793,-0.615723,0.328125,0
54800,0.635254,-0.630859,0.337891,0
54820,0.647949,-0.625977,0.337402,0
54840,0.634766,-0.62207,0.337891,0
54860,0.631836,-0.619629,0.328613,0
54880,0.651855,-0.618164,0.322754,0
54900,0.659668,-0.622559,0.324219,0
54920,0.660645,-0.612793,0.319336,0
54940,0.663574,-0.61084,0.319336,0
54960,0.664551,-0.612305,0.3125,0
54980,0.674805,-0.616211,0.302734,0
55000,0.665527,-0.60791,0.312988,0
55020,0.648926,-0.591309,0.308105,0
55040,0.666504,-0.601562,0.304199,0
55060,0.666992,-0.597656,0.310547,0
55080,0.647461,-0.586914,0.30127,0
55100,0.662598,-0.597168,0.295898,0
55120,0.661621,-0.581055,0.305176,0
55140,0.657715,-0.575684,0.302734,0
55160,0.662109,-0.581055,0.297363,0
55180,0.661621,-0.577148,0.308105,0
55200,0.66748,-0.580566,0.297852,0
55220,0.671875,-0.577637,0.295898,0
55240,0.668457,-0.579102,0.300781,0
55260,0.674805,-0.574707,0.297363,0
55280,0.685059,-0.570801,0.291992,0
55300,0.694824,-0.567383,0.296875,0
55320,0.688477,-0.563477,0.289551,0
55340,0.709473,-0.564941,0.285645,0
55360,0.723633,-0.563477,0.282715,0
55380,0.728027,-0.566895,0.272461,0
55400,0.712891,-0.564941,0.255859,0
55420,0.727051,-0.562988,0.252441,0
55440,0.730957,-0.561035,0.251953,0
55460,0.726562,-0.55957,0.248535,0
55480,0.729004,-0.560059,0.240723,0
55500,0.728516,-0.548828,0.246094,0
55520,0.72168,-0.546875,0.244629,0
55540,0.730957,-0.547363,0.242188,0
55560,0.727051,-0.541504,0.243652,0
55580,0.725586,-0.530762,0.244141,0
55600,0.744141,-0.532715,0.242188,0
55620,0.735352,-0.535645,0.244629,0
55640,0.737305,-0.524902,0.234375,0
55660,0.751465,-0.535156,0.230957,0
55680,0.758789,-0.53125,0.21875,0
55700,0.753906,-0.524902,0.220215,0
55720,0.763672,-0.525391,0.219238,0
55740,0.765137,-0.524414,0.208496,0
55760,0.775879,-0.523438,0.213379,0
55780,0.769043,-0.522461,0.214844,0
55800,0.761719,-0.51416,0.211426,0
55820,0.768066,-0.509277,0.211914,0
55840,0.78418,-0.508789,0.214844,0
55860,0.766602,-0.503418,0.207031,0
55880,0.782227,-0.492676,0.210449,0
55900,0.800781,-0.489746,0.209473,0
55920,0.791016,-0.479004,0.20752,0
55940,0.80127,-0.48291,0.199707,0
55960,0.8125,-0.476562,0.191895,0
55980,0.817383,-0.466309,0.197266,0
56000,0.807617,-0.458984,0.193359,0
56020,0.824219,-0.456543,0.194824,0
56040,0.827637,-0.464355,0.193848,0
56060,0.827148,-0.444336,0.191895,0
56080,0.833496,-0.435059,0.195312,0
56100,0.835938,-0.428223,0.197754,0
56120,0.833984,-0.433594,0.192871,0
56140,0.833008,-0.42041,0.202637,0
56160,0.828613,-0.416504,0.20166,0
56180,0.822266,-0.402344,0.207031,0
56200,0.825195,-0.404297,0.212402,0
56200,0.817871,-0.390625,0.213379,0
56220,0.82666,-0.384766,0.224609,0
56240,0.835938,-0.372559,0.222656,0
56260,0.837891,-0.364258,0.217773,0
56280,0.838867,-0.36084,0.227539,0
56300,0.834473,-0.372559,0.216309,0
56320,0.850098,-0.366699,0.214844,0
56340,0.855957,-0.356934,0.223145,0
56360,0.859375,-0.358887,0.233887,0
56380,0.850098,-0.354004,0.22998,0
56400,0.849609,-0.347656,0.248047,0
56420,0.838867,-0.339844,0.249023,0
56440,0.86377,-0.35498,0.23877,0
56460,0.858398,-0.34082,0.262695,0
56480,0.824707,-0.333008,0.280762,0
56500,0.817871,-0.335938,0.265137,0
56520,0.847656,-0.328125,0.279785,0
56540,0.871582,-0.338379,0.273438,0
56560,0.84375,-0.323242,0.297363,0
56580,0.828613,-0.31543,0.300293,0
56600,0.850098,-0.337402,0.284668,0
56620,0.836426,-0.334473,0.298828,0
56640,0.840332,-0.32959,0.31543,0
56660,0.838867,-0.315918,0.317871,0
56680,0.84082,-0.317383,0.310547,0
56700,0.847168,-0.32373,0.310059,0
56720,0.84082,-0.32373,0.317871,0
56740,0.823242,-0.317383,0.321289,0
56760,0.802734,-0.321289,0.333008,0
56780,0.802246,-0.316895,0.341309,0
56790,0.810547,-0.333008,0.345215,0
56810,0.821289,-0.344727,0.345215,0
56830,0.796387,-0.333008,0.370605,0
56850,0.769043,-0.31543,0.370605,0
56870,0.781738,-0.333984,0.352539,0
56890,0.797363,-0.335938,0.368164,0
56910,0.777344,-0.325195,0.39209,0
56930,0.757812,-0.333984,0.378418,0
56950,0.78125,-0.360352,0.373535,0
56970,0.779297,-0.349609,0.383301,0
56990,0.742188,-0.333984,0.397949,0
57010,0.737305,-0.338379,0.406738,0
57030,0.75293,-0.348145,0.396973,0
57050,0.749512,-0.358887,0.412109,0
57070,0.73291,-0.333008,0.425293,0
57090,0.750488,-0.34668,0.413574,0
57110,0.771484,-0.337891,0.41748,0
57130,0.762207,-0.324707,0.42334,0
57150,0.757324,-0.337402,0.40918,0
57170,0.763184,-0.353516,0.405762,0
57190,0.772461,-0.350098,0.418457,0
57210,0.771973,-0.35498,0.416992,0
57230,0.760742,-0.34668,0.416504,0
57250,0.757324,-0.330566,0.429199,0
57270,0.769043,-0.337402,0.429199,0
57290,0.754883,-0.355469,0.4375,0
57310,0.738281,-0.360352,0.430664,0
57330,0.726562,-0.345703,0.429688,0
57350,0.729492,-0.344727,0.437988,0
57370,0.73584,-0.349121,0.431152,0
57390,0.734375,-0.357422,0.446777,0
57410,0.704102,-0.361328,0.456543,0
57430,0.702637,-0.358398,0.45459,0
57450,0.724121,-0.355469,0.447266,0
57470,0.720215,-0.370117,0.452637,0
57490,0.714844,-0.363281,0.453613,0
57510,0.69873,-0.367676,0.451172,0
57530,0.70166,-0.364746,0.455078,0
57550,0.71875,-0.364746,0.448242,0
57570,0.725098,-0.362305,0.460449,0
57590,0.708984,-0.364746,0.464355,0
57610,0.686035,-0.360352,0.466797,0
57630,0.700684,-0.371094,0.472656,0
57650,0.711914,-0.359375,0.473633,0
57670,0.709961,-0.370117,0.473633,0
57690,0.714355,-0.364258,0.46875,0
57710,0.714844,-0.356445,0.46875,0
57730,0.711426,-0.365234,0.463379,0
57750,0.708496,-0.378906,0.463379,0
57770,0.714355,-0.379395,0.468262,0
57790,0.711914,-0.369141,0.467285,0
57810,0.712402,-0.364746,0.454102,0
57830,0.714844,-0.376953,0.448242,0
57850,0.718262,-0.383789,0.449219,0
57870,0.731445,-0.376465,0.447754,0
57890,0.735352,-0.384277,0.44873,0
57910,0.726074,-0.385742,0.442383,0
57930,0.736328,-0.394043,0.4375,0
57950,0.705566,-0.387207,0.446289,0
57970,0.69873,-0.402832,0.434082,0
57990,0.708008,-0.40918,0.438477,0
58010,0.693359,-0.415039,0.437012,0
58030,0.688965,-0.408203,0.438477,0
58050,0.694824,-0.424316,0.447754,0
58070,0.665527,-0.409668,0.453613,0
58090,0.639648,-0.406738,0.46875,0
58110,0.659668,-0.402832,0.457031,0
58130,0.692871,-0.40918,0.472168,0
58150,0.693848,-0.41748,0.487305,0
58170,0.668457,-0.406738,0.482422,0
58190,0.669922,-0.409668,0.483398,0
58210,0.680176,-0.403809,0.501953,0
58230,0.647461,-0.39209,0.495117,0
58250,0.645508,-0.399902,0.488281,0
58270,0.665527,-0.40625,0.501465,0
58290,0.641602,-0.40625,0.501953,0
58310,0.634277,-0.401367,0.507812,0
58330,0.669434,-0.40625,0.51123,0
58350,0.66748,-0.403809,0.510254,0
58370,0.640137,-0.397461,0.501953,0
58390,0.655273,-0.417969,0.505371,0
58410,0.663086,-0.415039,0.506348,0
58430,0.645508,-0.42041,0.510254,0
58450,0.63623,-0.415039,0.492188,0
58470,0.65625,-0.416992,0.513184,0
58490,0.645996,-0.410156,0.506348,0
58510,0.638672,-0.42041,0.487793,0
58530,0.660156,-0.426758,0.505371,0
58550,0.674805,-0.427246,0.506836,0
58570,0.664551,-0.409668,0.519043,0
58590,0.643555,-0.418945,0.500488,0
58610,0.675781,-0.418457,0.505859,0
58630,0.683594,-0.425293,0.525391,0
58650,0.631836,-0.420898,0.504883,0
58670,0.63916,-0.428711,0.493652,0
58690,0.670898,-0.429199,0.521973,0
58710,0.620605,-0.418457,0.509766,0
58730,0.583984,-0.422363,0.474609,0
58750,0.631836,-0.436523,0.493164,0
58770,0.653809,-0.432617,0.510254,0
58790,0.646484,-0.437988,0.490723,0
58810,0.652344,-0.440918,0.503418,0
58830,0.650391,-0.445312,0.50293,0
58850,0.651367,-0.458496,0.505371,0
58870,0.647949,-0.45459,0.494141,0
58890,0.660645,-0.44873,0.499023,0
58910,0.62793,-0.441406,0.5,0
58930,0.604004,-0.446289,0.475586,0
58950,0.665039,-0.472168,0.474609,0
58970,0.66748,-0.47998,0.486328,0
58990,0.64502,-0.460938,0.478027,0
59010,0.63623,-0.459473,0.47168,0
59030,0.637695,-0.45752,0.475586,0
59050,0.635254,-0.486328,0.480469,0
59070,0.631836,-0.47998,0.480957,0
59090,0.635254,-0.47998,0.480957,0
59110,0.639648,-0.479492,0.478516,0
59130,0.618164,-0.479004,0.477539,0
59150,0.640137,-0.477539,0.472168,0
59170,0.648438,-0.487305,0.481445,0
59190,0.609863,-0.48291,0.480469,0
59210,0.593262,-0.485352,0.45752,0
59230,0.646484,-0.498047,0.472168,0
59250,0.644043,-0.504883,0.489746,0
59270,0.605957,-0.496094,0.47998,0
59290,0.606445,-0.496094,0.463379,0
59310,0.628906,-0.505859,0.482422,0
59330,0.602539,-0.508789,0.490723,0
59350,0.578125,-0.516113,0.477539,0
59360,0.586914,-0.527344,0.485352,0
59380,0.576172,-0.518555,0.481445,0
59400,0.574707,-0.512207,0.477539,0
59420,0.569824,-0.527832,0.474609,0
59440,0.584473,-0.540527,0.471191,0
59460,0.599121,-0.549805,0.477539,0
59480,0.578125,-0.54541,0.469238,0
59500,0.584961,-0.54541,0.450195,0
59520,0.599121,-0.563477,0.45459,0
59540,0.586914,-0.566406,0.452637,0
59560,0.577148,-0.564941,0.450195,0
59580,0.589355,-0.562988,0.442383,0
59600,0.601562,-0.566895,0.445312,0
59620,0.587891,-0.566406,0.438477,0
59640,0.580078,-0.563477,0.431152,0
59660,0.591797,-0.56543,0.42627,0
59680,0.605469,-0.570312,0.424805,0
59700,0.592285,-0.571289,0.427246,0
59720,0.592773,-0.565918,0.429199,0
59740,0.589844,-0.561523,0.418457,0
59760,0.569824,-0.56543,0.418457,0
59780,0.589355,-0.578125,0.40625,0
59800,0.610352,-0.577148,0.42041,0
59820,0.580078,-0.567871,0.416992,0
59840,0.570801,-0.569336,0.407715,0
59860,0.580566,-0.57666,0.406738,0
59880,0.59668,-0.589355,0.412598,0
59900,0.585449,-0.591309,0.406738,0
59920,0.574707,-0.588379,0.396484,0
59940,0.584961,-0.594727,0.407227,0
59960,0.583496,-0.598633,0.400391,0
59980,0.55957,-0.594238,0.399414,0
60000,0.536621,-0.607422,0.386719,0
60020,0.561035,-0.619141,0.380859,0
60040,0.583008,-0.632812,0.398926,0
60060,0.560547,-0.629883,0.397949,0
60080,0.572754,-0.641602,0.373047,0
60100,0.591797,-0.651367,0.379883,0
60120,0.583496,-0.651855,0.391113,0
60140,0.577637,-0.645508,0.381348,0
60160,0.597168,-0.656738,0.375488,0
60180,0.609375,-0.648438,0.385254,0
60200,0.584961,-0.640625,0.384277,0
60220,0.57959,-0.636719,0.360352,0
60240,0.604492,-0.646973,0.368164,0
60260,0.590332,-0.644531,0.369141,0
60280,0.584961,-0.642578,0.351074,0
60300,0.619141,-0.650391,0.340332,0
60320,0.638672,-0.63916,0.355469,0
60340,0.625977,-0.629883,0.345703,0
60360,0.615723,-0.624512,0.332031,0
60380,0.618164,-0.630371,0.334473,0
60400,0.62207,-0.623047,0.345703,0
60420,0.615234,-0.619141,0.348145,0
60440,0.609863,-0.60498,0.33252,0
60460,0.606445,-0.592285,0.336914,0
60480,0.603027,-0.601074,0.337891,0
60500,0.603027,-0.598633,0.330078,0
60520,0.615234,-0.597656,0.349121,0
60540,0.645996,-0.605469,0.348145,0
60560,0.665527,-0.609863,0.334473,0
60580,0.652832,-0.615723,0.338379,0
60600,0.645996,-0.605469,0.341797,0
60620,0.662109,-0.612793,0.340332,0
60640,0.674805,-0.608887,0.333984,0
60660,0.659668,-0.607422,0.338867,0
60680,0.646484,-0.600586,0.336426,0
60700,0.639648,-0.603516,0.327637,0
60720,0.626465,-0.600098,0.325684,0
60740,0.62207,-0.604492,0.314941,0
60760,0.636719,-0.605469,0.304199,0
60780,0.655273,-0.608887,0.292969,0
60800,0.63916,-0.595703,0.294922,0
60820,0.651367,-0.597168,0.289551,0
60840,0.680664,-0.605469,0.302734,0
60860,0.683105,-0.598145,0.291992,0
60880,0.670898,-0.588379,0.285645,0
60900,0.691895,-0.59082,0.279785,0
60920,0.717285,-0.591309,0.28125,0
60940,0.736328,-0.592773,0.273438,0
60960,0.720703,-0.586914,0.270996,0
60980,0.711426,-0.575684,0.268066,0
61000,0.708496,-0.575684,0.26123,0
61020,0.696289,-0.574219,0.26123,0
61040,0.687012,-0.568848,0.263672,0
61060,0.683105,-0.557129,0.255371,0
61080,0.69043,-0.565918,0.254395,0
61100,0.684082,-0.565918,0.250488,0
61120,0.687012,-0.563965,0.241699,0
61140,0.711426,-0.55127,0.239746,0
61160,0.716797,-0.555176,0.23584,0
61180,0.717773,-0.561035,0.220703,0
61200,0.716309,-0.567383,0.225586,0
61220,0.742188,-0.553223,0.222168,0
61240,0.745605,-0.544434,0.219238,0
61260,0.75,-0.541992,0.204102,0
61280,0.745605,-0.549316,0.204102,0
61300,0.73877,-0.541992,0.204102,0
61320,0.758301,-0.536621,0.216309,0
61340,0.762207,-0.524902,0.214355,0
61360,0.763672,-0.519043,0.206543,0
61380,0.776855,-0.516602,0.198242,0
61400,0.787109,-0.520508,0.20459,0
61420,0.79248,-0.511719,0.205566,0
61440,0.800781,-0.51416,0.197266,0
61460,0.802246,-0.501953,0.183594,0
61480,0.79834,-0.485352,0.192871,0
61500,0.81543,-0.494141,0.181152,0
61520,0.821289,-0.493164,0.177246,0
61540,0.800293,-0.475098,0.179199,0
61560,0.800293,-0.47168,0.178223,0
61580,0.816895,-0.472168,0.178223,0
61600,0.813965,-0.458984,0.186035,0
61620,0.80957,-0.459473,0.186523,0
61640,0.8125,-0.462891,0.173828,0
61660,0.808105,-0.442383,0.180176,0
61680,0.811523,-0.436523,0.181641,0
61700,0.828125,-0.435547,0.175293,0
61720,0.839844,-0.429688,0.171387,0
61740,0.83252,-0.422363,0.171875,0
61760,0.845703,-0.425293,0.164062,0
61780,0.866699,-0.424316,0.160156,0
61800,0.866211,-0.423828,0.167969,0
61820,0.854004,-0.405273,0.17627,0
61840,0.853027,-0.405762,0.163086,0
61860,0.852051,-0.402344,0.160156,0
61880,0.860352,-0.392578,0.162109,0
61900,0.85791,-0.382812,0.166992,0
61920,0.856445,-0.383789,0.166504,0
61930,0.848633,-0.371582,0.17334,0
61950,0.848145,-0.369629,0.17627,0
61970,0.857422,-0.351074,0.169434,0
61990,0.856934,-0.350098,0.17627,0
62010,0.862793,-0.348633,0.166504,0
62030,0.856934,-0.356934,0.177246,0
62050,0.870117,-0.357422,0.177734,0
62070,0.880859,-0.343262,0.179688,0
62090,0.890625,-0.328613,0.182617,0
62110,0.887695,-0.328125,0.173828,0
62130,0.882324,-0.340332,0.172363,0
62150,0.870117,-0.347656,0.165527,0
62170,0.82959,-0.325195,0.195312,0
62190,0.837891,-0.302734,0.190918,0
62210,0.866211,-0.286621,0.197266,0
62230,0.867676,-0.273438,0.207031,0
62250,0.862305,-0.275391,0.218262,0
62270,0.876953,-0.279297,0.220215,0
62290,0.878418,-0.265625,0.236328,0
62310,0.883789,-0.277344,0.232422,0
62330,0.894531,-0.287598,0.227051,0
62350,0.881836,-0.285645,0.234375,0
62370,0.867676,-0.281738,0.250488,0
62390,0.878418,-0.282227,0.228027,0
62410,0.890625,-0.280762,0.238281,0
62430,0.890625,-0.279297,0.248535,0
62450,0.874023,-0.266602,0.242676,0
62470,0.878906,-0.257324,0.228516,0
62490,0.886719,-0.263184,0.237793,0
62510,0.872559,-0.260742,0.246094,0
62530,0.861328,-0.260742,0.238281,0
62550,0.862793,-0.260742,0.238281,0
62570,0.867676,-0.259766,0.241211,0
62590,0.879395,-0.262207,0.243164,0
62610,0.876465,-0.248047,0.243652,0
62630,0.864258,-0.254883,0.256348,0
62650,0.866699,-0.256348,0.255371,0
62670,0.871094,-0.252441,0.254395,0
62690,0.849609,-0.251465,0.273926,0
62710,0.84668,-0.243652,0.265625,0
62730,0.854004,-0.255859,0.259277,0
62750,0.850098,-0.258301,0.266602,0
62770,0.846191,-0.243164,0.28418,0
62790,0.856934,-0.23877,0.267578,0
62810,0.852539,-0.256348,0.27002,0
62830,0.85791,-0.266113,0.272461,0
62850,0.86377,-0.260742,0.293945,0
62870,0.856445,-0.255859,0.291992,0
62890,0.858398,-0.269531,0.286621,0
62910,0.857422,-0.258789,0.286621,0
62930,0.858887,-0.26416,0.300781,0
62950,0.84375,-0.274414,0.30957,0
62970,0.861816,-0.260254,0.304688,0
62990,0.866211,-0.270508,0.313477,0
63010,0.847168,-0.254883,0.299316,0
63030,0.849609,-0.266113,0.297852,0
63050,0.850098,-0.271484,0.305664,0
63070,0.846191,-0.272949,0.322754,0
63090,0.837891,-0.274414,0.301758,0
63110,0.849121,-0.273926,0.298828,0
63130,0.842285,-0.283203,0.313965,0
63150,0.838379,-0.272461,0.313477,0
63170,0.844727,-0.269531,0.320801,0
63190,0.830078,-0.269043,0.339355,0
63210,0.831055,-0.254883,0.317383,0
63230,0.855957,-0.272949,0.321777,0
63250,0.850586,-0.275391,0.332031,0
63270,0.833984,-0.280273,0.311035,0
63290,0.834961,-0.27002,0.314941,0
63310,0.833496,-0.263184,0.338379,0
63330,0.844727,-0.268066,0.33252,0
63350,0.847168,-0.272461,0.346191,0
63370,0.844727,-0.282715,0.344238,0
63390,0.836914,-0.277344,0.335938,0
63410,0.838379,-0.263184,0.33252,0
63430,0.850098,-0.277344,0.339844,0
63450,0.814941,-0.276855,0.355957,0
63470,0.786133,-0.282715,0.335938,0
63490,0.805664,-0.270996,0.353516,0
63510,0.803711,-0.257812,0.367188,0
63530,0.791504,-0.263184,0.348633,0
63550,0.788086,-0.29541,0.337402,0
63570,0.798828,-0.288086,0.356934,0
63590,0.791504,-0.29248,0.393066,0
63610,0.777344,-0.283203,0.376953,0
63630,0.785645,-0.282227,0.380859,0
63650,0.808105,-0.302734,0.371094,0
63670,0.82666,-0.303223,0.38623,0
63690,0.790039,-0.31543,0.394043,0
63710,0.771484,-0.3125,0.380859,0
63730,0.798828,-0.321777,0.405762,0
63750,0.795898,-0.32666,0.419922,0
63770,0.763184,-0.316406,0.396973,0
63790,0.783691,-0.320312,0.400391,0
63810,0.779785,-0.328613,0.410645,0
63830,0.76416,-0.333984,0.397949,0
63850,0.774414,-0.339844,0.402832,0
63870,0.760254,-0.333496,0.407715,0
63890,0.762695,-0.322754,0.418457,0
63910,0.755859,-0.34082,0.409668,0
63930,0.762695,-0.356445,0.401367,0
63950,0.78125,-0.36084,0.433594,0
63970,0.75293,-0.348633,0.447266,0
63990,0.728027,-0.35498,0.42041,0
64010,0.748535,-0.362305,0.420898,0
64030,0.757324,-0.37207,0.421387,0
64050,0.737793,-0.351562,0.431152,0
64070,0.694824,-0.362793,0.419434,0
64090,0.721191,-0.36084,0.416992,0
64110,0.725586,-0.37207,0.434082,0
64130,0.705078,-0.369141,0.440918,0
64150,0.726074,-0.368164,0.451172,0
64170,0.789062,-0.351074,0.52002,0
64190,0.757812,-0.36084,0.506836,0
64210,0.687988,-0.387207,0.419434,0
64230,0.670898,-0.368652,0.374512,0
64250,0.704102,-0.348145,0.41748,0
64270,0.666992,-0.338867,0.45166,0
64290,0.713379,-0.364746,0.460449,0
64310,0.731934,-0.390137,0.449707,0
64330,0.726074,-0.371582,0.427734,0
64350,0.706543,-0.359375,0.410156,0
64370,0.708008,-0.350586,0.434082,0
64390,0.748535,-0.379395,0.451172,0
64410,0.737305,-0.407227,0.452148,0
64430,0.700195,-0.412598,0.438965,0
64450,0.680664,-0.389648,0.420898,0
64470,0.728516,-0.379395,0.433594,0
64490,0.737793,-0.390137,0.441406,0
64500,0.678223,-0.392578,0.431641,0
64520,0.703125,-0.405762,0.436035,0
64540,0.748535,-0.400879,0.458496,0
64560,0.70459,-0.403809,0.441406,0
64580,0.650391,-0.396973,0.41748,0
64600,0.70459,-0.402344,0.437988,0
64620,0.748535,-0.414551,0.470215,0
64640,0.692871,-0.427246,0.449707,0
64660,0.662109,-0.433594,0.407715,0
64680,0.693848,-0.421387,0.411133,0
64700,0.734863,-0.414551,0.469238,0
64720,0.680176,-0.437988,0.443359,0
64740,0.662598,-0.45166,0.419434,0
64760,0.678223,-0.435547,0.409668,0
64780,0.712891,-0.428223,0.436035,0
64800,0.663574,-0.436523,0.432617,0
64820,0.664062,-0.450195,0.419434,0
64840,0.696777,-0.459961,0.422363,0
64860,0.687988,-0.459961,0.43457,0
64880,0.681641,-0.460938,0.426758,0
64900,0.686523,-0.462891,0.410156,0
64920,0.657715,-0.458008,0.397949,0
64940,0.689941,-0.464355,0.42041,0
64960,0.722656,-0.474121,0.435059,0
64980,0.676758,-0.48877,0.400391,0
65000,0.705078,-0.494629,0.38916,0
65020,0.77002,-0.501465,0.415527,0
65040,0.734863,-0.511719,0.410645,0
65060,0.654297,-0.505371,0.396973,0
65080,0.672852,-0.474121,0.375488,0
65100,0.698242,-0.487305,0.384766,0
65120,0.669434,-0.515137,0.38623,0
65140,0.714844,-0.530273,0.389648,0
65160,0.700195,-0.501953,0.388184,0
65180,0.67627,-0.491211,0.381348,0
65200,0.711426,-0.501953,0.390137,0
65220,0.685547,-0.525879,0.38916,0
65240,0.658203,-0.535156,0.375977,0
65260,0.677246,-0.500977,0.394043,0
65280,0.695801,-0.483887,0.407227,0
65300,0.671387,-0.52002,0.387207,0
65320,0.680176,-0.53418,0.389648,0
65340,0.692871,-0.51709,0.406738,0
65360,0.651855,-0.494141,0.394043,0
65380,0.650391,-0.50293,0.367676,0
65400,0.666504,-0.525879,0.375488,0
65420,0.661133,-0.522949,0.388672,0
65440,0.655273,-0.518066,0.394043,0
65460,0.683105,-0.526367,0.375488,0
65480,0.63916,-0.528809,0.367676,0
65500,0.633301,-0.53418,0.370605,0
65520,0.679199,-0.526855,0.378418,0
65540,0.649902,-0.533691,0.382812,0
65560,0.635254,-0.549805,0.350098,0
65580,0.652832,-0.555664,0.341797,0
65600,0.646484,-0.55127,0.369629,0
65620,0.666016,-0.552246,0.384766,0
65640,0.663574,-0.571289,0.359863,0
65660,0.654785,-0.573242,0.349609,0
65680,0.639648,-0.550781,0.359375,0
65700,0.654297,-0.550293,0.354492,0
65720,0.64209,-0.586914,0.359863,0
65740,0.65332,-0.586426,0.35791,0
65760,0.648438,-0.569824,0.367188,0
65780,0.631836,-0.557129,0.358398,0
65800,0.626953,-0.584961,0.349609,0
65820,0.632324,-0.597168,0.350098,0
65840,0.628418,-0.59668,0.345703,0
65860,0.624023,-0.592773,0.349609,0
65880,0.642578,-0.593262,0.344238,0
65900,0.624512,-0.617188,0.333984,0
65920,0.61084,-0.616699,0.32959,0
65940,0.631836,-0.623535,0.328613,0
65960,0.66748,-0.629395,0.331055,0
65980,0.623535,-0.637207,0.32666,0
66000,0.611328,-0.625,0.314453,0
66020,0.645996,-0.632324,0.322266,0
66040,0.655762,-0.62793,0.325195,0
66060,0.630371,-0.616699,0.309082,0
66080,0.634277,-0.61377,0.30127,0
66100,0.667969,-0.619141,0.320312,0
66120,0.650391,-0.621094,0.316406,0
66140,0.642578,-0.615234,0.288574,0
66160,0.67627,-0.61377,0.285156,0
66180,0.688477,-0.604004,0.303223,0
66200,0.649902,-0.598145,0.288086,0
66220,0.653809,-0.615723,0.263672,0
66240,0.687988,-0.625,0.266113,0
66260,0.686035,-0.622559,0.26416,0
66280,0.644531,-0.603027,0.251953,0
66300,0.648438,-0.599121,0.242188,0
66320,0.691895,-0.609863,0.250488,0
66340,0.686523,-0.605469,0.243164,0
66360,0.667969,-0.600098,0.23291,0
66380,0.671387,-0.597168,0.223633,0
66400,0.691406,-0.604492,0.232422,0
66420,0.688965,-0.594238,0.227051,0
66440,0.691895,-0.59668,0.203613,0
66460,0.70752,-0.586426,0.209473,0
66480,0.70752,-0.593262,0.225098,0
66500,0.697754,-0.589355,0.211426,0
66520,0.708984,-0.608887,0.195801,0
66540,0.724609,-0.612793,0.19873,0
