Timestamp, Acceleration x, Acceleration y, Acceleration z, Marker
50,-0.368164,-0.154785,0.848633,0
60,-0.370117,-0.155762,0.846191,0
80,-0.376953,-0.162109,0.84668,0
100,-0.381836,-0.164551,0.848633,0
120,-0.385254,-0.164062,0.84668,0
140,-0.389648,-0.158691,0.844238,0
160,-0.38916,-0.15918,0.84375,0
170,-0.389648,-0.158203,0.842773,0
170,-0.388672,-0.165527,0.833984,0
210,-0.385254,-0.15332,0.846191,0
230,-0.386719,-0.158203,0.84082,0
250,-0.387207,-0.153809,0.835938,0
270,-0.383301,-0.164062,0.836426,0
290,-0.387207,-0.163574,0.837402,0
310,-0.382812,-0.165039,0.839844,0
330,-0.387695,-0.162598,0.847168,0
350,-0.387207,-0.162109,0.84082,0
370,-0.387695,-0.162598,0.837891,0
390,-0.388184,-0.167969,0.838379,0
410,-0.388672,-0.170898,0.841797,0
430,-0.387695,-0.164062,0.842773,0
450,-0.390625,-0.166016,0.84668,0
470,-0.38623,-0.160156,0.84375,0
490,-0.38623,-0.166504,0.833984,0
510,-0.38623,-0.164062,0.835449,0
530,-0.382812,-0.166016,0.842285,0
550,-0.38623,-0.161621,0.848145,0
570,-0.386719,-0.160645,0.839355,0
590,-0.387695,-0.15918,0.847656,0
610,-0.387207,-0.166016,0.842285,0
630,-0.38916,-0.166504,0.842285,0
650,-0.385742,-0.163086,0.84082,0
670,-0.38916,-0.160156,0.843262,0
690,-0.389648,-0.159668,0.840332,0
710,-0.388672,-0.163086,0.836914,0
730,-0.387207,-0.158203,0.845703,0
750,-0.388672,-0.164551,0.846191,0
770,-0.385254,-0.157715,0.841309,0
790,-0.386719,-0.164551,0.84375,0
810,-0.387695,-0.166016,0.842773,0
830,-0.381836,-0.162109,0.841797,0
850,-0.381348,-0.164062,0.84375,0
870,-0.383301,-0.162598,0.844727,0
890,-0.38623,-0.161133,0.844727,0
910,-0.385742,-0.161621,0.840332,0
920,-0.38623,-0.159668,0.842773,0
940,-0.386719,-0.156738,0.84082,0
960,-0.387207,-0.160156,0.837402,0
980,-0.387207,-0.154785,0.842285,0
1000,-0.38623,-0.160156,0.842285,0
1020,-0.382812,-0.157715,0.845703,0
1040,-0.387695,-0.161621,0.847168,0
1060,-0.383789,-0.157227,0.846191,0
1080,-0.387207,-0.156738,0.844238,0
1100,-0.385254,-0.160645,0.837891,0
1120,-0.38916,-0.168457,0.844727,0
1140,-0.383789,-0.164062,0.838867,0
1160,-0.388184,-0.15918,0.841797,0
1180,-0.385254,-0.157227,0.848145,0
1200,-0.383789,-0.15625,0.84375,0
1220,-0.387695,-0.165527,0.839844,0
1240,-0.378906,-0.163574,0.842285,0
1260,-0.383789,-0.163574,0.841309,0
1280,-0.382324,-0.155273,0.84375,0
1300,-0.38623,-0.163574,0.844727,0
1320,-0.386719,-0.164062,0.842773,0
1340,-0.388672,-0.165527,0.842773,0
1360,-0.383301,-0.160645,0.839844,0
1380,-0.388672,-0.161133,0.845703,0
1400,-0.384766,-0.159668,0.844727,0
1420,-0.388184,-0.160645,0.846191,0
1440,-0.387207,-0.159668,0.837891,0
1460,-0.385742,-0.160156,0.837402,0
1480,-0.384277,-0.161133,0.843262,0
1500,-0.382812,-0.156738,0.844727,0
1520,-0.383789,-0.157227,0.838379,0
1540,-0.383301,-0.15918,0.842773,0
1560,-0.385254,-0.157715,0.846191,0
1580,-0.379395,-0.157715,0.839844,0
1600,-0.387695,-0.162109,0.846191,0
1620,-0.384766,-0.15625,0.844238,0
1640,-0.381836,-0.161621,0.848633,0
1660,-0.382812,-0.157715,0.841797,0
1680,-0.38916,-0.158691,0.852539,0
1700,-0.382324,-0.158691,0.847656,0
1720,-0.384277,-0.15918,0.84375,0
1740,-0.382324,-0.15625,0.843262,0
1760,-0.385742,-0.153809,0.84375,0
1780,-0.384277,-0.155273,0.850586,0
1800,-0.383789,-0.155273,0.851074,0
1820,-0.385742,-0.155762,0.844238,0
1840,-0.384766,-0.160645,0.84082,0
1860,-0.384766,-0.163086,0.840332,0
1880,-0.384277,-0.153809,0.842773,0
1900,-0.383301,-0.157715,0.844238,0
1920,-0.382812,-0.156738,0.848633,0
1940,-0.385254,-0.158203,0.849609,0
1960,-0.379395,-0.159668,0.84082,0
1980,-0.379395,-0.167969,0.844238,0
2000,-0.382324,-0.163574,0.84375,0
2020,-0.383301,-0.155273,0.846191,0
2040,-0.384277,-0.155273,0.846191,0
2060,-0.381836,-0.160645,0.842773,0
2080,-0.384277,-0.158203,0.846191,0
2100,-0.38623,-0.160156,0.841797,0
2120,-0.38623,-0.15625,0.841797,0
2140,-0.384277,-0.156738,0.841797,0
2160,-0.389648,-0.15918,0.844238,0
2180,-0.38623,-0.155273,0.845703,0
2200,-0.386719,-0.160156,0.847656,0
2220,-0.381348,-0.15918,0.839355,0
2240,-0.384277,-0.162598,0.841309,0
2260,-0.382812,-0.158203,0.839355,0
2280,-0.385254,-0.158691,0.850098,0
2300,-0.381348,-0.157715,0.842285,0
2320,-0.385742,-0.164062,0.839355,0
2340,-0.384277,-0.164062,0.846191,0
2360,-0.384277,-0.154785,0.842773,0
2380,-0.38623,-0.15625,0.841309,0
2400,-0.385254,-0.161133,0.841797,0
2440,-0.385742,-0.151855,0.839355,0
2460,-0.387207,-0.160156,0.839844,0
2480,-0.385254,-0.154297,0.849609,0
2500,-0.38623,-0.161621,0.847656,0
2520,-0.381348,-0.152344,0.847168,0
2540,-0.387207,-0.15918,0.84375,0
2560,-0.383301,-0.156738,0.837402,0
2580,-0.385742,-0.167969,0.838379,0
2600,-0.384766,-0.158203,0.840332,0
2620,-0.38623,-0.159668,0.847656,0
2640,-0.383301,-0.159668,0.848633,0
2660,-0.382324,-0.155273,0.846191,0
2680,-0.382812,-0.161621,0.839355,0
2700,-0.383301,-0.165039,0.842285,0
2720,-0.384277,-0.15918,0.845215,0
2740,-0.38623,-0.153809,0.84375,0
2760,-0.382324,-0.158691,0.842285,0
2780,-0.385254,-0.156738,0.847656,0
2800,-0.38623,-0.165039,0.845215,0
2820,-0.384766,-0.154297,0.844238,0
2840,-0.390137,-0.166016,0.844727,0
2850,-0.385254,-0.15332,0.844238,0
2870,-0.384766,-0.15918,0.847168,0
2890,-0.385742,-0.155762,0.846191,0
2910,-0.384277,-0.160645,0.841309,0
2930,-0.385254,-0.158691,0.847168,0
2950,-0.383789,-0.15918,0.845703,0
2970,-0.383301,-0.156738,0.842285,0
2990,-0.382812,-0.160645,0.842773,0
3010,-0.384766,-0.161133,0.841309,0
3030,-0.381348,-0.157227,0.845703,0
3050,-0.384277,-0.159668,0.847656,0
3070,-0.386719,-0.157227,0.843262,0
3090,-0.38623,-0.159668,0.844238,0
3110,-0.384277,-0.160156,0.844727,0
3130,-0.390137,-0.161133,0.844238,0
3150,-0.382324,-0.15332,0.841309,0
3170,-0.383789,-0.155273,0.84375,0
3190,-0.382324,-0.15918,0.849609,0
3210,-0.385254,-0.162598,0.847168,0
3230,-0.382812,-0.154297,0.849121,0
3250,-0.381836,-0.157227,0.844238,0
3270,-0.38623,-0.163086,0.84082,0
3290,-0.385742,-0.159668,0.84375,0
3310,-0.388184,-0.159668,0.851562,0
3330,-0.385254,-0.155762,0.845215,0
3350,-0.38623,-0.15918,0.850586,0
3370,-0.384766,-0.15625,0.844238,0
3390,-0.384766,-0.166016,0.838867,0
3410,-0.382324,-0.163574,0.84375,0
3430,-0.384277,-0.163086,0.850586,0
3450,-0.383789,-0.15332,0.839844,0
3470,-0.382812,-0.157715,0.847168,0
3490,-0.38623,-0.15625,0.845215,0
3510,-0.383301,-0.166016,0.84082,0
3530,-0.385254,-0.157715,0.848145,0
3550,-0.383789,-0.156738,0.84668,0
3570,-0.381348,-0.156738,0.842773,0
3590,-0.384766,-0.15332,0.842285,0
3610,-0.38623,-0.160645,0.846191,0
3630,-0.384766,-0.15625,0.842773,0
3650,-0.387695,-0.163574,0.84375,0
3670,-0.381348,-0.157227,0.838379,0
3690,-0.384277,-0.161133,0.844727,0
3710,-0.382812,-0.157715,0.846191,0
3730,-0.385742,-0.161621,0.842285,0
3750,-0.38623,-0.155762,0.850586,0
3770,-0.381836,-0.161621,0.843262,0
3790,-0.385742,-0.152344,0.847168,0
3810,-0.383789,-0.157227,0.84668,0
3830,-0.384766,-0.163086,0.843262,0
3850,-0.38623,-0.154785,0.842285,0
3870,-0.383789,-0.15918,0.845703,0
3890,-0.382324,-0.150879,0.848633,0
3910,-0.383789,-0.155762,0.853516,0
3930,-0.384277,-0.154297,0.849609,0
3950,-0.384277,-0.154785,0.837891,0
3970,-0.386719,-0.150879,0.84375,0
3990,-0.388184,-0.157227,0.838867,0
4010,-0.384277,-0.154297,0.844238,0
4030,-0.383789,-0.15918,0.849121,0
4050,-0.384277,-0.151855,0.848633,0
4070,-0.384277,-0.155762,0.848145,0
4090,-0.383301,-0.155762,0.837891,0
4110,-0.380859,-0.161621,0.845215,0
4130,-0.383789,-0.160645,0.841797,0
4150,-0.382812,-0.158203,0.842773,0
4170,-0.382812,-0.155273,0.848145,0
4190,-0.381348,-0.160156,0.846191,0
4210,-0.382324,-0.160156,0.844727,0
4230,-0.382812,-0.156738,0.846191,0
4250,-0.382324,-0.15918,0.84375,0
4270,-0.380859,-0.155273,0.842285,0
4290,-0.387207,-0.162598,0.841797,0
4310,-0.382324,-0.151855,0.841797,0
4330,-0.381348,-0.157227,0.849121,0
4350,-0.383301,-0.152832,0.842773,0
4370,-0.38623,-0.162109,0.846191,0
4390,-0.380371,-0.158691,0.848145,0
4410,-0.379883,-0.15625,0.842285,0
4430,-0.380859,-0.160156,0.847168,0
4450,-0.383301,-0.158691,0.844727,0
4470,-0.385742,-0.161133,0.841309,0
4490,-0.382324,-0.157227,0.84668,0
4510,-0.385742,-0.154785,0.844727,0
4530,-0.382812,-0.156738,0.845703,0
4550,-0.388672,-0.154785,0.84668,0
4570,-0.381836,-0.160645,0.846191,0
4590,-0.384766,-0.158203,0.838379,0
4610,-0.382812,-0.155762,0.844238,0
4630,-0.380859,-0.158203,0.849609,0
4650,-0.383301,-0.154785,0.84668,0
4670,-0.381836,-0.15918,0.849609,0
4690,-0.381836,-0.157715,0.84668,0
4710,-0.385254,-0.158691,0.839844,0
4730,-0.384766,-0.165039,0.838867,0
4750,-0.384277,-0.158203,0.845215,0
4770,-0.383789,-0.156738,0.856445,0
4790,-0.384766,-0.157715,0.84668,0
4810,-0.385742,-0.157715,0.842773,0
4830,-0.378906,-0.156738,0.842285,0
4850,-0.384277,-0.164062,0.840332,0
4870,-0.383301,-0.157715,0.842285,0
4890,-0.385742,-0.157715,0.842773,0
4910,-0.381836,-0.155762,0.84375,0
4930,-0.384277,-0.157715,0.847168,0
4950,-0.383301,-0.154785,0.848145,0
4970,-0.385742,-0.161621,0.840332,0
4990,-0.387207,-0.154297,0.845703,0
5010,-0.383789,-0.158203,0.841309,0
5030,-0.383789,-0.156738,0.839844,0
5050,-0.384766,-0.157227,0.844238,0
5070,-0.383301,-0.159668,0.84668,0
5090,-0.379883,-0.158203,0.851074,0
5110,-0.383301,-0.162109,0.848145,0
5130,-0.380371,-0.157227,0.844238,0
5150,-0.382812,-0.158203,0.842773,0
5170,-0.381348,-0.151855,0.844727,0
5190,-0.380859,-0.159668,0.851562,0
5210,-0.383301,-0.157227,0.84375,0
5230,-0.380371,-0.160645,0.842773,0
5250,-0.382324,-0.157227,0.84375,0
5270,-0.384766,-0.158203,0.841309,0
5290,-0.383789,-0.152344,0.851562,0
5310,-0.384766,-0.161133,0.846191,0
5330,-0.384766,-0.158203,0.847656,0
5350,-0.383301,-0.154785,0.848145,0
5370,-0.387207,-0.158691,0.848145,0
5390,-0.384766,-0.154785,0.850098,0
5410,-0.384766,-0.147461,0.850586,0
5430,-0.388184,-0.144043,0.836914,0
5450,-0.386719,-0.15918,0.837891,0
5470,-0.385254,-0.167969,0.836426,0
5490,-0.385742,-0.164062,0.831055,0
5510,-0.384277,-0.163086,0.834473,0
5530,-0.378906,-0.168945,0.844238,0
5550,-0.375977,-0.159668,0.846191,0
5570,-0.37207,-0.16748,0.839844,0
5590,-0.375,-0.169434,0.84082,0
5610,-0.369629,-0.166016,0.844238,0
5630,-0.371094,-0.157227,0.848633,0
5650,-0.375977,-0.153809,0.853027,0
5670,-0.373535,-0.151367,0.847656,0
5690,-0.376465,-0.145508,0.853027,0
5710,-0.377441,-0.154785,0.852051,0
5730,-0.375488,-0.142578,0.854492,0
5750,-0.384277,-0.137695,0.854004,0
5770,-0.387207,-0.12793,0.851074,0
5790,-0.384766,-0.131836,0.848145,0
5810,-0.383301,-0.136719,0.845215,0
5830,-0.383301,-0.144043,0.850586,0
5850,-0.379395,-0.14502,0.854004,0
5870,-0.375977,-0.151367,0.853027,0
5890,-0.373535,-0.157227,0.853027,0
5910,-0.373535,-0.155273,0.850098,0
5930,-0.374023,-0.15332,0.85498,0
5950,-0.371094,-0.153809,0.854492,0
5970,-0.371582,-0.152344,0.863281,0
5990,-0.374512,-0.151367,0.854492,0
6010,-0.378418,-0.151855,0.855469,0
6030,-0.388184,-0.145996,0.853027,0
6050,-0.388184,-0.163086,0.84668,0
6070,-0.395508,-0.162598,0.836914,0
6090,-0.398438,-0.175781,0.830078,0
6110,-0.398926,-0.184082,0.828613,0
6130,-0.401855,-0.188965,0.835449,0
6150,-0.394531,-0.181641,0.837402,0
6170,-0.389648,-0.196777,0.825684,0
6190,-0.382812,-0.20166,0.816895,0
6210,-0.370605,-0.196289,0.835938,0
6230,-0.364746,-0.190918,0.850586,0
6250,-0.36084,-0.18457,0.850098,0
6270,-0.367188,-0.185547,0.842773,0
6290,-0.378906,-0.191406,0.82959,0
6300,-0.39209,-0.195312,0.819824,0
6320,-0.401367,-0.1875,0.833984,0
6340,-0.406738,-0.189941,0.832031,0
6360,-0.40332,-0.188477,0.831543,0
6380,-0.404297,-0.186523,0.838379,0
6400,-0.398438,-0.182617,0.837891,0
6420,-0.393066,-0.186523,0.833008,0
6440,-0.385742,-0.193359,0.830078,0
6460,-0.385742,-0.185059,0.837891,0
6480,-0.387695,-0.187012,0.842285,0
6500,-0.387695,-0.185059,0.838379,0
6520,-0.391113,-0.191406,0.836914,0
6540,-0.38916,-0.189941,0.834473,0
6560,-0.386719,-0.186523,0.841309,0
6580,-0.388672,-0.180664,0.83252,0
6600,-0.385742,-0.187012,0.842773,0
6620,-0.388672,-0.181152,0.837402,0
6640,-0.391113,-0.178223,0.831543,0
6660,-0.393555,-0.181641,0.837402,0
6680,-0.391113,-0.182129,0.841309,0
6700,-0.390625,-0.175293,0.841309,0
6720,-0.391602,-0.173828,0.847168,0
6740,-0.386719,-0.17041,0.850586,0
6760,-0.384277,-0.167969,0.860352,0
6780,-0.387207,-0.166504,0.874512,0
6800,-0.388672,-0.163574,0.87793,0
6820,-0.391602,-0.168945,0.858887,0
6840,-0.395508,-0.181641,0.835449,0
6860,-0.398926,-0.195801,0.82666,0
6880,-0.395996,-0.189941,0.808594,0
6900,-0.401855,-0.200684,0.804199,0
6920,-0.405762,-0.20459,0.812012,0
6940,-0.395508,-0.196289,0.82666,0
6960,-0.382324,-0.189453,0.839844,0
6980,-0.371582,-0.193848,0.850586,0
7000,-0.381348,-0.186523,0.837402,0
7020,-0.383301,-0.213379,0.811523,0
7040,-0.355957,-0.258301,0.830078,0
7060,-0.418457,-0.205566,0.847656,0
7080,-0.365723,-0.181152,0.818848,0
7100,-0.384766,-0.216309,0.824219,0
7120,-0.388672,-0.217285,0.827637,0
7140,-0.384277,-0.207031,0.831543,0
7160,-0.382324,-0.211914,0.834473,0
7180,-0.386719,-0.209961,0.830566,0
7200,-0.390137,-0.214355,0.84375,0
7220,-0.385254,-0.203613,0.831543,0
7240,-0.390137,-0.205566,0.826172,0
7260,-0.394531,-0.200684,0.824219,0
7280,-0.399902,-0.209473,0.822754,0
7300,-0.396484,-0.205566,0.820801,0
7320,-0.394043,-0.207031,0.828613,0
7340,-0.397461,-0.195801,0.832031,0
7360,-0.38916,-0.19873,0.845215,0
7380,-0.388184,-0.203613,0.851074,0
7400,-0.384766,-0.197754,0.851562,0
7420,-0.384766,-0.19873,0.846191,0
7440,-0.39209,-0.203613,0.843262,0
7460,-0.397461,-0.205078,0.845215,0
7480,-0.396973,-0.198242,0.83252,0
7500,-0.402832,-0.202637,0.836426,0
7520,-0.399902,-0.192383,0.833984,0
7540,-0.404297,-0.19043,0.842773,0
7560,-0.402344,-0.179688,0.856445,0
7580,-0.405273,-0.199219,0.855469,0
7600,-0.411133,-0.202637,0.845215,0
7620,-0.401367,-0.23291,0.828125,0
7640,-0.418457,-0.238281,0.816406,0
7660,-0.402832,-0.248535,0.806152,0
7680,-0.409668,-0.258789,0.803711,0
7700,-0.426758,-0.254395,0.803223,0
7720,-0.414551,-0.259766,0.79541,0
7740,-0.430664,-0.261719,0.788086,0
7760,-0.427734,-0.266602,0.786133,0
7780,-0.428711,-0.276855,0.786621,0
7800,-0.43457,-0.290527,0.794922,0
7820,-0.451172,-0.288086,0.796387,0
7840,-0.445312,-0.323242,0.786133,0
7860,-0.451172,-0.320312,0.787109,0
7880,-0.446289,-0.331055,0.791016,0
7900,-0.460449,-0.318848,0.790039,0
7920,-0.459473,-0.325195,0.771484,0
7940,-0.460938,-0.339355,0.771484,0
7960,-0.456543,-0.34668,0.754883,0
7980,-0.446289,-0.354492,0.757812,0
8000,-0.452148,-0.345703,0.750977,0
8020,-0.460449,-0.355469,0.755371,0
8040,-0.464844,-0.355957,0.755371,0
8060,-0.460449,-0.358398,0.765625,0
8080,-0.456543,-0.349121,0.757324,0
8100,-0.463379,-0.357422,0.762695,0
8120,-0.471191,-0.353027,0.770508,0
8140,-0.464355,-0.365723,0.763184,0
8160,-0.472656,-0.375977,0.762695,0
8180,-0.469238,-0.377441,0.754395,0
8200,-0.467285,-0.373535,0.742188,0
8220,-0.470215,-0.361328,0.731934,0
8230,-0.473633,-0.367188,0.725098,0
8250,-0.473145,-0.362305,0.716309,0
8270,-0.478516,-0.370117,0.728516,0
8290,-0.475586,-0.368164,0.738281,0
8310,-0.479004,-0.383789,0.740234,0
8330,-0.466797,-0.369141,0.727051,0
8350,-0.472656,-0.387695,0.722168,0
8370,-0.454102,-0.384766,0.724609,0
8390,-0.457031,-0.39502,0.727539,0
8410,-0.460938,-0.383301,0.730469,0
8430,-0.462402,-0.377441,0.728027,0
8450,-0.46582,-0.388672,0.72168,0
8470,-0.473145,-0.399902,0.716797,0
8490,-0.47168,-0.403809,0.714844,0
8510,-0.478027,-0.416504,0.703125,0
8530,-0.488281,-0.42334,0.697754,0
8550,-0.493164,-0.416992,0.69873,0
8570,-0.495605,-0.418945,0.686035,0
8590,-0.499512,-0.416504,0.693359,0
8610,-0.49707,-0.416504,0.704102,0
8630,-0.490234,-0.40918,0.711914,0
8650,-0.492188,-0.40625,0.717285,0
8670,-0.491699,-0.393066,0.71582,0
8690,-0.494629,-0.39502,0.717285,0
8710,-0.494629,-0.396484,0.719727,0
8730,-0.494141,-0.410156,0.705078,0
8750,-0.48877,-0.407227,0.713867,0
8770,-0.487305,-0.405273,0.719727,0
8790,-0.486816,-0.400879,0.71582,0
8810,-0.485352,-0.398926,0.72168,0
8830,-0.484375,-0.401367,0.720703,0
8850,-0.48584,-0.400879,0.727539,0
8870,-0.490723,-0.40625,0.726562,0
8890,-0.487305,-0.40918,0.719727,0
8910,-0.491211,-0.409668,0.713379,0
8930,-0.491211,-0.400879,0.717773,0
8950,-0.492676,-0.405273,0.716797,0
8970,-0.493164,-0.400391,0.710938,0
8990,-0.491211,-0.401855,0.70752,0
9010,-0.493164,-0.400391,0.70752,0
9030,-0.487793,-0.397949,0.708496,0
9050,-0.489746,-0.402832,0.709961,0
9070,-0.489258,-0.405273,0.717285,0
9090,-0.491699,-0.408691,0.717773,0
9110,-0.487305,-0.402344,0.725098,0
9130,-0.486816,-0.402832,0.722168,0
9150,-0.47998,-0.402832,0.725098,0
9170,-0.486328,-0.402344,0.72998,0
9190,-0.484375,-0.398438,0.720703,0
9210,-0.475098,-0.404785,0.726074,0
9230,-0.474121,-0.397461,0.725098,0
9250,-0.477539,-0.400391,0.719727,0
9270,-0.476074,-0.389648,0.726562,0
9290,-0.477051,-0.39209,0.730469,0
9310,-0.476074,-0.385254,0.733887,0
9330,-0.477051,-0.387207,0.730957,0
9350,-0.47998,-0.383301,0.727539,0
9370,-0.473633,-0.382324,0.724609,0
9390,-0.466797,-0.380371,0.711426,0
9410,-0.464355,-0.382812,0.716797,0
9430,-0.466797,-0.370605,0.727051,0
9450,-0.460938,-0.367188,0.733887,0
9470,-0.470703,-0.365234,0.741211,0
9490,-0.476562,-0.355469,0.746094,0
9510,-0.476074,-0.361328,0.760742,0
9530,-0.472656,-0.35498,0.771484,0
9550,-0.461914,-0.358887,0.763672,0
9570,-0.446289,-0.34082,0.776855,0
9590,-0.435547,-0.326172,0.778809,0
9610,-0.424805,-0.314453,0.775391,0
9630,-0.418457,-0.311523,0.783691,0
9650,-0.42334,-0.304199,0.797363,0
9670,-0.425781,-0.297363,0.79834,0
9690,-0.43457,-0.30127,0.786621,0
9710,-0.435547,-0.302734,0.790527,0
9730,-0.439941,-0.29834,0.79541,0
9750,-0.437988,-0.282715,0.804199,0
9770,-0.446777,-0.288574,0.78418,0
9790,-0.445312,-0.288086,0.773926,0
9810,-0.455566,-0.296387,0.782715,0
9830,-0.458496,-0.300293,0.796387,0
9850,-0.457031,-0.315918,0.790527,0
9870,-0.45166,-0.301758,0.79541,0
9890,-0.447266,-0.295898,0.802246,0
9910,-0.437012,-0.286621,0.804688,0
9930,-0.42334,-0.289062,0.798828,0
9950,-0.414062,-0.290039,0.807617,0
9970,-0.413086,-0.282227,0.812012,0
9990,-0.419922,-0.279785,0.81543,0
10010,-0.418457,-0.26416,0.809082,0
10030,-0.424805,-0.263672,0.811523,0
10050,-0.424316,-0.26416,0.808105,0
10070,-0.424805,-0.271484,0.797852,0
10090,-0.419922,-0.274902,0.796875,0
10110,-0.42041,-0.277832,0.807129,0
10130,-0.406738,-0.27002,0.796875,0
10150,-0.416504,-0.285645,0.807129,0
10170,-0.414062,-0.275391,0.806641,0
10190,-0.412109,-0.279297,0.805176,0
10210,-0.414062,-0.274414,0.811035,0
10230,-0.416992,-0.279785,0.804199,0
10250,-0.41748,-0.284668,0.802246,0
10270,-0.419922,-0.285156,0.799316,0
10290,-0.419922,-0.289062,0.79541,0
10310,-0.417969,-0.283691,0.799316,0
10330,-0.422363,-0.283691,0.807617,0
10350,-0.417969,-0.275391,0.798828,0
10370,-0.408203,-0.264648,0.789062,0
10390,-0.423828,-0.280762,0.800293,0
10410,-0.423828,-0.283203,0.796875,0
10430,-0.410156,-0.270508,0.793945,0
10450,-0.419922,-0.282715,0.796875,0
10470,-0.416504,-0.281738,0.795898,0
10490,-0.414062,-0.277832,0.791992,0
10510,-0.419434,-0.277344,0.79248,0
10530,-0.421875,-0.279785,0.805176,0
10550,-0.422363,-0.271484,0.803711,0
10570,-0.421875,-0.273438,0.803223,0
10590,-0.429688,-0.273438,0.809082,0
10610,-0.428711,-0.26709,0.812988,0
10630,-0.423828,-0.273438,0.815918,0
10650,-0.42041,-0.262695,0.830566,0
10670,-0.415527,-0.260742,0.838867,0
10690,-0.408203,-0.259277,0.830566,0
10710,-0.402344,-0.26709,0.831543,0
10730,-0.394043,-0.262695,0.822266,0
10750,-0.392578,-0.271484,0.812988,0
10770,-0.390137,-0.275879,0.811523,0
10790,-0.394043,-0.282227,0.808594,0
10810,-0.393066,-0.286133,0.8125,0
10830,-0.400879,-0.290527,0.80957,0
10850,-0.408203,-0.286133,0.802246,0
10870,-0.415527,-0.28125,0.811523,0
10890,-0.42041,-0.277344,0.8125,0
10910,-0.428711,-0.278809,0.811035,0
10930,-0.4375,-0.29834,0.811035,0
10950,-0.444824,-0.305176,0.80957,0
10970,-0.439453,-0.318359,0.783691,0
10990,-0.427246,-0.333008,0.76709,0
11010,-0.424805,-0.337891,0.76416,0
11030,-0.416992,-0.336914,0.76709,0
11050,-0.420898,-0.335938,0.762207,0
11070,-0.418457,-0.335449,0.770508,0
11090,-0.424805,-0.333008,0.773926,0
11110,-0.429688,-0.335938,0.773926,0
11130,-0.438477,-0.334961,0.779297,0
11150,-0.448242,-0.334473,0.779297,0
11170,-0.447754,-0.333008,0.769043,0
11190,-0.452148,-0.336914,0.760254,0
11210,-0.453125,-0.335449,0.760254,0
11230,-0.45459,-0.347656,0.753906,0
11250,-0.459961,-0.354004,0.76123,0
11270,-0.463867,-0.360352,0.766113,0
11290,-0.455566,-0.347168,0.766113,0
11310,-0.455566,-0.354004,0.761719,0
11330,-0.447754,-0.352539,0.765137,0
11350,-0.448242,-0.355469,0.758789,0
11370,-0.452637,-0.352051,0.752441,0
11390,-0.453125,-0.351074,0.751953,0
11410,-0.458496,-0.351562,0.749023,0
11430,-0.461426,-0.350098,0.748535,0
11450,-0.46875,-0.358887,0.744141,0
11470,-0.466797,-0.356934,0.73877,0
11490,-0.470215,-0.365234,0.743164,0
11510,-0.468262,-0.359863,0.749023,0
11530,-0.469727,-0.365234,0.749512,0
11550,-0.466797,-0.362305,0.742188,0
11570,-0.472656,-0.370605,0.746094,0
11590,-0.467285,-0.372559,0.741699,0
11610,-0.466797,-0.371582,0.742676,0
11630,-0.467773,-0.364746,0.745605,0
11650,-0.467285,-0.368652,0.747559,0
11670,-0.46582,-0.361816,0.749512,0
11680,-0.467773,-0.365723,0.748535,0
11700,-0.467773,-0.36084,0.743652,0
11720,-0.466309,-0.36377,0.746094,0
11740,-0.466797,-0.362305,0.736328,0
11760,-0.466309,-0.362305,0.741211,0
11780,-0.471191,-0.367188,0.750488,0
11800,-0.465332,-0.361328,0.753906,0
11820,-0.470703,-0.360352,0.751465,0
11840,-0.470215,-0.356445,0.746582,0
11860,-0.468262,-0.363281,0.750488,0
11880,-0.462402,-0.35791,0.745605,0
11900,-0.464355,-0.363281,0.748535,0
11920,-0.463379,-0.35791,0.753906,0
11940,-0.465332,-0.361328,0.756836,0
11960,-0.466797,-0.358398,0.749512,0
11980,-0.46582,-0.358887,0.748047,0
12000,-0.461426,-0.357422,0.743652,0
12020,-0.462891,-0.360352,0.74707,0
12040,-0.467773,-0.362793,0.75,0
12060,-0.46582,-0.355957,0.754883,0
12080,-0.462891,-0.356445,0.753906,0
12100,-0.462402,-0.356445,0.751953,0
12120,-0.469727,-0.358887,0.754395,0
12140,-0.463379,-0.35791,0.751953,0
12160,-0.465332,-0.362793,0.748535,0
12180,-0.463867,-0.353516,0.756348,0
12200,-0.463379,-0.358398,0.760254,0
12220,-0.466797,-0.354004,0.75293,0
12240,-0.461914,-0.357422,0.753906,0
12260,-0.465332,-0.35791,0.762695,0
12280,-0.461914,-0.351562,0.759766,0
12300,-0.467773,-0.361328,0.753906,0
12320,-0.46582,-0.355469,0.750488,0
12340,-0.467773,-0.361328,0.749512,0
12360,-0.461914,-0.353027,0.753418,0
12380,-0.465332,-0.357422,0.750488,0
12400,-0.460938,-0.35498,0.757812,0
12420,-0.469238,-0.36084,0.758301,0
12440,-0.463379,-0.353516,0.746582,0
12460,-0.463867,-0.362305,0.749512,0
12480,-0.465332,-0.356934,0.745605,0
12500,-0.464355,-0.356934,0.750977,0
12520,-0.462402,-0.359375,0.759766,0
12540,-0.466309,-0.357422,0.756836,0
12560,-0.466309,-0.358398,0.754395,0
12580,-0.458496,-0.354492,0.747559,0
12600,-0.464844,-0.358398,0.737793,0
12620,-0.461914,-0.35498,0.73584,0
12640,-0.467773,-0.360352,0.726074,0
12660,-0.462402,-0.351074,0.742188,0
12680,-0.456543,-0.354492,0.751465,0
12700,-0.455566,-0.347168,0.773438,0
12720,-0.449219,-0.351562,0.773926,0
12740,-0.444336,-0.350586,0.779785,0
12760,-0.444824,-0.344727,0.77832,0
12780,-0.449707,-0.335938,0.777344,0
12800,-0.452148,-0.342773,0.782715,0
12820,-0.45166,-0.34082,0.789551,0
12840,-0.459473,-0.334473,0.801758,0
12860,-0.468262,-0.336426,0.800293,0
12880,-0.472168,-0.32959,0.790527,0
12900,-0.47168,-0.326172,0.76416,0
12920,-0.472656,-0.318359,0.742676,0
12940,-0.475586,-0.316895,0.731445,0
12960,-0.473633,-0.318848,0.729004,0
12980,-0.473145,-0.318848,0.725586,0
13000,-0.478027,-0.321777,0.737793,0
13020,-0.476562,-0.343262,0.744629,0
13040,-0.468262,-0.360352,0.748047,0
13060,-0.463867,-0.374512,0.759277,0
13080,-0.458984,-0.375,0.762207,0
13100,-0.451172,-0.376953,0.758789,0
13140,-0.449707,-0.355957,0.766602,0
13160,-0.450684,-0.349609,0.764648,0
13180,-0.45166,-0.351074,0.765625,0
13200,-0.458008,-0.347168,0.765625,0
13220,-0.460449,-0.346191,0.761719,0
13240,-0.460938,-0.347656,0.756836,0
13260,-0.459473,-0.334473,0.754883,0
13280,-0.464355,-0.333984,0.745605,0
13300,-0.463379,-0.332031,0.750977,0
13320,-0.469727,-0.337402,0.759766,0
13340,-0.467773,-0.339844,0.755859,0
13350,-0.467773,-0.342285,0.754883,0
13380,-0.468262,-0.337402,0.758301,0
13420,-0.467773,-0.351074,0.75,0
13440,-0.468262,-0.350098,0.751953,0
13460,-0.46875,-0.353516,0.756348,0
13480,-0.46582,-0.347168,0.761719,0
13500,-0.466309,-0.348145,0.763184,0
13520,-0.465332,-0.34668,0.76123,0
13540,-0.463867,-0.355469,0.755371,0
13560,-0.462891,-0.346191,0.755371,0
13580,-0.460449,-0.346191,0.759766,0
13600,-0.460938,-0.339844,0.763672,0
13620,-0.463379,-0.338379,0.76123,0
13640,-0.460449,-0.339844,0.758789,0
13650,-0.464844,-0.342285,0.758789,0
13670,-0.465332,-0.338379,0.762695,0
13690,-0.463867,-0.338379,0.760742,0
13710,-0.464844,-0.342773,0.757324,0
13730,-0.461914,-0.343262,0.760254,0
13750,-0.461426,-0.344238,0.760742,0
13770,-0.461426,-0.337891,0.759766,0
13790,-0.462402,-0.339844,0.76416,0
13810,-0.463867,-0.341309,0.757324,0
13830,-0.463379,-0.348145,0.751465,0
13850,-0.464355,-0.341797,0.758789,0
13870,-0.463379,-0.348633,0.755859,0
13890,-0.461426,-0.339355,0.754883,0
13910,-0.463379,-0.344727,0.751953,0
13930,-0.461914,-0.342773,0.752441,0
13950,-0.460449,-0.346191,0.758789,0
13970,-0.462402,-0.34082,0.762207,0
13990,-0.462891,-0.338379,0.757324,0
14010,-0.462402,-0.337891,0.761719,0
14030,-0.460449,-0.336914,0.76123,0
14050,-0.459961,-0.337891,0.756836,0
14070,-0.458496,-0.336914,0.762695,0
14090,-0.458984,-0.336914,0.763672,0
14110,-0.459961,-0.342773,0.762695,0
14130,-0.458496,-0.33252,0.764648,0
14150,-0.458984,-0.337891,0.76416,0
14170,-0.458008,-0.333984,0.76123,0
14190,-0.45752,-0.342285,0.757812,0
14210,-0.456055,-0.337402,0.756348,0
14230,-0.45752,-0.337891,0.763184,0
14250,-0.45166,-0.336426,0.766113,0
14270,-0.455566,-0.331055,0.764648,0
14290,-0.453125,-0.328613,0.772949,0
14310,-0.452637,-0.331055,0.770996,0
14330,-0.455078,-0.333496,0.774902,0
14350,-0.455566,-0.328613,0.772949,0
14370,-0.456055,-0.332031,0.770996,0
14390,-0.450684,-0.317871,0.76709,0
14410,-0.459961,-0.321777,0.758789,0
14430,-0.460449,-0.320801,0.762695,0
14450,-0.459473,-0.321289,0.766113,0
14470,-0.452148,-0.321289,0.762207,0
14490,-0.456055,-0.322266,0.763672,0
14510,-0.452637,-0.316406,0.76709,0
14530,-0.453125,-0.314941,0.768555,0
14550,-0.459473,-0.321777,0.766602,0
14570,-0.458984,-0.324219,0.771973,0
14590,-0.463867,-0.32959,0.776367,0
14610,-0.456543,-0.319824,0.769043,0
14630,-0.456543,-0.320312,0.771973,0
14650,-0.449219,-0.305664,0.76709,0
14670,-0.445312,-0.30127,0.769531,0
14690,-0.445801,-0.297852,0.773926,0
14710,-0.45459,-0.311035,0.76709,0
14730,-0.461914,-0.307129,0.771973,0
14750,-0.455566,-0.315918,0.774414,0
14770,-0.451172,-0.308105,0.768555,0
14790,-0.450195,-0.311523,0.780762,0
14810,-0.453613,-0.302734,0.771973,0
14830,-0.442871,-0.304199,0.778809,0
14850,-0.441406,-0.299805,0.777344,0
14870,-0.434082,-0.30127,0.780762,0
14890,-0.431152,-0.298828,0.79541,0
14910,-0.423828,-0.29248,0.794434,0
14930,-0.419434,-0.291016,0.803711,0
14950,-0.418945,-0.28125,0.803711,0
14970,-0.418457,-0.280273,0.795898,0
14990,-0.415527,-0.273438,0.800293,0
15010,-0.417969,-0.274414,0.802734,0
15030,-0.414062,-0.272461,0.808105,0
15050,-0.408203,-0.269531,0.818359,0
15070,-0.409668,-0.26123,0.816895,0
15090,-0.40625,-0.26123,0.819336,0
15110,-0.405273,-0.265625,0.822266,0
15130,-0.405762,-0.255859,0.816406,0
15150,-0.40332,-0.258301,0.826172,0
15170,-0.400391,-0.257324,0.817383,0
15190,-0.398926,-0.249512,0.82666,0
15210,-0.400391,-0.254395,0.828613,0
15230,-0.392578,-0.257324,0.825195,0
15250,-0.399902,-0.251953,0.818359,0
15270,-0.400391,-0.244141,0.816406,0
15290,-0.40332,-0.240723,0.815918,0
15310,-0.409668,-0.250977,0.805176,0
15330,-0.403809,-0.257812,0.806152,0
15350,-0.404297,-0.258301,0.814453,0
15370,-0.394531,-0.249512,0.82373,0
15390,-0.38916,-0.252441,0.831543,0
15410,-0.387207,-0.250977,0.848145,0
15430,-0.377441,-0.240723,0.852539,0
15450,-0.380859,-0.243164,0.853516,0
15470,-0.380371,-0.242676,0.852539,0
15490,-0.38916,-0.243652,0.841797,0
15510,-0.392578,-0.23877,0.831055,0
15530,-0.399414,-0.244141,0.828613,0
15550,-0.401367,-0.246094,0.817871,0
15570,-0.395996,-0.245117,0.821777,0
15590,-0.399414,-0.245117,0.818359,0
15610,-0.396973,-0.254395,0.818848,0
15630,-0.39209,-0.255859,0.817871,0
15650,-0.395508,-0.266602,0.82373,0
15670,-0.391113,-0.272461,0.825195,0
15690,-0.394531,-0.272949,0.817383,0
15710,-0.390625,-0.281738,0.808594,0
15730,-0.385742,-0.283203,0.800781,0
15750,-0.387695,-0.291992,0.794434,0
15770,-0.38916,-0.287109,0.786621,0
15790,-0.393066,-0.296875,0.783203,0
15810,-0.395508,-0.288086,0.787109,0
15830,-0.399414,-0.294922,0.797363,0
15850,-0.397461,-0.288574,0.79541,0
15860,-0.406738,-0.285156,0.79834,0
15880,-0.402344,-0.289062,0.79834,0
15900,-0.404785,-0.289551,0.803711,0
15920,-0.406738,-0.283691,0.805176,0
15940,-0.404297,-0.279297,0.805664,0
15960,-0.40332,-0.270508,0.803223,0
15980,-0.400391,-0.263672,0.814941,0
16000,-0.401367,-0.267578,0.818359,0
16020,-0.394043,-0.26123,0.817383,0
16040,-0.390625,-0.266602,0.820312,0
16060,-0.384766,-0.257812,0.818848,0
16080,-0.385742,-0.254883,0.822266,0
16100,-0.380859,-0.251953,0.826172,0
16120,-0.384277,-0.259277,0.827148,0
16140,-0.389648,-0.248535,0.825195,0
16160,-0.385742,-0.248535,0.82373,0
16180,-0.378906,-0.245117,0.828125,0
16200,-0.379395,-0.23877,0.833008,0
16220,-0.374512,-0.241699,0.843262,0
16240,-0.36084,-0.23877,0.84668,0
16260,-0.347168,-0.230957,0.853027,0
16280,-0.342773,-0.233398,0.85498,0
16300,-0.349121,-0.23877,0.86084,0
16320,-0.35791,-0.229004,0.853027,0
16340,-0.358398,-0.229492,0.850098,0
16360,-0.354004,-0.23291,0.844727,0
16370,-0.341309,-0.246582,0.847168,0
16390,-0.345703,-0.256348,0.851074,0
16410,-0.349609,-0.243164,0.855957,0
16430,-0.350098,-0.253418,0.837891,0
16450,-0.344727,-0.254883,0.847656,0
16470,-0.340332,-0.258789,0.839844,0
16490,-0.339844,-0.26123,0.837402,0
16510,-0.32959,-0.269043,0.830078,0
16540,-0.307129,-0.267578,0.824219,0
16560,-0.309082,-0.270508,0.818848,0
16580,-0.296875,-0.264648,0.819336,0
16600,-0.281738,-0.270996,0.824219,0
16620,-0.277832,-0.267578,0.843262,0
16640,-0.280273,-0.27002,0.85498,0
16660,-0.273926,-0.258301,0.862793,0
16680,-0.276855,-0.248535,0.871582,0
16700,-0.283203,-0.249512,0.880371,0
16720,-0.291016,-0.252441,0.882324,0
16740,-0.296387,-0.250488,0.85791,0
16760,-0.306641,-0.259766,0.846191,0
16780,-0.304199,-0.283203,0.827148,0
16800,-0.284668,-0.306152,0.823242,0
16820,-0.266113,-0.322266,0.819824,0
16840,-0.255859,-0.327148,0.830078,0
16860,-0.271484,-0.299805,0.832031,0
16870,-0.277344,-0.257324,0.84375,0
16880,-0.28125,-0.249023,0.84668,0
16900,-0.27832,-0.250488,0.852539,0
16920,-0.289062,-0.263184,0.857422,0
16940,-0.300781,-0.277344,0.856445,0
16960,-0.312012,-0.296387,0.851562,0
16970,-0.3125,-0.290039,0.844727,0
16990,-0.324219,-0.286621,0.840332,0
17010,-0.323242,-0.277344,0.841309,0
17030,-0.315918,-0.275879,0.846191,0
17050,-0.310059,-0.276855,0.833496,0
17070,-0.310547,-0.267578,0.836914,0
17090,-0.304199,-0.266113,0.84375,0
17110,-0.307617,-0.26709,0.840332,0
17130,-0.306641,-0.269531,0.833008,0
17150,-0.311035,-0.264648,0.83252,0
17170,-0.312012,-0.271973,0.833008,0
17190,-0.311523,-0.273926,0.833984,0
17210,-0.3125,-0.278809,0.835449,0
17230,-0.313965,-0.279297,0.847168,0
17250,-0.321289,-0.270996,0.842285,0
17270,-0.318359,-0.270996,0.840332,0
17290,-0.321289,-0.275879,0.84082,0
17310,-0.324707,-0.277344,0.851562,0
17330,-0.32666,-0.275391,0.848145,0
17340,-0.32666,-0.270508,0.843262,0
17360,-0.325684,-0.268555,0.838867,0
17380,-0.321777,-0.263672,0.839355,0
17400,-0.330078,-0.259766,0.83252,0
17420,-0.33252,-0.259766,0.841309,0
17440,-0.334961,-0.257324,0.834473,0
17460,-0.337891,-0.266602,0.840332,0
17480,-0.340332,-0.254883,0.841797,0
17500,-0.333984,-0.25293,0.842773,0
17520,-0.329102,-0.248535,0.844727,0
17540,-0.336914,-0.242676,0.838379,0
17560,-0.32959,-0.229004,0.839355,0
17580,-0.324707,-0.236816,0.840332,0
17600,-0.333008,-0.247559,0.834473,0
17620,-0.336914,-0.250488,0.844238,0
17640,-0.339355,-0.259766,0.854492,0
17660,-0.337891,-0.257324,0.849121,0
17680,-0.341309,-0.248535,0.845703,0
17700,-0.337891,-0.23877,0.844238,0
17720,-0.336426,-0.244629,0.847168,0
17740,-0.344238,-0.236816,0.855469,0
17760,-0.347656,-0.240723,0.852051,0
17780,-0.341797,-0.238281,0.84375,0
17800,-0.343262,-0.243652,0.841797,0
17820,-0.347656,-0.242188,0.832031,0
17840,-0.344727,-0.237793,0.845215,0
17860,-0.344238,-0.232422,0.845215,0
17880,-0.345215,-0.234375,0.84668,0
17900,-0.348145,-0.235352,0.84375,0
17920,-0.347656,-0.241699,0.838867,0
17940,-0.348145,-0.239746,0.838867,0
17960,-0.350586,-0.240723,0.846191,0
17980,-0.346191,-0.241699,0.840332,0
18000,-0.345215,-0.237305,0.846191,0
18020,-0.342773,-0.24707,0.836914,0
18040,-0.34375,-0.243164,0.836426,0
18060,-0.342773,-0.24707,0.844727,0
18080,-0.339355,-0.238281,0.837402,0
18100,-0.34082,-0.250488,0.840332,0
18120,-0.341309,-0.246094,0.837891,0
18140,-0.341797,-0.249512,0.833496,0
18160,-0.341309,-0.24707,0.837402,0
18180,-0.344238,-0.245605,0.839355,0
18200,-0.341309,-0.243164,0.834473,0
18220,-0.342285,-0.251465,0.839844,0
18240,-0.345703,-0.252441,0.837891,0
18260,-0.342773,-0.251465,0.835938,0
18280,-0.345215,-0.253418,0.831543,0
18300,-0.348145,-0.248047,0.835449,0
18320,-0.34668,-0.251465,0.838379,0
18340,-0.345703,-0.252441,0.831543,0
18360,-0.347168,-0.252441,0.841309,0
18380,-0.344238,-0.248535,0.835938,0
18400,-0.344727,-0.25293,0.835938,0
18420,-0.344238,-0.244629,0.84082,0
18440,-0.345215,-0.244141,0.835938,0
18460,-0.34668,-0.248047,0.838867,0
18480,-0.341309,-0.249023,0.838379,0
18500,-0.344727,-0.25293,0.835938,0
18520,-0.34082,-0.246582,0.847656,0
18540,-0.342773,-0.250488,0.84082,0
18560,-0.339844,-0.246582,0.834961,0
18580,-0.337402,-0.25293,0.836914,0
18600,-0.336426,-0.246094,0.844238,0
18620,-0.335449,-0.252441,0.836914,0
18640,-0.335449,-0.24707,0.840332,0
18660,-0.336914,-0.251465,0.838867,0
18680,-0.339355,-0.240234,0.841309,0
18700,-0.34082,-0.24707,0.834961,0
18720,-0.34082,-0.243652,0.838379,0
18740,-0.338867,-0.249512,0.834473,0
18760,-0.345215,-0.245117,0.841797,0
18780,-0.344727,-0.252441,0.838379,0
18800,-0.341309,-0.25,0.837891,0
18820,-0.34082,-0.250488,0.84082,0
18840,-0.343262,-0.251953,0.837402,0
18860,-0.340332,-0.249512,0.838379,0
18880,-0.342285,-0.252441,0.841309,0
18900,-0.342285,-0.25,0.837891,0
18920,-0.339844,-0.250488,0.842285,0
18940,-0.338867,-0.243164,0.837402,0
18950,-0.336426,-0.250977,0.837402,0
18970,-0.34082,-0.247559,0.847168,0
18990,-0.339844,-0.251465,0.842773,0
19010,-0.338379,-0.244629,0.840332,0
19030,-0.339355,-0.247559,0.841797,0
19050,-0.34375,-0.25,0.838867,0
19070,-0.342285,-0.254395,0.842773,0
19090,-0.340332,-0.251465,0.84082,0
19110,-0.339844,-0.245117,0.836914,0
19130,-0.34375,-0.246094,0.835938,0
19150,-0.344727,-0.249023,0.837402,0
19170,-0.34082,-0.252441,0.838379,0
19190,-0.337891,-0.251465,0.84082,0
19210,-0.341309,-0.253906,0.837402,0
19230,-0.339844,-0.246094,0.843262,0
19250,-0.336426,-0.251465,0.838379,0
19270,-0.340332,-0.247559,0.841797,0
19290,-0.340332,-0.25,0.842773,0
19310,-0.342773,-0.253418,0.842285,0
19330,-0.342773,-0.245117,0.838379,0
19350,-0.341797,-0.246582,0.841309,0
19370,-0.345215,-0.24707,0.847656,0
19390,-0.344238,-0.25293,0.843262,0
19410,-0.34082,-0.244629,0.841309,0
19430,-0.339844,-0.253418,0.838867,0
19450,-0.339844,-0.25,0.833496,0
19470,-0.341309,-0.250488,0.84375,0
19490,-0.334961,-0.247559,0.833496,0
19510,-0.338379,-0.251465,0.837402,0
19530,-0.339355,-0.24707,0.833984,0
19550,-0.339844,-0.248047,0.839844,0
19560,-0.341309,-0.245117,0.849121,0
19580,-0.336914,-0.248535,0.84082,0
19600,-0.339355,-0.244141,0.84375,0
19620,-0.338379,-0.243652,0.839844,0
19640,-0.345703,-0.253418,0.835938,0
19660,-0.344238,-0.249512,0.834961,0
19680,-0.34375,-0.253418,0.838867,0
19700,-0.338867,-0.246094,0.841309,0
19720,-0.339844,-0.24707,0.836914,0
19740,-0.343262,-0.245605,0.839844,0
19760,-0.339355,-0.253906,0.837402,0
19780,-0.336914,-0.245605,0.834961,0
19800,-0.339355,-0.253418,0.839355,0
19820,-0.334961,-0.243164,0.84375,0
19840,-0.336914,-0.246094,0.841309,0
19860,-0.337891,-0.241211,0.843262,0
19880,-0.338867,-0.251465,0.841309,0
19900,-0.34082,-0.24707,0.835449,0
19920,-0.337402,-0.248535,0.842773,0
19940,-0.338379,-0.247559,0.842285,0
19960,-0.340332,-0.24707,0.843262,0
19980,-0.341309,-0.248535,0.843262,0
20000,-0.339355,-0.246582,0.843262,0
20020,-0.339355,-0.250488,0.836426,0
20040,-0.341797,-0.244141,0.839355,0
20060,-0.338867,-0.251465,0.84082,0
20080,-0.334961,-0.244141,0.837402,0
20100,-0.338867,-0.253418,0.839355,0
20120,-0.334961,-0.244141,0.839355,0
20140,-0.339844,-0.247559,0.834961,0
20160,-0.34082,-0.249512,0.838867,0
20180,-0.336426,-0.249023,0.850586,0
20200,-0.343262,-0.249512,0.845215,0
20220,-0.334961,-0.245605,0.844238,0
20240,-0.34082,-0.244141,0.843262,0
20260,-0.341797,-0.251465,0.835938,0
20280,-0.340332,-0.253906,0.84082,0
20300,-0.339355,-0.249023,0.837891,0
20320,-0.339844,-0.249512,0.839355,0
20340,-0.34082,-0.244141,0.842285,0
20360,-0.339355,-0.252441,0.835938,0
20380,-0.336914,-0.249023,0.833984,0
20400,-0.337891,-0.251465,0.837402,0
20420,-0.336914,-0.250977,0.843262,0
20440,-0.333008,-0.251953,0.84375,0
20460,-0.338867,-0.246582,0.834473,0
20480,-0.337891,-0.252441,0.839844,0
20500,-0.339844,-0.251953,0.84082,0
20520,-0.341309,-0.25,0.837402,0
20540,-0.339844,-0.246582,0.841309,0
20560,-0.339355,-0.246582,0.840332,0
20580,-0.342773,-0.250488,0.841309,0
20600,-0.342285,-0.24707,0.837402,0
20620,-0.338379,-0.248535,0.84082,0
20640,-0.340332,-0.246094,0.84082,0
20660,-0.339844,-0.250977,0.842285,0
20680,-0.337891,-0.25,0.837891,0
20700,-0.337891,-0.250488,0.842773,0
20720,-0.337891,-0.245605,0.835449,0
20740,-0.339844,-0.252441,0.842285,0
20760,-0.343262,-0.251953,0.841797,0
20780,-0.337891,-0.25,0.842773,0
20800,-0.341309,-0.246094,0.839355,0
20820,-0.340332,-0.243164,0.841309,0
20840,-0.342285,-0.250977,0.849609,0
20860,-0.337891,-0.246094,0.852051,0
20880,-0.337891,-0.25293,0.853027,0
20900,-0.336914,-0.246094,0.853027,0
20920,-0.343262,-0.253418,0.855957,0
20940,-0.336914,-0.251953,0.856934,0
20960,-0.341797,-0.25293,0.853516,0
20980,-0.352051,-0.244141,0.84668,0
21000,-0.356445,-0.243164,0.849609,0
21020,-0.353027,-0.254395,0.842285,0
21040,-0.357422,-0.260742,0.835449,0
21060,-0.358887,-0.268066,0.831543,0
21080,-0.362305,-0.28418,0.824707,0
21100,-0.365234,-0.288574,0.818359,0
21120,-0.370117,-0.289551,0.818848,0
21140,-0.373535,-0.289062,0.820801,0
21160,-0.369629,-0.295898,0.815918,0
21180,-0.367676,-0.307617,0.805176,0
21200,-0.364258,-0.315918,0.80127,0
21220,-0.364746,-0.321289,0.789551,0
21240,-0.359863,-0.308594,0.796875,0
21260,-0.356445,-0.311523,0.798828,0
21280,-0.359375,-0.321289,0.799316,0
21300,-0.36084,-0.325684,0.795898,0
21320,-0.360352,-0.324219,0.811035,0
21340,-0.357422,-0.316895,0.810547,0
21360,-0.355469,-0.308105,0.811523,0
21380,-0.356445,-0.309082,0.817383,0
21400,-0.364258,-0.317871,0.81543,0
21420,-0.352539,-0.310059,0.817871,0
21440,-0.358398,-0.304688,0.818848,0
21460,-0.360352,-0.302734,0.818848,0
21480,-0.374023,-0.303223,0.808594,0
21500,-0.37793,-0.307129,0.810059,0
21520,-0.376953,-0.311035,0.799805,0
21540,-0.384277,-0.313965,0.800781,0
21560,-0.382324,-0.313965,0.799316,0
21580,-0.373047,-0.313477,0.806152,0
21600,-0.367676,-0.322266,0.806641,0
21620,-0.364258,-0.322266,0.813477,0
21640,-0.360352,-0.317871,0.814453,0
21660,-0.361328,-0.320801,0.806641,0
21680,-0.356445,-0.322266,0.807129,0
21700,-0.357422,-0.325195,0.806641,0
21720,-0.356934,-0.321289,0.802734,0
21740,-0.365234,-0.323242,0.807617,0
21760,-0.366211,-0.317383,0.813477,0
21780,-0.367188,-0.321289,0.807617,0
21800,-0.365723,-0.316406,0.810059,0
21820,-0.366699,-0.316895,0.814453,0
21840,-0.364746,-0.309082,0.814453,0
21860,-0.374023,-0.311035,0.817871,0
21880,-0.378906,-0.31543,0.810547,0
21900,-0.376953,-0.315918,0.814941,0
21920,-0.381348,-0.319824,0.812012,0
21940,-0.378418,-0.320801,0.816406,0
21960,-0.373535,-0.317383,0.817383,0
21980,-0.374512,-0.319824,0.816406,0
22000,-0.37793,-0.316895,0.815918,0
22020,-0.394531,-0.315918,0.801758,0
22040,-0.407227,-0.336426,0.791992,0
22060,-0.42041,-0.328613,0.798828,0
22080,-0.435547,-0.318359,0.831543,0
22100,-0.439453,-0.318359,0.828125,0
22120,-0.430176,-0.311523,0.802734,0
22140,-0.404297,-0.347656,0.848145,0
22160,-0.419922,-0.347168,0.865234,0
22180,-0.399902,-0.320801,0.808594,0
22200,-0.341309,-0.38916,0.804199,0
22220,-0.376953,-0.43457,0.789551,0
22240,-0.342773,-0.479004,0.794922,0
22260,-0.329102,-0.5,0.853027,0
22280,-0.291992,-0.486328,0.842285,0
22300,-0.216797,-0.454102,0.830566,0
22320,-0.17334,-0.455078,0.838379,0
22330,-0.158203,-0.464355,0.842773,0
22350,-0.118652,-0.461914,0.863281,0
22370,-0.0981445,-0.446777,0.847656,0
22390,-0.0512695,-0.428223,0.82666,0
22410,-0.000976562,-0.437012,0.833984,0
22430,0.0205078,-0.436035,0.81543,0
22450,0.046875,-0.448242,0.795898,0
22470,0.0634766,-0.464844,0.796875,0
22490,0.0732422,-0.477051,0.79541,0
22510,0.0737305,-0.468262,0.78125,0
22530,0.0771484,-0.475098,0.751465,0
22550,0.0883789,-0.496094,0.750977,0
22570,0.0932617,-0.503906,0.72998,0
22590,0.0942383,-0.496094,0.714844,0
22610,0.105957,-0.54248,0.726562,0
22630,0.102051,-0.546875,0.691895,0
22650,0.0742188,-0.508789,0.713379,0
22670,0.0927734,-0.513672,0.694336,0
22690,0.0849609,-0.525391,0.704102,0
22710,0.0737305,-0.530762,0.702148,0
22730,0.0898438,-0.528809,0.675781,0
22750,0.0878906,-0.522461,0.695801,0
22770,0.0751953,-0.519531,0.714844,0
22790,0.0693359,-0.558105,0.733887,0
22810,0.0625,-0.586426,0.728027,0
22830,0.0620117,-0.580566,0.741699,0
22850,0.0507812,-0.562988,0.737793,0
22870,0.0620117,-0.544434,0.747559,0
22890,0.0527344,-0.539551,0.758301,0
22910,0.065918,-0.535645,0.748047,0
22930,0.0825195,-0.541504,0.750977,0
22950,0.0869141,-0.538086,0.748535,0
22970,0.0830078,-0.538086,0.733398,0
22990,0.102051,-0.53125,0.73877,0
23010,0.0991211,-0.527344,0.748535,0
23030,0.105957,-0.534668,0.740723,0
23050,0.106445,-0.536621,0.743652,0
23070,0.11084,-0.538086,0.75,0
23090,0.111816,-0.53125,0.740234,0
23110,0.118652,-0.532227,0.750488,0
23130,0.121094,-0.523438,0.758789,0
23150,0.121094,-0.53125,0.751953,0
23170,0.123535,-0.526367,0.749512,0
23190,0.120117,-0.534668,0.756348,0
23210,0.128418,-0.530273,0.764648,0
23230,0.116211,-0.534668,0.756836,0
23250,0.121094,-0.52832,0.758301,0
23270,0.122559,-0.535645,0.756348,0
23290,0.12793,-0.538086,0.765625,0
23310,0.130859,-0.536621,0.753906,0
23330,0.128906,-0.536621,0.759766,0
23350,0.123047,-0.538574,0.760254,0
23370,0.119629,-0.54248,0.759277,0
23390,0.136719,-0.526855,0.774902,0
23430,0.148926,-0.528809,0.759277,0
23450,0.169922,-0.546387,0.74707,0
23470,0.182129,-0.583984,0.70459,0
23490,0.191406,-0.597656,0.702637,0
23510,0.189941,-0.603027,0.722168,0
23530,0.215332,-0.609863,0.702637,0
23550,0.222168,-0.619141,0.695312,0
23550,0.223633,-0.620117,0.708496,0
23570,0.236328,-0.623047,0.690918,0
23590,0.231934,-0.633789,0.673828,0
23610,0.232422,-0.625977,0.67041,0
23630,0.216309,-0.626465,0.675293,0
23650,0.222656,-0.624023,0.668945,0
23670,0.23291,-0.598145,0.664062,0
23690,0.213379,-0.592773,0.660156,0
23710,0.212402,-0.599609,0.641602,0
23730,0.211914,-0.580566,0.65332,0
23750,0.197754,-0.566895,0.648926,0
23770,0.191406,-0.592773,0.626465,0
23790,0.18457,-0.585938,0.638672,0
23810,0.222168,-0.581055,0.667969,0
23830,0.244141,-0.562988,0.657227,0
23850,0.219727,-0.564453,0.660645,0
23870,0.222168,-0.601562,0.655273,0
23890,0.275879,-0.635742,0.638672,0
23910,0.306152,-0.62793,0.63623,0
23930,0.300293,-0.619141,0.628906,0
23950,0.305176,-0.63623,0.657715,0
23970,0.343262,-0.646973,0.664062,0
23990,0.342773,-0.63916,0.648438,0
24010,0.322266,-0.611328,0.655762,0
24030,0.311035,-0.59668,0.67627,0
24050,0.327148,-0.595703,0.688477,0
24070,0.297852,-0.558594,0.669922,0
24090,0.28125,-0.560059,0.649414,0
24110,0.26416,-0.563477,0.635742,0
24130,0.257812,-0.520508,0.63623,0
24150,0.250977,-0.539551,0.643066,0
24170,0.237305,-0.53418,0.658691,0
24190,0.224609,-0.572266,0.65625,0
24210,0.235352,-0.610352,0.670898,0
24230,0.25293,-0.609375,0.65625,0
24250,0.235352,-0.604492,0.636719,0
24270,0.245605,-0.592773,0.646484,0
24280,0.27002,-0.581543,0.654785,0
24300,0.299316,-0.566895,0.648438,0
24320,0.312988,-0.533203,0.660156,0
24340,0.326172,-0.525391,0.67334,0
24360,0.357422,-0.548828,0.675293,0
24380,0.362305,-0.570312,0.640137,0
24390,0.350586,-0.606934,0.641113,0
24410,0.363281,-0.572266,0.686523,0
24420,0.379883,-0.541504,0.671875,0
24440,0.378418,-0.568848,0.679199,0
24460,0.400391,-0.561035,0.667969,0
24480,0.396484,-0.545898,0.644531,0
24500,0.381836,-0.544434,0.632812,0
24520,0.392578,-0.535156,0.646484,0
24540,0.40625,-0.496582,0.676758,0
24560,0.416016,-0.496094,0.672852,0
24580,0.411133,-0.503906,0.653809,0
24600,0.390625,-0.479492,0.655273,0
24620,0.38916,-0.465332,0.670898,0
24640,0.370605,-0.447754,0.697754,0
24660,0.361328,-0.432129,0.711426,0
24680,0.339355,-0.365234,0.745117,0
24700,0.36084,-0.366699,0.763184,0
24720,0.383789,-0.398438,0.746582,0
24740,0.403809,-0.382324,0.749023,0
24760,0.40332,-0.405762,0.71875,0
24790,0.369629,-0.442871,0.731934,0
24810,0.378906,-0.467285,0.731934,0
24830,0.369141,-0.442871,0.746094,0
24850,0.350586,-0.453613,0.73877,0
24870,0.351074,-0.467285,0.742188,0
24890,0.339844,-0.454102,0.749023,0
24910,0.331055,-0.430664,0.750977,0
24930,0.330078,-0.429688,0.753906,0
24950,0.330566,-0.418457,0.756348,0
24970,0.308105,-0.421875,0.756348,0
24990,0.3125,-0.416016,0.765625,0
25010,0.337402,-0.400391,0.788086,0
25030,0.378418,-0.397461,0.775879,0
25050,0.383789,-0.396484,0.669434,0
25070,0.386719,-0.486816,0.594238,0
25090,0.379883,-0.484863,0.650391,0
25110,0.322754,-0.462402,0.727539,0
25130,0.321289,-0.422363,0.733887,0
25150,0.300781,-0.42041,0.68457,0
25170,0.271973,-0.38916,0.670898,0
25190,0.317383,-0.444824,0.749023,0
25210,0.393066,-0.472656,0.771973,0
25230,0.365234,-0.458984,0.710449,0
25250,0.356934,-0.522949,0.680664,0
25270,0.300293,-0.536133,0.729492,0
25290,0.30127,-0.506836,0.725098,0
25310,0.347656,-0.512207,0.771973,0
25330,0.32373,-0.45752,0.748535,0
25350,0.36084,-0.475098,0.749512,0
25370,0.355957,-0.466309,0.758789,0
25390,0.35791,-0.452637,0.761719,0
25410,0.379395,-0.456055,0.762695,0
25430,0.407715,-0.455078,0.749512,0
25450,0.447266,-0.48291,0.730957,0
25470,0.464844,-0.493652,0.712402,0
25490,0.496582,-0.518066,0.711914,0
25510,0.532227,-0.535156,0.695801,0
25530,0.541016,-0.557617,0.688477,0
25550,0.535156,-0.576172,0.666992,0
25570,0.532715,-0.581055,0.65332,0
25590,0.530762,-0.568359,0.635742,0
25610,0.507812,-0.549805,0.630371,0
25630,0.502441,-0.553223,0.615234,0
25650,0.497559,-0.544922,0.608887,0
25670,0.490234,-0.54834,0.575195,0
25680,0.462891,-0.540527,0.567871,0
25700,0.441895,-0.539551,0.566895,0
25720,0.40918,-0.520508,0.556152,0
25740,0.352051,-0.518066,0.57373,0
25760,0.322266,-0.510254,0.568359,0
25780,0.319336,-0.522461,0.555664,0
25800,0.315918,-0.534668,0.566895,0
25820,0.322266,-0.543945,0.578613,0
25840,0.333008,-0.532715,0.583984,0
25860,0.337891,-0.558594,0.569824,0
25880,0.318359,-0.581055,0.566406,0
25900,0.329102,-0.578125,0.586426,0
25920,0.36084,-0.605469,0.586914,0
25940,0.380859,-0.614258,0.583008,0
25960,0.373535,-0.622559,0.587891,0
25980,0.390625,-0.635254,0.584473,0
26000,0.413574,-0.643066,0.567871,0
26020,0.415039,-0.647461,0.564941,0
26040,0.42334,-0.645996,0.556641,0
26060,0.430664,-0.636719,0.553223,0
26080,0.424316,-0.642578,0.546875,0
26100,0.415527,-0.63623,0.54248,0
26120,0.418457,-0.62793,0.557617,0
26140,0.410156,-0.61377,0.564453,0
26160,0.418945,-0.610352,0.571289,0
26180,0.435547,-0.604492,0.571777,0
26200,0.441406,-0.614746,0.559082,0
26220,0.429688,-0.614258,0.558594,0
26240,0.437012,-0.604004,0.555176,2000
26260,0.44873,-0.616699,0.55957,0
26280,0.452637,-0.632324,0.549316,0
26300,0.396973,-0.621582,0.550293,0
26320,0.378906,-0.622559,0.556641,0
26340,0.360352,-0.612793,0.542969,0
26360,0.361816,-0.618652,0.546875,0
26380,0.364258,-0.612793,0.564453,0
26400,0.365723,-0.620605,0.554199,0
26420,0.374512,-0.622559,0.570801,0
26440,0.378418,-0.609863,0.573242,0
26460,0.37207,-0.602051,0.571289,0
26480,0.376465,-0.614746,0.572754,0
26500,0.383789,-0.625,0.567871,0
26520,0.369629,-0.625488,0.573242,0
26540,0.364746,-0.625488,0.567871,0
26560,0.378906,-0.648926,0.571289,0
26580,0.385742,-0.658203,0.562012,0
26600,0.368164,-0.644531,0.564453,0
26620,0.394531,-0.649902,0.565918,0
26640,0.419922,-0.650879,0.558105,0
26660,0.426758,-0.646973,0.540527,0
26680,0.453125,-0.655762,0.534668,0
26700,0.47998,-0.647949,0.533691,0
26720,0.463379,-0.640625,0.521484,0
26740,0.467285,-0.638672,0.515625,0
26760,0.48877,-0.634766,0.510254,0
26780,0.48584,-0.638672,0.48584,0
26800,0.483887,-0.648926,0.477051,0
26820,0.476562,-0.648926,0.474121,0
26840,0.489746,-0.644531,0.45752,0
26860,0.512695,-0.665039,0.450684,0
26880,0.488281,-0.650879,0.457031,0
26900,0.494141,-0.646973,0.446289,0
26920,0.518555,-0.65332,0.437012,0
26940,0.509766,-0.666992,0.431152,0
26960,0.503906,-0.658203,0.432617,0
26980,0.507812,-0.669434,0.432129,0
27000,0.518555,-0.669434,0.432129,0
27020,0.519043,-0.676758,0.42627,0
27040,0.526367,-0.666992,0.416992,0
27060,0.518555,-0.673828,0.412109,0
27080,0.495117,-0.669434,0.402832,0
27100,0.522461,-0.67041,0.402832,0
27120,0.536621,-0.678223,0.405273,0
27140,0.515625,-0.660645,0.38623,0
27160,0.539062,-0.673828,0.380371,0
27180,0.574219,-0.668457,0.371582,0
27200,0.583984,-0.67334,0.366699,0
27220,0.570312,-0.661621,0.34668,0
27240,0.592773,-0.666504,0.33252,0
27260,0.614258,-0.65918,0.341309,0
27280,0.599121,-0.654785,0.318848,0
27300,0.609375,-0.67041,0.316406,0
27320,0.606934,-0.655762,0.304199,0
27340,0.613281,-0.654297,0.29541,0
27360,0.616699,-0.655762,0.276367,0
27380,0.634277,-0.665527,0.277344,0
27390,0.630859,-0.661133,0.263184,0
27410,0.63623,-0.649902,0.256836,0
27430,0.631836,-0.651367,0.24707,0
27450,0.633301,-0.656738,0.241699,0
27470,0.648438,-0.64209,0.244141,0
27490,0.66748,-0.648926,0.243652,0
27510,0.645508,-0.633789,0.246582,0
27530,0.656738,-0.633789,0.249512,0
27550,0.650391,-0.633789,0.240723,0
27570,0.645996,-0.635254,0.239746,0
27590,0.682617,-0.640137,0.22998,0
27610,0.692871,-0.635254,0.233398,0
27630,0.681152,-0.63623,0.224609,0
27640,0.689941,-0.633301,0.210938,0
27660,0.709473,-0.632812,0.216797,0
27690,0.719238,-0.614258,0.190918,0
27710,0.728516,-0.62207,0.182129,0
27730,0.744141,-0.621094,0.177734,0
27750,0.733887,-0.607422,0.176758,0
27780,0.731934,-0.598633,0.173828,0
27800,0.746582,-0.602051,0.168945,0
27820,0.734863,-0.59668,0.166992,0
27840,0.733398,-0.591309,0.165527,0
27860,0.736328,-0.584961,0.162598,0
27880,0.739258,-0.575195,0.161621,0
27900,0.740234,-0.579102,0.160156,0
27920,0.744629,-0.577148,0.162109,0
27940,0.743652,-0.572754,0.154297,0
27960,0.750488,-0.568359,0.159668,0
27980,0.758789,-0.567383,0.15918,0
27990,0.743164,-0.563477,0.156738,0
28010,0.756348,-0.564453,0.166992,0
28030,0.757812,-0.551758,0.177734,0
28040,0.755371,-0.549316,0.183594,0
28060,0.748535,-0.539062,0.19043,0
28080,0.764648,-0.546387,0.190918,0
28100,0.774414,-0.538574,0.189453,0
28120,0.762695,-0.539551,0.192383,0
28140,0.776855,-0.541504,0.197266,0
28160,0.763184,-0.536621,0.206055,0
28180,0.758789,-0.533691,0.20459,0
28200,0.765625,-0.540039,0.210938,0
28220,0.771973,-0.540039,0.211914,0
28240,0.76416,-0.532715,0.216309,0
28260,0.776367,-0.531738,0.226074,0
28280,0.785645,-0.518066,0.242676,0
28300,0.763672,-0.500488,0.256348,0
28320,0.765137,-0.497559,0.268066,0
28340,0.762207,-0.508789,0.266113,0
28360,0.758789,-0.510254,0.268066,0
28380,0.75,-0.503418,0.273438,0
28400,0.775391,-0.497559,0.281738,0
28420,0.761719,-0.505859,0.292969,0
28440,0.753906,-0.498535,0.297852,0
28460,0.740234,-0.498047,0.302246,0
28480,0.743164,-0.482422,0.300293,0
28500,0.775879,-0.487305,0.311035,0
28520,0.772461,-0.495605,0.337402,0
28540,0.73291,-0.483398,0.350098,0
28560,0.723145,-0.484863,0.359375,0
28580,0.741211,-0.475098,0.364746,0
28600,0.733887,-0.474609,0.378906,0
28620,0.715332,-0.470703,0.398438,0
28640,0.722656,-0.467285,0.397461,0
28660,0.730957,-0.462891,0.409668,0
28680,0.690918,-0.486328,0.422852,0
28700,0.660645,-0.487793,0.417969,0
28720,0.663086,-0.483398,0.447266,0
28740,0.689453,-0.467285,0.452148,0
28760,0.694336,-0.477051,0.45752,0
28780,0.682617,-0.477051,0.455078,0
28800,0.670898,-0.470703,0.468262,0
28820,0.655762,-0.449219,0.487793,0
28840,0.644531,-0.447266,0.479004,0
28860,0.632812,-0.472656,0.48877,0
28880,0.626953,-0.47168,0.498535,0
28900,0.630859,-0.467773,0.504883,0
28920,0.63916,-0.472656,0.502441,0
28940,0.632812,-0.475098,0.500488,0
28960,0.621094,-0.45752,0.51416,0
28980,0.620117,-0.471191,0.512695,0
29000,0.626953,-0.474121,0.513184,0
29020,0.632324,-0.488281,0.51709,0
29040,0.61377,-0.470703,0.527832,0
29060,0.609863,-0.468262,0.536621,0
29080,0.625977,-0.484375,0.530273,0
29100,0.62207,-0.472168,0.543457,0
29120,0.62207,-0.472656,0.54248,0
29140,0.616699,-0.473633,0.536621,0
29160,0.61084,-0.463867,0.544434,0
29180,0.604492,-0.470215,0.537598,0
29200,0.612793,-0.486328,0.530762,0
29220,0.612305,-0.492188,0.538574,0
29240,0.598633,-0.492676,0.529297,0
29260,0.603516,-0.476562,0.522949,0
29280,0.611328,-0.487793,0.520508,0
29300,0.606934,-0.493164,0.513184,0
29320,0.600586,-0.500977,0.517578,0
29340,0.599609,-0.5,0.521973,0
29360,0.572754,-0.488281,0.520996,0
29380,0.573242,-0.488281,0.525391,0
29400,0.584473,-0.494141,0.521973,0
29420,0.585449,-0.506348,0.540039,0
29440,0.55957,-0.496582,0.543457,0
29460,0.550293,-0.497559,0.550293,0
29480,0.54834,-0.51416,0.526855,0
29500,0.557617,-0.523438,0.530762,0
29520,0.561035,-0.515137,0.532227,0
29540,0.553223,-0.53125,0.51709,0
29560,0.568848,-0.545898,0.51123,0
29570,0.575195,-0.541992,0.525391,0
29590,0.561523,-0.525391,0.529785,0
29610,0.526367,-0.534668,0.530273,0
29630,0.514648,-0.540527,0.508301,0
29650,0.514648,-0.544434,0.520996,0
29670,0.518555,-0.56543,0.523926,0
29690,0.506836,-0.570312,0.523438,0
29710,0.480469,-0.571289,0.516602,0
29730,0.48877,-0.572754,0.519043,0
29750,0.473145,-0.556152,0.527832,0
29770,0.436035,-0.566895,0.515625,0
29790,0.460938,-0.592773,0.501465,0
29810,0.480957,-0.593262,0.512695,0
29830,0.472656,-0.601562,0.505859,0
29850,0.486328,-0.60791,0.492676,0
29870,0.500977,-0.625488,0.496582,0
29890,0.513184,-0.631836,0.484863,0
29910,0.508789,-0.632812,0.475098,0
29930,0.525391,-0.63623,0.474121,0
29950,0.534668,-0.642578,0.461914,0
29970,0.530273,-0.631836,0.462402,0
29990,0.528809,-0.637207,0.446289,0
30010,0.540527,-0.644531,0.440918,0
30030,0.529297,-0.634766,0.431152,0
30050,0.529297,-0.635742,0.421875,0
30070,0.544922,-0.644043,0.417969,0
30090,0.557617,-0.646973,0.418945,0
30110,0.554688,-0.636719,0.407227,0
30130,0.557617,-0.635742,0.410156,0
30150,0.571777,-0.644531,0.398438,0
30170,0.57373,-0.649414,0.392578,0
30190,0.568359,-0.631348,0.394531,0
30210,0.563965,-0.644531,0.377441,0
30230,0.576172,-0.654297,0.37207,0
30250,0.596191,-0.654297,0.370605,0
30270,0.586426,-0.650391,0.366699,0
30290,0.580566,-0.649414,0.349609,0
30310,0.594727,-0.650879,0.345215,0
30330,0.602051,-0.647461,0.341797,0
30350,0.597168,-0.65918,0.328613,0
30370,0.595703,-0.65332,0.330078,0
30390,0.587891,-0.664062,0.312988,0
30410,0.580566,-0.666016,0.306641,0
30430,0.59082,-0.679688,0.30957,0
30450,0.586914,-0.666992,0.306641,0
30470,0.589844,-0.675781,0.286133,0
30490,0.594727,-0.685059,0.276855,0
30510,0.597168,-0.678711,0.277344,0
30530,0.600098,-0.67334,0.269043,0
30550,0.606934,-0.693848,0.261719,0
30570,0.613281,-0.6875,0.257812,0
30590,0.616699,-0.67334,0.266602,0
30610,0.622559,-0.67334,0.25,0
30630,0.612305,-0.69043,0.22998,0
30650,0.618652,-0.681641,0.239746,0
30670,0.635254,-0.679199,0.225586,0
30690,0.626953,-0.681152,0.226562,0
30710,0.603516,-0.682129,0.229492,0
30730,0.605469,-0.67334,0.205566,0
30750,0.64502,-0.685547,0.187988,0
30770,0.655762,-0.682617,0.200195,0
30790,0.650391,-0.657715,0.195312,0
30810,0.649414,-0.663574,0.174805,0
30830,0.666504,-0.67041,0.151855,0
30850,0.682129,-0.671875,0.151367,0
30870,0.688477,-0.664551,0.144043,0
30890,0.697754,-0.652344,0.141602,0
30910,0.685547,-0.656738,0.131348,0
30930,0.687988,-0.65332,0.110352,0
30950,0.694824,-0.656738,0.097168,0
30970,0.698242,-0.649902,0.0844727,0
30990,0.708496,-0.647461,0.0766602,0
31010,0.732422,-0.637207,0.0712891,0
31030,0.720703,-0.626465,0.0649414,0
31050,0.74707,-0.622559,0.0512695,0
31070,0.75,-0.623535,0.0493164,0
31090,0.741211,-0.620117,0.0351562,0
31110,0.748535,-0.608887,0.0180664,0
31130,0.765625,-0.600586,0.00927734,0
31150,0.770996,-0.594238,-0.00488281,0
31170,0.780273,-0.584961,-0.00830078,0
31190,0.795898,-0.594727,-0.0112305,0
31210,0.802734,-0.591797,-0.0288086,0
31230,0.79248,-0.58252,-0.0366211,0
31250,0.794922,-0.574707,-0.034668,0
31270,0.804199,-0.563965,-0.0288086,0
31290,0.803223,-0.562012,-0.0327148,0
31310,0.8125,-0.543457,-0.0288086,0
31330,0.807129,-0.537109,-0.0341797,0
31350,0.811523,-0.524902,-0.0400391,0
31370,0.819336,-0.515625,-0.0424805,0
31390,0.829102,-0.507324,-0.0429688,0
31410,0.836914,-0.507324,-0.046875,0
31430,0.840332,-0.496582,-0.0512695,0
31450,0.848633,-0.489746,-0.0507812,0
31470,0.851074,-0.477539,-0.0625,0
31490,0.852539,-0.482422,-0.0664062,0
31510,0.857422,-0.468262,-0.0673828,0
31530,0.86084,-0.459473,-0.0649414,0
31550,0.853516,-0.450684,-0.0678711,0
31570,0.867676,-0.452148,-0.0698242,0
31590,0.877441,-0.443359,-0.0732422,0
31610,0.882812,-0.432129,-0.0742188,0
31630,0.875488,-0.42334,-0.0571289,0
31650,0.879395,-0.405273,-0.0512695,0
31670,0.889648,-0.38916,-0.0444336,0
31700,0.875,-0.385254,-0.0292969,0
31720,0.88623,-0.385254,-0.0244141,0
31730,0.888184,-0.385742,-0.0146484,0
31750,0.890625,-0.370117,-0.0131836,0
31770,0.897461,-0.366699,-0.00927734,0
31800,0.912109,-0.35498,0.00439453,0
31820,0.915039,-0.36377,0.0136719,0
31840,0.916016,-0.364746,0.0214844,0
31860,0.905273,-0.356934,0.034668,0
31880,0.906738,-0.341797,0.043457,0
31900,0.939941,-0.351074,0.0458984,0
31920,0.933105,-0.366699,0.0585938,0
31940,0.899414,-0.350586,0.0805664,0
31960,0.919434,-0.342285,0.090332,0
31980,0.913086,-0.347168,0.11377,0
32000,0.882812,-0.330566,0.133301,0
32020,0.878906,-0.323242,0.125,0
32040,0.904785,-0.333008,0.120605,0
32060,0.898926,-0.333496,0.135254,0
32080,0.885742,-0.320801,0.164062,0
32100,0.870605,-0.317871,0.183105,0
32120,0.871582,-0.3125,0.208984,0
32140,0.868652,-0.298828,0.219238,0
32160,0.893555,-0.310547,0.220215,0
32180,0.882324,-0.32959,0.232422,0
32200,0.859863,-0.324707,0.250977,0
32220,0.869629,-0.318848,0.256348,0
32240,0.887695,-0.342773,0.258301,0
32260,0.867188,-0.332031,0.270508,0
32280,0.858398,-0.337891,0.281738,0
32300,0.851074,-0.336426,0.28418,0
32320,0.852539,-0.34375,0.298828,0
32340,0.828125,-0.344238,0.309082,0
32360,0.804199,-0.336426,0.325684,0
32380,0.796875,-0.346191,0.344238,0
32400,0.801758,-0.352051,0.343262,0
32420,0.794922,-0.334961,0.352051,0
32440,0.777344,-0.328125,0.361816,0
32460,0.786621,-0.344727,0.381348,0
32480,0.789551,-0.347656,0.391602,0
32500,0.763672,-0.34668,0.407227,0
32520,0.761719,-0.340332,0.403809,0
32540,0.779785,-0.350586,0.406738,0
32560,0.774902,-0.337402,0.406738,0
32580,0.747559,-0.351562,0.415527,0
32600,0.731445,-0.359863,0.422852,0
32620,0.742676,-0.365723,0.410645,0
32640,0.753906,-0.362305,0.415527,0
32660,0.748047,-0.361328,0.419922,0
32680,0.741699,-0.35498,0.419922,0
32700,0.758301,-0.381836,0.414551,0
32720,0.772461,-0.394531,0.420898,0
32740,0.766602,-0.396484,0.419922,0
32760,0.760742,-0.400391,0.423828,0
32780,0.749023,-0.401855,0.415039,0
32800,0.733398,-0.396973,0.42334,0
32820,0.71875,-0.407227,0.419922,0
32840,0.713379,-0.404785,0.433105,0
32860,0.711426,-0.398926,0.414062,0
32880,0.706055,-0.401367,0.431641,0
32900,0.694336,-0.398438,0.421387,0
32920,0.703613,-0.423828,0.427734,0
32940,0.697754,-0.42041,0.430664,0
32950,0.683594,-0.425781,0.413574,0
32970,0.687988,-0.420898,0.416504,0
32990,0.69873,-0.436523,0.422852,0
33010,0.700684,-0.442383,0.415527,0
33030,0.699707,-0.438477,0.405273,0
33050,0.707031,-0.444336,0.414551,0
33070,0.708984,-0.445801,0.413574,0
33090,0.707031,-0.44043,0.406738,0
33110,0.702148,-0.445312,0.420898,0
33130,0.679199,-0.449707,0.409668,0
33150,0.699707,-0.463379,0.407715,0
33170,0.712891,-0.47998,0.408203,0
33190,0.708496,-0.496582,0.405762,0
33210,0.69873,-0.48877,0.419434,0
33230,0.679688,-0.484863,0.421875,0
33250,0.665527,-0.531738,0.376953,0
33270,0.694824,-0.501465,0.400879,0
33290,0.698242,-0.48877,0.413574,0
33310,0.699219,-0.51416,0.400391,0
33330,0.701172,-0.512207,0.394531,0
33350,0.695312,-0.52002,0.398438,0
33370,0.695312,-0.51416,0.38916,0
33390,0.69043,-0.523438,0.380859,0
33410,0.684082,-0.513184,0.377441,0
33430,0.682129,-0.526367,0.361328,0
33450,0.695801,-0.532715,0.352051,0
33470,0.695312,-0.53418,0.370117,0
33490,0.679688,-0.530273,0.354004,0
33510,0.673828,-0.54541,0.341797,0
33530,0.679199,-0.550781,0.338379,0
33550,0.672852,-0.542969,0.342285,0
33570,0.671387,-0.555176,0.336914,0
33590,0.672363,-0.564941,0.327148,0
33610,0.660156,-0.575195,0.33252,0
33630,0.664062,-0.57373,0.327148,0
33650,0.662598,-0.596191,0.31543,0
33670,0.648926,-0.600586,0.311523,0
33690,0.640137,-0.606445,0.313477,0
33710,0.649902,-0.600098,0.307617,0
33730,0.661133,-0.611816,0.294434,0
33750,0.654297,-0.614258,0.283203,0
33770,0.654297,-0.611328,0.28418,0
33790,0.668457,-0.615234,0.273926,0
33810,0.684082,-0.617188,0.269043,0
33830,0.683105,-0.615234,0.261719,0
33850,0.677734,-0.600098,0.251953,0
33870,0.692383,-0.591309,0.24707,0
33890,0.69873,-0.598145,0.236816,0
33910,0.701172,-0.603027,0.226074,0
33930,0.703613,-0.60791,0.214355,0
33950,0.69043,-0.609863,0.207031,0
33970,0.69873,-0.603516,0.20166,0
33990,0.699219,-0.604492,0.200684,0
34010,0.70752,-0.602051,0.203125,0
34030,0.708496,-0.595215,0.187988,0
34050,0.710938,-0.585449,0.157715,0
34070,0.70459,-0.585449,0.153809,0
34090,0.72168,-0.60791,0.145996,0
34110,0.725586,-0.608887,0.132812,0
34130,0.733398,-0.60791,0.125977,0
34150,0.763672,-0.601074,0.116211,0
34170,0.750977,-0.595215,0.101562,0
34190,0.754883,-0.580078,0.0883789,0
34210,0.771484,-0.597168,0.0737305,0
34230,0.780273,-0.601074,0.059082,0
34250,0.779785,-0.593262,0.0507812,0
34270,0.786621,-0.584473,0.0317383,0
34290,0.794922,-0.583496,0.0214844,0
34310,0.794434,-0.582031,0.00634766,0
34330,0.78125,-0.582031,-0.000976562,0
34350,0.78418,-0.584961,-0.0244141,0
34370,0.786133,-0.596191,-0.0258789,0
34390,0.786133,-0.574707,-0.0205078,0
34410,0.797363,-0.550781,-0.0351562,0
34430,0.79834,-0.546387,-0.0517578,0
34450,0.815918,-0.539062,-0.0571289,0
34470,0.806641,-0.533691,-0.0546875,0
34490,0.804688,-0.529785,-0.065918,0
34510,0.808594,-0.538574,-0.0844727,0
34530,0.821777,-0.535645,-0.0913086,0
34550,0.804199,-0.523438,-0.0952148,0
34570,0.812988,-0.505371,-0.0952148,0
34590,0.833008,-0.504395,-0.105957,0
34610,0.839844,-0.510742,-0.117676,0
34630,0.824219,-0.509277,-0.109863,0
34650,0.825684,-0.488281,-0.112305,0
34670,0.84082,-0.473145,-0.121582,0
34690,0.845703,-0.478027,-0.125977,0
34710,0.853027,-0.474609,-0.128906,0
34730,0.853516,-0.467285,-0.126465,0
34750,0.851074,-0.449707,-0.12793,0
34770,0.861328,-0.449219,-0.132324,0
34790,0.871582,-0.443359,-0.135254,0
34810,0.870117,-0.441406,-0.138184,0
34830,0.870117,-0.430176,-0.13623,0
34850,0.873535,-0.42627,-0.13916,0
34860,0.884766,-0.410645,-0.140137,0
34890,0.890625,-0.397949,-0.137207,0
34910,0.88916,-0.386719,-0.142578,0
34920,0.905762,-0.375977,-0.134766,0
34940,0.901855,-0.359375,-0.131348,0
34960,0.902344,-0.349121,-0.133789,0
34980,0.898926,-0.34082,-0.133301,0
35000,0.914551,-0.333984,-0.131836,0
35020,0.909668,-0.32373,-0.134766,0
35040,0.915527,-0.310059,-0.130371,0
35060,0.91748,-0.31543,-0.128418,0
35080,0.923828,-0.291992,-0.123535,0
35100,0.932129,-0.290527,-0.121094,0
35120,0.927734,-0.285156,-0.114746,0
35140,0.925293,-0.275879,-0.110352,0
35160,0.925293,-0.271973,-0.110352,0
35180,0.916016,-0.272461,-0.097168,0
35200,0.926758,-0.263672,-0.102539,0
35220,0.936523,-0.252441,-0.0947266,0
35240,0.938965,-0.253906,-0.0888672,0
35260,0.93457,-0.25,-0.0864258,0
35280,0.93457,-0.246582,-0.0874023,0
35300,0.94873,-0.240234,-0.0805664,0
35320,0.966309,-0.227051,-0.0625,0
35340,0.954102,-0.227051,-0.0625,0
35360,0.943848,-0.237793,-0.0576172,0
35380,0.949219,-0.231934,-0.0458984,0
35400,0.954102,-0.231934,-0.0371094,0
35420,0.959473,-0.234863,-0.0239258,0
35440,0.942383,-0.231445,-0.0180664,0
35460,0.931152,-0.227539,0.000488281,0
35480,0.939941,-0.228516,0.00830078,0
35500,0.945312,-0.223145,0.0112305,0
35520,0.94873,-0.224609,0.0307617,0
35540,0.928711,-0.217773,0.0429688,0
35560,0.928223,-0.227051,0.0527344,0
35580,0.924316,-0.228516,0.0595703,0
35600,0.925293,-0.220703,0.074707,0
35620,0.922852,-0.229492,0.0805664,0
35640,0.911133,-0.225098,0.0898438,0
35660,0.914551,-0.232422,0.097168,0
35680,0.924805,-0.21582,0.105957,0
35700,0.938477,-0.224121,0.110352,0
35720,0.943848,-0.217285,0.114258,0
35740,0.935547,-0.217773,0.125,0
35760,0.947266,-0.214844,0.11084,0
35780,0.970215,-0.217773,0.11084,0
35800,0.952148,-0.212402,0.141602,0
35820,0.929199,-0.218262,0.13623,0
35840,0.922363,-0.227539,0.141113,0
35860,0.927734,-0.22998,0.13916,0
35880,0.929199,-0.229004,0.14209,0
35910,0.911133,-0.224609,0.162109,0
35930,0.925293,-0.22998,0.164062,0
35950,0.918457,-0.237305,0.171387,0
35970,0.916504,-0.230957,0.181641,0
35990,0.896484,-0.226562,0.173828,0
36010,0.90625,-0.231934,0.179199,0
36030,0.903809,-0.258789,0.206543,0
36050,0.902832,-0.256836,0.212891,0
36070,0.89209,-0.264648,0.222656,0
36090,0.883301,-0.259277,0.223633,0
36110,0.878418,-0.25,0.231445,0
36130,0.875488,-0.248535,0.236328,0
36150,0.868164,-0.25,0.237793,0
36170,0.871094,-0.262695,0.237305,0
36190,0.868164,-0.272461,0.242676,0
36210,0.847168,-0.266602,0.258789,0
36230,0.836914,-0.26416,0.258789,0
36250,0.82959,-0.277832,0.249512,0
36270,0.859375,-0.292969,0.237305,0
36290,0.879883,-0.327637,0.223633,0
36310,0.873535,-0.319336,0.260742,0
36330,0.862793,-0.3125,0.255371,0
36350,0.858398,-0.311523,0.265137,0
36370,0.848145,-0.304199,0.269043,0
36390,0.841309,-0.310059,0.272461,0
36410,0.837891,-0.316895,0.279785,0
36430,0.834473,-0.324707,0.286133,0
36450,0.829102,-0.318359,0.291504,0
36470,0.83252,-0.331543,0.292969,0
36490,0.835938,-0.325684,0.29541,0
36510,0.858398,-0.323242,0.293457,0
36530,0.87207,-0.319824,0.310059,0
36550,0.854492,-0.338379,0.30127,0
36570,0.869141,-0.370605,0.273438,0
36590,0.855469,-0.404297,0.29541,0
36610,0.83252,-0.374023,0.29541,0
36630,0.821777,-0.355469,0.294922,0
36650,0.817383,-0.345215,0.299316,0
36670,0.82373,-0.368164,0.303223,0
36690,0.813477,-0.382324,0.311523,0
36710,0.794922,-0.395996,0.318848,0
36730,0.789551,-0.381348,0.314941,0
36750,0.79248,-0.396973,0.296875,0
36770,0.801758,-0.408203,0.310547,0
36790,0.786133,-0.402832,0.322266,0
36810,0.789551,-0.424805,0.305176,0
36830,0.798828,-0.424805,0.313965,0
36850,0.787598,-0.442871,0.303223,0
36870,0.799805,-0.436523,0.32666,0
36890,0.8125,-0.42041,0.327148,0
36910,0.788574,-0.427734,0.304199,0
36930,0.768066,-0.437012,0.284668,0
36950,0.738281,-0.450684,0.289551,0
36970,0.724121,-0.465332,0.276855,0
36990,0.748535,-0.48877,0.283691,0
37010,0.728027,-0.482422,0.280762,0
37030,0.734375,-0.496582,0.268555,0
37050,0.760742,-0.507324,0.262207,0
37070,0.753906,-0.513672,0.277344,0
37090,0.748047,-0.507324,0.273926,0
37110,0.723633,-0.520996,0.272461,0
37130,0.720703,-0.52832,0.257812,0
37150,0.741211,-0.538086,0.275391,0
37170,0.747559,-0.560059,0.266602,0
37190,0.71875,-0.565918,0.28418,0
37210,0.669434,-0.526855,0.269043,0
37230,0.70166,-0.54248,0.263184,0
37250,0.710449,-0.561035,0.275391,0
37270,0.681641,-0.556641,0.261719,0
37290,0.689453,-0.565918,0.261719,0
37310,0.688477,-0.587402,0.25,0
37330,0.702637,-0.592773,0.253418,0
37350,0.694336,-0.585938,0.251465,0
37370,0.675293,-0.603027,0.239258,0
37390,0.689941,-0.618652,0.235352,0
37410,0.696289,-0.632324,0.234863,0
37430,0.662109,-0.616211,0.22168,0
37450,0.644531,-0.640625,0.208496,0
37470,0.655762,-0.655762,0.202148,0
37490,0.650391,-0.646973,0.206543,0
37510,0.621582,-0.644531,0.187012,0
37530,0.620605,-0.661133,0.171875,0
37550,0.630371,-0.653809,0.191406,0
37570,0.626465,-0.64209,0.192871,0
37590,0.657227,-0.652832,0.180664,0
37610,0.688477,-0.669922,0.19043,0
37630,0.684082,-0.664551,0.180176,0
37650,0.702148,-0.674805,0.159668,0
37670,0.726562,-0.667969,0.151855,0
37690,0.729492,-0.659668,0.136719,0
37710,0.740234,-0.658203,0.124023,0
37730,0.745117,-0.637207,0.126465,0
37750,0.730957,-0.634277,0.0932617,0
37770,0.729004,-0.635742,0.0893555,0
37790,0.727051,-0.631348,0.0839844,0
37810,0.727539,-0.60498,0.0800781,0
37830,0.734375,-0.600586,0.0498047,0
37850,0.736816,-0.612793,0.0332031,0
37870,0.723633,-0.620117,0.0317383,0
37890,0.735352,-0.60791,0.0205078,0
37910,0.741211,-0.606934,0.00195312,0
37930,0.736328,-0.61377,-0.0112305,0
37950,0.736816,-0.608398,-0.0244141,0
37970,0.731934,-0.618652,-0.0307617,0
37990,0.746094,-0.61084,-0.0351562,0
38010,0.748535,-0.605957,-0.0375977,0
38030,0.760742,-0.600586,-0.0537109,0
38050,0.763184,-0.606934,-0.0527344,0
38070,0.762695,-0.591309,-0.0703125,0
38090,0.761719,-0.571777,-0.0854492,0
38110,0.78418,-0.568848,-0.0883789,0
38130,0.797852,-0.570801,-0.102051,0
38150,0.793945,-0.571289,-0.111816,0
38170,0.801758,-0.55957,-0.132812,0
38190,0.801758,-0.561035,-0.141113,0
38210,0.787109,-0.549316,-0.151855,0
38230,0.798828,-0.549316,-0.163086,0
38250,0.799805,-0.540039,-0.171875,0
38270,0.810547,-0.539551,-0.187012,0
38290,0.811035,-0.533203,-0.208496,0
38310,0.824219,-0.529297,-0.213379,0
38330,0.835449,-0.518066,-0.215332,0
38340,0.816406,-0.510742,-0.227539,0
38360,0.834473,-0.495117,-0.246582,0
38380,0.867676,-0.498535,-0.252441,0
38420,0.837402,-0.487793,-0.257812,0
38440,0.84668,-0.474121,-0.271484,0
38460,0.855469,-0.465332,-0.272949,0
38480,0.854004,-0.463379,-0.279785,0
38500,0.870117,-0.472656,-0.28125,0
38520,0.870117,-0.459473,-0.282227,0
38540,0.868164,-0.439453,-0.269531,0
38560,0.873535,-0.446777,-0.272461,2001
38580,0.878906,-0.442383,-0.273438,0
38600,0.867188,-0.435547,-0.257324,0
38620,0.861816,-0.415527,-0.248047,0
38640,0.851074,-0.410645,-0.239258,0
38660,0.859863,-0.40625,-0.223633,0
38680,0.86084,-0.417969,-0.217285,0
38700,0.844238,-0.422363,-0.200195,0
38720,0.835449,-0.407227,-0.1875,0
38740,0.841309,-0.408691,-0.185547,0
38760,0.854004,-0.41748,-0.183594,0
38780,0.839844,-0.424316,-0.176758,0
38800,0.832031,-0.421387,-0.170898,0
38820,0.834473,-0.438965,-0.169434,0
38840,0.827148,-0.444336,-0.160645,0
38860,0.822754,-0.452148,-0.164551,0
38880,0.819824,-0.455078,-0.15918,0
38900,0.811035,-0.455078,-0.148926,0
38920,0.78418,-0.466309,-0.152344,0
38940,0.766602,-0.466797,-0.132324,0
38960,0.726074,-0.459473,-0.123047,0
38980,0.708496,-0.447754,-0.112305,0
39000,0.723145,-0.438965,-0.105957,0
39020,0.757324,-0.444824,-0.125,0
39040,0.756836,-0.452637,-0.130859,0
39060,0.746094,-0.455078,-0.113281,0
39080,0.739258,-0.452148,-0.09375,0
39100,0.742676,-0.467773,-0.107422,0
39120,0.731445,-0.467285,-0.115234,0
39140,0.768066,-0.46582,-0.108887,0
39160,0.788086,-0.47998,-0.104492,0
39180,0.775879,-0.475586,-0.0654297,0
39200,0.779297,-0.47998,-0.0732422,0
39220,0.797363,-0.492676,-0.0869141,0
39240,0.800781,-0.530273,-0.0356445,0
39260,0.797363,-0.554688,-0.00634766,0
39280,0.839355,-0.543945,-0.00439453,0
39300,0.842773,-0.549316,0.059082,0
39320,0.835938,-0.589844,0.0629883,0
39340,0.855469,-0.635742,0.0390625,0
39360,0.876465,-0.634766,0.135742,0
39380,0.82959,-0.652344,0.169434,0
39400,0.793457,-0.664551,0.146484,0
39420,0.777832,-0.694336,0.207031,0
39440,0.721191,-0.709473,0.277344,0
39460,0.676758,-0.716309,0.291992,0
39480,0.707031,-0.704102,0.301758,0
39500,0.700684,-0.720703,0.356445,0
39520,0.629395,-0.75293,0.333496,0
39540,0.612305,-0.778809,0.338867,0
39560,0.641113,-0.775391,0.37793,0
39580,0.591309,-0.768555,0.380371,0
39600,0.51123,-0.782227,0.382324,0
39620,0.520508,-0.789062,0.379883,0
39640,0.524902,-0.78418,0.395508,0
39660,0.437012,-0.800293,0.384277,0
39680,0.387695,-0.831543,0.370117,0
39700,0.393066,-0.846191,0.373535,0
39720,0.376465,-0.859863,0.375,0
39740,0.347168,-0.859375,0.370117,0
39760,0.316406,-0.870605,0.358398,0
39780,0.299805,-0.870117,0.37793,0
39800,0.286621,-0.847168,0.380371,0
39820,0.276367,-0.836426,0.373535,0
39840,0.291016,-0.824707,0.39209,0
39860,0.286621,-0.833008,0.399902,0
39880,0.287598,-0.837891,0.388672,0
39900,0.304199,-0.839844,0.387695,0
39920,0.29541,-0.827637,0.377441,0
39940,0.293945,-0.813965,0.378418,0
39960,0.305176,-0.807129,0.385254,0
39980,0.321777,-0.805176,0.381836,2000
40000,0.308594,-0.791504,0.379883,0
40020,0.31543,-0.792969,0.38916,0
40040,0.335449,-0.799316,0.398926,0
40060,0.333496,-0.809082,0.392578,0
40080,0.312988,-0.817383,0.379883,0
40100,0.325684,-0.839844,0.382324,0
40120,0.346191,-0.79834,0.40625,0
40140,0.349121,-0.78418,0.411621,0
40160,0.333008,-0.796387,0.407227,0
40180,0.299805,-0.782715,0.368164,0
40200,0.296875,-0.79834,0.369141,0
40220,0.309082,-0.796875,0.395996,0
40240,0.312988,-0.781738,0.42627,0
40260,0.303711,-0.782715,0.425293,0
40280,0.305664,-0.777344,0.412109,0
40300,0.321289,-0.780273,0.384766,0
40320,0.310059,-0.781738,0.384277,0
40330,0.294922,-0.788086,0.395996,0
40350,0.317383,-0.799316,0.399902,0
40370,0.349609,-0.831543,0.382324,0
40390,0.362793,-0.834961,0.380371,0
40410,0.327637,-0.806641,0.386719,0
40430,0.342773,-0.805176,0.358887,0
40450,0.380859,-0.828125,0.354004,0
40470,0.385254,-0.800781,0.371582,0
40490,0.399414,-0.813477,0.358398,0
40510,0.417969,-0.819824,0.342773,0
40530,0.445801,-0.814453,0.352051,0
40550,0.438965,-0.796875,0.347168,0
40570,0.427246,-0.763184,0.315918,0
40590,0.432617,-0.778809,0.302246,0
40610,0.437012,-0.794434,0.300781,0
40630,0.445312,-0.790039,0.294922,0
40650,0.441895,-0.788086,0.30127,0
40670,0.437012,-0.791504,0.290039,0
40690,0.447266,-0.785156,0.276367,0
40710,0.468262,-0.800781,0.271973,0
40730,0.455566,-0.789062,0.261719,0
40750,0.463867,-0.783691,0.283203,0
40770,0.48877,-0.783691,0.282227,0
40790,0.474121,-0.762695,0.280273,0
40810,0.485352,-0.756348,0.276367,0
40830,0.51709,-0.771484,0.264648,0
40850,0.517578,-0.766602,0.272461,0
40870,0.515625,-0.744629,0.278809,0
40890,0.522949,-0.745117,0.270508,0
40910,0.524902,-0.753418,0.257812,0
40930,0.536621,-0.754395,0.263184,0
40950,0.554688,-0.751465,0.256348,0
40970,0.567383,-0.758301,0.242188,0
40990,0.583496,-0.757812,0.253418,0
41010,0.564941,-0.737793,0.246094,0
41030,0.578125,-0.738281,0.229492,0
41050,0.604004,-0.750488,0.226074,0
41070,0.598633,-0.735352,0.223145,0
41090,0.597656,-0.723633,0.214844,0
41110,0.630371,-0.745605,0.205566,0
41140,0.640625,-0.716309,0.201172,0
41170,0.615723,-0.699707,0.203613,0
41190,0.641602,-0.69873,0.204102,0
41210,0.639648,-0.689941,0.206055,0
41220,0.649902,-0.692871,0.193359,0
41240,0.655273,-0.700684,0.188477,0
41260,0.641113,-0.682129,0.188477,0
41280,0.646973,-0.664062,0.191895,0
41300,0.666504,-0.671875,0.200684,0
41320,0.671875,-0.67627,0.192383,0
41330,0.657227,-0.665527,0.203125,0
41340,0.67627,-0.65918,0.196777,0
41360,0.674805,-0.658203,0.182129,0
41380,0.682129,-0.651367,0.180176,0
41400,0.6875,-0.644531,0.175781,0
41420,0.697266,-0.646973,0.166504,0
41440,0.685059,-0.645508,0.17627,0
41460,0.693359,-0.641602,0.178223,0
41480,0.704102,-0.634766,0.178223,0
41500,0.699219,-0.62793,0.164551,0
41520,0.694824,-0.623535,0.171387,0
41540,0.696777,-0.630859,0.175293,0
41560,0.700684,-0.625488,0.179688,0
41580,0.696777,-0.626953,0.197266,0
41600,0.688477,-0.619141,0.203125,0
41620,0.70459,-0.615723,0.207031,0
41640,0.706055,-0.607422,0.218262,0
41660,0.713379,-0.611328,0.222656,0
41680,0.730469,-0.610352,0.22168,0
41700,0.737793,-0.616699,0.217773,0
41720,0.702148,-0.618652,0.232422,0
41740,0.686035,-0.615234,0.245605,0
41760,0.696777,-0.606934,0.255371,0
41780,0.708008,-0.59082,0.258301,0
41800,0.718262,-0.592285,0.253906,0
41820,0.708008,-0.603027,0.251465,0
41840,0.714844,-0.596191,0.258301,0
41860,0.711914,-0.590332,0.248535,0
41880,0.716797,-0.591797,0.263672,0
41900,0.715332,-0.591309,0.280762,0
41920,0.695312,-0.583008,0.295898,0
41940,0.709961,-0.575684,0.290527,0
41960,0.697266,-0.571777,0.306152,0
41980,0.689453,-0.570801,0.323242,0
42000,0.681641,-0.580078,0.328125,0
42020,0.696777,-0.571289,0.334473,0
42040,0.691895,-0.566406,0.357422,0
42060,0.669922,-0.562988,0.361816,0
42080,0.674316,-0.561523,0.365723,0
42100,0.689941,-0.562988,0.377441,0
42120,0.696777,-0.5625,0.39502,0
42140,0.680176,-0.556641,0.419434,0
42160,0.638184,-0.541992,0.431641,0
42180,0.61377,-0.533203,0.427734,0
42200,0.63623,-0.546387,0.434082,0
42220,0.637695,-0.542969,0.447266,0
42240,0.626465,-0.545898,0.445312,0
42260,0.64209,-0.558105,0.440918,0
42280,0.656738,-0.545898,0.45459,0
42300,0.621582,-0.531738,0.470703,0
42320,0.595215,-0.528809,0.46582,0
42340,0.608887,-0.529297,0.47168,0
42360,0.607422,-0.525879,0.480469,0
42380,0.602539,-0.527344,0.488281,0
42400,0.610352,-0.526367,0.484375,0
42420,0.624023,-0.516113,0.494629,0
42440,0.626953,-0.522949,0.489258,0
42460,0.612305,-0.537598,0.486816,0
42480,0.59375,-0.532227,0.48877,0
42500,0.600586,-0.527832,0.486328,0
42520,0.603027,-0.532715,0.478516,0
42540,0.598145,-0.540039,0.492188,0
42560,0.584961,-0.546875,0.492676,0
42580,0.587891,-0.532715,0.465332,0
42600,0.601562,-0.537109,0.462402,0
42620,0.597656,-0.520508,0.501465,0
42640,0.587402,-0.535645,0.508301,0
42660,0.593262,-0.553223,0.490723,0
42680,0.604004,-0.557617,0.48877,0
42700,0.599609,-0.532227,0.48877,0
42720,0.594727,-0.523438,0.492188,0
42740,0.572754,-0.533203,0.483398,0
42760,0.574219,-0.535156,0.483887,0
42780,0.580566,-0.55127,0.495605,0
42800,0.579102,-0.544922,0.493652,0
42820,0.575195,-0.547363,0.487793,0
42840,0.581055,-0.532715,0.489258,0
42860,0.584473,-0.540039,0.492676,0
42880,0.594238,-0.538574,0.504395,0
42900,0.589844,-0.519043,0.521484,0
42920,0.554199,-0.506348,0.532227,0
42940,0.538086,-0.518555,0.534668,0
42960,0.532227,-0.543945,0.510254,0
42980,0.535156,-0.540039,0.527344,0
43000,0.534668,-0.540527,0.539551,0
43020,0.535645,-0.549316,0.524414,0
43040,0.516602,-0.549805,0.52002,0
43060,0.519531,-0.552734,0.508301,0
43080,0.524414,-0.549316,0.508789,0
43100,0.509766,-0.55127,0.521484,0
43120,0.479492,-0.561035,0.535645,0
43140,0.485352,-0.573242,0.529785,0
43160,0.52002,-0.583008,0.521973,0
43180,0.513672,-0.567871,0.525879,0
43200,0.492676,-0.570801,0.522461,0
43220,0.503418,-0.584473,0.526855,0
43240,0.530762,-0.584961,0.527344,0
43260,0.521973,-0.598633,0.514648,0
43280,0.499512,-0.592773,0.516602,0
43300,0.489258,-0.597656,0.516602,0
43320,0.493652,-0.596191,0.519531,0
43340,0.48877,-0.603516,0.52002,0
43360,0.47168,-0.60791,0.528809,0
43380,0.47998,-0.603516,0.518066,0
43400,0.492676,-0.61084,0.516113,0
43420,0.496094,-0.615723,0.536133,0
43440,0.484375,-0.611328,0.518555,0
43460,0.48291,-0.622559,0.51416,0
43480,0.483398,-0.606445,0.535156,0
43500,0.492188,-0.609375,0.525879,0
43520,0.463867,-0.622559,0.497559,0
43540,0.453613,-0.620117,0.49707,0
43560,0.479004,-0.61377,0.518066,0
43580,0.483887,-0.610352,0.52002,0
43600,0.457031,-0.623047,0.499023,0
43620,0.475586,-0.625977,0.491211,0
43640,0.470703,-0.65332,0.482422,0
43650,0.45166,-0.639648,0.490723,0
43670,0.460449,-0.634277,0.495117,0
43690,0.488281,-0.641602,0.489746,0
43710,0.479004,-0.647949,0.485352,0
43730,0.472168,-0.63623,0.460449,0
43750,0.46875,-0.625488,0.458496,0
43770,0.468262,-0.662598,0.45166,0
43790,0.473145,-0.680176,0.463379,0
43810,0.488281,-0.691406,0.450684,0
43830,0.490723,-0.696289,0.45166,0
43850,0.482422,-0.711426,0.438477,0
43870,0.474121,-0.725586,0.418945,0
43890,0.46875,-0.720703,0.405273,0
43910,0.473145,-0.709961,0.413574,0
43930,0.463867,-0.713867,0.40918,0
43950,0.451172,-0.729492,0.383301,0
43970,0.462402,-0.748535,0.37793,0
43990,0.477051,-0.736816,0.381348,0
44010,0.470703,-0.727051,0.382812,0
44030,0.463867,-0.748047,0.347168,0
44050,0.478027,-0.748535,0.350586,0
44070,0.477539,-0.733398,0.34375,0
44090,0.496094,-0.741699,0.331055,0
44110,0.500977,-0.751465,0.329102,0
44130,0.502441,-0.746582,0.327148,0
44150,0.500977,-0.736328,0.318359,0
44170,0.50293,-0.730469,0.303223,0
44190,0.5,-0.736816,0.307617,0
44210,0.50293,-0.732422,0.310059,0
44230,0.509766,-0.731934,0.299316,0
44250,0.503906,-0.737305,0.290039,0
44270,0.496094,-0.742188,0.293457,0
44290,0.500977,-0.720215,0.290527,0
44310,0.51709,-0.726074,0.293945,0
44330,0.516113,-0.736816,0.283203,0
44350,0.499023,-0.730469,0.279297,0
44370,0.501465,-0.73584,0.281738,0
44390,0.504883,-0.735352,0.280273,0
44410,0.510742,-0.734863,0.279297,0
44430,0.52832,-0.735352,0.278809,0
44450,0.556152,-0.75,0.260254,0
44470,0.559082,-0.752441,0.269043,0
44490,0.577637,-0.744629,0.265625,0
44510,0.587891,-0.739746,0.257324,0
44530,0.59375,-0.755371,0.255371,0
44550,0.613281,-0.739746,0.248535,0
44570,0.608398,-0.726562,0.25293,0
44590,0.606445,-0.716797,0.239258,0
44610,0.597656,-0.732422,0.228516,0
44630,0.609375,-0.724609,0.223633,0
44650,0.61084,-0.717285,0.220703,0
44670,0.604004,-0.712402,0.210449,0
44690,0.589355,-0.71875,0.209473,0
44710,0.579102,-0.706543,0.204102,0
44730,0.604492,-0.708008,0.186523,0
44750,0.603516,-0.703125,0.189453,0
44770,0.598145,-0.681152,0.193848,0
44790,0.609375,-0.696289,0.165039,0
44810,0.632324,-0.700195,0.164551,0
44830,0.627441,-0.690918,0.17041,0
44850,0.624512,-0.677246,0.157227,0
44870,0.647461,-0.693848,0.133789,0
44890,0.643555,-0.693359,0.134277,0
44910,0.670898,-0.675293,0.136719,0
44930,0.672363,-0.674805,0.130859,0
44950,0.694336,-0.691406,0.108398,0
44970,0.695312,-0.69873,0.0898438,0
44990,0.707031,-0.677734,0.0908203,0
45010,0.713867,-0.682129,0.0864258,0
45030,0.713867,-0.680664,0.0751953,0
45050,0.719727,-0.676758,0.0761719,0
45070,0.727051,-0.663574,0.0742188,0
45090,0.734375,-0.663086,0.0551758,0
45110,0.736816,-0.646973,0.0527344,0
45130,0.736328,-0.637695,0.0478516,0
45150,0.747559,-0.634277,0.0458984,0
45170,0.730469,-0.620117,0.0527344,0
45190,0.737793,-0.616211,0.0410156,0
45210,0.746094,-0.614258,0.03125,0
45230,0.758789,-0.601074,0.0336914,0
45250,0.744141,-0.600586,0.0405273,0
45270,0.750488,-0.583984,0.0366211,0
45290,0.762207,-0.583984,0.027832,0
45310,0.770508,-0.585449,0.034668,0
45330,0.76416,-0.574219,0.0366211,0
45350,0.758301,-0.574219,0.0253906,0
45370,0.775879,-0.582031,0.015625,0
45390,0.770996,-0.572266,0.0244141,0
45410,0.791992,-0.562012,0.0209961,0
45430,0.78418,-0.5625,0.0244141,0
45450,0.795898,-0.557129,0.0209961,0
45470,0.797363,-0.55127,0.0131836,0
45490,0.807129,-0.546387,0.0166016,0
45510,0.822266,-0.546387,0.0175781,0
45530,0.819824,-0.541016,0.015625,0
45550,0.831055,-0.529297,0.0117188,0
45570,0.82666,-0.525391,0.00927734,0
45590,0.820801,-0.515625,0.0151367,0
45610,0.82959,-0.506348,0.0234375,0
45630,0.834961,-0.504883,0.0209961,0
45640,0.825684,-0.498047,0.019043,0
45660,0.82666,-0.483398,0.0234375,0
45680,0.841797,-0.476562,0.0488281,0
45700,0.852051,-0.469727,0.043457,0
45720,0.832031,-0.476074,0.0385742,0
45740,0.837891,-0.459961,0.0395508,0
45760,0.864258,-0.453613,0.0571289,0
45780,0.883301,-0.445801,0.0576172,0
45800,0.855469,-0.44873,0.0737305,0
45820,0.861328,-0.43457,0.0776367,0
45840,0.872559,-0.425781,0.0800781,0
45860,0.867188,-0.422852,0.0932617,0
45880,0.882324,-0.416504,0.0878906,0
45900,0.902344,-0.396484,0.0942383,0
45920,0.896484,-0.406738,0.106934,0
45940,0.893555,-0.410156,0.103027,0
45960,0.894531,-0.408203,0.116699,0
45980,0.880859,-0.390137,0.143066,0
46000,0.87207,-0.36377,0.148926,0
46020,0.856445,-0.360352,0.150879,0
46040,0.862305,-0.361328,0.168457,0
46060,0.883789,-0.374023,0.170898,0
46080,0.881348,-0.37207,0.180664,0
46100,0.873047,-0.367676,0.193848,0
46120,0.871582,-0.348145,0.208008,0
46140,0.885742,-0.352051,0.204102,0
46160,0.898438,-0.347656,0.225098,0
46180,0.874023,-0.340332,0.229004,0
46200,0.848145,-0.348633,0.244141,0
46220,0.850586,-0.33252,0.250488,0
46240,0.875488,-0.352539,0.258301,0
46260,0.865723,-0.359863,0.272949,0
46280,0.839844,-0.35791,0.289551,0
46300,0.830566,-0.353027,0.292969,0
46320,0.842773,-0.348145,0.310059,0
46340,0.821777,-0.34375,0.31543,0
46360,0.796387,-0.347656,0.315918,0
46380,0.806641,-0.348145,0.337402,0
46400,0.805664,-0.36377,0.339355,0
46420,0.776367,-0.362793,0.35791,0
46440,0.775879,-0.373047,0.368652,0
46460,0.777344,-0.373047,0.374023,0
46480,0.764648,-0.368652,0.37793,0
46500,0.75,-0.370605,0.388672,0
46520,0.733887,-0.368164,0.396973,0
46540,0.737305,-0.376953,0.409668,0
46560,0.746094,-0.386719,0.422363,0
46580,0.73291,-0.388184,0.418457,0
46600,0.716797,-0.398926,0.435547,0
46620,0.706055,-0.399902,0.431641,0
46640,0.759766,-0.380371,0.471191,0
46660,0.782715,-0.375977,0.46875,0
46680,0.73877,-0.410645,0.415039,0
46700,0.70752,-0.413574,0.434082,0
46720,0.719727,-0.402832,0.449219,0
46740,0.712402,-0.409668,0.458496,0
46760,0.706055,-0.397461,0.458496,0
46780,0.697754,-0.384766,0.460449,0
46800,0.696777,-0.410156,0.458984,0
46820,0.691895,-0.416992,0.457031,0
46840,0.675781,-0.425293,0.442871,0
46860,0.67334,-0.408203,0.458008,0
46880,0.679199,-0.405273,0.478516,0
46900,0.660156,-0.416504,0.469238,0
46920,0.644043,-0.424316,0.45752,0
46940,0.674805,-0.415039,0.470215,0
46960,0.664551,-0.41748,0.470215,0
46980,0.625,-0.430176,0.464355,0
47000,0.637695,-0.428223,0.481934,0
47020,0.662598,-0.428223,0.484375,0
47040,0.67627,-0.424805,0.474609,0
47060,0.675293,-0.426758,0.491211,0
47080,0.669434,-0.435059,0.486816,0
47100,0.676758,-0.434082,0.478516,0
47120,0.6875,-0.445801,0.475098,0
47140,0.677246,-0.454102,0.478027,0
47160,0.663086,-0.444824,0.477051,0
47180,0.67334,-0.447266,0.48291,0
47200,0.663574,-0.448242,0.470215,0
47220,0.662109,-0.454102,0.470703,0
47240,0.663574,-0.456055,0.475098,0
47260,0.646484,-0.464355,0.468262,0
47280,0.666504,-0.467285,0.462891,0
47300,0.681641,-0.465332,0.463379,0
47320,0.654297,-0.476562,0.458008,0
47340,0.656738,-0.483887,0.453613,0
47360,0.692383,-0.505371,0.455078,0
47380,0.702637,-0.49707,0.463867,0
47400,0.660645,-0.501953,0.455566,0
47420,0.644531,-0.501465,0.458984,0
47440,0.654785,-0.5,0.46875,0
47460,0.638672,-0.495605,0.461914,0
47480,0.634277,-0.499023,0.451172,0
47500,0.631348,-0.519531,0.452148,0
47520,0.63916,-0.531738,0.442871,0
47540,0.612793,-0.524414,0.434082,0
47560,0.574707,-0.520508,0.42041,0
47580,0.612305,-0.537109,0.419922,0
47600,0.665527,-0.543457,0.44873,0
47620,0.655273,-0.545898,0.450684,0
47640,0.604004,-0.554688,0.432617,0
47660,0.596191,-0.569824,0.44043,0
47680,0.606445,-0.557617,0.432129,0
47700,0.581055,-0.564941,0.433105,0
47720,0.567871,-0.57666,0.42041,0
47740,0.589355,-0.581543,0.43457,0
47760,0.562988,-0.567383,0.432129,0
47780,0.546387,-0.584961,0.411133,0
47800,0.562988,-0.600586,0.400391,0
47820,0.566895,-0.597656,0.404297,0
47840,0.57666,-0.611328,0.399414,0
47860,0.579102,-0.621582,0.403809,0
47880,0.58252,-0.630859,0.388184,0
47900,0.589844,-0.628418,0.37793,0
47920,0.61377,-0.628906,0.385742,0
47940,0.622559,-0.627441,0.391602,0
47960,0.606445,-0.641113,0.365723,0
47980,0.599609,-0.641113,0.366699,0
48000,0.602539,-0.626465,0.368164,0
48020,0.596191,-0.616211,0.360352,0
48040,0.584961,-0.628418,0.353516,0
48060,0.575195,-0.64209,0.347656,0
48080,0.572754,-0.638672,0.334473,0
48100,0.569824,-0.631836,0.32373,0
48120,0.570801,-0.635742,0.319336,0
48140,0.561523,-0.652832,0.328613,0
48160,0.556152,-0.655762,0.322754,0
48180,0.557129,-0.662598,0.307129,0
48200,0.57666,-0.662598,0.308105,0
48220,0.574219,-0.680664,0.313965,0
48240,0.566406,-0.655762,0.305176,0
48260,0.578125,-0.682129,0.299805,0
48280,0.612305,-0.682617,0.296875,0
48300,0.626953,-0.669922,0.301758,0
48320,0.628418,-0.675781,0.291016,0
48340,0.653809,-0.681152,0.286133,0
48360,0.669922,-0.658691,0.275879,0
48380,0.660156,-0.654297,0.258789,0
48400,0.663086,-0.666016,0.249512,0
48420,0.685547,-0.65625,0.265137,0
48440,0.687012,-0.646973,0.231934,0
48460,0.665527,-0.661621,0.219238,0
48480,0.655273,-0.64209,0.223145,0
48500,0.658203,-0.617188,0.208496,0
48520,0.680664,-0.635254,0.191895,0
48540,0.697754,-0.65332,0.181641,0
48560,0.677734,-0.636719,0.187988,0
48580,0.682617,-0.633301,0.159668,0
48600,0.707031,-0.650879,0.141602,0
48620,0.72168,-0.654297,0.14502,0
48640,0.695801,-0.635742,0.14502,0
48660,0.685547,-0.631836,0.125488,0
48680,0.705566,-0.637207,0.117188,0
48700,0.73584,-0.644043,0.108398,0
48720,0.73584,-0.641602,0.0976562,0
48740,0.740723,-0.631348,0.09375,0
48760,0.745605,-0.629395,0.097168,0
48780,0.724609,-0.625977,0.0732422,0
48800,0.724121,-0.619629,0.0668945,0
48820,0.756348,-0.64209,0.0634766,0
48840,0.750488,-0.619629,0.0644531,0
48860,0.734863,-0.603027,0.0625,0
48880,0.762695,-0.60498,0.0512695,0
48900,0.768555,-0.608398,0.0449219,0
48920,0.773438,-0.591309,0.0473633,0
48940,0.773438,-0.583496,0.0375977,0
48960,0.773926,-0.57373,0.0253906,0
48980,0.791992,-0.582031,0.0268555,0
49000,0.784668,-0.568359,0.0239258,0
49020,0.790527,-0.550293,0.0200195,0
49040,0.796387,-0.5625,0.0107422,0
49050,0.780762,-0.547852,0.00244141,0
49070,0.797852,-0.552734,0.00488281,0
49090,0.803711,-0.541992,0.00830078,0
49110,0.808594,-0.537598,-0.000976562,0
49130,0.814941,-0.527344,-0.0117188,0
49150,0.818848,-0.538086,-0.015625,0
49170,0.791016,-0.509766,-0.00634766,0
49190,0.813477,-0.513184,-0.0229492,0
49210,0.826172,-0.530273,-0.0239258,0
49230,0.804199,-0.50293,-0.0141602,0
49250,0.812012,-0.494629,-0.0234375,0
49270,0.850586,-0.496094,-0.0292969,0
49290,0.855469,-0.495117,-0.0322266,0
49310,0.834961,-0.46875,-0.0200195,0
49330,0.847656,-0.477539,-0.0395508,0
49350,0.861816,-0.473145,-0.0302734,0
49370,0.856445,-0.46582,-0.0253906,0
49390,0.845703,-0.453613,-0.0336914,0
49410,0.85498,-0.454102,-0.0258789,0
49430,0.853027,-0.44043,-0.0200195,0
49450,0.866211,-0.437012,-0.0234375,0
49470,0.868164,-0.431641,-0.0351562,0
49490,0.87207,-0.426758,-0.0239258,0
49510,0.872559,-0.409668,-0.0219727,0
49530,0.875,-0.402344,-0.0249023,0
49550,0.871094,-0.404297,-0.027832,0
49570,0.870117,-0.399902,-0.0307617,0
49590,0.878906,-0.393066,-0.0253906,0
49610,0.89209,-0.374023,-0.0219727,0
49630,0.896973,-0.369141,-0.0146484,0
49650,0.900391,-0.358887,-0.0107422,0
49670,0.911133,-0.350098,-0.0078125,0
49690,0.909668,-0.335938,-0.0146484,0
49710,0.907227,-0.336426,-0.015625,0
49730,0.922363,-0.328613,-0.00341797,0
49750,0.92041,-0.323242,0.00976562,0
49770,0.913574,-0.300781,0.0141602,0
49790,0.909668,-0.304199,0.00439453,0
49810,0.910156,-0.297852,0.0102539,0
49830,0.931641,-0.277344,0.0336914,0
49850,0.941406,-0.282227,0.034668,0
49870,0.927734,-0.269043,0.0380859,0
49890,0.921875,-0.265625,0.0424805,0
49910,0.937988,-0.256836,0.0561523,0
49930,0.934082,-0.256836,0.0737305,0
49950,0.916016,-0.254395,0.0742188,0
49970,0.917969,-0.260254,0.0791016,0
49990,0.911621,-0.250977,0.0805664,0
50010,0.92041,-0.251953,0.0922852,0
50030,0.931641,-0.249023,0.0922852,0
50050,0.941895,-0.245605,0.0874023,0
50070,0.931152,-0.249512,0.0986328,0
50090,0.921875,-0.236328,0.108887,0
50110,0.931641,-0.243164,0.115234,0
50130,0.926758,-0.232422,0.132812,0
50150,0.919434,-0.237793,0.128906,0
50170,0.912598,-0.22998,0.146973,0
50190,0.915039,-0.240234,0.150879,0
50210,0.935547,-0.244141,0.148438,0
50230,0.92627,-0.249023,0.157227,0
50250,0.905762,-0.239258,0.166504,0
50270,0.921875,-0.251465,0.175781,0
50290,0.927734,-0.270508,0.180176,0
50310,0.908691,-0.270996,0.184082,0
50330,0.909668,-0.269043,0.18457,0
50350,0.90918,-0.270996,0.192383,0
50370,0.918945,-0.270996,0.212891,0
50390,0.931152,-0.259277,0.231445,0
50410,0.916504,-0.278809,0.231934,0
50430,0.898438,-0.280762,0.225098,0
50450,0.904785,-0.270996,0.252441,0
50470,0.881836,-0.291016,0.262207,0
50490,0.869141,-0.302734,0.257324,0
50510,0.859375,-0.293457,0.260742,0
50530,0.85791,-0.296387,0.271484,0
50550,0.869141,-0.3125,0.27832,0
50570,0.853516,-0.32959,0.271973,0
50590,0.825195,-0.297363,0.296387,0
50610,0.825684,-0.29541,0.29541,0
50630,0.835938,-0.319336,0.302246,0
50650,0.816895,-0.336426,0.307617,0
50670,0.803711,-0.335449,0.306641,0
50690,0.814941,-0.327637,0.319824,0
50710,0.828125,-0.32666,0.313477,0
50730,0.814941,-0.328613,0.334473,0
50750,0.786621,-0.347168,0.341797,0
50770,0.777832,-0.337891,0.349121,0
50790,0.783691,-0.334473,0.36084,0
50810,0.779785,-0.348633,0.355469,0
50830,0.760254,-0.351074,0.35791,0
50850,0.764648,-0.338379,0.365234,0
50870,0.790527,-0.34668,0.373047,0
50890,0.797363,-0.365723,0.383301,0
50900,0.777344,-0.365234,0.362793,0
50930,0.789551,-0.377441,0.344238,0
50950,0.849121,-0.379883,0.375977,0
50970,0.83252,-0.379395,0.393066,0
50990,0.782715,-0.383301,0.371582,0
51000,0.788574,-0.413086,0.371582,0
51020,0.815918,-0.418457,0.362793,0
51040,0.789551,-0.412598,0.369629,0
51060,0.753906,-0.401855,0.351562,0
51080,0.763672,-0.40625,0.348145,0
51100,0.741211,-0.413086,0.355469,0
51120,0.71875,-0.416992,0.338379,0
51140,0.731934,-0.414062,0.349121,0
51160,0.713867,-0.429688,0.345215,0
51180,0.712402,-0.436523,0.331543,0
51200,0.726074,-0.439941,0.346191,0
51220,0.712402,-0.447266,0.328613,0
51240,0.73877,-0.459473,0.336914,0
51260,0.746094,-0.472656,0.341797,0
51280,0.732422,-0.469238,0.333496,0
51300,0.727539,-0.470703,0.341309,0
51320,0.715332,-0.476074,0.333008,0
51340,0.716797,-0.489746,0.333008,0
51360,0.731445,-0.490723,0.347656,0
51380,0.701172,-0.489258,0.328125,0
51400,0.709961,-0.495605,0.339355,0
51420,0.709961,-0.493652,0.339844,0
51440,0.709961,-0.516113,0.326172,0
51460,0.705566,-0.521484,0.336914,0
51480,0.691895,-0.512695,0.340332,0
51500,0.686523,-0.523926,0.33252,0
51520,0.705566,-0.541992,0.330566,0
51540,0.665527,-0.538574,0.338379,0
51560,0.660645,-0.531738,0.329102,0
51580,0.717285,-0.553223,0.32959,0
51600,0.696289,-0.564941,0.331543,0
51620,0.677246,-0.55127,0.32373,0
51640,0.705078,-0.568848,0.32666,0
51660,0.720215,-0.572754,0.329102,0
51680,0.716797,-0.56543,0.311523,0
51700,0.723633,-0.578613,0.313965,0
51720,0.697754,-0.595703,0.30127,0
51740,0.697754,-0.606934,0.28418,0
51760,0.71582,-0.61377,0.297852,0
51780,0.689453,-0.57959,0.306641,0
51800,0.634277,-0.55957,0.276855,0
51820,0.638184,-0.591797,0.256836,0
51840,0.692871,-0.608887,0.267578,0
51860,0.65332,-0.598633,0.267578,0
51880,0.652832,-0.602051,0.257324,0
51900,0.682129,-0.632324,0.25293,0
51920,0.663086,-0.625977,0.232422,0
51940,0.64502,-0.625977,0.228027,0
51960,0.679688,-0.647949,0.208008,0
51980,0.696289,-0.672363,0.210938,0
52000,0.658203,-0.65918,0.214355,0
52020,0.642578,-0.649414,0.205078,0
52040,0.658203,-0.672363,0.180664,0
52060,0.671875,-0.668945,0.195312,0
52080,0.657227,-0.654785,0.182617,0
52100,0.634277,-0.666016,0.161621,0
52120,0.63623,-0.6875,0.148438,0
52140,0.67041,-0.669922,0.168457,0
52160,0.674805,-0.660645,0.149414,0
52180,0.653809,-0.666504,0.135742,0
52200,0.646973,-0.681641,0.129395,0
52220,0.659668,-0.671387,0.125,0
52240,0.671387,-0.688477,0.114746,0
52260,0.65625,-0.680664,0.108887,0
52280,0.645996,-0.67334,0.111328,0
52300,0.668945,-0.669434,0.105469,0
52320,0.692383,-0.67334,0.0844727,0
52340,0.677246,-0.678711,0.0756836,0
52360,0.670898,-0.658203,0.090332,0
52380,0.688965,-0.651855,0.074707,0
52400,0.731934,-0.652344,0.0571289,0
52420,0.74707,-0.681641,0.0478516,0
52440,0.743164,-0.664062,0.0449219,0
52460,0.74707,-0.668945,0.0268555,0
52480,0.775879,-0.661621,0.000976562,0
52500,0.774414,-0.657715,0.00341797,0
52520,0.755859,-0.629883,0.00585938,0
52540,0.740723,-0.622559,-0.0117188,0
52560,0.725586,-0.619629,-0.0185547,0
52580,0.724121,-0.620117,-0.0454102,0
52600,0.733398,-0.607422,-0.0615234,0
52620,0.730469,-0.601074,-0.0732422,0
52640,0.737793,-0.593262,-0.0668945,0
52660,0.754883,-0.576172,-0.0864258,0
52680,0.765625,-0.591797,-0.112305,0
52700,0.77832,-0.593262,-0.114746,0
52720,0.779297,-0.598145,-0.117676,0
52740,0.802246,-0.576172,-0.121582,0
52760,0.809082,-0.579102,-0.130371,0
52780,0.802734,-0.566895,-0.13623,0
52800,0.799805,-0.554688,-0.138672,0
52820,0.811035,-0.543945,-0.147461,0
52840,0.809082,-0.537598,-0.152832,0
52860,0.806152,-0.525391,-0.140625,2001
52880,0.821289,-0.524414,-0.154297,0
52900,0.810059,-0.51709,-0.166992,0
52910,0.818359,-0.500977,-0.168457,0
52930,0.845215,-0.502441,-0.171875,0
52950,0.84375,-0.496582,-0.175293,0
52970,0.833496,-0.488281,-0.178711,0
52990,0.852539,-0.477539,-0.188965,0
53010,0.853027,-0.477539,-0.200684,0
53030,0.854004,-0.456055,-0.185059,0
53050,0.848633,-0.474121,-0.188965,0
53070,0.821289,-0.493164,-0.182129,0
53090,0.814941,-0.48877,-0.17041,0
53110,0.80127,-0.472168,-0.162598,0
53130,0.777344,-0.48291,-0.14502,0
53150,0.742188,-0.487793,-0.123047,0
53170,0.692871,-0.476562,-0.097168,0
53190,0.661133,-0.484375,-0.0917969,0
53210,0.647949,-0.486816,-0.10498,0
53230,0.648438,-0.499023,-0.101074,0
53250,0.656738,-0.499512,-0.0786133,0
53270,0.628418,-0.491699,-0.106445,0
53290,0.667969,-0.506348,-0.113281,0
53310,0.687012,-0.51416,-0.0512695,0
53330,0.641602,-0.477539,-0.00976562,0
53350,0.614746,-0.462402,-0.0249023,0
53370,0.633301,-0.470703,-0.0253906,0
53390,0.671875,-0.481934,0.0488281,0
53410,0.689941,-0.487305,0.0820312,0
53430,0.703613,-0.523438,0.0595703,0
53450,0.769531,-0.55957,0.101074,0
53470,0.837402,-0.553223,0.151367,0
53490,0.859375,-0.543945,0.193359,0
53510,0.859375,-0.587891,0.191895,0
53530,0.834961,-0.666992,0.219238,0
53550,0.863281,-0.679688,0.242676,0
53570,0.839844,-0.651855,0.304199,0
53590,0.794922,-0.668457,0.339355,0
53610,0.751953,-0.744141,0.352539,0
53630,0.746094,-0.739258,0.392578,0
53650,0.718262,-0.728516,0.443359,0
53670,0.682129,-0.760254,0.453613,0
53690,0.640137,-0.811035,0.439453,0
53710,0.612793,-0.825684,0.446777,0
53730,0.533691,-0.814941,0.506348,0
53750,0.476562,-0.794434,0.506348,0
53770,0.45752,-0.794922,0.512207,0
53790,0.441406,-0.783203,0.535156,0
53810,0.396484,-0.772949,0.540039,0
53830,0.35791,-0.78418,0.540039,0
53850,0.358887,-0.771973,0.533691,0
53870,0.342285,-0.772949,0.523438,0
53890,0.349609,-0.762207,0.540527,0
53910,0.343262,-0.749023,0.539062,0
53930,0.333496,-0.734863,0.533691,0
53950,0.337402,-0.717285,0.533203,0
53970,0.361328,-0.70752,0.522461,0
53990,0.371094,-0.710938,0.518066,0
54010,0.373047,-0.702637,0.503418,2000
54030,0.350098,-0.684082,0.502441,0
54050,0.339844,-0.674805,0.513184,0
54070,0.339844,-0.674316,0.523438,0
54090,0.349121,-0.668457,0.526367,0
54110,0.366699,-0.666504,0.518555,0
54130,0.365234,-0.669434,0.499512,0
54150,0.373047,-0.688965,0.487793,0
54170,0.378906,-0.697266,0.501953,0
54190,0.381836,-0.697266,0.508301,0
54210,0.378906,-0.709473,0.504883,0
54230,0.373047,-0.708984,0.497559,0
54250,0.352051,-0.701172,0.516113,0
54270,0.331543,-0.69043,0.520508,0
54290,0.333496,-0.702637,0.51416,0
54310,0.328125,-0.700195,0.512695,0
54330,0.322266,-0.699707,0.519531,0
54350,0.324707,-0.691895,0.524414,0
54370,0.341309,-0.704102,0.52832,0
54390,0.352051,-0.711426,0.524414,0
54410,0.350098,-0.699219,0.524902,0
54420,0.367188,-0.686523,0.534668,0
54440,0.385742,-0.687988,0.530273,0
54460,0.374512,-0.685547,0.540527,0
54480,0.371582,-0.667969,0.535156,0
54500,0.40918,-0.683594,0.533203,0
54520,0.414551,-0.699707,0.519531,0
54540,0.404785,-0.713379,0.499023,0
54560,0.422852,-0.719238,0.499023,0
54580,0.424316,-0.707031,0.500488,0
54600,0.398438,-0.693848,0.48877,0
54620,0.414062,-0.710449,0.482422,0
54640,0.426758,-0.720215,0.470703,0
54660,0.411621,-0.684082,0.47168,0
54680,0.430176,-0.703613,0.467773,0
54700,0.441406,-0.716797,0.469727,0
54720,0.444824,-0.70752,0.466309,0
54740,0.450195,-0.699219,0.455078,0
54760,0.459473,-0.703613,0.449219,0
54780,0.441895,-0.704102,0.453125,0
54800,0.459473,-0.720215,0.437988,0
54820,0.453125,-0.697266,0.4375,0
54840,0.451172,-0.698242,0.432617,0
54860,0.457031,-0.706055,0.425781,0
54880,0.471191,-0.713867,0.425781,0
54900,0.448242,-0.705078,0.419434,0
54920,0.44873,-0.697266,0.414551,0
54940,0.491699,-0.723633,0.416504,0
54960,0.450195,-0.714844,0.404297,0
54980,0.431641,-0.712891,0.383789,0
55000,0.463379,-0.712402,0.387207,0
55020,0.481445,-0.710938,0.391602,0
55040,0.497559,-0.715332,0.382812,0
55060,0.492188,-0.714844,0.379395,0
55080,0.519531,-0.693848,0.374512,0
55100,0.537109,-0.701172,0.382324,0
55120,0.54248,-0.684082,0.373535,0
55140,0.559082,-0.708984,0.364746,0
55160,0.568848,-0.732422,0.357422,0
55180,0.555176,-0.714355,0.333008,0
55200,0.538574,-0.719727,0.330566,0
55220,0.527344,-0.713867,0.317383,0
55240,0.543457,-0.714844,0.307129,0
55260,0.572754,-0.708984,0.285156,0
55280,0.566895,-0.691895,0.279785,0
55300,0.588379,-0.696289,0.279785,0
55320,0.605957,-0.691406,0.249512,0
55340,0.608887,-0.68457,0.237305,0
55360,0.61377,-0.682129,0.239258,0
55380,0.621582,-0.689453,0.236328,0
55400,0.625488,-0.682129,0.233398,0
55420,0.624512,-0.674316,0.231445,0
55440,0.624023,-0.683594,0.233398,0
55460,0.640137,-0.675293,0.240723,0
55480,0.645996,-0.684082,0.234863,0
55500,0.637695,-0.67627,0.241211,0
55520,0.660156,-0.677734,0.250977,0
55540,0.653809,-0.67334,0.241211,0
55580,0.638672,-0.666016,0.233398,0
55600,0.650879,-0.665527,0.23291,0
55620,0.654297,-0.651855,0.233398,0
55650,0.65918,-0.643066,0.23584,0
55670,0.670898,-0.64209,0.242188,0
55690,0.668945,-0.635254,0.245605,0
55710,0.666504,-0.625977,0.250977,0
55730,0.670898,-0.628418,0.255371,0
55750,0.681152,-0.637695,0.258301,0
55770,0.660645,-0.636719,0.276855,0
55790,0.661621,-0.634277,0.266113,0
55810,0.664062,-0.631836,0.285156,0
55830,0.677246,-0.634277,0.294434,0
55850,0.651367,-0.627441,0.298828,0
55870,0.660645,-0.622559,0.29248,0
55890,0.675781,-0.612793,0.310059,0
55910,0.697266,-0.619629,0.317383,0
55930,0.669434,-0.633789,0.312988,0
55950,0.662109,-0.641113,0.313965,0
55970,0.661133,-0.630859,0.350586,0
55990,0.634766,-0.604492,0.375,0
56010,0.619629,-0.599609,0.375488,0
56030,0.640137,-0.619629,0.371582,0
56050,0.640137,-0.614746,0.380859,0
56070,0.625,-0.599609,0.404785,0
56090,0.618164,-0.582031,0.407227,0
56110,0.598633,-0.600586,0.425293,0
56130,0.58252,-0.598633,0.416504,0
56150,0.598633,-0.603516,0.408203,0
56170,0.606445,-0.611328,0.420898,0
56190,0.590332,-0.601562,0.445801,0
56210,0.574219,-0.580078,0.446777,0
56230,0.59082,-0.59082,0.453613,0
56250,0.593262,-0.604004,0.45166,0
56270,0.57666,-0.612305,0.450684,0
56290,0.543945,-0.599121,0.45459,0
56300,0.568359,-0.601562,0.448242,0
56320,0.566895,-0.626465,0.453613,0
56340,0.540039,-0.612305,0.464844,0
56360,0.527832,-0.606445,0.466309,0
56380,0.54834,-0.59668,0.469727,0
56400,0.554199,-0.60791,0.478516,0
56420,0.543945,-0.594727,0.488281,0
56440,0.53418,-0.594238,0.480957,0
56460,0.527344,-0.602051,0.469727,0
56480,0.535156,-0.608398,0.491699,0
56500,0.533691,-0.602051,0.498535,0
56520,0.520996,-0.603516,0.490234,0
56540,0.519531,-0.61084,0.478027,0
56560,0.537109,-0.626465,0.473145,0
56580,0.538086,-0.620605,0.477539,0
56600,0.525879,-0.600098,0.498535,0
56620,0.501953,-0.618652,0.5,0
56640,0.5,-0.619141,0.489258,0
56660,0.504395,-0.614746,0.490723,0
56680,0.509277,-0.592773,0.509277,0
56700,0.508789,-0.600098,0.494141,0
56720,0.523926,-0.617676,0.491699,0
56740,0.521973,-0.604492,0.508301,0
56760,0.499512,-0.608887,0.498535,0
56780,0.487305,-0.625,0.498047,0
56800,0.474121,-0.632812,0.50293,0
56820,0.45459,-0.633789,0.486816,0
56840,0.457031,-0.639648,0.503418,0
56860,0.491211,-0.646484,0.512695,0
56880,0.463379,-0.64209,0.508301,0
56900,0.446289,-0.629395,0.491699,0
56920,0.473145,-0.638184,0.5,0
56940,0.490234,-0.643066,0.507812,0
56960,0.467285,-0.643555,0.515625,0
56980,0.455566,-0.65625,0.510254,0
57000,0.487305,-0.646973,0.501953,0
57020,0.489258,-0.632324,0.51416,0
57040,0.453613,-0.620605,0.501465,0
57060,0.446289,-0.651367,0.483887,0
57080,0.46582,-0.662598,0.490234,0
57100,0.45752,-0.64502,0.503418,0
57120,0.430664,-0.641602,0.498535,0
57140,0.424316,-0.659668,0.499023,0
57160,0.4375,-0.651855,0.483887,0
57180,0.438965,-0.650879,0.501465,0
57200,0.444336,-0.651367,0.511719,0
57220,0.418945,-0.67334,0.492676,0
57240,0.427246,-0.67041,0.501953,0
57260,0.445801,-0.662598,0.511719,0
57280,0.428223,-0.684082,0.499023,0
57300,0.430176,-0.694336,0.498535,0
57320,0.442871,-0.683594,0.523438,0
57340,0.450684,-0.663574,0.535156,0
57360,0.420898,-0.675293,0.510742,0
57380,0.415527,-0.683105,0.49707,0
57400,0.430664,-0.685547,0.510254,0
57420,0.435059,-0.686523,0.504395,0
57440,0.401855,-0.697754,0.495605,0
57460,0.361816,-0.708008,0.48584,0
57480,0.379395,-0.685547,0.501953,0
57500,0.386719,-0.685059,0.495605,0
57520,0.376465,-0.695801,0.478516,0
57540,0.394043,-0.699707,0.470215,0
57560,0.375488,-0.700195,0.48584,0
57580,0.358398,-0.685547,0.472656,0
57600,0.385254,-0.705078,0.465332,0
57620,0.40918,-0.724121,0.461426,0
57630,0.373535,-0.722656,0.44873,0
57650,0.394531,-0.727539,0.454102,0
57670,0.38916,-0.714355,0.446777,0
57690,0.388184,-0.717773,0.4375,0
57710,0.408203,-0.726074,0.443848,0
57730,0.39209,-0.736328,0.431641,0
57750,0.405762,-0.74707,0.432617,0
57770,0.430664,-0.739258,0.431641,0
57790,0.405762,-0.733887,0.429688,0
57810,0.391602,-0.740723,0.404297,0
57830,0.407715,-0.738281,0.420898,0
57850,0.412598,-0.747559,0.416504,0
57870,0.404785,-0.760742,0.396973,0
57890,0.408203,-0.76123,0.401367,0
57910,0.42627,-0.779785,0.398438,0
57930,0.424316,-0.791504,0.369629,0
57950,0.420898,-0.785645,0.362305,0
57970,0.432129,-0.772461,0.371582,0
57990,0.414062,-0.780762,0.349121,0
58010,0.400391,-0.803223,0.337402,0
58030,0.422363,-0.797852,0.344238,0
58050,0.447266,-0.791016,0.330078,0
58070,0.447754,-0.791504,0.311523,0
58090,0.411621,-0.801758,0.30127,0
58110,0.424316,-0.807617,0.294922,0
58130,0.435547,-0.791504,0.295898,0
58150,0.428223,-0.79248,0.282227,0
58170,0.432617,-0.806152,0.272949,0
58190,0.437988,-0.806641,0.273926,0
58210,0.441406,-0.782227,0.266113,0
58230,0.448242,-0.789551,0.246094,0
58250,0.450195,-0.804199,0.234863,0
58270,0.460449,-0.789062,0.241211,0
58290,0.479004,-0.798828,0.240723,0
58310,0.476074,-0.797363,0.22998,0
58330,0.478027,-0.782715,0.219238,0
58350,0.498047,-0.791504,0.20752,0
58370,0.525879,-0.793945,0.206055,0
58390,0.507812,-0.787109,0.193848,0
58410,0.501465,-0.783203,0.191895,0
58430,0.534668,-0.79248,0.178711,0
58450,0.521484,-0.791504,0.168945,0
58470,0.512695,-0.785156,0.151367,0
58490,0.549316,-0.795898,0.154785,0
58510,0.534668,-0.783203,0.158203,0
58530,0.515625,-0.773438,0.148438,0
58550,0.53418,-0.78418,0.130859,0
58570,0.546875,-0.792969,0.143066,0
58590,0.524902,-0.762695,0.145508,0
58610,0.546875,-0.767578,0.133301,0
58630,0.537109,-0.785645,0.108887,0
58650,0.552246,-0.778809,0.113281,0
58670,0.549805,-0.757324,0.114746,0
58690,0.574219,-0.764648,0.090332,0
58710,0.562988,-0.774414,0.0830078,0
58730,0.589355,-0.76709,0.0766602,0
58750,0.60791,-0.770508,0.0751953,0
58770,0.607422,-0.758789,0.065918,0
58790,0.628906,-0.76709,0.0463867,0
58810,0.606445,-0.764648,0.0332031,0
58830,0.667969,-0.766602,0.027832,0
58850,0.686035,-0.752441,0.0371094,0
58870,0.680176,-0.727051,0.0205078,0
58890,0.676758,-0.706543,0.0219727,0
58910,0.69043,-0.705078,0.0214844,0
58930,0.70166,-0.698242,0.0151367,0
58950,0.702148,-0.694336,0.0112305,0
58970,0.695801,-0.687012,0.0195312,0
58990,0.708984,-0.680176,0.0175781,0
59010,0.720703,-0.671387,0.0117188,0
59030,0.713867,-0.673828,0.00732422,0
59050,0.699219,-0.65918,0.00585938,0
59070,0.722168,-0.646973,0.00927734,0
59090,0.741699,-0.654785,0.00683594,0
59110,0.724609,-0.646484,0.0141602,0
59130,0.720703,-0.640625,0.00878906,0
59150,0.741699,-0.632324,-0.00244141,0
59170,0.729004,-0.631836,0.000976562,0
59190,0.757324,-0.625488,0.00439453,0
59210,0.751465,-0.617676,-0.00341797,0
59230,0.759766,-0.612305,-0.00439453,0
59250,0.758301,-0.617188,-0.000976562,0
59280,0.77002,-0.606445,0.0117188,0
59300,0.769531,-0.583008,0.0224609,0
59320,0.776855,-0.584473,0.0258789,0
59340,0.765137,-0.59082,0.0390625,0
59360,0.77002,-0.574219,0.0498047,0
59380,0.791504,-0.555176,0.0546875,0
59400,0.810547,-0.551758,0.0644531,0
59420,0.827637,-0.559082,0.0673828,0
59440,0.847168,-0.555664,0.0712891,0
59460,0.833496,-0.546875,0.0869141,0
59480,0.822266,-0.529297,0.0961914,0
59500,0.832031,-0.540527,0.0986328,0
59520,0.852051,-0.546387,0.109863,0
59540,0.836914,-0.544922,0.131836,0
59560,0.807617,-0.532227,0.146484,0
59580,0.775391,-0.515625,0.166016,0
59600,0.779297,-0.51123,0.158691,0
59610,0.80127,-0.527832,0.17334,0
59630,0.775879,-0.503418,0.19043,0
59650,0.763672,-0.489746,0.199219,0
59670,0.791992,-0.505859,0.206055,0
59690,0.812012,-0.515137,0.214355,0
59710,0.790039,-0.500488,0.22998,0
59730,0.765137,-0.483398,0.226074,0
59750,0.786133,-0.500977,0.229492,0
59770,0.812988,-0.523926,0.237793,0
59790,0.78418,-0.526367,0.253418,0
59810,0.733398,-0.483398,0.282227,0
59830,0.77002,-0.492188,0.263672,0
59850,0.802734,-0.500977,0.263672,0
59870,0.776855,-0.48584,0.285645,0
59890,0.746582,-0.489746,0.296875,0
59910,0.776855,-0.5,0.289551,0
59930,0.779785,-0.507812,0.306641,0
59950,0.762695,-0.492188,0.305176,0
59970,0.764648,-0.483398,0.307129,0
59990,0.756348,-0.506348,0.314453,0
60010,0.758301,-0.513672,0.304688,0
60030,0.763184,-0.50293,0.328125,0
60050,0.757324,-0.514648,0.327148,0
60070,0.737305,-0.5,0.322266,0
60090,0.723145,-0.48877,0.334961,0
60110,0.710449,-0.486816,0.349609,0
60130,0.720215,-0.507812,0.354492,0
60150,0.725098,-0.515625,0.347168,0
60170,0.694336,-0.509766,0.363281,0
60190,0.681152,-0.508789,0.378906,0
60210,0.693848,-0.509277,0.382324,0
60230,0.688965,-0.515137,0.379883,0
60250,0.671875,-0.520996,0.373535,0
60270,0.674805,-0.515137,0.398438,0
60290,0.667969,-0.515137,0.398438,0
60310,0.669434,-0.521973,0.404785,0
60330,0.667969,-0.524902,0.405273,0
60350,0.658203,-0.527344,0.40918,0
60370,0.65332,-0.525879,0.395996,0
60390,0.648438,-0.522949,0.416016,0
60410,0.65625,-0.538574,0.410645,0
60430,0.655273,-0.538574,0.406738,0
60450,0.649414,-0.535156,0.397949,0
60470,0.648926,-0.541016,0.40625,0
60490,0.650879,-0.534668,0.410156,0
60510,0.664551,-0.522461,0.406738,0
60530,0.661133,-0.538086,0.417969,0
60550,0.656738,-0.531738,0.409668,0
60570,0.651855,-0.53418,0.411621,0
60590,0.648926,-0.535156,0.421387,0
60610,0.631348,-0.551758,0.416504,0
60630,0.647949,-0.542969,0.422852,0
60650,0.640137,-0.548828,0.408203,0
60670,0.644043,-0.546875,0.408691,0
60690,0.636719,-0.54834,0.416016,0
60710,0.640137,-0.546387,0.40625,0
60730,0.65625,-0.567383,0.382324,0
60750,0.679688,-0.576172,0.385254,0
60770,0.678223,-0.574707,0.401855,0
60790,0.65625,-0.576172,0.402344,0
60810,0.644043,-0.57959,0.402344,0
60830,0.623047,-0.584961,0.395508,0
60850,0.623047,-0.564453,0.405762,0
60870,0.61084,-0.575684,0.402344,0
60890,0.588379,-0.577148,0.407715,0
60910,0.575195,-0.574707,0.412109,0
60930,0.569336,-0.578125,0.408203,0
60950,0.556152,-0.583984,0.425781,0
60970,0.540527,-0.589355,0.409668,0
60990,0.55957,-0.593262,0.408203,0
61010,0.566895,-0.608398,0.422363,0
61030,0.560059,-0.617188,0.415527,0
61050,0.566895,-0.618164,0.418945,0
61070,0.572266,-0.634766,0.403809,0
61090,0.613281,-0.641113,0.400391,0
61110,0.602051,-0.621582,0.413574,0
61130,0.550781,-0.627441,0.395996,0
61150,0.570801,-0.645508,0.382812,0
61170,0.597168,-0.657227,0.399414,0
61190,0.569824,-0.640625,0.380859,0
61210,0.572266,-0.647461,0.375,0
61230,0.59668,-0.657715,0.380371,0
61250,0.580078,-0.632324,0.382324,0
61270,0.554199,-0.636719,0.34668,0
61290,0.589844,-0.665527,0.361328,0
61310,0.592285,-0.664551,0.365723,0
61330,0.560547,-0.671387,0.34375,0
61350,0.576172,-0.687012,0.346191,0
61370,0.589844,-0.689941,0.342285,0
61390,0.567871,-0.680176,0.333496,0
61410,0.566895,-0.684082,0.317383,0
61430,0.612793,-0.725586,0.32959,0
61450,0.610352,-0.724609,0.336914,0
61470,0.541504,-0.687988,0.314941,0
61490,0.493652,-0.692383,0.284668,0
61510,0.495605,-0.702148,0.279297,0
61530,0.531738,-0.698242,0.283203,0
61550,0.537109,-0.723633,0.271484,0
61570,0.521484,-0.746582,0.259277,0
61590,0.520996,-0.734375,0.256348,0
61600,0.537598,-0.725098,0.250488,0
61620,0.546875,-0.732422,0.228027,0
61640,0.550293,-0.762207,0.200684,0
61660,0.580078,-0.759766,0.199707,0
61680,0.59082,-0.749512,0.205566,0
61700,0.55957,-0.750977,0.189941,0
61720,0.573242,-0.767578,0.174805,0
61740,0.587891,-0.775391,0.166016,0
61760,0.589355,-0.77002,0.155762,0
61780,0.590332,-0.763184,0.155762,0
61800,0.596191,-0.774902,0.134277,0
61820,0.592285,-0.772461,0.140137,0
61840,0.58252,-0.759766,0.139648,0
61860,0.590332,-0.766113,0.130859,0
61880,0.584473,-0.777832,0.111328,0
61900,0.575684,-0.763672,0.101562,0
61920,0.584961,-0.767578,0.0927734,0
61940,0.594238,-0.760254,0.0927734,0
61960,0.580566,-0.734863,0.0991211,0
61980,0.579102,-0.750488,0.0761719,0
62000,0.610352,-0.740723,0.0629883,0
62020,0.619629,-0.729004,0.0673828,0
62040,0.631348,-0.715332,0.0629883,0
62060,0.634277,-0.724121,0.0327148,0
62080,0.640625,-0.701172,0.0454102,0
62100,0.661621,-0.697754,0.0351562,0
62120,0.677246,-0.708984,0.0117188,0
62140,0.664551,-0.703613,0.012207,0
62160,0.658691,-0.67627,0.00195312,0
62180,0.706055,-0.67041,-0.0107422,0
62200,0.713867,-0.683105,-0.0200195,0
62220,0.69873,-0.661621,-0.0292969,0
62240,0.689453,-0.666016,-0.0341797,0
62260,0.695801,-0.648926,-0.0415039,0
62280,0.706543,-0.641113,-0.0522461,0
62300,0.721191,-0.629883,-0.0576172,0
62320,0.731445,-0.623535,-0.0678711,0
62340,0.73877,-0.608887,-0.0615234,0
62360,0.772461,-0.603027,-0.0805664,0
62380,0.756348,-0.600098,-0.0932617,0
62400,0.758789,-0.591797,-0.10791,0
62420,0.776855,-0.591797,-0.10498,0
62440,0.790527,-0.584961,-0.102051,0
62460,0.783691,-0.567383,-0.104004,0
62480,0.81543,-0.55127,-0.107422,0
62500,0.84082,-0.558594,-0.114746,0
62520,0.824707,-0.552246,-0.107422,0
62540,0.814453,-0.537598,-0.0957031,0
62560,0.818848,-0.524902,-0.105469,0
62580,0.844727,-0.538574,-0.103516,0
62600,0.833984,-0.523438,-0.0922852,0
62620,0.819336,-0.499512,-0.0864258,0
62640,0.833984,-0.495605,-0.0913086,0
62660,0.846191,-0.495605,-0.0791016,0
62680,0.837402,-0.472656,-0.0688477,0
62700,0.853027,-0.458008,-0.0717773,0
62720,0.872559,-0.458496,-0.0664062,0
62740,0.888184,-0.438965,-0.0556641,0
62760,0.88916,-0.429199,-0.0561523,0
62780,0.888184,-0.425293,-0.0634766,0
62800,0.871094,-0.430664,-0.0566406,0
62820,0.875977,-0.416016,-0.034668,0
62840,0.881348,-0.412109,-0.043457,0
62860,0.887207,-0.394531,-0.0419922,0
62880,0.90332,-0.393555,-0.0400391,0
62900,0.908691,-0.384277,-0.0356445,0
62920,0.890137,-0.376953,-0.03125,0
62940,0.908203,-0.357422,-0.0322266,0
62960,0.921387,-0.364746,-0.0371094,0
62980,0.906738,-0.360352,-0.0239258,0
63000,0.907227,-0.347656,-0.0126953,0
63020,0.907715,-0.342773,-0.0297852,0
63040,0.916504,-0.336426,-0.0307617,0
63060,0.92334,-0.356445,0.00146484,0
63080,0.92627,-0.361816,-0.00537109,0
63100,0.917969,-0.342773,0.0161133,0
63120,0.904785,-0.323242,0.0195312,0
63140,0.904297,-0.325195,0.0141602,0
63160,0.921387,-0.320801,0.0249023,0
63180,0.928223,-0.332031,0.0317383,0
63200,0.901855,-0.334961,0.0419922,0
63220,0.907715,-0.325195,0.0517578,0
63240,0.922852,-0.325195,0.0483398,0
63260,0.919434,-0.321289,0.0712891,0
63280,0.918457,-0.324219,0.0664062,0
63300,0.920898,-0.332031,0.0839844,0
63320,0.927734,-0.343262,0.078125,0
63340,0.923828,-0.33252,0.0927734,0
63360,0.919434,-0.320312,0.0961914,0
63380,0.927734,-0.331543,0.0922852,0
63400,0.915527,-0.364746,0.097168,0
63420,0.919434,-0.353516,0.121582,0
63440,0.920898,-0.350586,0.144043,0
63460,0.907227,-0.348633,0.146484,0
63480,0.901367,-0.357422,0.142578,0
63500,0.897949,-0.35791,0.141602,0
63520,0.894043,-0.369141,0.17041,0
63540,0.887207,-0.379883,0.193848,0
63560,0.864746,-0.380371,0.196289,0
63580,0.848633,-0.376465,0.199219,0
63600,0.853027,-0.381836,0.215332,0
63620,0.834961,-0.39502,0.221191,0
63640,0.79248,-0.384277,0.234863,0
63660,0.794922,-0.387695,0.248047,0
63680,0.816895,-0.388184,0.250977,0
63700,0.827148,-0.410645,0.268555,0
63720,0.824219,-0.429199,0.270508,0
63740,0.799316,-0.432129,0.277832,0
63760,0.787598,-0.429199,0.28125,0
63780,0.800293,-0.420898,0.287109,0
63800,0.808105,-0.44043,0.293945,0
63820,0.79541,-0.447266,0.301758,0
63840,0.755371,-0.446289,0.308105,0
63860,0.746094,-0.445312,0.302246,0
63880,0.780273,-0.45459,0.318848,0
63900,0.782715,-0.451172,0.328125,0
63920,0.731934,-0.442871,0.320312,0
63940,0.712891,-0.445801,0.311523,0
63960,0.751953,-0.458496,0.321289,0
63980,0.755859,-0.452637,0.317383,0
64000,0.733398,-0.466797,0.299316,0
64020,0.748535,-0.478027,0.303711,0
64040,0.768555,-0.473145,0.307129,0
64060,0.76416,-0.470703,0.296875,0
64080,0.757324,-0.485352,0.293457,0
64100,0.763184,-0.486328,0.306152,0
64120,0.758301,-0.496094,0.289062,0
64140,0.756348,-0.50293,0.289551,0
64160,0.724609,-0.503418,0.28125,0
64180,0.722168,-0.509766,0.267578,0
64200,0.753418,-0.523926,0.278809,0
64220,0.726074,-0.52832,0.286621,0
64240,0.706055,-0.526367,0.273926,0
64260,0.727539,-0.535645,0.286133,0
64280,0.723145,-0.543457,0.274902,0
64300,0.713867,-0.552734,0.266602,0
64320,0.711426,-0.550293,0.282715,0
64340,0.704102,-0.553223,0.280762,0
64360,0.675293,-0.5625,0.284668,0
64380,0.679199,-0.57373,0.277344,0
64400,0.685059,-0.579102,0.272461,0
64420,0.688965,-0.578125,0.283691,0
64440,0.657715,-0.589355,0.27832,0
64460,0.663086,-0.612793,0.266602,0
64480,0.679688,-0.613281,0.280273,0
64500,0.668945,-0.608887,0.274902,0
64520,0.649414,-0.627441,0.257812,0
64540,0.665039,-0.637207,0.241699,0
64560,0.697754,-0.648438,0.259277,0
64580,0.690918,-0.646484,0.250977,0
64600,0.666016,-0.640625,0.257324,0
64620,0.651855,-0.64209,0.234375,0
64640,0.671875,-0.658691,0.217285,0
64660,0.665527,-0.651367,0.226074,0
64680,0.647461,-0.659668,0.223633,0
64700,0.659668,-0.673828,0.218262,0
64720,0.663086,-0.671387,0.218262,0
64740,0.647949,-0.681152,0.197754,0
64760,0.644531,-0.685547,0.182129,0
64780,0.668945,-0.687988,0.187988,0
64800,0.660645,-0.691895,0.184082,0
64820,0.62793,-0.713379,0.172852,0
64840,0.619141,-0.710938,0.145508,0
64860,0.640625,-0.715332,0.13916,0
64880,0.652832,-0.703125,0.13916,0
64900,0.648926,-0.716797,0.123047,0
64920,0.639648,-0.726562,0.118164,0
64940,0.655762,-0.709961,0.108887,0
64960,0.668945,-0.722168,0.0942383,0
64980,0.666992,-0.706055,0.0839844,0
65000,0.671387,-0.713867,0.0751953,0
65010,0.687012,-0.692871,0.0664062,0
65030,0.673828,-0.69873,0.0454102,0
65050,0.688477,-0.696777,0.0288086,0
65070,0.706543,-0.685059,0.0297852,0
65090,0.697266,-0.680176,0.0141602,0
65110,0.693359,-0.685547,-0.00830078,0
65130,0.695801,-0.668457,-0.0146484,0
65150,0.689453,-0.674805,-0.034668,0
65170,0.706543,-0.682617,-0.050293,0
65190,0.718262,-0.687988,-0.0522461,0
65210,0.708984,-0.679199,-0.0688477,0
65230,0.704102,-0.673828,-0.0844727,0
65250,0.715332,-0.666016,-0.090332,0
65270,0.71582,-0.66748,-0.0981445,0
65290,0.720703,-0.666504,-0.114746,0
65310,0.729492,-0.655273,-0.127441,0
65330,0.734375,-0.657715,-0.130859,0
65350,0.738281,-0.649902,-0.134766,0
65370,0.728516,-0.643555,-0.146484,0
65390,0.728027,-0.632324,-0.157227,0
65410,0.730469,-0.642578,-0.163086,0
65430,0.738281,-0.635742,-0.155762,0
65450,0.733887,-0.605957,-0.151855,0
65470,0.727539,-0.604492,-0.182129,0
65490,0.743652,-0.611816,-0.197754,0
65510,0.751953,-0.619141,-0.186523,0
65530,0.744141,-0.59375,-0.191406,0
65550,0.751465,-0.594238,-0.206055,0
65570,0.76416,-0.598145,-0.21582,0
65590,0.76123,-0.587402,-0.208008,0
65610,0.772949,-0.569336,-0.202637,0
65630,0.769043,-0.562012,-0.199707,2001
65650,0.77832,-0.550781,-0.20459,0
65670,0.782715,-0.550293,-0.196289,0
65690,0.791016,-0.54248,-0.203125,0
65710,0.793457,-0.557129,-0.196289,0
65730,0.794922,-0.54541,-0.186035,0
65750,0.796875,-0.530762,-0.188477,0
65770,0.802734,-0.52832,-0.186035,0
65790,0.789551,-0.509766,-0.186523,0
65810,0.777832,-0.520996,-0.186523,0
65830,0.790039,-0.534668,-0.191406,0
65850,0.796875,-0.538086,-0.180664,0
65870,0.791016,-0.534668,-0.179688,0
65890,0.77002,-0.552246,-0.183105,0
65910,0.75293,-0.547363,-0.166504,0
65930,0.744141,-0.549316,-0.159668,0
65950,0.731934,-0.543945,-0.164551,0
65970,0.693359,-0.549316,-0.147949,0
65990,0.656738,-0.544922,-0.10498,0
66010,0.621094,-0.527344,-0.0800781,0
66030,0.619629,-0.529297,-0.0708008,0
66050,0.618164,-0.524414,-0.0673828,0
66070,0.598633,-0.505859,-0.0371094,0
66090,0.612793,-0.475098,-0.0351562,0
66110,0.656738,-0.489746,-0.0498047,0
66130,0.693359,-0.490234,-0.0253906,0
66150,0.69043,-0.522461,-0.0112305,0
66170,0.691406,-0.564453,-0.0454102,0
66190,0.720215,-0.588867,-0.0209961,0
66210,0.731934,-0.572266,0.0541992,0
66230,0.710938,-0.617188,0.0332031,0
66250,0.749512,-0.686035,-0.00634766,0
66270,0.79834,-0.684082,0.0595703,0
66290,0.73291,-0.610352,0.160645,0
