Timestamp, Acceleration x, Acceleration y, Acceleration z, Marker
40,-0.838379,-1.04297,0.107422,0
60,-0.762695,-1.3877,-0.0283203,0
80,-0.594727,-1.42188,-0.0253906,0
100,-0.634766,-1.1499,-0.100098,0
120,-0.845215,-0.742188,0.123047,0
140,-0.850098,-0.459961,0.187012,0
150,-0.790039,-0.31543,0.211914,0
150,-0.705078,-0.321777,0.216309,0
190,-0.726562,-0.402832,0.216309,0
210,-0.766602,-0.574707,0.21875,0
230,-0.748047,-0.695312,0.203613,0
250,-0.741699,-0.764648,0.188477,0
270,-0.758789,-0.787598,0.176758,0
290,-0.785645,-0.772949,0.158203,0
310,-0.801758,-0.70166,0.136719,0
330,-0.819824,-0.61084,0.134277,0
350,-0.807129,-0.554199,0.139648,0
370,-0.789062,-0.525391,0.166504,0
390,-0.771973,-0.551758,0.179199,0
410,-0.764648,-0.59375,0.187988,0
430,-0.759766,-0.643066,0.191895,0
450,-0.754395,-0.665527,0.1875,0
470,-0.765137,-0.672363,0.192383,0
490,-0.770508,-0.658203,0.181152,0
510,-0.774902,-0.637695,0.181641,0
530,-0.779297,-0.626953,0.183105,0
550,-0.774414,-0.633789,0.206055,0
570,-0.775879,-0.621094,0.205566,0
590,-0.773926,-0.616211,0.189453,0
610,-0.771973,-0.615723,0.192383,0
630,-0.780762,-0.612793,0.195801,0
650,-0.796387,-0.611328,0.173828,0
670,-0.796875,-0.611816,0.177734,0
690,-0.794434,-0.618652,0.174805,0
710,-0.794922,-0.624512,0.17041,0
730,-0.793945,-0.618652,0.16748,0
750,-0.789062,-0.616211,0.169922,0
770,-0.780762,-0.606934,0.16748,0
790,-0.781738,-0.616699,0.172852,0
810,-0.780762,-0.624512,0.177734,0
830,-0.780762,-0.63623,0.179688,0
850,-0.783203,-0.628418,0.183594,0
870,-0.782715,-0.623047,0.172852,0
890,-0.776855,-0.617188,0.181152,0
910,-0.772949,-0.61084,0.1875,0
930,-0.777832,-0.61377,0.187012,0
950,-0.784668,-0.612305,0.179199,0
970,-0.790039,-0.621094,0.172363,0
990,-0.789551,-0.620117,0.16748,0
1010,-0.786621,-0.615723,0.161621,0
1030,-0.782227,-0.605469,0.158691,0
1050,-0.780762,-0.61084,0.161621,0
1070,-0.777344,-0.61377,0.166992,0
1090,-0.786133,-0.620605,0.164551,0
1110,-0.791016,-0.615723,0.160645,0
1130,-0.794434,-0.620117,0.168457,0
1150,-0.794922,-0.621582,0.166016,0
1170,-0.784668,-0.622559,0.164062,0
1190,-0.781738,-0.629395,0.165039,0
1210,-0.77832,-0.616699,0.166504,0
1230,-0.783203,-0.621582,0.166504,0
1250,-0.785156,-0.612793,0.163086,0
1270,-0.793457,-0.619141,0.16748,0
1290,-0.791016,-0.616211,0.165039,0
1310,-0.789062,-0.609375,0.154297,0
1330,-0.780762,-0.606934,0.153809,0
1350,-0.783691,-0.617676,0.156738,0
1370,-0.782227,-0.61377,0.148926,0
1390,-0.787598,-0.624023,0.161621,0
1410,-0.799316,-0.625977,0.175781,0
1430,-0.79834,-0.62207,0.180176,0
1450,-0.782715,-0.622559,0.184082,0
1470,-0.776855,-0.623047,0.182617,0
1490,-0.777344,-0.615723,0.171387,0
1510,-0.783203,-0.603027,0.164551,0
1530,-0.793945,-0.599121,0.143066,0
1550,-0.802734,-0.60498,0.140137,0
1570,-0.812012,-0.610352,0.133789,0
1590,-0.811035,-0.613281,0.124023,0
1610,-0.80127,-0.625977,0.125977,0
1630,-0.786621,-0.620117,0.128418,0
1650,-0.776855,-0.620117,0.134277,0
1670,-0.776855,-0.615234,0.143555,0
1690,-0.790527,-0.616699,0.164062,0
1710,-0.789551,-0.618652,0.162109,0
1730,-0.791016,-0.623535,0.169922,0
1750,-0.788086,-0.625488,0.169922,0
1770,-0.778809,-0.620117,0.163086,0
1790,-0.770996,-0.612793,0.158203,0
1810,-0.780273,-0.605469,0.163574,0
1830,-0.777832,-0.610352,0.164551,0
1850,-0.776367,-0.61377,0.165039,0
1870,-0.782715,-0.612305,0.161621,0
1890,-0.791016,-0.600098,0.153809,0
1910,-0.794922,-0.588379,0.146973,0
1930,-0.806641,-0.585449,0.137207,0
1950,-0.816406,-0.597656,0.135254,0
1970,-0.826172,-0.609375,0.135742,0
1990,-0.816895,-0.613281,0.13916,0
2010,-0.802246,-0.623535,0.154297,0
2030,-0.785645,-0.633789,0.170898,0
2050,-0.771484,-0.634277,0.175781,0
2070,-0.76416,-0.637207,0.187012,0
2090,-0.762695,-0.634766,0.205566,0
2110,-0.765625,-0.623047,0.20752,0
2120,-0.76416,-0.610352,0.199219,0
2140,-0.770996,-0.598633,0.189941,0
2160,-0.786621,-0.593262,0.191406,0
2180,-0.808594,-0.594238,0.180664,0
2200,-0.806641,-0.602051,0.170898,0
2220,-0.796387,-0.606445,0.168457,0
2240,-0.79248,-0.612793,0.16748,0
2260,-0.784668,-0.601074,0.177734,0
2280,-0.782227,-0.605957,0.187012,0
2300,-0.774414,-0.609863,0.185059,0
2320,-0.777344,-0.619629,0.1875,0
2340,-0.788574,-0.626465,0.187012,0
2360,-0.799316,-0.61377,0.180664,0
2380,-0.791504,-0.594238,0.197266,0
2400,-0.772949,-0.623047,0.19873,0
2420,-0.76416,-0.634277,0.197754,0
2440,-0.775391,-0.631348,0.203613,0
2460,-0.777344,-0.618164,0.20752,0
2480,-0.774902,-0.612305,0.203613,0
2500,-0.768066,-0.613281,0.205078,0
2520,-0.765137,-0.62793,0.202148,0
2540,-0.768066,-0.637207,0.192383,0
2560,-0.782227,-0.632324,0.186523,0
2580,-0.788086,-0.611816,0.176758,0
2600,-0.787109,-0.60498,0.168457,0
2620,-0.783691,-0.616211,0.167969,0
2640,-0.786133,-0.626953,0.164062,0
2660,-0.785645,-0.630859,0.165039,0
2680,-0.78418,-0.628418,0.161133,0
2700,-0.787109,-0.632324,0.158203,0
2720,-0.787109,-0.633789,0.161621,0
2740,-0.785645,-0.634766,0.155762,0
2760,-0.780762,-0.628418,0.161133,0
2780,-0.782715,-0.623535,0.154297,0
2800,-0.783691,-0.619141,0.155762,0
2820,-0.784668,-0.620117,0.156738,0
2840,-0.780762,-0.616211,0.156738,0
2860,-0.77832,-0.621094,0.143066,0
2880,-0.777832,-0.620605,0.14209,0
2900,-0.784668,-0.622559,0.140137,0
2920,-0.796387,-0.621582,0.139648,0
2940,-0.806152,-0.623535,0.129883,0
2960,-0.806641,-0.621094,0.127441,0
2980,-0.795898,-0.620605,0.119629,0
3000,-0.787109,-0.615723,0.116211,0
3020,-0.796387,-0.60498,0.120117,0
3040,-0.797363,-0.612793,0.124512,0
3060,-0.791504,-0.623047,0.125,0
3080,-0.785156,-0.63623,0.129883,0
3100,-0.791016,-0.644043,0.145996,0
3120,-0.785156,-0.647461,0.140625,0
3140,-0.789551,-0.647461,0.140137,0
3160,-0.798828,-0.642578,0.125977,0
3180,-0.797852,-0.629395,0.128906,0
3200,-0.796387,-0.617188,0.132812,0
3220,-0.787598,-0.61084,0.123047,0
3240,-0.791504,-0.618652,0.117188,0
3260,-0.812012,-0.635742,0.133789,0
3280,-0.821289,-0.63623,0.133301,0
3300,-0.800781,-0.623535,0.125,0
3320,-0.787109,-0.606445,0.119629,0
3340,-0.793457,-0.60498,0.123535,0
3350,-0.804199,-0.609375,0.109863,0
3370,-0.803711,-0.60498,0.106445,0
3390,-0.815918,-0.604492,0.105469,0
3410,-0.828613,-0.60498,0.108398,0
3430,-0.828613,-0.606934,0.116699,0
3450,-0.819336,-0.620605,0.117676,0
3470,-0.805664,-0.622559,0.12207,0
3490,-0.79541,-0.623047,0.107422,0
3510,-0.784668,-0.604004,0.0981445,0
3530,-0.788086,-0.592285,0.0898438,0
3550,-0.803223,-0.596191,0.0732422,0
3570,-0.813477,-0.603027,0.0639648,0
3590,-0.828613,-0.605957,0.0551758,0
3610,-0.849121,-0.608887,0.0488281,0
3630,-0.851074,-0.589355,0.0507812,0
3650,-0.843262,-0.583008,0.0537109,0
3670,-0.84375,-0.582031,0.0698242,0
3690,-0.840332,-0.579102,0.0795898,0
3710,-0.820312,-0.581543,0.0825195,0
3730,-0.810059,-0.583496,0.0776367,0
3750,-0.81543,-0.584961,0.0800781,0
3770,-0.821289,-0.578613,0.0874023,0
3790,-0.825684,-0.568359,0.0883789,0
3810,-0.82959,-0.558594,0.0585938,0
3830,-0.837891,-0.574219,0.0600586,0
3850,-0.844238,-0.571777,0.059082,0
3870,-0.822266,-0.591797,0.0517578,0
3890,-0.8125,-0.614746,0.0668945,0
3910,-0.838379,-0.633301,0.103027,0
3930,-0.82373,-0.623047,0.0952148,0
3950,-0.786621,-0.605469,0.090332,0
3970,-0.791992,-0.594238,0.0917969,0
3990,-0.830566,-0.59668,0.11377,0
4010,-0.837891,-0.583496,0.111816,0
4030,-0.806641,-0.584961,0.0922852,0
4050,-0.803223,-0.598145,0.0996094,0
4070,-0.824707,-0.614258,0.108398,0
4090,-0.825195,-0.605469,0.105957,0
4110,-0.805664,-0.595215,0.104004,0
4130,-0.793457,-0.609863,0.111328,0
4150,-0.801758,-0.622559,0.11377,0
4170,-0.812012,-0.625,0.120117,0
4190,-0.808105,-0.609863,0.117676,0
4210,-0.79834,-0.608398,0.112793,0
4230,-0.791504,-0.606934,0.131348,0
4250,-0.804688,-0.613281,0.131348,0
4270,-0.80957,-0.61084,0.139648,0
4290,-0.820312,-0.615723,0.145996,0
4310,-0.801758,-0.602539,0.151367,0
4330,-0.795898,-0.60791,0.156738,0
4350,-0.790527,-0.60498,0.151855,0
4370,-0.792969,-0.606445,0.158203,0
4390,-0.797363,-0.614746,0.15625,0
4410,-0.794434,-0.619141,0.148438,0
4430,-0.801758,-0.625488,0.148926,0
4450,-0.807129,-0.620605,0.157227,0
4470,-0.796387,-0.620605,0.152344,0
4490,-0.78418,-0.618164,0.156738,0
4510,-0.785156,-0.625488,0.161621,0
4530,-0.788574,-0.623535,0.165527,0
4550,-0.795898,-0.618164,0.15918,0
4570,-0.79541,-0.60791,0.161133,0
4590,-0.787109,-0.618164,0.153809,0
4610,-0.791504,-0.619141,0.149902,0
4630,-0.795898,-0.615723,0.151367,0
4650,-0.794434,-0.611328,0.15625,0
4670,-0.796875,-0.614258,0.161621,0
4690,-0.782715,-0.615234,0.158691,0
4700,-0.786133,-0.618164,0.159668,0
4720,-0.787598,-0.615723,0.165039,0
4740,-0.786133,-0.612793,0.163574,0
4760,-0.785645,-0.616699,0.164062,0
4780,-0.797852,-0.625977,0.16748,0
4800,-0.79541,-0.62793,0.164551,0
4820,-0.781738,-0.614258,0.164551,0
4840,-0.778809,-0.613281,0.166016,0
4860,-0.78418,-0.611328,0.174316,0
4880,-0.787598,-0.610352,0.164551,0
4900,-0.791016,-0.619141,0.165039,0
4920,-0.792969,-0.621582,0.162109,0
4940,-0.789551,-0.620117,0.163086,0
4960,-0.782715,-0.625488,0.157715,0
4980,-0.781738,-0.627441,0.160156,0
5000,-0.777832,-0.632812,0.156738,0
5020,-0.775391,-0.631836,0.15625,0
5040,-0.77832,-0.637207,0.155273,0
5060,-0.782227,-0.640625,0.162109,0
5080,-0.783691,-0.62793,0.162109,0
5100,-0.78418,-0.618652,0.158203,0
5120,-0.786621,-0.620117,0.166016,0
5140,-0.788574,-0.615234,0.164551,0
5160,-0.79248,-0.622559,0.17041,0
5180,-0.792969,-0.615234,0.165039,0
5200,-0.785645,-0.618164,0.160645,0
5220,-0.779785,-0.617188,0.155762,0
5240,-0.791504,-0.614258,0.162598,0
5260,-0.789551,-0.605957,0.165527,0
5280,-0.788574,-0.613281,0.157227,0
5300,-0.794922,-0.625488,0.152832,0
5320,-0.792969,-0.627441,0.15332,0
5340,-0.780273,-0.624512,0.149414,0
5360,-0.777344,-0.62207,0.152344,0
5380,-0.773438,-0.626953,0.140137,0
5400,-0.776367,-0.63916,0.145996,0
5420,-0.785645,-0.640625,0.147461,0
5440,-0.786621,-0.625977,0.142578,0
5460,-0.791504,-0.615723,0.149902,0
5480,-0.799805,-0.613281,0.157715,0
5500,-0.79541,-0.604492,0.152344,0
5520,-0.788086,-0.60791,0.143066,0
5540,-0.793945,-0.613281,0.140625,0
5560,-0.787109,-0.61377,0.129883,0
5580,-0.779297,-0.612793,0.124023,0
5600,-0.77832,-0.623047,0.133301,0
5620,-0.787109,-0.629395,0.143066,0
5640,-0.796387,-0.633301,0.149902,0
5660,-0.789551,-0.634277,0.145508,0
5680,-0.779785,-0.637207,0.141113,0
5700,-0.769043,-0.619629,0.149902,0
5720,-0.772949,-0.612305,0.163574,0
5740,-0.777832,-0.61377,0.163574,0
5760,-0.779297,-0.633301,0.176758,0
5780,-0.788574,-0.643066,0.17627,0
5800,-0.791504,-0.644531,0.169434,0
5820,-0.796875,-0.632812,0.16748,0
5840,-0.790527,-0.618164,0.169434,0
5860,-0.79541,-0.616211,0.17041,0
5880,-0.789551,-0.61084,0.166016,0
5900,-0.77832,-0.621582,0.16748,0
5920,-0.774414,-0.627441,0.178711,0
5940,-0.773926,-0.636719,0.171387,0
5960,-0.763672,-0.64502,0.175293,0
5980,-0.750488,-0.63916,0.169922,0
6000,-0.736328,-0.629883,0.172363,0
6020,-0.758301,-0.623535,0.189453,0
6040,-0.792969,-0.62207,0.196289,0
6060,-0.804688,-0.635742,0.19043,0
6080,-0.782715,-0.632324,0.187988,0
6100,-0.776855,-0.629395,0.179688,0
6120,-0.789062,-0.617676,0.172852,0
6140,-0.795898,-0.611816,0.165527,0
6160,-0.786133,-0.599121,0.157227,0
6180,-0.784668,-0.616699,0.149414,0
6200,-0.792969,-0.626465,0.150391,0
6220,-0.786621,-0.632812,0.143066,0
6240,-0.776367,-0.632324,0.145996,0
6260,-0.78125,-0.635254,0.143555,0
6280,-0.779297,-0.635742,0.143066,0
6300,-0.769043,-0.631348,0.14209,0
6320,-0.770508,-0.636719,0.14502,0
6340,-0.779785,-0.636719,0.151855,0
6360,-0.785645,-0.631836,0.144531,0
6380,-0.782715,-0.620117,0.137207,0
6400,-0.770996,-0.626465,0.141113,0
6420,-0.772949,-0.626465,0.142578,0
6440,-0.777344,-0.625488,0.144043,0
6460,-0.781738,-0.624512,0.145996,0
6480,-0.783203,-0.625488,0.145996,0
6500,-0.775391,-0.622559,0.14209,0
6520,-0.776367,-0.621582,0.155273,0
6540,-0.793457,-0.621094,0.160156,0
6560,-0.79248,-0.618164,0.161133,0
6580,-0.772949,-0.61084,0.160156,0
6600,-0.775391,-0.616699,0.160156,0
6620,-0.78125,-0.62207,0.149414,0
6640,-0.786621,-0.62207,0.147461,0
6660,-0.791504,-0.625,0.149902,0
6680,-0.797363,-0.62793,0.155273,0
6700,-0.786621,-0.638672,0.153809,0
6720,-0.774902,-0.631348,0.15625,0
6740,-0.772949,-0.633789,0.157715,0
6760,-0.771484,-0.631348,0.162109,0
6780,-0.779785,-0.625488,0.165527,0
6800,-0.770508,-0.621094,0.165527,0
6820,-0.768555,-0.632324,0.166016,0
6840,-0.781738,-0.631348,0.173828,0
6860,-0.791504,-0.628418,0.175293,0
6880,-0.786621,-0.625,0.185547,0
6900,-0.77832,-0.626953,0.176758,0
6920,-0.768555,-0.619141,0.17041,0
6940,-0.779785,-0.624512,0.17627,0
6960,-0.788574,-0.616211,0.170898,0
6980,-0.793945,-0.615234,0.168457,0
7000,-0.787109,-0.615723,0.163086,0
7020,-0.770996,-0.62207,0.157715,0
7040,-0.77002,-0.623047,0.166016,0
7060,-0.775391,-0.616699,0.171875,0
7080,-0.769531,-0.624023,0.173828,0
7100,-0.766113,-0.63916,0.171875,0
7120,-0.776367,-0.651855,0.172852,0
7140,-0.782227,-0.64502,0.176758,0
7160,-0.770508,-0.637207,0.175781,0
7180,-0.77002,-0.619141,0.175293,0
7200,-0.782227,-0.616699,0.178223,0
7220,-0.789062,-0.611328,0.174316,0
7240,-0.777344,-0.61084,0.165039,0
7260,-0.779297,-0.617188,0.161621,0
7280,-0.794434,-0.630371,0.172363,0
7290,-0.785156,-0.617676,0.168945,0
7310,-0.772461,-0.624512,0.162598,0
7330,-0.772949,-0.625977,0.169434,0
7350,-0.781738,-0.620605,0.179199,0
7370,-0.790527,-0.618652,0.17627,0
7390,-0.789551,-0.621582,0.167969,0
7410,-0.786621,-0.633789,0.166504,0
7430,-0.802734,-0.63623,0.164062,0
7450,-0.798828,-0.631348,0.155273,0
7470,-0.78418,-0.624023,0.150391,0
7490,-0.779785,-0.626465,0.148438,0
7510,-0.780762,-0.620605,0.143555,0
7530,-0.783691,-0.61084,0.141602,0
7550,-0.78125,-0.603027,0.128906,0
7570,-0.78418,-0.615234,0.133301,0
7590,-0.779297,-0.618652,0.126465,0
7610,-0.78418,-0.618164,0.13916,0
7630,-0.803223,-0.62207,0.143066,0
7650,-0.803711,-0.619141,0.14502,0
7670,-0.791016,-0.619629,0.137207,0
7690,-0.779785,-0.616211,0.13916,0
7710,-0.782715,-0.617676,0.146973,0
7730,-0.788574,-0.621582,0.13916,0
7750,-0.787598,-0.624023,0.140625,0
7770,-0.788086,-0.625977,0.133301,0
7790,-0.790527,-0.626465,0.141113,0
7810,-0.796387,-0.630859,0.154297,0
7830,-0.787109,-0.635254,0.163086,0
7850,-0.78125,-0.630859,0.163086,0
7870,-0.789062,-0.633301,0.164062,0
7890,-0.798828,-0.624023,0.165527,0
7910,-0.802246,-0.607422,0.171875,0
7930,-0.797852,-0.600586,0.169434,0
7950,-0.791016,-0.604492,0.162109,0
7970,-0.780762,-0.606934,0.160156,0
7990,-0.780273,-0.602051,0.148438,0
8010,-0.780273,-0.600098,0.14502,0
8030,-0.787598,-0.612305,0.138672,0
8050,-0.789062,-0.626953,0.13916,0
8070,-0.786621,-0.641602,0.149414,0
8090,-0.77832,-0.648926,0.158691,0
8110,-0.775391,-0.644043,0.149414,0
8130,-0.776367,-0.63623,0.152344,0
8150,-0.782715,-0.62793,0.160645,0
8170,-0.780273,-0.625977,0.169434,0
8190,-0.786621,-0.630859,0.168457,0
8210,-0.774902,-0.628418,0.159668,0
8230,-0.777344,-0.625,0.155273,0
8250,-0.78418,-0.620605,0.160156,0
8270,-0.785645,-0.613281,0.155273,0
8290,-0.784668,-0.618164,0.154297,0
8310,-0.783691,-0.623535,0.161621,0
8330,-0.780273,-0.631348,0.165527,0
8350,-0.780762,-0.626953,0.153809,0
8370,-0.769043,-0.624023,0.151855,0
8390,-0.775391,-0.616211,0.160156,0
8410,-0.791016,-0.621582,0.171875,0
8430,-0.786621,-0.624023,0.17041,0
8450,-0.774902,-0.637695,0.166016,0
8470,-0.76416,-0.635742,0.167969,0
8490,-0.772949,-0.633789,0.176758,0
8510,-0.779785,-0.630859,0.169922,0
8530,-0.779785,-0.632812,0.161621,0
8550,-0.780273,-0.637207,0.161621,0
8570,-0.78418,-0.636719,0.161621,0
8590,-0.782715,-0.630859,0.160156,0
8610,-0.773926,-0.619141,0.162109,0
8630,-0.772461,-0.619629,0.154297,0
8650,-0.769043,-0.616699,0.150879,0
8670,-0.775879,-0.623047,0.146484,0
8690,-0.794434,-0.631348,0.15918,0
8710,-0.791016,-0.63623,0.167969,0
8730,-0.776855,-0.63623,0.164062,0
8750,-0.773438,-0.644043,0.165039,0
8770,-0.769531,-0.630371,0.172363,0
8790,-0.776855,-0.625,0.174316,0
8810,-0.783203,-0.625,0.162109,0
8830,-0.781738,-0.626465,0.157227,0
8850,-0.781738,-0.622559,0.143555,0
8870,-0.78418,-0.621582,0.139648,0
8890,-0.778809,-0.620605,0.13916,0
8910,-0.768066,-0.625488,0.134766,0
8930,-0.774414,-0.630859,0.147461,0
8950,-0.791504,-0.640137,0.160156,0
8970,-0.775879,-0.635254,0.14502,0
8990,-0.749512,-0.634766,0.152344,0
9010,-0.758789,-0.629395,0.170898,0
9030,-0.793457,-0.635254,0.194336,0
9050,-0.805664,-0.652344,0.175781,0
9070,-0.760742,-0.654297,0.150391,0
9090,-0.756348,-0.648926,0.155273,0
9110,-0.788086,-0.621582,0.156738,0
9130,-0.80127,-0.612793,0.146973,0
9150,-0.780762,-0.611816,0.126465,0
9170,-0.767578,-0.630859,0.138184,0
9190,-0.786621,-0.63623,0.167969,0
9210,-0.788086,-0.64502,0.172852,0
9230,-0.773926,-0.652344,0.155762,0
9250,-0.756348,-0.655273,0.150879,0
9270,-0.751953,-0.630371,0.161621,0
9290,-0.782227,-0.610352,0.156738,0
9310,-0.798828,-0.623535,0.154297,0
9330,-0.784668,-0.649414,0.135742,0
9350,-0.771973,-0.650391,0.138672,0
9370,-0.78418,-0.634277,0.15918,0
9390,-0.791992,-0.623047,0.158691,0
9410,-0.791016,-0.631836,0.147461,0
9430,-0.777832,-0.63623,0.135742,0
9450,-0.772461,-0.615723,0.134766,0
9470,-0.782227,-0.604492,0.133789,0
9490,-0.788574,-0.608887,0.142578,0
9510,-0.777344,-0.637695,0.147461,0
9530,-0.776855,-0.65332,0.151367,0
9550,-0.774902,-0.647949,0.152344,0
9570,-0.772461,-0.631836,0.155762,0
9590,-0.788086,-0.628906,0.152832,0
9610,-0.79248,-0.626465,0.147461,0
9630,-0.794922,-0.634277,0.13916,0
9650,-0.791992,-0.628906,0.14209,0
9670,-0.793945,-0.62207,0.134766,0
9690,-0.789551,-0.616699,0.130371,0
9710,-0.78418,-0.619141,0.13623,0
9730,-0.780762,-0.618164,0.140625,0
9750,-0.782715,-0.625,0.14209,0
9770,-0.783203,-0.625977,0.144043,0
9790,-0.777832,-0.631348,0.141113,0
9810,-0.783203,-0.636719,0.140137,0
9830,-0.789551,-0.637207,0.141602,0
9850,-0.783691,-0.632812,0.136719,0
9860,-0.785156,-0.626953,0.134277,0
9880,-0.784668,-0.618164,0.125977,0
9900,-0.783203,-0.604492,0.120605,0
9920,-0.79541,-0.603027,0.12793,0
9940,-0.813965,-0.614258,0.12793,0
9960,-0.813965,-0.621094,0.125,0
9980,-0.791992,-0.627441,0.117188,0
10000,-0.781738,-0.649902,0.114746,0
10020,-0.788086,-0.639648,0.128418,0
10040,-0.793945,-0.632324,0.144043,0
10060,-0.797363,-0.625488,0.140137,0
10080,-0.80127,-0.621582,0.13916,0
10100,-0.797852,-0.623047,0.151855,0
10120,-0.794434,-0.621582,0.151367,0
10140,-0.796387,-0.612793,0.149902,0
10160,-0.800781,-0.611816,0.138184,0
10180,-0.79248,-0.604492,0.133301,0
10200,-0.787598,-0.606934,0.115234,0
10220,-0.800781,-0.618652,0.125,0
10240,-0.796875,-0.620117,0.114746,0
10260,-0.794922,-0.627441,0.123047,0
10280,-0.788574,-0.628906,0.120605,0
10300,-0.786621,-0.632324,0.124512,0
10320,-0.784668,-0.631348,0.12793,0
10340,-0.787109,-0.625977,0.134277,0
10360,-0.782227,-0.620605,0.129883,0
10380,-0.787109,-0.628418,0.131836,0
10400,-0.789062,-0.625488,0.130859,0
10420,-0.792969,-0.625,0.127441,0
10440,-0.793945,-0.625488,0.12793,0
10460,-0.796875,-0.629395,0.12793,0
10480,-0.79541,-0.630371,0.124512,0
10500,-0.792969,-0.631348,0.129883,0
10520,-0.792969,-0.627441,0.127441,0
10540,-0.793457,-0.625488,0.136719,0
10560,-0.800781,-0.626465,0.134766,0
10580,-0.792969,-0.628418,0.12793,0
10600,-0.788086,-0.631348,0.131836,0
10620,-0.783203,-0.620605,0.128418,0
10640,-0.775391,-0.617676,0.123047,0
10660,-0.788574,-0.614746,0.120605,0
10680,-0.795898,-0.610352,0.140137,0
10700,-0.798828,-0.614258,0.123047,0
10720,-0.789551,-0.628906,0.126953,0
10740,-0.781738,-0.637207,0.133301,0
10760,-0.794922,-0.63916,0.136719,0
10780,-0.785156,-0.643066,0.133301,0
10800,-0.766113,-0.661621,0.146484,0
10820,-0.765137,-0.637695,0.14502,0
10840,-0.769043,-0.612793,0.135742,0
10860,-0.779785,-0.595703,0.140625,0
10880,-0.789551,-0.604492,0.140137,0
10900,-0.793945,-0.617676,0.139648,0
10920,-0.802246,-0.633789,0.133301,0
10940,-0.796875,-0.639648,0.141602,0
10960,-0.79541,-0.638184,0.145508,0
10980,-0.788086,-0.63916,0.151855,0
11000,-0.780273,-0.64209,0.14502,0
11020,-0.773926,-0.632812,0.147949,0
11040,-0.774902,-0.617676,0.154297,0
11060,-0.778809,-0.614746,0.155762,0
11080,-0.789551,-0.605469,0.148926,0
11100,-0.797852,-0.615234,0.154785,0
11120,-0.80127,-0.62207,0.147949,0
11140,-0.796875,-0.63623,0.142578,0
11160,-0.788574,-0.638672,0.145508,0
11180,-0.78418,-0.642578,0.149414,0
11200,-0.777344,-0.635254,0.147949,0
11220,-0.771973,-0.634766,0.14502,0
11240,-0.774902,-0.631836,0.151367,0
11260,-0.777832,-0.632324,0.147949,0
11280,-0.778809,-0.629395,0.155273,0
11300,-0.780273,-0.640625,0.151855,0
11320,-0.777832,-0.643555,0.150391,0
11340,-0.777344,-0.644531,0.141113,0
11360,-0.772949,-0.641602,0.141113,0
11380,-0.778809,-0.640625,0.135254,0
11400,-0.77832,-0.633301,0.135742,0
11420,-0.787598,-0.629395,0.142578,0
11440,-0.79541,-0.628906,0.151367,0
11460,-0.789062,-0.621094,0.155273,0
11480,-0.782715,-0.629883,0.144531,0
11500,-0.774902,-0.627441,0.147461,0
11520,-0.780762,-0.633789,0.149414,0
11540,-0.785645,-0.625977,0.14502,0
11560,-0.786621,-0.630371,0.137207,0
11580,-0.786133,-0.63623,0.132324,0
11600,-0.789062,-0.637207,0.125,0
11620,-0.780762,-0.625977,0.121582,0
11640,-0.773926,-0.630859,0.12207,0
11660,-0.786133,-0.635254,0.137695,0
11680,-0.783203,-0.641113,0.134277,0
11700,-0.769531,-0.631348,0.146973,0
11720,-0.778809,-0.624512,0.142578,0
11740,-0.775391,-0.615723,0.140137,0
11760,-0.782715,-0.625,0.134766,0
11780,-0.78125,-0.643555,0.145508,0
11800,-0.772949,-0.648438,0.136719,0
11820,-0.768066,-0.658203,0.137207,0
11840,-0.766113,-0.654297,0.122559,0
11860,-0.779785,-0.651855,0.128418,0
11880,-0.779297,-0.651367,0.116699,0
11900,-0.77002,-0.654785,0.113281,0
11920,-0.775879,-0.665527,0.109863,0
11940,-0.790527,-0.652344,0.128906,0
11960,-0.793457,-0.630371,0.132324,0
11980,-0.791504,-0.62207,0.136719,0
12000,-0.78125,-0.613281,0.142578,0
12020,-0.775391,-0.61084,0.148926,0
12040,-0.772949,-0.606934,0.154785,0
12060,-0.775391,-0.609375,0.151855,0
12080,-0.77832,-0.617188,0.148438,0
12100,-0.787109,-0.635254,0.147461,0
12120,-0.77832,-0.641602,0.138184,0
12140,-0.771484,-0.643066,0.114258,0
12160,-0.778809,-0.643555,0.108887,0
12180,-0.791016,-0.641602,0.106934,0
12200,-0.793945,-0.645996,0.113281,0
12220,-0.789062,-0.659668,0.105957,0
12240,-0.78418,-0.670898,0.118652,0
12260,-0.785156,-0.666992,0.126465,0
12280,-0.787598,-0.647949,0.126465,0
12300,-0.786621,-0.637695,0.129883,0
12320,-0.785645,-0.628418,0.125977,0
12340,-0.787598,-0.626465,0.139648,0
12360,-0.791016,-0.634766,0.135742,0
12380,-0.778809,-0.629883,0.123047,0
12400,-0.774902,-0.627441,0.105957,0
12420,-0.766602,-0.625977,0.10498,0
12440,-0.769531,-0.62793,0.102051,0
12450,-0.779297,-0.628906,0.111328,0
12470,-0.784668,-0.623535,0.109375,0
12490,-0.779785,-0.637207,0.110352,0
12510,-0.786133,-0.655762,0.109375,0
12530,-0.791992,-0.658203,0.10791,0
12550,-0.783203,-0.650879,0.107422,0
12570,-0.781738,-0.638672,0.107422,0
12590,-0.78418,-0.625488,0.102051,0
12610,-0.791016,-0.625,0.110352,0
12630,-0.791504,-0.639648,0.116211,0
12650,-0.784668,-0.644531,0.109375,0
12670,-0.78418,-0.640625,0.122559,0
12690,-0.776855,-0.636719,0.116699,0
12710,-0.779297,-0.628906,0.118652,0
12730,-0.777344,-0.631348,0.127441,0
12750,-0.78125,-0.628418,0.126465,0
12770,-0.782715,-0.638184,0.126465,0
12790,-0.777832,-0.631348,0.129395,0
12810,-0.785645,-0.629883,0.130859,0
12830,-0.783203,-0.632812,0.125977,0
12850,-0.78125,-0.638184,0.129395,0
12870,-0.774414,-0.64502,0.133301,0
12890,-0.782227,-0.647949,0.137695,0
12910,-0.789062,-0.643066,0.143066,0
12930,-0.791504,-0.638184,0.154785,0
12950,-0.780273,-0.635254,0.15332,0
12970,-0.776367,-0.63916,0.156738,0
12990,-0.775879,-0.641602,0.163086,0
13010,-0.777832,-0.638184,0.160156,0
13030,-0.779297,-0.640137,0.158691,0
13050,-0.776855,-0.633789,0.157227,0
13070,-0.779297,-0.635254,0.160645,0
13090,-0.780273,-0.636719,0.15918,0
13110,-0.779785,-0.639648,0.164551,0
13130,-0.776367,-0.629883,0.158203,0
13150,-0.774902,-0.635742,0.155762,0
13170,-0.776367,-0.628906,0.160156,0
13190,-0.780273,-0.634766,0.158691,0
13210,-0.776367,-0.628906,0.15625,0
13230,-0.771973,-0.635742,0.163574,0
13250,-0.772461,-0.641602,0.161621,0
13270,-0.769043,-0.641602,0.161133,0
13290,-0.76709,-0.634277,0.159668,0
13310,-0.770996,-0.62793,0.159668,0
13330,-0.776367,-0.630371,0.150879,0
13350,-0.771973,-0.636719,0.152832,0
13370,-0.773926,-0.642578,0.156738,0
13390,-0.775391,-0.642578,0.161133,0
13410,-0.779297,-0.63916,0.161133,0
13430,-0.777344,-0.637695,0.163086,0
13450,-0.771484,-0.635742,0.167969,0
13470,-0.774414,-0.634766,0.168457,0
13490,-0.779785,-0.629883,0.180176,0
13510,-0.780762,-0.628906,0.174805,0
13530,-0.777344,-0.635742,0.173828,0
13550,-0.777344,-0.632324,0.175293,0
13570,-0.766113,-0.630859,0.171875,0
13590,-0.765625,-0.633301,0.166504,0
13610,-0.775879,-0.635742,0.171387,0
13630,-0.783691,-0.632324,0.171875,0
13650,-0.77832,-0.633301,0.163574,0
13670,-0.76709,-0.63623,0.154297,0
13690,-0.770508,-0.645996,0.159668,0
13710,-0.772461,-0.636719,0.150391,0
13730,-0.773926,-0.633789,0.13623,0
13750,-0.773926,-0.631348,0.143555,0
13770,-0.77832,-0.63623,0.13916,0
13790,-0.777344,-0.63916,0.143555,0
13810,-0.774414,-0.640137,0.146973,0
13830,-0.774902,-0.637207,0.149414,0
13850,-0.771484,-0.637695,0.142578,0
13870,-0.773438,-0.635254,0.139648,0
13890,-0.775391,-0.638184,0.138672,0
13910,-0.776367,-0.632812,0.141602,0
13930,-0.777832,-0.636719,0.13623,0
13950,-0.780273,-0.64209,0.128906,0
13970,-0.774902,-0.648438,0.123535,0
13990,-0.765137,-0.657227,0.10498,0
14010,-0.777832,-0.657227,0.0991211,0
14030,-0.799805,-0.660645,0.110352,0
14050,-0.800781,-0.626953,0.119141,0
14070,-0.795898,-0.614746,0.131836,0
14090,-0.791992,-0.611816,0.140625,0
14110,-0.781738,-0.623047,0.137207,0
14130,-0.770996,-0.632812,0.135254,0
14150,-0.757812,-0.67627,0.128906,0
14170,-0.756348,-0.775879,0.0996094,0
14190,-0.813965,-0.849121,0.121582,0
14210,-0.827637,-0.847656,0.074707,0
14230,-0.735352,-0.81543,0.0336914,0
14250,-0.728027,-0.944336,0.108887,0
14270,-0.701172,-0.941406,0.208496,0
14290,-0.708008,-0.861816,0.342285,0
14310,-0.816406,-0.717285,0.272461,0
14330,-0.839355,-0.677246,0.206543,0
14350,-0.767578,-0.699707,0.238281,0
14370,-0.693848,-0.77832,0.26709,0
14390,-0.67627,-0.893555,0.316895,0
14410,-0.665039,-0.955566,0.356934,0
14430,-0.638184,-0.895508,0.351562,0
14450,-0.601562,-0.819824,0.356934,0
14470,-0.557617,-0.692871,0.380371,0
14490,-0.525879,-0.645996,0.367676,0
14510,-0.474121,-0.691895,0.378418,0
14530,-0.394043,-0.826172,0.364746,0
14550,-0.317871,-0.918457,0.338379,0
14570,-0.262207,-0.891602,0.347656,0
14590,-0.260742,-0.879395,0.355469,0
14610,-0.251953,-0.947266,0.29541,0
14630,-0.173828,-0.96582,0.301758,0
14650,-0.118164,-0.920898,0.326172,0
14670,-0.146973,-0.918457,0.287598,0
14690,-0.151855,-0.894531,0.19873,0
14710,-0.116211,-0.868652,0.181152,0
14730,-0.0751953,-0.883301,0.130859,0
14750,-0.0664062,-0.880859,0.144531,0
14770,-0.0795898,-0.902832,0.102539,0
14790,-0.0776367,-0.875488,0.0532227,0
14810,-0.0605469,-0.804688,0.050293,0
14830,-0.0751953,-0.796875,0.00488281,0
14850,-0.0898438,-0.823242,-0.0463867,0
14870,-0.0849609,-0.832031,-0.0703125,0
14890,-0.0639648,-0.814453,-0.0986328,0
14910,-0.0644531,-0.796875,-0.115234,0
14930,-0.0551758,-0.789551,-0.157227,0
14950,-0.0644531,-0.818848,-0.15332,0
14970,-0.101562,-0.869141,-0.199707,0
14990,-0.147461,-0.913574,-0.220215,0
15010,-0.159668,-0.897949,-0.206543,0
15030,-0.185059,-0.875,-0.223633,0
15040,-0.221191,-0.878906,-0.321289,0
15060,-0.283203,-0.88916,-0.313477,0
15080,-0.327637,-0.853027,-0.305176,0
15100,-0.402832,-0.822754,-0.366699,0
15120,-0.568359,-0.931152,-0.412109,0
15140,-0.484863,-1.02393,-0.296875,0
15160,-0.285156,-1.14453,-0.242676,0
15180,-0.233887,-1.1958,-0.246582,0
15200,-0.280273,-1.10693,-0.225586,0
15220,-0.282227,-1.00146,-0.262207,0
15220,-0.319824,-0.876465,-0.368652,0
15240,-0.245605,-0.816406,-0.337891,0
15260,-0.164551,-0.865723,-0.167969,0
15280,-0.119141,-0.786133,-0.144043,0
15320,-0.12793,-0.880859,-0.26416,0
15340,-0.208008,-0.866699,-0.11084,0
15360,-0.303223,-0.891602,-0.0449219,0
15380,-0.4375,-0.77832,-0.0722656,0
15400,-0.624023,-0.811035,-0.209473,0
15420,-0.762695,-1.18457,-0.343262,0
15440,-0.729004,-1.18066,-0.341797,0
15460,-0.567871,-1.23828,-0.304199,0
15470,-0.491699,-1.22314,-0.300293,0
15490,-0.42334,-1.10156,-0.283691,0
15510,-0.373535,-1.00488,-0.164551,0
15520,-0.362793,-0.925293,-0.118164,0
15540,-0.344727,-0.895508,-0.105469,0
15560,-0.38623,-0.891113,-0.109375,0
15580,-0.410645,-0.851074,-0.0976562,0
15600,-0.390137,-0.816895,-0.0761719,0
15620,-0.352539,-0.77002,-0.0332031,0
15640,-0.313965,-0.720215,-0.0214844,0
15660,-0.337891,-0.72998,-0.0107422,0
15680,-0.373535,-0.799805,-0.0424805,0
15700,-0.433594,-0.932617,-0.123047,0
15720,-0.518066,-1.09229,-0.236816,0
15740,-0.614746,-1.19189,-0.369141,0
15760,-0.683594,-1.19922,-0.405762,0
15780,-0.690918,-1.16113,-0.384277,0
15800,-0.66748,-1.03076,-0.345215,0
15820,-0.631348,-0.862305,-0.267578,0
15840,-0.580078,-0.765137,-0.178711,0
15860,-0.503418,-0.750488,-0.108887,0
15880,-0.443848,-0.75293,-0.0952148,0
15900,-0.442871,-0.796387,-0.0864258,0
15920,-0.489258,-0.842285,-0.107422,0
15940,-0.520508,-0.885742,-0.142578,0
15960,-0.534668,-0.914062,-0.155273,0
15980,-0.553223,-0.918457,-0.195312,0
16000,-0.581055,-0.891113,-0.228516,0
16020,-0.586914,-0.873535,-0.208984,0
16040,-0.566895,-0.865723,-0.183594,0
16060,-0.544922,-0.856934,-0.149902,0
16080,-0.524414,-0.857422,-0.134277,0
16100,-0.520996,-0.867188,-0.125977,0
16120,-0.51416,-0.891113,-0.11377,0
16140,-0.507324,-0.922852,-0.0888672,0
16160,-0.510742,-0.905762,-0.106445,0
16180,-0.51416,-0.904785,-0.133301,0
16200,-0.52002,-0.931641,-0.149902,0
16220,-0.589844,-0.980469,-0.144531,0
16240,-0.667969,-1.06787,-0.154785,0
16260,-0.703125,-1.09131,-0.255371,0
16280,-0.608398,-0.955566,-0.211914,0
16300,-0.551758,-0.935059,-0.00537109,0
16320,-0.481934,-0.836426,0.241699,0
16340,-0.411133,-0.654785,0.304199,0
16360,-0.333984,-0.669434,0.183594,0
16380,-0.289062,-0.690918,0.362793,0
16400,-0.213379,-0.792969,0.477051,0
16420,-0.114746,-0.921875,0.561523,0
16440,-0.00390625,-1.05225,0.515137,0
16460,0.0825195,-1.20557,0.446289,0
16480,0.199707,-1.07275,0.469727,0
16500,0.297852,-0.910156,0.390137,0
16520,0.253906,-0.836914,0.44873,0
16540,0.198242,-0.79248,0.510254,0
16560,0.22998,-0.811035,0.466797,0
16580,0.271973,-0.825195,0.385254,0
16600,0.179199,-0.827637,0.37207,0
16620,0.0668945,-0.796387,0.397949,0
16640,0.0488281,-0.760742,0.404785,0
16640,0.145508,-0.734863,0.30127,0
16680,0.157715,-0.740234,0.276367,0
16700,0.102051,-0.750488,0.321777,0
16720,0.0893555,-0.796875,0.342773,0
16740,0.0776367,-0.85498,0.348145,0
16760,0.0898438,-0.84375,0.344238,0
16780,0.121582,-0.849121,0.284668,0
16800,0.127441,-0.850586,0.263184,0
16820,0.0786133,-0.842773,0.345703,0
16840,0.104492,-0.845703,0.374512,0
16860,0.166016,-0.903809,0.336426,0
16880,0.196777,-0.939941,0.277832,0
16900,0.161133,-0.950195,0.268555,0
16920,0.125977,-0.882812,0.289062,0
16940,0.119629,-0.893555,0.296875,0
16940,0.154785,-0.891113,0.288574,0
16960,0.167969,-0.877441,0.313477,0
16960,0.121582,-0.874023,0.336426,0
16980,0.114746,-0.808594,0.318848,0
16980,0.19873,-0.783203,0.378418,0
17000,0.198242,-0.786133,0.394043,0
17040,0.166016,-0.822754,0.412598,0
17100,0.185547,-0.884277,0.402344,0
17120,0.213867,-0.895508,0.42041,0
17140,0.189941,-0.873047,0.432617,0
17160,0.194336,-0.853027,0.442383,0
17180,0.25293,-0.852051,0.449219,0
17200,0.277832,-0.852539,0.424805,0
17220,0.234375,-0.861328,0.42041,0
17240,0.203613,-0.848633,0.431152,0
17260,0.210449,-0.853516,0.425781,0
17280,0.260742,-0.826172,0.425293,0
17300,0.263672,-0.790039,0.420898,0
17320,0.284668,-0.769531,0.434082,0
17340,0.320312,-0.765625,0.48584,0
17360,0.34375,-0.742676,0.493652,0
17380,0.332031,-0.694824,0.4375,0
17400,0.313965,-0.638184,0.434082,0
17420,0.335938,-0.63916,0.504883,0
17440,0.36377,-0.714355,0.515625,0
17460,0.382812,-0.737305,0.518066,0
17480,0.375977,-0.72168,0.504395,0
17500,0.369629,-0.674316,0.505859,0
17520,0.397949,-0.688965,0.494629,0
17540,0.382324,-0.696289,0.499023,0
17550,0.361328,-0.709473,0.516113,0
17570,0.359863,-0.727051,0.527344,0
17590,0.385254,-0.739746,0.516602,0
17610,0.397949,-0.72168,0.501465,0
17620,0.369141,-0.708496,0.490723,0
17640,0.355957,-0.713379,0.462891,0
17660,0.398438,-0.704102,0.425781,0
17690,0.410645,-0.759277,0.446777,0
17710,0.40332,-0.737793,0.44873,0
17730,0.418945,-0.748047,0.380371,0
17750,0.38916,-0.710938,0.441895,0
17770,0.390625,-0.721191,0.477051,0
17790,0.408203,-0.73291,0.455078,0
17810,0.40332,-0.739258,0.435547,0
17830,0.408691,-0.71875,0.475098,0
17850,0.382812,-0.697266,0.459961,0
17870,0.386719,-0.698242,0.456055,0
17890,0.417969,-0.725586,0.458496,0
17910,0.413086,-0.708496,0.452148,0
17920,0.375488,-0.698242,0.443359,0
17940,0.358398,-0.697754,0.453125,0
17960,0.370117,-0.708984,0.484863,0
17980,0.40918,-0.759277,0.469727,0
18000,0.373047,-0.706055,0.449219,0
18020,0.356445,-0.713379,0.452637,0
18040,0.303711,-0.634766,0.493164,0
18060,0.335449,-0.675781,0.474121,0
18080,0.390137,-0.688965,0.500488,0
18100,0.378418,-0.691406,0.52002,0
18120,0.356934,-0.666016,0.546875,0
18130,0.359863,-0.661133,0.523438,0
18150,0.349609,-0.633789,0.529785,0
18170,0.356934,-0.674316,0.484375,0
18190,0.442383,-0.728516,0.633789,0
18210,0.435547,-0.755371,0.657715,0
18230,0.202148,-0.862305,0.769043,0
18250,0.604004,-0.759277,0.483398,0
18280,0.742676,-0.643066,0.157227,0
18300,0.293945,-0.66748,0.26123,0
18320,0.112305,-0.774902,0.673828,0
18340,0.330078,-0.784668,0.541016,0
18350,0.313965,-0.745117,0.494629,0
18370,0.356934,-0.746094,0.513672,0
18390,0.379883,-0.753906,0.515137,0
18410,0.205078,-0.672852,0.359375,0
18430,0.335938,-0.629883,0.197266,0
18450,0.176758,-0.818359,0.818359,0
18470,0.720703,-0.651367,0.342285,0
18500,0.756348,-0.5625,0.145508,0
18510,0.334473,-0.616211,0.23291,0
18530,0.28418,-0.76123,0.681641,0
18530,0.256348,-0.708496,0.512207,0
18550,0.314941,-0.730469,0.507812,0
18550,0.313965,-0.725098,0.498535,0
18570,0.324219,-0.722656,0.493652,0
18570,0.320801,-0.723633,0.487305,0
18590,0.320312,-0.72998,0.5,0
18590,0.326172,-0.736328,0.487793,0
18610,0.332031,-0.729004,0.48291,0
18630,0.324219,-0.727539,0.485352,0
18630,0.32373,-0.726562,0.488281,0
18650,0.32373,-0.744141,0.492188,0
18690,0.31543,-0.731445,0.499512,0
18760,0.306152,-0.723145,0.497559,0
18780,0.300293,-0.722656,0.501953,0
18800,0.309082,-0.729492,0.499023,0
18820,0.303711,-0.729004,0.517578,0
18840,0.29248,-0.722168,0.509766,0
18860,0.302246,-0.72998,0.505371,0
18880,0.308105,-0.724609,0.509277,0
18900,0.306641,-0.725586,0.51123,0
18920,0.303711,-0.726074,0.505859,0
18940,0.288574,-0.725098,0.506348,0
18960,0.29541,-0.724121,0.508789,0
18980,0.304199,-0.724609,0.526367,0
19000,0.307129,-0.723633,0.519043,0
19020,0.307617,-0.714844,0.51416,0
19040,0.297363,-0.712891,0.5,0
19060,0.295898,-0.710938,0.511719,0
19080,0.287109,-0.70459,0.523926,0
19100,0.290527,-0.714844,0.529785,0
19120,0.293457,-0.736816,0.529297,0
19140,0.30127,-0.740234,0.518555,0
19160,0.299805,-0.741211,0.524414,0
19180,0.294922,-0.73291,0.526855,0
19200,0.275879,-0.744141,0.521973,0
19220,0.283691,-0.725098,0.530762,0
19230,0.290039,-0.73584,0.538086,0
19260,0.291992,-0.720215,0.533691,0
19280,0.287109,-0.710938,0.535156,0
19300,0.287109,-0.69873,0.541016,0
19320,0.302734,-0.709961,0.539062,0
19340,0.305664,-0.730957,0.530762,0
19360,0.303223,-0.729004,0.523438,0
19380,0.297363,-0.727051,0.520508,0
19400,0.311035,-0.733887,0.503906,0
19420,0.303711,-0.734863,0.516602,0
19440,0.282715,-0.720703,0.51416,0
19460,0.287109,-0.719238,0.514648,0
19480,0.30957,-0.731934,0.504395,0
19500,0.306641,-0.739746,0.513184,0
19520,0.294434,-0.717285,0.490723,0
19540,0.310547,-0.739746,0.481445,0
19560,0.310059,-0.724121,0.491211,0
19580,0.300293,-0.73291,0.498535,0
19600,0.305664,-0.720215,0.490723,0
19620,0.306152,-0.713379,0.490234,0
19640,0.296875,-0.707031,0.485352,0
19660,0.290527,-0.702148,0.470215,0
19680,0.314453,-0.686035,0.498535,0
19700,0.29541,-0.716797,0.508301,0
19720,0.280762,-0.759766,0.496582,0
19740,0.276855,-0.774902,0.503418,0
19760,0.291992,-0.754883,0.496094,0
19780,0.283203,-0.763672,0.50293,0
19800,0.282715,-0.760742,0.49707,0
19820,0.283203,-0.767578,0.503418,0
19840,0.279297,-0.783691,0.502441,0
19860,0.291992,-0.776855,0.496094,0
19880,0.292969,-0.760742,0.50293,0
19900,0.273926,-0.75,0.522461,0
19920,0.266113,-0.719238,0.532715,0
19940,0.274414,-0.71582,0.526855,0
19950,0.265625,-0.748047,0.499512,0
19970,0.233398,-0.752441,0.51416,0
19970,0.254883,-0.742188,0.518066,0
20020,0.250977,-0.727539,0.551758,0
20040,0.248535,-0.737793,0.526855,0
20060,0.246094,-0.720215,0.519531,0
20070,0.246582,-0.730469,0.522949,0
20090,0.274414,-0.718262,0.516113,0
20110,0.27832,-0.725586,0.509766,0
20130,0.273438,-0.73291,0.51416,0
20150,0.272949,-0.746094,0.516113,0
20170,0.26709,-0.740723,0.508789,0
20190,0.255371,-0.75293,0.508301,0
20210,0.253906,-0.733887,0.53125,0
20230,0.263184,-0.72168,0.540039,0
20250,0.26709,-0.730469,0.538086,0
20270,0.27002,-0.746094,0.523926,0
20290,0.268555,-0.746582,0.521484,0
20310,0.262695,-0.760254,0.53125,0
20330,0.256348,-0.752441,0.54834,0
20350,0.253418,-0.740234,0.52832,0
20370,0.251953,-0.72998,0.516602,0
20390,0.279785,-0.731934,0.518555,0
20410,0.301758,-0.738281,0.566895,0
20430,0.282715,-0.737793,0.533691,0
20450,0.296875,-0.737793,0.478027,0
20470,0.274902,-0.729492,0.500488,0
20490,0.24707,-0.749023,0.526367,0
20510,0.265137,-0.719727,0.520508,0
20530,0.276855,-0.711914,0.525391,0
20550,0.279297,-0.695312,0.534668,0
20570,0.274414,-0.713867,0.495117,0
20590,0.282715,-0.720703,0.501953,0
20610,0.28418,-0.724121,0.541992,0
20630,0.289062,-0.733398,0.538574,0
20650,0.281738,-0.745605,0.521484,0
20650,0.307129,-0.740723,0.524414,0
20670,0.312988,-0.745117,0.512695,0
20690,0.307617,-0.73584,0.509277,0
20710,0.314941,-0.745605,0.506836,0
20710,0.322754,-0.760254,0.492676,0
20730,0.317383,-0.751953,0.472656,0
20750,0.29834,-0.735352,0.493652,0
20770,0.288574,-0.717285,0.507324,0
20770,0.29834,-0.723145,0.495117,0
20830,0.279785,-0.711914,0.507812,0
20870,0.271484,-0.729004,0.527344,0
20890,0.273926,-0.691895,0.550781,0
20910,0.296875,-0.682617,0.50293,0
20930,0.319824,-0.691406,0.505371,0
20950,0.249023,-0.670898,0.57666,0
20970,0.266113,-0.632324,0.588379,0
20990,0.314941,-0.680664,0.603027,0
21010,0.322266,-0.718262,0.564941,0
21030,0.378906,-0.717285,0.57373,0
21050,0.396973,-0.715332,0.515625,0
21070,0.197266,-0.559082,0.547852,0
21090,0.244629,-0.562012,0.575195,0
21110,0.237793,-0.774414,0.583008,0
21130,0.179688,-0.904297,0.603516,0
21150,0.133789,-0.728516,0.621582,0
21170,0.106934,-0.61377,0.534668,0
21190,0.165527,-0.47998,0.569824,0
21210,0.218262,-0.624023,0.602051,0
21230,0.275879,-0.694336,0.613281,0
21250,0.297363,-0.67334,0.546875,0
21270,0.301758,-0.623047,0.535645,0
21290,0.326172,-0.658691,0.568359,0
21310,0.409668,-0.679199,0.570312,0
21330,0.402832,-0.700195,0.625488,0
21350,0.420898,-0.75,0.648438,0
21370,0.376953,-0.696289,0.583496,0
21390,0.337402,-0.620117,0.55127,0
21410,0.355957,-0.643555,0.584473,0
21430,0.352051,-0.600098,0.575684,0
21450,0.345215,-0.621582,0.540527,0
21470,0.316406,-0.625488,0.560059,0
21490,0.355469,-0.666992,0.56543,0
21510,0.401367,-0.718262,0.52832,0
21530,0.333984,-0.719727,0.559082,0
21550,0.245117,-0.651367,0.622559,0
21570,0.254883,-0.599121,0.652344,0
21590,0.280273,-0.622559,0.624023,0
21610,0.308105,-0.594238,0.645996,0
21630,0.358398,-0.536621,0.611816,0
21650,0.429199,-0.577148,0.561035,0
21670,0.440918,-0.614746,0.540527,0
21690,0.431152,-0.668457,0.57373,0
21710,0.483398,-0.699219,0.63623,0
21730,0.459473,-0.710449,0.488281,0
21750,0.407227,-0.63916,0.514648,0
21770,0.427734,-0.629883,0.530273,0
21790,0.465332,-0.651367,0.492676,0
21810,0.51123,-0.631836,0.54834,0
21830,0.462891,-0.597168,0.556152,0
21850,0.415527,-0.575684,0.526367,0
21870,0.425781,-0.579102,0.513184,0
21890,0.485352,-0.591797,0.534668,0
21910,0.545898,-0.610352,0.478027,0
21930,0.539062,-0.615234,0.4375,0
21950,0.504883,-0.550781,0.453613,0
21970,0.490234,-0.545898,0.497559,0
21990,0.506348,-0.595703,0.473145,0
22010,0.512207,-0.602051,0.465332,0
22030,0.533203,-0.589355,0.462891,0
22050,0.536133,-0.561035,0.460938,0
22070,0.501953,-0.55127,0.481934,0
22090,0.516113,-0.604004,0.512207,0
22110,0.516602,-0.62793,0.51123,0
22130,0.515137,-0.614258,0.502441,0
22150,0.521484,-0.57959,0.52002,0
22170,0.569336,-0.609863,0.517578,0
22190,0.548828,-0.612793,0.450195,0
22210,0.465332,-0.585938,0.506836,0
22230,0.500488,-0.62207,0.495117,0
22250,0.570312,-0.64209,0.494629,0
22270,0.539551,-0.600586,0.51709,0
22290,0.513672,-0.602539,0.442871,0
22310,0.521973,-0.58252,0.487305,0
22330,0.547852,-0.607422,0.501953,0
22350,0.54248,-0.597168,0.505371,0
22370,0.531738,-0.583008,0.464844,0
22390,0.564941,-0.576172,0.438965,0
22410,0.563965,-0.584961,0.446289,0
22430,0.55127,-0.59375,0.443848,0
22450,0.529297,-0.586426,0.433105,0
22470,0.492188,-0.586914,0.473633,0
22490,0.493164,-0.601074,0.466797,0
22510,0.498535,-0.608398,0.449219,0
22530,0.51416,-0.59375,0.447266,0
22550,0.51709,-0.623535,0.44043,0
22570,0.458008,-0.646973,0.424805,0
22590,0.411621,-0.624512,0.492188,0
22610,0.450195,-0.685547,0.487793,0
22630,0.522461,-0.697266,0.46875,0
22640,0.433105,-0.666992,0.500488,0
22660,0.418945,-0.644531,0.52002,0
22680,0.448242,-0.666016,0.5,0
22700,0.442871,-0.666016,0.48877,0
22720,0.391602,-0.666992,0.499023,0
22740,0.381348,-0.650391,0.542969,0
22760,0.382812,-0.6875,0.547363,0
22780,0.373047,-0.662109,0.536621,0
22800,0.367188,-0.655762,0.553711,0
22820,0.384277,-0.626953,0.553223,0
22840,0.334961,-0.625977,0.564941,0
22860,0.324219,-0.614258,0.579102,0
22880,0.322266,-0.642578,0.57666,0
22900,0.296387,-0.6875,0.544922,0
22910,0.269531,-0.665527,0.577148,0
22930,0.299805,-0.659668,0.583496,0
22950,0.26416,-0.699219,0.563477,0
22950,0.244629,-0.708008,0.583008,0
22970,0.258789,-0.733887,0.583008,0
22990,0.254395,-0.720215,0.57373,0
23010,0.196777,-0.70752,0.59668,0
23010,0.192871,-0.730469,0.565918,0
23030,0.205078,-0.763672,0.575195,0
23050,0.184082,-0.730469,0.604004,0
23070,0.196777,-0.756836,0.572754,0
23130,0.240234,-0.744629,0.554688,0
23130,0.25,-0.742676,0.549805,0
23180,0.250977,-0.761719,0.552734,0
23200,0.24707,-0.75,0.581055,0
23210,0.197754,-0.716797,0.588379,0
23230,0.19873,-0.697754,0.5625,0
23250,0.256348,-0.688965,0.612305,0
23270,0.268555,-0.706055,0.605957,0
23270,0.252441,-0.725098,0.569824,0
23310,0.27832,-0.710449,0.5625,0
23340,0.275391,-0.717773,0.573242,0
23360,0.268555,-0.699707,0.584961,0
23380,0.267578,-0.731934,0.563477,0
23400,0.295898,-0.719727,0.561523,0
23420,0.305664,-0.717773,0.545898,0
23440,0.299805,-0.703125,0.55957,0
23460,0.319824,-0.700195,0.55957,0
23470,0.330078,-0.707031,0.550293,0
23490,0.322266,-0.697266,0.530762,0
23510,0.311035,-0.696777,0.517578,0
23510,0.368652,-0.708984,0.525879,0
23560,0.359863,-0.692871,0.502441,0
23580,0.363281,-0.69043,0.490234,0
23600,0.366211,-0.660645,0.506836,0
23620,0.38916,-0.682129,0.495605,0
23640,0.390137,-0.678711,0.507812,0
23660,0.367676,-0.655273,0.514648,0
23680,0.429688,-0.651855,0.495605,0
23700,0.459473,-0.64502,0.486328,0
23720,0.438965,-0.645508,0.475098,0
23740,0.40332,-0.63623,0.469238,0
23760,0.410645,-0.631348,0.485352,0
23780,0.425293,-0.635254,0.513672,0
23800,0.436035,-0.663574,0.488281,0
23820,0.430664,-0.643555,0.474609,0
23840,0.449707,-0.633301,0.494629,0
23860,0.44043,-0.642578,0.479004,0
23880,0.446777,-0.645996,0.486816,0
23900,0.456543,-0.649414,0.466309,0
23920,0.450684,-0.663086,0.463867,0
23940,0.441406,-0.640625,0.492188,0
23960,0.463867,-0.646484,0.495605,0
23980,0.449707,-0.671387,0.469238,0
24000,0.421875,-0.656738,0.481934,0
24020,0.418457,-0.660156,0.507812,0
24040,0.411621,-0.666504,0.486816,0
24060,0.418457,-0.655273,0.502441,0
24080,0.429688,-0.666016,0.513672,0
24100,0.42334,-0.669922,0.521973,0
24120,0.372559,-0.674805,0.504883,0
24140,0.389648,-0.657715,0.520996,0
24160,0.419922,-0.682617,0.506348,0
24180,0.411621,-0.651367,0.516113,0
24200,0.424805,-0.65332,0.477539,0
24220,0.359375,-0.635742,0.51709,0
24240,0.382324,-0.660645,0.557129,0
24260,0.373047,-0.700195,0.516113,0
24280,0.395996,-0.677246,0.543457,0
24300,0.366211,-0.671387,0.525879,0
24320,0.359375,-0.694824,0.525879,0
24340,0.387695,-0.707031,0.537598,0
24360,0.434082,-0.708984,0.535156,0
24380,0.359863,-0.692383,0.52002,0
24400,0.308105,-0.647949,0.561035,0
24420,0.324219,-0.655273,0.578613,0
24440,0.383789,-0.67334,0.561035,0
24460,0.396973,-0.67334,0.553223,0
24480,0.378418,-0.658203,0.519043,0
24500,0.368652,-0.677734,0.518066,0
24520,0.349609,-0.691895,0.53418,0
24540,0.320801,-0.703613,0.557617,0
24560,0.337891,-0.697754,0.52832,0
24580,0.369141,-0.697266,0.516602,0
24600,0.342773,-0.672852,0.513672,0
24620,0.345703,-0.666016,0.525391,0
24640,0.389648,-0.688477,0.526367,0
24660,0.416992,-0.702637,0.496582,0
24680,0.387207,-0.673828,0.489258,0
24700,0.407715,-0.673828,0.510254,0
24720,0.395996,-0.694824,0.535645,0
24740,0.409668,-0.691406,0.489746,0
24760,0.394043,-0.685547,0.489258,0
24780,0.385254,-0.65918,0.503906,0
24800,0.39502,-0.678711,0.521484,0
24820,0.398438,-0.672363,0.531738,0
24840,0.396973,-0.646484,0.5,0
24860,0.396973,-0.667969,0.492188,0
24880,0.401855,-0.681152,0.503906,0
24900,0.414062,-0.672852,0.521484,0
24920,0.398926,-0.686035,0.496582,0
24940,0.410645,-0.67334,0.490723,0
24960,0.413574,-0.679199,0.493164,0
24980,0.412598,-0.713379,0.492188,0
25000,0.406738,-0.711426,0.494629,0
25020,0.406738,-0.709961,0.47998,0
25040,0.410156,-0.706055,0.484863,0
25060,0.414062,-0.691406,0.487305,0
25080,0.399414,-0.679199,0.483398,0
25100,0.38916,-0.696289,0.492188,0
25120,0.391602,-0.694336,0.480469,0
25140,0.402344,-0.690918,0.490723,0
25160,0.389648,-0.681641,0.48584,0
25180,0.38623,-0.666016,0.490723,0
25200,0.402832,-0.666016,0.520508,0
25220,0.396973,-0.682129,0.502441,0
25240,0.377441,-0.670898,0.481445,0
25250,0.381348,-0.680176,0.494629,0
25270,0.382324,-0.679199,0.494141,0
25290,0.376465,-0.692383,0.5,0
25310,0.375488,-0.683105,0.511719,0
25330,0.369629,-0.696289,0.540039,0
25350,0.356445,-0.705566,0.512207,0
25370,0.367188,-0.696289,0.503906,0
25390,0.378418,-0.70166,0.494629,0
25410,0.363281,-0.72168,0.484863,0
25430,0.345215,-0.725098,0.501953,0
25450,0.345215,-0.716797,0.492676,0
25470,0.34375,-0.719727,0.505859,0
25490,0.338867,-0.709961,0.521973,0
25490,0.336914,-0.730957,0.518555,0
25510,0.35498,-0.705566,0.519531,0
25530,0.316895,-0.703613,0.48877,0
25560,0.447266,-0.753906,0.642578,0
25590,0.311523,-0.737305,0.675293,0
25610,0.522949,-0.672363,0.407715,0
25630,0.336426,-0.52832,0.159668,0
25650,0.147461,-0.609375,0.27002,0
25670,0.121094,-0.616699,0.263184,0
25690,0.305664,-0.706543,0.470703,0
25710,0.373047,-0.6875,0.502441,0
25730,0.364746,-0.702148,0.502441,0
25750,0.354492,-0.689453,0.51123,0
25770,0.353516,-0.689453,0.506836,0
25790,0.352051,-0.684082,0.518066,0
25810,0.362305,-0.691895,0.539551,0
25830,0.375,-0.699219,0.511719,0
25850,0.366211,-0.679688,0.494141,0
25870,0.356445,-0.680664,0.510742,0
25890,0.353516,-0.690918,0.525391,0
25910,0.357422,-0.703613,0.544922,0
25930,0.376465,-0.707031,0.512207,0
25950,0.364746,-0.682617,0.5,0
25970,0.358887,-0.702637,0.518066,0
25990,0.373535,-0.6875,0.519043,0
26010,0.360352,-0.692383,0.49707,0
26030,0.345703,-0.689453,0.501953,0
26050,0.360352,-0.715332,0.512695,0
26070,0.350098,-0.691895,0.519531,0
26090,0.353027,-0.67334,0.518066,0
26110,0.361328,-0.670898,0.522461,0
26130,0.371582,-0.68457,0.526855,0
26150,0.363281,-0.684082,0.525879,0
26170,0.35791,-0.687012,0.523438,0
26190,0.349121,-0.687988,0.523438,0
26210,0.352051,-0.689453,0.518066,0
26230,0.357422,-0.674805,0.519531,0
26250,0.346191,-0.681152,0.533691,0
26270,0.338379,-0.70166,0.515625,0
26290,0.347168,-0.685059,0.513672,0
26310,0.352051,-0.699219,0.509766,0
26330,0.351074,-0.693359,0.505859,0
26350,0.355957,-0.699219,0.516113,0
26370,0.338379,-0.6875,0.52002,0
26370,0.335449,-0.687988,0.509277,0
26390,0.36377,-0.702148,0.526855,0
26410,0.359375,-0.692871,0.488281,0
26450,0.213867,-0.666016,0.462402,0
26470,0.249023,-0.606445,0.296875,0
26490,0.334961,-0.704102,0.51416,0
26510,0.302734,-0.693848,0.52002,0
26530,0.291992,-0.675293,0.516113,0
26550,0.277344,-0.685547,0.516602,0
26570,0.262695,-0.694824,0.533691,0
26590,0.240234,-0.683105,0.548828,0
26610,0.297852,-0.698242,0.546875,0
26630,0.256836,-0.708496,0.524902,0
26650,0.197754,-0.689453,0.547363,0
26670,0.202637,-0.697266,0.547852,0
26690,0.248047,-0.729492,0.532715,0
26710,0.227539,-0.739746,0.55127,0
26730,0.138184,-0.726562,0.564941,0
26750,0.131836,-0.714844,0.584961,0
26770,0.181152,-0.724609,0.561523,0
26790,0.175781,-0.750977,0.561523,0
26810,0.10498,-0.755859,0.571777,0
26830,0.0961914,-0.737305,0.602051,0
26830,0.0869141,-0.740723,0.606445,0
26850,0.0698242,-0.755371,0.562012,0
26870,-0.0195312,-0.762207,0.523438,0
26890,0.132812,-0.852539,0.766113,0
26910,-0.100098,-0.856934,0.816406,0
26930,0.29248,-0.693359,0.409668,0
26950,0.129395,-0.686035,0.27002,0
26990,-0.489258,-0.787598,0.537598,0
27010,-0.726074,-0.881348,0.695801,0
27030,-0.166992,-0.79834,0.544922,0
27050,-0.0234375,-0.775391,0.59375,0
27070,0.00878906,-0.745605,0.607422,0
27090,0.00244141,-0.728516,0.605957,0
27110,0.0239258,-0.74707,0.578125,0
27130,0.0458984,-0.748535,0.576172,0
27150,0.0332031,-0.763184,0.585449,0
27170,0.0322266,-0.764648,0.571289,0
27190,0.0332031,-0.751953,0.586914,0
27210,0.0454102,-0.793457,0.598633,0
27230,0.0546875,-0.836426,0.595215,0
27250,0.0541992,-0.831543,0.598633,0
27270,0.0556641,-0.82373,0.617676,0
27290,0.0771484,-0.82959,0.601074,0
27310,0.12207,-0.827637,0.599609,0
27330,0.15918,-0.82959,0.604492,0
27350,0.175293,-0.83252,0.595703,0
27370,0.230469,-0.825195,0.578613,0
27370,0.273926,-0.813477,0.565918,0
27390,0.24707,-0.810059,0.555176,0
27390,0.25,-0.792969,0.524414,0
27410,0.26123,-0.79248,0.530273,0
27410,0.265137,-0.794922,0.520508,0
27430,0.248047,-0.78418,0.499512,0
27430,0.280762,-0.792969,0.487793,0
27450,0.291016,-0.795898,0.470703,0
27450,0.347656,-0.824707,0.451172,0
27540,0.413574,-0.796875,0.421875,0
27600,0.436523,-0.789062,0.378906,0
27620,0.475098,-0.756836,0.353516,0
27640,0.493164,-0.716309,0.369629,0
27660,0.464355,-0.695312,0.355957,0
27680,0.47168,-0.708496,0.295898,0
27700,0.489746,-0.680664,0.274414,0
27720,0.490723,-0.688965,0.230957,0
27740,0.47168,-0.690918,0.242188,0
27760,0.44873,-0.674316,0.228027,0
27780,0.439941,-0.654297,0.21875,0
27800,0.39502,-0.665527,0.203613,0
27820,0.368652,-0.657227,0.208984,0
27830,0.373047,-0.645508,0.228027,0
27850,0.375488,-0.661133,0.245117,0
27870,0.399902,-0.677246,0.274902,0
27890,0.405762,-0.682129,0.289062,0
27910,0.429688,-0.694336,0.274902,0
27930,0.453125,-0.692871,0.256348,0
27950,0.463867,-0.691895,0.259277,0
27970,0.475586,-0.714844,0.260742,0
27990,0.489746,-0.752441,0.253906,0
28010,0.5,-0.744629,0.227539,0
28030,0.533691,-0.769043,0.241699,0
28050,0.57666,-0.789062,0.280762,0
28070,0.549805,-0.775391,0.298828,0
28090,0.52832,-0.764648,0.288086,0
28110,0.521973,-0.76709,0.291992,0
28130,0.486816,-0.789551,0.288574,0
28150,0.478027,-0.779785,0.327637,0
28170,0.477539,-0.770996,0.365723,0
28190,0.476562,-0.788574,0.353027,0
28210,0.472656,-0.8125,0.356934,0
28230,0.464355,-0.784668,0.358887,0
28250,0.454102,-0.771973,0.367188,0
28270,0.474121,-0.787109,0.380859,0
28290,0.480469,-0.800781,0.364258,0
28310,0.470215,-0.780762,0.358398,0
28330,0.478516,-0.775879,0.354492,0
28350,0.475098,-0.755371,0.359863,0
28370,0.469727,-0.769531,0.364746,0
28390,0.472168,-0.770996,0.369141,0
28410,0.472656,-0.766113,0.371094,0
28430,0.466309,-0.753418,0.353027,0
28450,0.460449,-0.749023,0.362793,0
28470,0.446777,-0.741699,0.360352,0
28490,0.441895,-0.743652,0.365234,0
28510,0.453613,-0.745605,0.364746,0
28530,0.449219,-0.739258,0.360352,0
28550,0.432129,-0.740234,0.367676,0
28570,0.42334,-0.730469,0.381836,0
28590,0.427734,-0.748535,0.382812,0
28610,0.44043,-0.763184,0.370117,0
28630,0.426758,-0.758301,0.369141,0
28650,0.432129,-0.759766,0.37207,0
28670,0.432617,-0.771484,0.381836,0
28690,0.42627,-0.775879,0.383789,0
28710,0.421875,-0.78125,0.38623,0
28730,0.416016,-0.776855,0.381348,0
28750,0.413086,-0.776855,0.381836,0
28770,0.417969,-0.768555,0.387695,0
28790,0.416992,-0.776367,0.388672,0
28810,0.413574,-0.783203,0.390137,0
28830,0.40918,-0.77832,0.390625,0
28850,0.400391,-0.762207,0.390625,0
28870,0.401855,-0.762207,0.39209,0
28890,0.407715,-0.764648,0.388184,0
28910,0.412598,-0.753906,0.383789,0
28930,0.416992,-0.756836,0.382812,0
28950,0.415527,-0.754883,0.374023,0
28970,0.414062,-0.757324,0.366211,0
28990,0.424805,-0.760742,0.375488,0
29010,0.436035,-0.756836,0.381348,0
29030,0.436035,-0.758789,0.378418,0
29050,0.430176,-0.76416,0.376465,0
29070,0.427246,-0.758301,0.375488,0
29090,0.42041,-0.756836,0.378418,0
29110,0.421387,-0.757812,0.37793,0
29130,0.420898,-0.758301,0.371582,0
29150,0.421875,-0.751953,0.381348,0
29170,0.42627,-0.757812,0.387695,0
29190,0.435547,-0.757324,0.392578,0
29210,0.446777,-0.763672,0.394043,0
29230,0.47168,-0.758789,0.419434,0
29250,0.489258,-0.75293,0.415039,0
29270,0.508301,-0.755859,0.391602,0
29290,0.499023,-0.753906,0.393066,0
29310,0.48584,-0.762695,0.364746,0
29330,0.489258,-0.763184,0.378418,0
29350,0.435059,-0.76709,0.368164,0
29370,0.410645,-0.779297,0.374512,0
29390,0.399902,-0.794922,0.362793,0
29410,0.413574,-0.791016,0.36377,0
29430,0.412109,-0.785156,0.36377,0
29450,0.418457,-0.782227,0.349121,0
29470,0.407227,-0.789062,0.33252,0
29490,0.40332,-0.784668,0.32666,0
29510,0.407227,-0.798828,0.341309,0
29530,0.38623,-0.793945,0.32959,0
29550,0.357422,-0.795898,0.314941,0
29570,0.353516,-0.788574,0.320312,0
29590,0.358887,-0.795898,0.332031,0
29610,0.362305,-0.802246,0.313965,0
29630,0.358887,-0.803711,0.305664,0
29650,0.338379,-0.803223,0.299805,0
29670,0.340332,-0.815918,0.295898,0
29690,0.335449,-0.831543,0.29541,0
29710,0.320312,-0.824219,0.323242,0
29730,0.313477,-0.816406,0.321289,0
29750,0.32373,-0.817871,0.306641,0
29770,0.316406,-0.81543,0.30127,0
29790,0.304688,-0.810059,0.321289,0
29810,0.300293,-0.808594,0.32666,0
29830,0.317871,-0.828125,0.324219,0
29850,0.319824,-0.861816,0.325684,0
29860,0.308594,-0.87793,0.336914,0
29860,0.317871,-0.864746,0.330078,0
29890,0.316895,-0.867188,0.306641,0
29920,0.250977,-0.861328,0.237793,0
29940,0.217773,-0.880859,0.269531,0
29960,0.426758,-0.786621,-0.0478516,0
29980,-0.0288086,-0.973145,0.506836,0
30000,0.081543,-0.964355,0.602539,0
30020,0.652832,-0.851562,0.458984,0
30040,1.07959,-0.786133,0.351562,0
30060,1.29102,-0.755371,0.344238,0
30080,1.30566,-0.775879,0.452148,0
30100,0.881836,-0.877441,0.65332,0
30120,-0.344727,-1.01904,0.473633,0
30140,0.129883,-0.758301,-0.0561523,0
30160,0.553223,-0.697754,0.121582,0
30180,-0.439453,-0.979004,0.0200195,2000
30200,0.554688,-0.920898,0.632324,0
30220,0.978027,-0.739258,0.60791,0
30240,0.563477,-0.706055,0.229004,0
30260,0.162598,-0.787109,-0.0483398,0
30290,-0.0332031,-0.807129,-0.137207,0
30310,-0.0361328,-0.818359,-0.123535,0
30330,0.517578,-0.824707,0.12207,0
30350,0.397949,-0.915039,0.265137,0
30370,0.305176,-0.881348,0.233887,0
30390,0.304688,-0.891113,0.254883,0
30410,0.30957,-0.899414,0.260254,0
30420,0.303711,-0.901855,0.263184,0
30440,0.299316,-0.891602,0.262207,0
30440,0.313477,-0.877441,0.257812,0
30460,0.306641,-0.895996,0.252441,0
30480,0.304199,-0.888672,0.253418,0
30500,0.293945,-0.881348,0.258789,0
30510,0.303711,-0.869141,0.256836,0
30520,0.300293,-0.875488,0.269531,0
30540,0.292969,-0.882324,0.257324,0
30560,0.302246,-0.87793,0.257324,0
30570,0.30957,-0.877441,0.250977,0
30580,0.299805,-0.871582,0.25293,0
30600,0.302734,-0.883301,0.246094,0
30620,0.29834,-0.889648,0.23291,0
30640,0.292969,-0.900391,0.241699,0
30640,0.294922,-0.90625,0.241211,0
30660,0.295898,-0.887207,0.245605,0
30680,0.285645,-0.883301,0.253418,0
30700,0.26709,-0.89502,0.240723,0
30700,0.273926,-0.891113,0.22998,0
30720,0.29541,-0.879395,0.245117,0
30740,0.290039,-0.878418,0.253906,0
30760,0.274414,-0.880371,0.237305,0
30760,0.281738,-0.883789,0.249512,0
30780,0.285645,-0.899902,0.251953,0
30800,0.286621,-0.882812,0.236816,0
30820,0.279785,-0.896484,0.239258,0
30820,0.273438,-0.898438,0.238281,0
30840,0.258301,-0.903809,0.23877,0
30860,0.263184,-0.900879,0.243652,0
30880,0.259766,-0.903809,0.237305,0
30890,0.242188,-0.90625,0.237305,0
30900,0.217773,-0.909668,0.242676,0
30920,0.208984,-0.913574,0.245605,0
30940,0.234863,-0.918945,0.241211,0
30940,0.260742,-0.90625,0.240723,0
30960,0.264648,-0.90918,0.23877,0
30980,0.270996,-0.911133,0.247559,0
31000,0.29248,-0.914062,0.231445,0
31000,0.319824,-0.911133,0.22998,0
31020,0.326172,-0.901855,0.226074,0
31040,0.332031,-0.907715,0.216309,0
31060,0.325195,-0.895508,0.227051,0
31070,0.327637,-0.881348,0.21875,0
31080,0.331055,-0.872559,0.210449,0
31100,0.325684,-0.879395,0.208008,0
31120,0.310547,-0.882812,0.210449,0
31130,0.308594,-0.898438,0.216309,0
31160,0.33252,-0.887695,0.214844,0
31180,0.334473,-0.870605,0.212402,0
31190,0.339355,-0.855469,0.21875,0
31200,0.340332,-0.870605,0.203613,0
31220,0.350098,-0.869141,0.217285,0
31240,0.351074,-0.882812,0.214844,0
31260,0.361328,-0.885742,0.201172,0
31260,0.36377,-0.881348,0.202637,0
31280,0.37793,-0.880859,0.198242,0
31310,0.37793,-0.875977,0.195312,0
31360,0.380371,-0.877441,0.198242,0
31430,0.369141,-0.862793,0.200195,0
31480,0.375488,-0.856445,0.185547,0
31540,0.375,-0.858887,0.194824,0
31600,0.371094,-0.859375,0.197754,0
31640,0.362793,-0.86084,0.195801,0
31680,0.379395,-0.862305,0.177246,0
31700,0.373047,-0.859863,0.180176,0
31720,0.369141,-0.875488,0.182617,0
31740,0.374512,-0.883789,0.180664,0
31760,0.380859,-0.887695,0.170898,0
31780,0.388672,-0.889648,0.180176,0
31800,0.393066,-0.887695,0.175781,0
31820,0.394531,-0.883301,0.179688,0
31840,0.391602,-0.867676,0.186035,0
31860,0.403809,-0.86377,0.191895,0
31880,0.41748,-0.867676,0.180664,0
31900,0.427246,-0.86377,0.164551,0
31920,0.442383,-0.858887,0.179199,0
31940,0.448242,-0.856445,0.186035,0
31960,0.458496,-0.862793,0.170898,0
31980,0.463867,-0.850586,0.171387,0
32000,0.457031,-0.855469,0.164062,0
32020,0.442871,-0.841309,0.181152,0
32040,0.452637,-0.834961,0.174805,0
32060,0.463867,-0.829102,0.17334,0
32080,0.467773,-0.820312,0.175293,0
32100,0.470703,-0.816406,0.161133,0
32120,0.48291,-0.833496,0.160156,0
32140,0.474121,-0.827637,0.161621,0
32160,0.487305,-0.828125,0.156738,0
32180,0.496582,-0.808105,0.158691,0
32200,0.506348,-0.825684,0.129883,0
32220,0.522461,-0.82666,0.14502,0
32240,0.522949,-0.822754,0.150391,0
32260,0.522461,-0.813477,0.137207,0
32280,0.513672,-0.824707,0.13916,0
32300,0.496094,-0.819824,0.143555,0
32320,0.506348,-0.817383,0.15625,0
32340,0.500977,-0.815918,0.143555,0
32360,0.495605,-0.8125,0.138184,0
32380,0.489746,-0.8125,0.134277,0
32400,0.487793,-0.806152,0.137207,0
32420,0.506836,-0.801758,0.138184,0
32440,0.512695,-0.794434,0.163574,0
32460,0.500488,-0.79248,0.145508,0
32480,0.512695,-0.785645,0.122559,0
32500,0.52832,-0.785645,0.119629,0
32520,0.550293,-0.792969,0.123535,0
32540,0.554688,-0.785645,0.122559,0
32560,0.563965,-0.788574,0.121582,0
32580,0.55957,-0.79541,0.123047,0
32600,0.551758,-0.786621,0.126465,0
32620,0.560547,-0.777832,0.130371,0
32640,0.549805,-0.78418,0.12793,0
32660,0.552734,-0.783203,0.12793,0
32680,0.557617,-0.76709,0.135742,0
32710,0.547363,-0.778809,0.133301,0
32730,0.549805,-0.780273,0.126465,0
32740,0.552246,-0.789062,0.125977,0
32770,0.536133,-0.782715,0.125977,0
32790,0.557129,-0.78418,0.133789,0
32810,0.561035,-0.779785,0.142578,0
32830,0.543457,-0.774902,0.135254,0
32850,0.552246,-0.779785,0.134277,0
32870,0.547363,-0.787598,0.126465,0
32890,0.540039,-0.785156,0.139648,0
32910,0.542969,-0.785645,0.133301,0
32920,0.541504,-0.788086,0.132324,0
32940,0.544922,-0.795898,0.135254,0
32960,0.555664,-0.787109,0.139648,0
32980,0.552246,-0.789062,0.135742,0
33000,0.54834,-0.786133,0.131348,0
33020,0.552734,-0.79248,0.136719,0
33040,0.562988,-0.791504,0.144531,0
33060,0.558105,-0.790039,0.134277,0
33080,0.56543,-0.784668,0.132324,0
33100,0.558105,-0.782227,0.132324,0
33120,0.562988,-0.784668,0.138672,0
33140,0.574707,-0.770996,0.147461,0
33160,0.578613,-0.760254,0.125977,0
33180,0.573242,-0.755859,0.137695,0
33200,0.561523,-0.763672,0.140625,0
33220,0.563965,-0.765625,0.129883,0
33240,0.572754,-0.759766,0.129883,0
33260,0.588379,-0.74707,0.14209,0
33280,0.579102,-0.739746,0.151367,0
33300,0.569824,-0.747559,0.146973,0
33320,0.568359,-0.74707,0.145508,0
33340,0.574219,-0.749023,0.159668,0
33360,0.558105,-0.76416,0.162109,0
33380,0.540039,-0.768555,0.152344,0
33400,0.566895,-0.757812,0.161133,0
33420,0.563477,-0.751953,0.181152,0
33440,0.572754,-0.764648,0.152832,0
33460,0.567383,-0.766113,0.170898,0
33480,0.551758,-0.773438,0.168945,0
33500,0.549805,-0.775391,0.161621,0
33520,0.569336,-0.777344,0.177734,0
33540,0.568359,-0.779785,0.178711,0
33560,0.555664,-0.790527,0.17627,0
33580,0.543945,-0.781738,0.176758,0
33600,0.550781,-0.779785,0.185059,0
33620,0.545898,-0.78125,0.175293,0
33640,0.542969,-0.803711,0.173828,0
33660,0.526367,-0.803223,0.194824,0
33680,0.522461,-0.800781,0.197754,0
33700,0.498535,-0.797363,0.186523,0
33720,0.496094,-0.788574,0.203613,0
33740,0.507324,-0.79248,0.208984,0
33760,0.519043,-0.783691,0.206543,0
33780,0.522461,-0.795898,0.211914,0
33800,0.500488,-0.777344,0.224609,0
33820,0.518555,-0.776367,0.219238,0
33840,0.535156,-0.779297,0.225586,0
33860,0.533691,-0.794922,0.214844,0
33880,0.521973,-0.80127,0.205078,0
33900,0.520508,-0.798828,0.213379,0
33920,0.522461,-0.790527,0.225098,0
33940,0.504883,-0.786621,0.222656,0
33960,0.510254,-0.779297,0.22168,0
33990,0.499512,-0.771484,0.254883,0
34020,0.48291,-0.810059,0.223633,0
34040,0.479492,-0.80957,0.228027,0
34060,0.48584,-0.794922,0.239746,0
34080,0.499023,-0.80127,0.247559,0
34100,0.48291,-0.806152,0.234375,0
34120,0.473145,-0.803711,0.239746,0
34150,0.492188,-0.807129,0.254883,0
34170,0.491211,-0.80957,0.248535,0
34190,0.475586,-0.808105,0.26123,0
34210,0.470703,-0.787598,0.259277,0
34230,0.483887,-0.78125,0.256836,0
34250,0.478516,-0.787109,0.266602,0
34270,0.482422,-0.808105,0.260254,0
34290,0.492676,-0.824707,0.231445,0
34310,0.488281,-0.82959,0.237793,0
34330,0.441406,-0.825684,0.259766,0
34350,0.42041,-0.816895,0.251953,0
34370,0.436523,-0.821777,0.262207,0
34390,0.436035,-0.817383,0.266113,0
34410,0.425781,-0.809082,0.266113,0
34430,0.418457,-0.798828,0.273438,0
34450,0.422852,-0.824707,0.264648,0
34470,0.432129,-0.818848,0.262207,0
34490,0.449707,-0.816895,0.263672,0
34510,0.445312,-0.812988,0.263672,0
34530,0.435547,-0.814941,0.262695,0
34550,0.42041,-0.8125,0.26123,0
34570,0.417969,-0.821289,0.266113,0
34590,0.427246,-0.802246,0.255371,0
34610,0.416016,-0.794434,0.262695,0
34630,0.428711,-0.81543,0.250977,0
34650,0.428223,-0.84082,0.241211,0
34670,0.418945,-0.852539,0.250488,0
34690,0.42041,-0.848145,0.251465,0
34710,0.418457,-0.839844,0.248047,0
34730,0.42041,-0.816895,0.244629,0
34750,0.428223,-0.827148,0.233398,0
34770,0.448242,-0.84375,0.234375,0
34790,0.441406,-0.867188,0.245605,0
34810,0.430664,-0.870117,0.248535,0
34830,0.42627,-0.846191,0.25293,0
34850,0.417969,-0.820312,0.24707,0
34870,0.40332,-0.830078,0.246094,0
34890,0.405762,-0.838379,0.234375,0
34910,0.401367,-0.835449,0.22998,0
34930,0.403809,-0.825195,0.237305,0
34950,0.402344,-0.804688,0.243164,0
34970,0.395508,-0.795898,0.237793,0
34990,0.388672,-0.811035,0.236328,0
35010,0.387207,-0.819824,0.220215,0
35030,0.392578,-0.830078,0.216797,0
35050,0.40625,-0.835449,0.229004,0
35070,0.397461,-0.821289,0.205078,0
35090,0.399414,-0.815918,0.200684,0
35110,0.407227,-0.839355,0.20752,0
35130,0.401367,-0.852051,0.20166,0
35150,0.404785,-0.859375,0.203613,0
35170,0.415039,-0.842773,0.204102,0
35190,0.405273,-0.841309,0.204102,0
35210,0.378418,-0.844727,0.203125,0
35230,0.382812,-0.853516,0.210938,0
35250,0.409668,-0.860352,0.213379,0
35270,0.422363,-0.858398,0.195312,0
35290,0.402832,-0.870117,0.199219,0
35310,0.388672,-0.865234,0.198242,0
35330,0.38916,-0.888672,0.193848,0
35350,0.397461,-0.870117,0.1875,0
35370,0.391602,-0.873535,0.19043,0
35390,0.379395,-0.855957,0.194336,0
35410,0.390625,-0.865234,0.194824,0
35430,0.396973,-0.866211,0.193359,0
35450,0.386719,-0.875,0.195312,0
35470,0.395508,-0.864746,0.197266,0
35490,0.399902,-0.861816,0.198242,0
35500,0.397461,-0.863281,0.191406,0
35520,0.37793,-0.879883,0.186035,0
35540,0.378418,-0.878418,0.194824,0
35560,0.397949,-0.862793,0.186035,0
35580,0.403809,-0.873535,0.180664,0
35600,0.368164,-0.881836,0.188477,0
35620,0.373535,-0.880371,0.186035,0
35640,0.39502,-0.888672,0.183594,0
35660,0.380859,-0.871094,0.185547,0
35680,0.362305,-0.873535,0.178223,0
35700,0.376953,-0.867676,0.186523,0
35720,0.383789,-0.85498,0.184082,0
35740,0.389648,-0.855469,0.176758,0
35760,0.399902,-0.863281,0.181152,0
35780,0.396484,-0.878418,0.18457,0
35800,0.384766,-0.875977,0.182617,0
35820,0.369141,-0.870605,0.185059,0
35840,0.359375,-0.852539,0.171875,0
35860,0.382324,-0.862793,0.16748,0
35900,0.37793,-0.875977,0.175293,0
35920,0.37207,-0.873535,0.17334,0
35940,0.36377,-0.862305,0.165527,0
35960,0.368652,-0.871582,0.172363,0
35980,0.370117,-0.88916,0.166504,0
35980,0.359863,-0.895996,0.176758,0
36000,0.349609,-0.875,0.164062,0
36020,0.347168,-0.881836,0.157227,0
36040,0.364746,-0.885254,0.157715,0
36040,0.379883,-0.882324,0.164551,0
36060,0.379395,-0.882812,0.15332,0
36080,0.379883,-0.88623,0.158203,0
36100,0.365234,-0.898438,0.144043,0
36100,0.371094,-0.896973,0.152832,0
36120,0.368164,-0.896484,0.13916,0
36140,0.362793,-0.898438,0.13916,0
36160,0.376953,-0.900879,0.141113,0
36160,0.38623,-0.897461,0.144531,0
36180,0.366211,-0.904297,0.13623,0
36200,0.363281,-0.908203,0.128906,0
36220,0.37207,-0.912109,0.13623,0
36240,0.383789,-0.89209,0.13623,0
36240,0.382324,-0.900391,0.138672,0
36260,0.378418,-0.901855,0.133301,0
36280,0.362305,-0.90625,0.135742,0
36300,0.36377,-0.898926,0.134277,0
36300,0.355469,-0.892578,0.135254,0
36320,0.362305,-0.87793,0.131836,0
36340,0.344727,-0.866211,0.119629,0
36360,0.341309,-0.854492,0.121582,0
36360,0.349121,-0.871582,0.122559,0
36380,0.351074,-0.882812,0.114746,0
36400,0.362793,-0.885254,0.116211,0
36420,0.388184,-0.895996,0.117676,0
36420,0.387695,-0.894043,0.111328,0
36440,0.370117,-0.900391,0.0996094,0
36460,0.367188,-0.904785,0.100098,0
36480,0.382812,-0.908691,0.090332,0
36490,0.370605,-0.902344,0.107422,0
36500,0.37207,-0.895508,0.11084,0
36520,0.379883,-0.901367,0.0996094,0
36540,0.363281,-0.908203,0.0986328,0
36560,0.354492,-0.901367,0.0991211,0
36560,0.367188,-0.90332,0.108887,0
36580,0.398438,-0.893555,0.104004,0
36620,0.404785,-0.891602,0.0947266,0
36670,0.401367,-0.88623,0.0844727,0
36720,0.397949,-0.893555,0.0927734,0
36780,0.398438,-0.896973,0.090332,0
36840,0.417969,-0.892578,0.0942383,0
36880,0.431641,-0.887695,0.0844727,0
36920,0.411133,-0.870605,0.0859375,0
36940,0.392578,-0.869141,0.103516,0
36960,0.395508,-0.873047,0.0991211,0
36980,0.416016,-0.867676,0.0913086,0
37000,0.421387,-0.87793,0.0786133,0
37020,0.425293,-0.873535,0.074707,0
37040,0.429688,-0.883789,0.0761719,0
37060,0.433105,-0.884766,0.0688477,0
37080,0.445312,-0.889648,0.0615234,0
37100,0.461426,-0.880371,0.0678711,0
37120,0.456543,-0.870605,0.0732422,0
37140,0.439453,-0.868652,0.0761719,0
37160,0.438965,-0.884277,0.0620117,0
37180,0.4375,-0.890625,0.0771484,0
37200,0.447754,-0.878906,0.0698242,0
37220,0.450195,-0.878418,0.0566406,0
37240,0.442383,-0.875488,0.0537109,0
37260,0.431152,-0.876953,0.0561523,0
37280,0.430664,-0.876465,0.0605469,0
37300,0.42627,-0.864746,0.0488281,0
37320,0.424805,-0.865234,0.0385742,0
37340,0.421875,-0.869629,0.0566406,0
37360,0.422852,-0.872559,0.0483398,0
37380,0.450195,-0.876465,0.0410156,0
37400,0.459961,-0.865723,0.0532227,0
37410,0.44873,-0.862793,0.0507812,0
37430,0.44043,-0.865723,0.0458984,0
37450,0.45166,-0.874023,0.0375977,0
37490,0.47998,-0.866211,0.0527344,0
37510,0.480469,-0.848145,0.0488281,0
37530,0.478027,-0.839355,0.0395508,0
37550,0.487793,-0.848633,0.0566406,0
37570,0.519531,-0.86084,0.0488281,0
37590,0.528809,-0.850098,0.0361328,0
37610,0.513672,-0.844238,0.0332031,0
37620,0.523438,-0.836914,0.050293,0
37640,0.524414,-0.84082,0.0576172,0
37660,0.512207,-0.82959,0.0454102,0
37680,0.518066,-0.823242,0.0424805,0
37700,0.525391,-0.81543,0.0498047,0
37720,0.550293,-0.8125,0.0595703,0
37740,0.549805,-0.811523,0.0488281,0
37760,0.52002,-0.80957,0.0488281,0
37780,0.533203,-0.805664,0.0478516,0
37800,0.565918,-0.808594,0.0537109,0
37820,0.564941,-0.790039,0.0581055,0
37840,0.542969,-0.785645,0.050293,0
37860,0.55127,-0.791504,0.043457,0
37880,0.564941,-0.79834,0.0595703,0
37900,0.575195,-0.791016,0.0678711,0
37920,0.564453,-0.785645,0.0522461,0
37940,0.566406,-0.786621,0.0371094,0
37960,0.57373,-0.784668,0.0585938,0
37980,0.588379,-0.784668,0.0664062,0
37990,0.57959,-0.786133,0.0585938,0
38010,0.57959,-0.777832,0.0429688,0
38030,0.582031,-0.779297,0.0742188,0
38050,0.589355,-0.775879,0.0693359,0
38070,0.59082,-0.776855,0.0522461,0
38090,0.581543,-0.787598,0.0351562,0
38110,0.57666,-0.772461,0.0532227,0
38130,0.574707,-0.786133,0.0517578,0
38150,0.592773,-0.786133,0.0517578,0
38170,0.59375,-0.773926,0.0527344,0
38190,0.580566,-0.774414,0.059082,0
38210,0.59082,-0.775879,0.0625,0
38230,0.589844,-0.778809,0.0561523,0
38250,0.587891,-0.774902,0.0541992,0
38270,0.601074,-0.765137,0.0673828,0
38290,0.621094,-0.763672,0.0571289,0
38310,0.62207,-0.768066,0.0639648,0
38330,0.611328,-0.774902,0.0576172,0
38350,0.591797,-0.770996,0.0620117,0
38370,0.62207,-0.773438,0.0625,0
38390,0.630371,-0.757324,0.0654297,0
38410,0.604492,-0.751953,0.0478516,0
38430,0.613281,-0.743164,0.0595703,0
38450,0.625,-0.749023,0.0551758,0
38470,0.61084,-0.751953,0.0600586,0
38490,0.60498,-0.739746,0.0546875,0
38510,0.61377,-0.732422,0.0541992,0
38530,0.629395,-0.726562,0.0454102,0
38550,0.630371,-0.735352,0.059082,0
38570,0.621582,-0.734375,0.0620117,0
38590,0.62207,-0.729004,0.0473633,0
38610,0.624023,-0.727051,0.0458984,0
38630,0.628418,-0.722168,0.0654297,0
38650,0.632812,-0.712402,0.0537109,0
38670,0.634766,-0.711914,0.0454102,0
38690,0.651367,-0.721191,0.0454102,0
38710,0.642578,-0.737305,0.0639648,0
38730,0.628906,-0.731445,0.0761719,0
38750,0.633789,-0.725586,0.0605469,0
38770,0.641602,-0.719238,0.059082,0
38790,0.637695,-0.733887,0.0727539,0
38810,0.633301,-0.742188,0.0830078,0
38830,0.635254,-0.75,0.0722656,0
38850,0.656738,-0.736816,0.0737305,0
38870,0.661133,-0.737305,0.0820312,0
38890,0.635742,-0.723145,0.0717773,0
38910,0.645508,-0.73877,0.0766602,0
38930,0.665527,-0.741699,0.0922852,0
38950,0.657227,-0.73291,0.0810547,0
38970,0.650879,-0.717773,0.0791016,0
38990,0.64502,-0.716797,0.0698242,0
39010,0.658691,-0.726074,0.0805664,0
39030,0.655273,-0.716797,0.0834961,0
39050,0.657227,-0.703613,0.0737305,0
39070,0.659668,-0.693359,0.0712891,0
39090,0.663086,-0.694336,0.0820312,0
39110,0.662598,-0.692383,0.0961914,0
39130,0.654297,-0.683594,0.0834961,0
39150,0.644531,-0.680664,0.102539,0
39170,0.648438,-0.686523,0.0966797,0
39190,0.64209,-0.677246,0.116699,0
39210,0.653809,-0.678223,0.125977,0
39230,0.665527,-0.672852,0.124023,0
39250,0.669922,-0.678711,0.109375,0
39270,0.675293,-0.67334,0.129395,0
39290,0.666016,-0.677734,0.115723,0
39310,0.665527,-0.683105,0.125977,0
39330,0.668945,-0.688965,0.125977,0
39350,0.688477,-0.692383,0.132812,0
39370,0.677734,-0.689453,0.136719,0
39390,0.662109,-0.688477,0.128418,0
39410,0.671387,-0.70166,0.130371,0
39430,0.681641,-0.701172,0.143555,0
39450,0.66748,-0.692871,0.145508,0
39470,0.66748,-0.6875,0.135742,0
39490,0.665039,-0.688965,0.131348,0
39510,0.662109,-0.694824,0.14209,0
39530,0.663574,-0.686523,0.140625,0
39550,0.657715,-0.679199,0.156738,0
39570,0.663574,-0.677246,0.162109,0
39590,0.661621,-0.687012,0.144043,0
39610,0.65625,-0.690918,0.150391,0
39630,0.65332,-0.686523,0.157227,0
39650,0.661621,-0.680176,0.156738,0
39670,0.67041,-0.670898,0.168457,0
39690,0.666992,-0.677734,0.160645,0
39710,0.671875,-0.678711,0.161133,0
39730,0.655273,-0.676758,0.165039,0
39750,0.657715,-0.68457,0.175293,0
39770,0.673828,-0.674316,0.180176,0
39790,0.662598,-0.681641,0.173828,0
39810,0.667969,-0.671387,0.166504,0
39830,0.663574,-0.680664,0.171387,0
39850,0.65918,-0.680176,0.19043,0
39870,0.639648,-0.681152,0.177246,0
39890,0.640625,-0.677246,0.177246,0
39910,0.647949,-0.679199,0.188477,0
39930,0.651367,-0.686523,0.189941,0
39950,0.633301,-0.688477,0.176758,0
39970,0.617676,-0.688477,0.193848,0
39990,0.62207,-0.694336,0.189941,0
40010,0.643555,-0.695312,0.195801,0
40030,0.63623,-0.699707,0.195801,0
40050,0.626465,-0.683594,0.202148,0
40070,0.633789,-0.689941,0.20459,0
40090,0.625977,-0.692871,0.199219,0
40110,0.632812,-0.684082,0.194336,0
40130,0.630371,-0.6875,0.20459,0
40150,0.616699,-0.684082,0.208984,0
40170,0.627441,-0.690918,0.20166,0
40190,0.636719,-0.692871,0.194336,0
40210,0.639648,-0.695312,0.221191,0
40230,0.621582,-0.694336,0.20752,0
40250,0.601074,-0.696777,0.192383,0
40270,0.603516,-0.692383,0.209961,0
40290,0.616211,-0.69873,0.215332,0
40310,0.616699,-0.697266,0.196289,0
40330,0.610352,-0.699707,0.216797,0
40350,0.60791,-0.698242,0.198242,0
40370,0.616699,-0.703613,0.207031,0
40390,0.632812,-0.700195,0.216309,0
40410,0.636719,-0.69873,0.218262,0
40430,0.622559,-0.713379,0.209473,0
40450,0.623047,-0.712891,0.212402,0
40470,0.617188,-0.708984,0.226074,0
40490,0.618164,-0.709473,0.216309,0
40510,0.617188,-0.69043,0.207031,0
40530,0.609863,-0.692383,0.223145,0
40550,0.608887,-0.698242,0.231445,0
40570,0.612305,-0.706055,0.227539,0
40590,0.617676,-0.708984,0.214844,0
40600,0.615234,-0.696289,0.22168,0
40620,0.616699,-0.693848,0.234863,0
40640,0.616211,-0.69043,0.228027,0
40660,0.612793,-0.688965,0.230957,0
40680,0.607422,-0.684082,0.239746,0
40700,0.609375,-0.69043,0.241211,0
40720,0.616699,-0.700684,0.239746,0
40740,0.622559,-0.701172,0.240234,0
40760,0.624512,-0.691895,0.237793,0
40780,0.620117,-0.686523,0.242188,0
40800,0.623535,-0.685547,0.25293,0
40820,0.62793,-0.696777,0.24707,0
40840,0.621582,-0.694336,0.244141,0
40860,0.615234,-0.694824,0.242676,0
40880,0.621094,-0.695312,0.243164,0
40900,0.620605,-0.686035,0.239746,0
40920,0.618164,-0.689941,0.240723,0
40940,0.61084,-0.688965,0.240723,0
40960,0.608398,-0.68457,0.248047,0
40980,0.605957,-0.686523,0.245605,0
41000,0.592773,-0.686035,0.243164,0
41020,0.585449,-0.690918,0.246582,0
41040,0.578125,-0.687012,0.244141,0
41060,0.59375,-0.689453,0.23877,0
41080,0.593262,-0.682617,0.247559,0
41100,0.588379,-0.694824,0.249023,0
41120,0.592773,-0.70459,0.241211,0
41140,0.602051,-0.714355,0.231445,0
41160,0.598145,-0.710938,0.233398,0
41180,0.60498,-0.704102,0.228516,0
41200,0.613281,-0.705566,0.237305,0
41220,0.608887,-0.699707,0.237305,0
41240,0.603027,-0.713379,0.236328,0
41260,0.602539,-0.711426,0.249023,0
41280,0.611328,-0.716797,0.248047,0
41300,0.604004,-0.700195,0.247559,0
41320,0.597168,-0.699219,0.245117,0
41340,0.600098,-0.694824,0.243164,0
41360,0.593262,-0.703613,0.244629,0
41380,0.601562,-0.701172,0.233887,0
41400,0.601074,-0.696777,0.243652,0
41420,0.597168,-0.694336,0.246094,0
41440,0.59668,-0.706055,0.241211,0
41460,0.603516,-0.703613,0.247559,0
41480,0.600586,-0.702637,0.237793,0
41500,0.59375,-0.698242,0.234863,0
41520,0.598145,-0.697754,0.244141,0
41540,0.601562,-0.694824,0.246094,0
41560,0.608398,-0.691406,0.240234,0
41580,0.614746,-0.698242,0.241699,0
41600,0.602539,-0.695312,0.250977,0
41620,0.606445,-0.695801,0.236328,0
41640,0.610352,-0.692383,0.241211,0
41660,0.608887,-0.694824,0.254883,0
41680,0.606445,-0.697266,0.249023,0
41700,0.605957,-0.705566,0.241211,0
41720,0.601074,-0.696289,0.244629,0
41740,0.604004,-0.699707,0.238281,0
41760,0.602051,-0.700195,0.240234,0
41780,0.59668,-0.700195,0.246094,0
41800,0.595215,-0.696289,0.25293,0
41820,0.59375,-0.705078,0.242188,0
41840,0.600098,-0.696289,0.237793,0
41860,0.597168,-0.712891,0.240723,0
41880,0.600098,-0.702148,0.237305,0
41900,0.603516,-0.702637,0.239258,0
41920,0.600098,-0.695312,0.239258,0
41940,0.605957,-0.703613,0.243164,0
41960,0.600098,-0.706543,0.23877,0
41980,0.598145,-0.705566,0.241211,0
42000,0.597168,-0.705566,0.233887,0
42020,0.598633,-0.701172,0.236816,0
42040,0.603027,-0.706055,0.246582,0
42060,0.599121,-0.708496,0.23877,0
42080,0.597656,-0.703125,0.238281,0
42100,0.593262,-0.702148,0.246094,0
42120,0.597656,-0.700684,0.255859,0
42140,0.602051,-0.708496,0.248535,0
42160,0.602539,-0.709961,0.243164,0
42180,0.603516,-0.702148,0.244629,0
42200,0.600098,-0.694336,0.240723,0
42220,0.601562,-0.693359,0.244629,0
42240,0.602051,-0.696289,0.242676,0
42260,0.600586,-0.702148,0.241211,0
42280,0.588379,-0.711426,0.243164,0
42300,0.597168,-0.697266,0.231445,0
42320,0.594727,-0.699707,0.242676,0
42340,0.593262,-0.697266,0.247559,0
42360,0.59668,-0.70166,0.23291,0
42380,0.602539,-0.69873,0.236816,0
42400,0.593262,-0.713867,0.236816,0
42420,0.597656,-0.70752,0.23584,0
42440,0.604492,-0.712891,0.230957,0
42460,0.60498,-0.707031,0.247559,0
42480,0.59668,-0.713379,0.24707,0
42500,0.602051,-0.706055,0.237305,0
42520,0.596191,-0.700684,0.245117,0
42540,0.592285,-0.695801,0.248535,0
42560,0.592773,-0.698242,0.249023,0
42580,0.595703,-0.699219,0.246094,0
42600,0.595215,-0.705078,0.241211,0
42620,0.59668,-0.705078,0.247559,0
42640,0.595703,-0.708984,0.237793,0
42660,0.603516,-0.708984,0.240723,0
42680,0.605957,-0.708984,0.245117,0
42700,0.606445,-0.711914,0.241699,0
42720,0.601074,-0.708496,0.243652,0
42740,0.599121,-0.710449,0.242676,0
42760,0.589355,-0.709961,0.240234,0
42780,0.595215,-0.705078,0.245117,0
42800,0.599121,-0.708008,0.245605,0
42820,0.604492,-0.701172,0.241699,0
42840,0.619141,-0.70459,0.245605,0
42860,0.619141,-0.703125,0.246094,0
42880,0.611328,-0.703125,0.245117,0
42900,0.603027,-0.70752,0.240723,0
42920,0.61377,-0.692871,0.247559,0
42940,0.621094,-0.695801,0.245117,0
42960,0.619141,-0.692871,0.23584,0
42980,0.614746,-0.706543,0.240234,0
43000,0.625,-0.711426,0.249512,0
43020,0.62207,-0.71582,0.248535,0
43040,0.621094,-0.69873,0.25293,0
43060,0.623535,-0.701172,0.258789,0
43080,0.626953,-0.694336,0.258789,0
43100,0.630371,-0.692871,0.256348,0
43120,0.623535,-0.697754,0.263184,0
43140,0.607422,-0.697754,0.262695,0
43160,0.609375,-0.702637,0.254395,0
43180,0.596191,-0.712891,0.248535,0
43200,0.583008,-0.710449,0.249512,0
43210,0.573242,-0.713867,0.240723,0
43230,0.561523,-0.722168,0.240723,0
43250,0.54248,-0.721191,0.23584,0
43270,0.543945,-0.73291,0.236816,0
43290,0.551758,-0.731934,0.244629,0
43310,0.54248,-0.740723,0.23291,0
43330,0.534668,-0.740234,0.227051,0
43350,0.533203,-0.750488,0.237305,0
43370,0.541504,-0.744629,0.237305,0
43390,0.54834,-0.754883,0.233398,0
43410,0.530273,-0.745117,0.233398,0
43430,0.507812,-0.741699,0.226074,0
43450,0.508789,-0.74707,0.231934,0
43470,0.51709,-0.743164,0.233887,0
43490,0.516113,-0.731934,0.232422,0
43510,0.523926,-0.744629,0.229004,0
43530,0.541992,-0.752441,0.229492,0
43550,0.552734,-0.763672,0.245117,0
43570,0.571777,-0.756836,0.244141,0
43590,0.587402,-0.744141,0.250488,0
43610,0.607422,-0.742676,0.256836,0
43630,0.613281,-0.745605,0.26416,0
43650,0.61084,-0.748047,0.28125,0
43670,0.587402,-0.734863,0.285645,0
43690,0.582031,-0.71875,0.286621,0
43710,0.583496,-0.720703,0.286133,0
43730,0.577148,-0.730469,0.274902,0
43750,0.556641,-0.73584,0.273438,0
43770,0.527832,-0.752441,0.272949,0
43790,0.524414,-0.756348,0.258301,0
43810,0.540527,-0.758301,0.243652,0
43830,0.534668,-0.750977,0.250977,0
43850,0.536133,-0.753906,0.257324,0
43870,0.538086,-0.763184,0.243652,0
43890,0.538086,-0.773438,0.260254,0
43910,0.544434,-0.767578,0.248535,0
43930,0.541992,-0.761719,0.247559,0
43950,0.542969,-0.749023,0.254883,0
43970,0.554199,-0.753418,0.243164,0
43990,0.54248,-0.759766,0.242188,0
44010,0.521973,-0.766602,0.244629,0
44030,0.510742,-0.77002,0.253418,0
44050,0.513672,-0.765625,0.229004,0
44070,0.510254,-0.773438,0.217773,0
44090,0.499023,-0.780762,0.218262,0
44110,0.481445,-0.789062,0.210449,0
44130,0.48291,-0.790039,0.219727,0
44150,0.493164,-0.774902,0.210938,0
44170,0.495117,-0.778809,0.208984,0
44190,0.496094,-0.789062,0.212891,0
44210,0.491211,-0.780273,0.226562,0
44230,0.493652,-0.795898,0.227539,0
44250,0.486816,-0.806152,0.23584,0
44270,0.483398,-0.823242,0.218262,0
44290,0.490234,-0.807129,0.227051,0
44310,0.46875,-0.80957,0.23291,0
44330,0.450684,-0.802734,0.246094,0
44350,0.461914,-0.8125,0.230469,0
44370,0.467285,-0.818359,0.219238,0
44390,0.445312,-0.832031,0.214355,0
44410,0.438477,-0.835938,0.217285,0
44430,0.454102,-0.848145,0.203613,0
44450,0.463379,-0.836426,0.196777,0
44470,0.437012,-0.84375,0.196777,0
44490,0.431152,-0.845215,0.213867,0
44510,0.445312,-0.858887,0.200195,0
44530,0.465332,-0.857422,0.192871,0
44550,0.463379,-0.848145,0.200195,0
44570,0.44043,-0.855957,0.20752,0
44590,0.431641,-0.844238,0.19873,0
44610,0.435059,-0.837891,0.20752,0
44630,0.450684,-0.833984,0.20459,0
44650,0.442383,-0.828613,0.195312,0
44670,0.408691,-0.845703,0.194824,0
44690,0.423828,-0.84375,0.193848,0
44710,0.442871,-0.827637,0.183105,0
44730,0.438477,-0.81543,0.181641,0
44750,0.401367,-0.820312,0.17627,0
44770,0.384766,-0.842773,0.171387,0
44790,0.397461,-0.864746,0.152344,0
44810,0.408203,-0.867188,0.168945,0
44830,0.391602,-0.840332,0.148926,0
44850,0.375488,-0.837402,0.135742,0
44870,0.379395,-0.844238,0.136719,0
44890,0.389648,-0.858398,0.128418,0
44910,0.385742,-0.85498,0.109375,0
44930,0.391113,-0.856934,0.12207,0
44950,0.381348,-0.849609,0.114746,0
44970,0.40625,-0.861816,0.113281,0
44990,0.410156,-0.873535,0.112305,0
45010,0.38916,-0.888184,0.11084,0
45030,0.398438,-0.867676,0.11377,0
45050,0.425293,-0.875,0.120117,0
45070,0.428711,-0.874512,0.132812,0
45090,0.387695,-0.882812,0.112305,0
45110,0.380859,-0.878906,0.127441,0
45130,0.416992,-0.885742,0.123047,0
45150,0.443848,-0.893066,0.126465,0
45170,0.402832,-0.890137,0.103516,0
45190,0.376465,-0.891602,0.10791,0
45210,0.401367,-0.899902,0.113281,0
45230,0.434082,-0.885254,0.10791,0
45250,0.42627,-0.905273,0.106934,0
45270,0.416016,-0.900879,0.0957031,0
45290,0.40625,-0.909668,0.105469,0
45310,0.40918,-0.904297,0.102051,0
45330,0.428223,-0.895996,0.114746,0
45350,0.399414,-0.882324,0.0991211,0
45370,0.364746,-0.880859,0.0888672,0
45390,0.363281,-0.879883,0.0830078,0
45410,0.374512,-0.890625,0.0727539,0
45430,0.377441,-0.896973,0.0664062,0
45450,0.371094,-0.876465,0.0556641,0
45470,0.342773,-0.858398,0.046875,0
45490,0.352051,-0.855469,0.046875,0
45510,0.410156,-0.875,0.0322266,0
45530,0.460449,-0.883789,0.0527344,0
45550,0.45459,-0.878418,0.0390625,0
45570,0.436035,-0.867188,0.0424805,0
45590,0.427246,-0.85791,0.0541992,0
45610,0.44873,-0.867188,0.0454102,0
45630,0.47998,-0.870117,0.0385742,0
45650,0.490234,-0.864258,0.0371094,0
45670,0.466309,-0.845703,0.0444336,0
45690,0.449707,-0.827148,0.0478516,0
45710,0.470703,-0.845703,0.0527344,0
45730,0.494141,-0.846191,0.0400391,0
45750,0.499023,-0.854492,0.0268555,0
45770,0.471191,-0.862305,0.0200195,0
45790,0.467285,-0.862793,0.0307617,0
45810,0.503418,-0.872559,0.0380859,0
45820,0.511719,-0.864258,0.0283203,0
45840,0.494141,-0.850098,0.0297852,0
45860,0.483398,-0.858398,0.0200195,0
45880,0.486328,-0.867676,0.00683594,0
45900,0.48877,-0.875977,0.00878906,0
45920,0.475098,-0.877441,-0.00292969,0
45940,0.46875,-0.876465,-0.00488281,0
45960,0.460449,-0.863281,-0.0102539,0
45980,0.442871,-0.860352,-0.00732422,0
46000,0.457031,-0.870117,-0.00732422,0
46020,0.495605,-0.870117,-0.00976562,0
46040,0.509766,-0.864746,-0.0214844,0
46060,0.479492,-0.847656,-0.0253906,0
46080,0.469238,-0.858398,-0.00292969,0
46100,0.510254,-0.867188,-0.0170898,0
46120,0.541016,-0.86377,-0.0253906,0
46140,0.53125,-0.828125,-0.0273438,0
46160,0.530273,-0.834961,-0.0102539,0
46180,0.549316,-0.834473,-0.00830078,0
46200,0.553223,-0.829102,-0.015625,0
46220,0.540039,-0.828125,-0.0146484,0
46240,0.542969,-0.821289,-0.012207,0
46260,0.563965,-0.814941,-0.0292969,0
46280,0.562988,-0.810547,-0.0200195,0
46300,0.555176,-0.814453,-0.0239258,0
46320,0.543457,-0.807129,-0.0239258,0
46340,0.552734,-0.804688,-0.0332031,0
46360,0.552246,-0.795898,-0.0327148,0
46380,0.54248,-0.789062,-0.0371094,0
46400,0.551758,-0.80127,-0.0444336,0
46420,0.557129,-0.799805,-0.0322266,0
46440,0.561523,-0.787598,-0.0288086,0
46460,0.572266,-0.776855,-0.019043,0
46480,0.590332,-0.773926,-0.0356445,0
46500,0.581543,-0.76709,-0.0395508,0
46520,0.587402,-0.763672,-0.0302734,0
46540,0.616211,-0.769531,-0.0195312,0
46560,0.624512,-0.76416,-0.0234375,0
46580,0.602539,-0.765625,-0.0288086,0
46600,0.623047,-0.759766,-0.0351562,0
46620,0.650879,-0.772949,-0.0229492,0
46640,0.65332,-0.753906,-0.0170898,0
46660,0.625488,-0.741211,-0.0151367,0
46680,0.628906,-0.734375,-0.0141602,0
46700,0.644531,-0.74707,-0.0258789,0
46720,0.661133,-0.748047,-0.0175781,0
46740,0.653809,-0.74707,-0.00878906,0
46760,0.634766,-0.732422,-0.0141602,0
46780,0.645508,-0.729004,-0.00927734,0
46800,0.643555,-0.718262,-0.0146484,0
46820,0.662598,-0.726074,-0.0258789,0
46840,0.671387,-0.718262,-0.0166016,0
46860,0.667969,-0.719727,-0.000488281,0
46880,0.680176,-0.727051,-0.0131836,0
46900,0.668457,-0.717773,0.00195312,0
46920,0.661621,-0.711914,-0.0297852,0
46940,0.694336,-0.699707,-0.0185547,0
46960,0.705566,-0.691406,0.00634766,0
46980,0.69043,-0.69873,0.00830078,0
47000,0.677734,-0.700195,-0.00195312,0
47020,0.681641,-0.682617,-0.0136719,0
47040,0.712402,-0.679688,0.00830078,0
47060,0.724609,-0.664551,0.00390625,0
47080,0.710938,-0.675781,-0.00585938,0
47100,0.692871,-0.675293,-0.00878906,0
47120,0.719727,-0.680176,0.0078125,0
47140,0.743652,-0.658691,0.0209961,0
47160,0.730469,-0.647461,0.00927734,0
47180,0.712891,-0.650391,0.0107422,0
47200,0.705566,-0.665039,0.0195312,0
47220,0.719727,-0.660156,0.0229492,0
47240,0.723145,-0.654297,0.012207,0
47260,0.722656,-0.647461,0.0141602,0
47280,0.70752,-0.652832,0.0146484,0
47300,0.717285,-0.651855,0.0151367,0
47320,0.715332,-0.644043,0.0214844,0
47340,0.717285,-0.627441,0.0224609,0
47360,0.710449,-0.633301,0.015625,0
47380,0.72168,-0.639648,0.0327148,0
47400,0.737305,-0.636719,0.0380859,0
47420,0.737305,-0.631348,0.0209961,0
47440,0.73291,-0.628418,0.0175781,0
47460,0.737793,-0.633789,0.0292969,0
47480,0.75,-0.632812,0.0410156,0
47500,0.745117,-0.632812,0.0292969,0
47520,0.748047,-0.626465,0.0195312,0
47540,0.745605,-0.634277,0.034668,0
47560,0.744629,-0.628906,0.0439453,0
47580,0.74707,-0.623047,0.0410156,0
47600,0.759277,-0.617188,0.0253906,0
47620,0.760254,-0.604492,0.0488281,0
47640,0.749512,-0.609375,0.0595703,0
47660,0.755371,-0.600098,0.0517578,0
47680,0.756836,-0.589844,0.0566406,0
47700,0.759277,-0.593262,0.0585938,0
47720,0.758301,-0.591797,0.0712891,0
47740,0.753906,-0.583984,0.0615234,0
47760,0.770996,-0.580078,0.0571289,0
47780,0.775879,-0.581055,0.0634766,0
47800,0.769531,-0.59375,0.0683594,0
47820,0.754883,-0.594238,0.0717773,0
47840,0.768555,-0.586426,0.0771484,0
47860,0.76123,-0.586914,0.0849609,0
47880,0.754395,-0.574707,0.0878906,0
47900,0.755371,-0.588867,0.0917969,0
47920,0.763672,-0.602051,0.0942383,0
47940,0.770996,-0.598145,0.0844727,0
47960,0.759277,-0.585938,0.105957,0
47980,0.758789,-0.57666,0.108398,0
48000,0.768555,-0.576172,0.102051,0
48020,0.76709,-0.576172,0.11377,0
48040,0.778809,-0.57666,0.10498,0
48060,0.788574,-0.588379,0.114258,0
48080,0.774414,-0.585449,0.114258,0
48100,0.764648,-0.579102,0.116211,0
48120,0.769043,-0.572754,0.125,0
48140,0.774902,-0.57373,0.120605,0
48160,0.755371,-0.567383,0.12793,0
48180,0.752441,-0.567383,0.138184,0
48200,0.756836,-0.574707,0.133301,0
48220,0.760742,-0.570801,0.133301,0
48240,0.757812,-0.568848,0.141113,0
48260,0.76123,-0.558105,0.15332,0
48280,0.76123,-0.556152,0.15332,0
48300,0.76123,-0.564941,0.155273,0
48320,0.758301,-0.564941,0.159668,0
48340,0.73877,-0.575195,0.153809,0
48360,0.73291,-0.566406,0.165527,0
48380,0.738281,-0.566895,0.163574,0
48400,0.745117,-0.57373,0.164551,0
48420,0.749023,-0.576172,0.181152,0
48430,0.736328,-0.584473,0.187012,0
48450,0.734863,-0.584473,0.185547,0
48470,0.741211,-0.580566,0.187988,0
48490,0.741211,-0.567871,0.195801,0
48510,0.740723,-0.57666,0.200195,0
48530,0.741211,-0.583496,0.20166,0
48550,0.738281,-0.589844,0.203125,0
48570,0.730469,-0.596191,0.202148,0
48590,0.733398,-0.583496,0.208984,0
48610,0.726562,-0.577637,0.221191,0
48630,0.728027,-0.583008,0.218262,0
48650,0.73877,-0.596191,0.232422,0
48670,0.730469,-0.590332,0.23584,0
48690,0.72998,-0.587402,0.215332,0
48710,0.728516,-0.583496,0.232422,0
48730,0.733887,-0.603027,0.227051,0
48750,0.734375,-0.587891,0.231934,0
48770,0.733398,-0.594727,0.240234,0
48790,0.727051,-0.603027,0.23291,0
48810,0.72168,-0.607422,0.227051,0
48830,0.724609,-0.620117,0.240234,0
48850,0.717285,-0.620117,0.230957,0
48870,0.702637,-0.619141,0.225586,0
48890,0.6875,-0.62207,0.230957,0
48910,0.687012,-0.627441,0.225098,0
48930,0.680176,-0.642578,0.217773,0
48950,0.666992,-0.645996,0.219238,0
48970,0.661621,-0.651367,0.214355,0
48990,0.669434,-0.652344,0.215332,0
49010,0.657227,-0.65625,0.216797,0
49030,0.636719,-0.662598,0.227051,0
49050,0.64209,-0.651855,0.224609,0
49070,0.642578,-0.646484,0.220215,0
49090,0.628418,-0.651855,0.225586,0
49110,0.627441,-0.672852,0.218262,0
49130,0.632812,-0.677246,0.209961,0
49150,0.631836,-0.674316,0.205566,0
49170,0.609863,-0.677734,0.212402,0
49190,0.60498,-0.694824,0.227051,0
49210,0.59082,-0.693848,0.205566,0
49230,0.606934,-0.712402,0.202637,0
49250,0.594238,-0.69873,0.211426,0
49270,0.588379,-0.695801,0.213379,0
49290,0.593262,-0.705078,0.220215,0
49310,0.586426,-0.719727,0.20459,0
49330,0.595703,-0.730469,0.210938,0
49350,0.600098,-0.720215,0.209473,0
49370,0.602051,-0.723633,0.209473,0
49390,0.59668,-0.730957,0.210938,0
49410,0.59082,-0.734375,0.220215,0
49430,0.595215,-0.753418,0.218262,0
49450,0.60791,-0.736328,0.212402,0
49470,0.615723,-0.737305,0.212402,0
49490,0.602051,-0.71875,0.217773,0
49510,0.586914,-0.726562,0.208984,0
49530,0.591309,-0.734375,0.202148,0
49550,0.598145,-0.738281,0.202148,0
49570,0.60498,-0.716797,0.217773,0
49590,0.591309,-0.707031,0.219727,0
49610,0.591309,-0.712891,0.210449,0
49630,0.596191,-0.733398,0.211426,0
49650,0.601074,-0.737793,0.203613,0
49670,0.580078,-0.728516,0.215332,0
49690,0.589355,-0.720215,0.200684,0
49710,0.588867,-0.720703,0.194824,0
49730,0.570312,-0.736328,0.204102,0
49750,0.565918,-0.746094,0.198242,0
49770,0.570312,-0.740723,0.202637,0
49790,0.571289,-0.73584,0.20166,0
49810,0.575195,-0.739258,0.191895,0
49830,0.578613,-0.757324,0.181641,0
49850,0.567383,-0.760742,0.202637,0
49870,0.57959,-0.760742,0.19873,0
49890,0.563965,-0.769043,0.18457,0
49910,0.541992,-0.753418,0.17334,0
49920,0.541504,-0.754883,0.186523,0
49940,0.54248,-0.782227,0.210938,0
49960,0.557617,-0.785156,0.165527,0
49980,0.5625,-0.774902,0.144043,0
50000,0.536621,-0.776855,0.144531,0
50020,0.535156,-0.786133,0.141113,0
50040,0.539551,-0.778809,0.13916,0
50060,0.541992,-0.768555,0.148438,0
50080,0.52002,-0.769531,0.144531,0
50100,0.526855,-0.757812,0.150391,0
50120,0.538086,-0.769531,0.130859,0
50140,0.536621,-0.782227,0.125977,0
50160,0.544922,-0.791992,0.112305,0
50180,0.54541,-0.776855,0.112305,0
50200,0.547363,-0.778809,0.112305,0
50220,0.554199,-0.779785,0.11084,0
50240,0.547852,-0.793457,0.101562,0
50260,0.540527,-0.806641,0.09375,0
50280,0.560547,-0.806641,0.101562,0
50300,0.560547,-0.810059,0.117188,0
50320,0.536621,-0.808594,0.116211,0
50340,0.539551,-0.822266,0.101074,0
50360,0.557617,-0.822266,0.104004,0
50380,0.539062,-0.82373,0.104492,0
50400,0.524902,-0.811035,0.0932617,0
50420,0.531738,-0.80957,0.0927734,0
50440,0.536133,-0.807129,0.0874023,0
50460,0.522949,-0.800781,0.0839844,0
50480,0.497559,-0.799316,0.0869141,0
50500,0.503418,-0.805664,0.0742188,0
50520,0.517578,-0.797852,0.0556641,0
50540,0.503906,-0.804688,0.0302734,0
50560,0.515137,-0.804199,0.0332031,0
50580,0.528809,-0.813477,0.0615234,0
50600,0.530762,-0.817383,0.101074,0
50620,0.516113,-0.821289,0.0795898,0
50640,0.54248,-0.82666,0.0703125,0
50660,0.552734,-0.834473,0.0727539,0
50680,0.536133,-0.830566,0.0644531,0
50700,0.523438,-0.830566,0.0532227,0
50720,0.53418,-0.827148,0.0268555,0
50740,0.542969,-0.83252,0.0585938,0
50760,0.526367,-0.825684,0.0488281,0
50780,0.508789,-0.820312,0.0317383,0
50800,0.522461,-0.827637,0.0317383,0
50820,0.533203,-0.818359,0.0458984,0
50840,0.529297,-0.819824,0.0654297,0
50860,0.523438,-0.806641,0.0356445,0
50880,0.51709,-0.805664,0.00927734,0
50900,0.534668,-0.804199,0.0307617,0
50920,0.563965,-0.785645,0.0498047,0
50940,0.544922,-0.776367,0.00927734,0
50960,0.553711,-0.793945,0.0112305,0
50980,0.572266,-0.801758,0.0693359,0
51000,0.566895,-0.804199,0.0527344,0
51020,0.557617,-0.804688,0.0493164,0
51030,0.540039,-0.810059,0.0395508,0
51050,0.538574,-0.807129,0.0419922,0
51070,0.538574,-0.812012,0.0161133,0
51090,0.534668,-0.809082,0.012207,0
51110,0.535156,-0.820801,0.0332031,0
51130,0.529785,-0.838867,0.0112305,0
51150,0.543457,-0.847656,0.0107422,0
51170,0.558105,-0.844238,0.012207,0
51190,0.54834,-0.825195,0.0141602,0
51210,0.532715,-0.823242,0.0166016,0
51230,0.54248,-0.845703,-0.0146484,0
51250,0.557617,-0.841309,-0.00439453,0
51270,0.527832,-0.837402,-0.0175781,0
51290,0.503906,-0.829102,-0.0131836,0
51310,0.516113,-0.842285,-0.0297852,0
51330,0.524414,-0.834473,-0.0463867,0
51350,0.51416,-0.838867,-0.043457,0
51370,0.507324,-0.832031,-0.059082,0
51390,0.519531,-0.828613,-0.0527344,0
51410,0.51416,-0.834961,-0.0385742,0
51430,0.516113,-0.817871,-0.0439453,0
51450,0.520508,-0.797363,-0.0449219,0
51470,0.530762,-0.797852,-0.0405273,0
51490,0.566406,-0.805664,-0.0541992,0
51510,0.571777,-0.797852,-0.0361328,0
51530,0.561035,-0.791016,-0.0419922,0
51550,0.571777,-0.806641,-0.0732422,0
51570,0.594238,-0.805176,-0.0449219,0
51590,0.593262,-0.787109,-0.050293,0
51610,0.587891,-0.789551,-0.0610352,0
51630,0.605957,-0.768555,-0.0551758,0
51650,0.60498,-0.74707,-0.0473633,0
51670,0.601074,-0.747559,-0.0576172,0
51690,0.611816,-0.766602,-0.0419922,0
51710,0.626953,-0.772949,-0.0629883,0
51730,0.61377,-0.770508,-0.059082,0
51750,0.591309,-0.77832,-0.0444336,0
51770,0.615234,-0.775879,-0.0493164,0
51790,0.644531,-0.771973,-0.0678711,0
51810,0.619141,-0.770508,-0.0605469,0
51830,0.601562,-0.757324,-0.0283203,0
51850,0.619629,-0.775391,-0.0473633,0
51870,0.631348,-0.770508,-0.0551758,0
51890,0.620117,-0.759277,-0.0380859,0
51910,0.625488,-0.745117,-0.0444336,0
51930,0.633301,-0.751465,-0.0546875,0
51950,0.635254,-0.756836,-0.0610352,0
51970,0.624512,-0.751953,-0.0512695,0
51990,0.634766,-0.760254,-0.0478516,0
52010,0.655762,-0.760742,-0.0595703,0
52030,0.671387,-0.754395,-0.065918,0
52050,0.659668,-0.731934,-0.0410156,0
52070,0.640137,-0.725586,-0.0375977,0
52090,0.653809,-0.724609,-0.0629883,0
52110,0.67334,-0.733398,-0.0615234,0
52130,0.673828,-0.723145,-0.0532227,0
52150,0.653809,-0.709961,-0.0615234,0
52170,0.657715,-0.71582,-0.0693359,0
52190,0.674805,-0.718262,-0.0585938,0
52210,0.674805,-0.72168,-0.0576172,0
52230,0.667969,-0.710938,-0.0727539,0
52250,0.67041,-0.699219,-0.0732422,0
52270,0.651855,-0.693848,-0.0649414,0
52290,0.652344,-0.698242,-0.0673828,0
52310,0.663086,-0.70752,-0.0668945,0
52330,0.665039,-0.680664,-0.0629883,0
52350,0.67627,-0.672852,-0.0537109,0
52370,0.68457,-0.683594,-0.046875,0
52390,0.688965,-0.69873,-0.0566406,0
52410,0.694824,-0.700195,-0.0493164,0
52430,0.697754,-0.69043,-0.0478516,0
52450,0.708496,-0.683105,-0.0493164,0
52470,0.713379,-0.685547,-0.0532227,0
52490,0.719727,-0.686523,-0.0532227,0
52510,0.713867,-0.681152,-0.0336914,0
52530,0.702637,-0.677246,-0.043457,0
52550,0.705078,-0.673828,-0.0400391,0
52570,0.712891,-0.676758,-0.0380859,0
52590,0.720703,-0.672852,-0.0380859,0
52610,0.72998,-0.667969,-0.0253906,0
52630,0.726074,-0.661621,-0.027832,0
52650,0.729004,-0.666016,-0.0263672,0
52670,0.73291,-0.651367,-0.0380859,0
52690,0.729004,-0.650391,-0.0214844,0
52710,0.744629,-0.660156,-0.0214844,0
52730,0.748047,-0.657227,-0.0390625,0
52750,0.743164,-0.630371,-0.034668,0
52770,0.751465,-0.627441,-0.0205078,0
52790,0.753418,-0.62207,-0.0185547,0
52810,0.745605,-0.625977,-0.0253906,0
52830,0.754395,-0.621582,-0.019043,0
52850,0.767578,-0.621094,-0.0224609,0
52870,0.754395,-0.608887,0,0
52890,0.75,-0.61084,0.00244141,0
52910,0.756836,-0.612793,-0.0209961,0
52930,0.771484,-0.611328,-0.000976562,0
52950,0.765625,-0.591797,0.00390625,0
52970,0.744141,-0.599609,-0.00634766,0
52990,0.737793,-0.59375,-0.00488281,0
53010,0.761719,-0.605469,-0.000488281,0
53030,0.763184,-0.594238,0.0107422,0
53050,0.76709,-0.590332,-0.000976562,0
53070,0.76123,-0.587402,-0.00341797,0
53090,0.755859,-0.594238,0.00878906,0
53110,0.758301,-0.59082,0.0249023,0
53130,0.776367,-0.599121,0.0180664,0
53150,0.777832,-0.594238,0.00732422,0
53170,0.775879,-0.59082,0.00927734,2001
53190,0.777832,-0.59082,0.0136719,0
53210,0.780762,-0.592773,0.00878906,0
53230,0.776367,-0.59082,0.0141602,0
53250,0.781738,-0.577637,0.0214844,0
53270,0.80127,-0.568848,0.0258789,0
53290,0.794434,-0.568359,0.0234375,0
53310,0.787109,-0.574707,0.0185547,0
53330,0.794922,-0.57373,0.0175781,0
53350,0.800781,-0.581055,0.0214844,0
53370,0.791504,-0.562988,0.00488281,0
53390,0.768066,-0.569336,0,0
53410,0.759277,-0.567871,0.0136719,0
53430,0.774414,-0.57666,0.0170898,0
53450,0.783691,-0.580078,0.00292969,0
53470,0.780273,-0.583496,-0.00195312,0
53490,0.766113,-0.559082,0.0078125,0
53510,0.757812,-0.578613,0.00537109,0
53530,0.76123,-0.577637,0.00195312,0
53550,0.747559,-0.574707,0.0107422,0
53570,0.753906,-0.563965,0.00683594,0
53590,0.76416,-0.569824,0.0107422,0
53610,0.763672,-0.581543,0.00292969,0
53620,0.768555,-0.606934,-0.0185547,0
53640,0.760254,-0.608887,0.00244141,0
53660,0.759277,-0.61084,0.00976562,0
53680,0.742676,-0.600098,0.0229492,0
53700,0.729004,-0.607422,0.0244141,0
53720,0.740234,-0.615723,0.0224609,0
53740,0.740723,-0.612793,0.0356445,0
53760,0.733887,-0.596191,0.0722656,0
53780,0.734375,-0.594727,0.0361328,0
53800,0.737305,-0.606934,0.0214844,0
53820,0.740234,-0.609863,0.0288086,0
53840,0.736816,-0.606934,0.0234375,0
53860,0.758301,-0.608398,0.0253906,0
53880,0.742188,-0.618164,0.0239258,0
53900,0.728516,-0.616211,0.0332031,0
53920,0.71875,-0.612793,0.0419922,0
53940,0.740234,-0.648926,0.0327148,0
53960,0.748535,-0.663574,0.0136719,0
53980,0.72998,-0.661621,0.0249023,0
54000,0.708008,-0.667969,0.0415039,0
54020,0.706543,-0.681641,0.00878906,0
54040,0.709473,-0.666504,0.0410156,0
54060,0.714355,-0.647949,0.0800781,0
54080,0.698242,-0.644043,0.0454102,0
54100,0.682617,-0.638672,0.0356445,0
54120,0.631348,-0.652344,0.0419922,0
54140,0.605469,-0.637207,0.0253906,0
54160,0.586426,-0.614258,0.0214844,0
54180,0.555176,-0.616699,0.0380859,0
54200,0.539062,-0.604004,0.0566406,0
54220,0.539551,-0.628418,0.0307617,0
54240,0.601562,-0.641113,0.0297852,0
54260,0.63623,-0.638672,0.107422,0
54280,0.642578,-0.618652,0.106445,0
54300,0.695801,-0.633789,0.0244141,0
54320,0.741211,-0.646973,0.0722656,0
54340,0.736816,-0.647949,0.154785,0
54360,0.750488,-0.614746,0.170898,0
54380,0.754883,-0.630371,0.149902,0
54400,0.775391,-0.629883,0.0893555,0
54420,0.808594,-0.629883,0.132324,0
54440,0.802734,-0.662109,0.198242,0
54460,0.848633,-0.657715,0.186035,0
54480,0.764648,-0.607422,0.171387,0
54500,0.758789,-0.571777,0.190918,0
54520,0.737305,-0.555176,0.260742,0
54540,0.68457,-0.61084,0.284668,0
54560,0.69873,-0.701172,0.210938,0
54580,0.72998,-0.754883,0.228027,0
54600,0.65332,-0.786133,0.287109,0
54620,0.605469,-0.776367,0.27002,0
54640,0.591797,-0.791504,0.230469,0
54660,0.565918,-0.84375,0.200684,0
54680,0.550781,-0.868164,0.197266,0
54700,0.516602,-0.872559,0.239746,0
54720,0.477539,-0.866699,0.230957,0
54740,0.453125,-0.898926,0.202148,0
54760,0.419434,-0.931641,0.189941,0
54780,0.397949,-0.933105,0.187012,0
54800,0.39502,-0.926758,0.170898,0
54820,0.376953,-0.908691,0.163574,0
54840,0.386719,-0.915039,0.160156,0
54860,0.393066,-0.893066,0.178711,0
54880,0.404297,-0.90918,0.166504,0
54900,0.390137,-0.900391,0.15918,0
54920,0.362793,-0.933594,0.141602,0
54940,0.356445,-0.922852,0.147949,0
54960,0.364258,-0.922363,0.163086,0
54980,0.389648,-0.921875,0.158691,0
55000,0.374023,-0.89209,0.177734,0
55020,0.364746,-0.858887,0.17627,0
55040,0.363281,-0.854004,0.178711,0
55060,0.379883,-0.857422,0.183594,0
55080,0.363281,-0.887695,0.186523,0
55100,0.36377,-0.89502,0.191406,0
55120,0.37793,-0.901367,0.191895,0
55140,0.392578,-0.889648,0.191406,0
55160,0.369629,-0.87793,0.197266,0
55180,0.335938,-0.873535,0.199707,0
55200,0.350586,-0.877441,0.182129,0
55220,0.39209,-0.883789,0.181152,0
55240,0.405762,-0.882812,0.185547,0
55260,0.407227,-0.866211,0.200684,0
55280,0.389648,-0.861816,0.206543,0
55300,0.399902,-0.876953,0.18457,0
55310,0.398438,-0.893555,0.188477,0
55310,0.39502,-0.896973,0.185059,0
55330,0.394531,-0.879883,0.177734,0
55350,0.387207,-0.875488,0.181152,0
55350,0.362305,-0.875,0.179199,0
55370,0.369629,-0.882324,0.188477,0
55370,0.359375,-0.87793,0.18457,0
55390,0.352051,-0.884766,0.17334,0
55410,0.334961,-0.879395,0.185547,0
55410,0.339844,-0.883789,0.206543,0
55430,0.353516,-0.865234,0.183594,0
55450,0.356445,-0.885254,0.169922,0
55470,0.340332,-0.881348,0.177734,0
55470,0.345215,-0.878418,0.183594,0
55490,0.350098,-0.880859,0.168945,0
55510,0.358398,-0.894043,0.166504,0
55530,0.348145,-0.891602,0.175293,0
55540,0.36377,-0.890625,0.17627,0
55550,0.382812,-0.882812,0.176758,0
55570,0.369629,-0.883301,0.164551,0
55590,0.339844,-0.890625,0.181641,0
55610,0.333496,-0.879883,0.174805,0
55610,0.353516,-0.88916,0.160156,0
55630,0.351562,-0.886719,0.176758,0
55650,0.356445,-0.88623,0.187012,0
55670,0.358887,-0.88916,0.171387,0
55670,0.34375,-0.901367,0.181152,0
55690,0.333984,-0.915039,0.160156,0
55710,0.335938,-0.911133,0.157227,0
55730,0.342285,-0.896484,0.17041,0
55730,0.320801,-0.904297,0.16748,0
55750,0.310059,-0.910645,0.158691,0
55770,0.313965,-0.908203,0.177734,0
55790,0.337891,-0.90332,0.165039,0
55790,0.317871,-0.911621,0.15918,0
55810,0.271973,-0.899414,0.179199,0
55830,0.278809,-0.933105,0.175293,0
55850,0.311035,-0.916504,0.177246,0
55870,0.285156,-0.899414,0.169434,0
55870,0.268066,-0.895508,0.171387,0
55890,0.281738,-0.903809,0.194336,0
55910,0.331055,-0.916016,0.17041,0
55910,0.353516,-0.939453,0.159668,0
55930,0.345703,-0.921875,0.180176,0
55950,0.347168,-0.915039,0.177734,0
55970,0.370117,-0.909668,0.160156,0
55980,0.348633,-0.914062,0.171875,0
55990,0.343262,-0.904297,0.161133,0
56010,0.328613,-0.932129,0.181152,0
56030,0.324707,-0.885742,0.179199,0
56050,0.331543,-0.893555,0.180176,0
56050,0.333008,-0.859863,0.164062,0
56070,0.304199,-0.875,0.172852,0
56090,0.314941,-0.882812,0.203613,0
56110,0.339844,-0.882812,0.185547,0
56130,0.366211,-0.884766,0.171875,0
56130,0.362793,-0.883301,0.175293,0
56150,0.366699,-0.875488,0.167969,0
56170,0.369141,-0.864258,0.182617,0
56180,0.376465,-0.875,0.168457,0
56190,0.379395,-0.875488,0.171875,0
56210,0.391602,-0.877441,0.182617,0
56230,0.410645,-0.873047,0.167969,0
56250,0.400391,-0.875,0.168945,0
56250,0.382324,-0.880859,0.171387,0
56310,0.380371,-0.885742,0.167969,0
56320,0.394531,-0.868652,0.171875,0
56380,0.38623,-0.86377,0.17041,0
56420,0.390625,-0.867188,0.147461,0
56470,0.376953,-0.864746,0.154297,0
56500,0.376465,-0.882812,0.169434,0
56590,0.397949,-0.858887,0.138672,0
56630,0.380371,-0.857422,0.141113,0
56650,0.374512,-0.87793,0.149414,0
56670,0.371582,-0.890625,0.171387,0
56690,0.408691,-0.889648,0.150879,0
56710,0.409668,-0.876465,0.146973,0
56730,0.379395,-0.873535,0.148438,0
56750,0.376953,-0.876953,0.144043,0
56770,0.396973,-0.889648,0.145508,0
56790,0.405273,-0.890625,0.15332,0
56810,0.378418,-0.879395,0.146973,0
56830,0.388672,-0.878906,0.155762,0
56850,0.425293,-0.878906,0.150391,0
56870,0.46582,-0.87207,0.161133,0
56890,0.459473,-0.860352,0.135742,0
56900,0.443359,-0.873047,0.139648,0
56920,0.428711,-0.877441,0.143066,0
56940,0.440918,-0.876465,0.158203,0
56960,0.446777,-0.85498,0.14209,0
56980,0.426758,-0.860352,0.139648,0
57000,0.437012,-0.839355,0.141113,0
57020,0.464355,-0.829102,0.143555,0
57040,0.461426,-0.833496,0.144531,0
57060,0.409668,-0.853516,0.134766,0
57080,0.385742,-0.882324,0.134277,0
57100,0.393066,-0.873047,0.13916,0
57120,0.408691,-0.860352,0.163086,0
57140,0.424316,-0.842773,0.154785,0
57160,0.414062,-0.84082,0.158691,0
57180,0.421875,-0.857422,0.150879,0
57200,0.42334,-0.869629,0.140137,0
57220,0.414062,-0.884766,0.164062,0
57240,0.413086,-0.884766,0.147461,0
57260,0.428223,-0.879883,0.147949,0
57280,0.43457,-0.881836,0.150391,0
57300,0.419434,-0.888672,0.166992,0
57320,0.38916,-0.860352,0.148926,0
57340,0.374512,-0.852539,0.153809,0
57360,0.365723,-0.854492,0.167969,0
57400,0.362793,-0.866699,0.154785,0
57420,0.367188,-0.870117,0.166504,0
57440,0.362305,-0.862305,0.191406,0
57460,0.367676,-0.870605,0.190918,0
57480,0.344727,-0.868652,0.15332,0
57480,0.332031,-0.859863,0.185547,0
57500,0.337402,-0.878906,0.210449,0
57520,0.32666,-0.878906,0.241211,0
57540,0.380859,-0.887207,0.112305,0
57560,0.319824,-0.894531,0.327148,0
57580,0.227051,-0.891602,0.161621,0
57580,0.305176,-0.943359,0.22168,0
57600,0.306152,-0.943359,0.20459,0
57620,0.292969,-0.914551,0.213867,0
57640,0.297363,-0.893066,0.236816,0
57640,0.319336,-0.895996,0.229492,0
57660,0.328613,-0.916016,0.224121,0
57680,0.324219,-0.925781,0.212891,0
57700,0.333496,-0.961914,0.212402,0
57760,0.338379,-0.956543,0.223145,0
57780,0.371094,-0.931641,0.192871,0
57800,0.36377,-0.879395,0.208008,0
57800,0.356934,-0.891602,0.240234,0
57820,0.345703,-0.904785,0.186523,0
57840,0.330078,-0.877441,0.20459,0
57840,0.324219,-0.856934,0.229492,0
57920,0.349609,-0.834961,0.224609,0
57940,0.325195,-0.844238,0.233887,0
57940,0.333008,-0.864258,0.216309,0
57960,0.329102,-0.878418,0.220215,0
57980,0.391113,-0.906738,0.197266,0
58000,0.189941,-0.850586,0.0512695,0
58020,0.327148,-0.787598,-0.128418,0
58040,0.0839844,-1.00928,0.503906,0
58060,0.600586,-0.86377,0.20166,0
58100,1.04346,-0.770996,-0.0644531,0
58120,1.02734,-0.747559,-0.123047,0
58140,0.960938,-0.753906,-0.129395,0
58160,0.508789,-0.917969,0.223145,0
58180,0.312988,-0.888184,0.182617,0
58200,0.293457,-0.932617,0.155762,0
58220,0.298828,-0.920898,0.157715,0
58240,0.282715,-0.908203,0.175781,0
58260,0.277832,-0.897949,0.179199,0
58280,0.298828,-0.906738,0.155762,0
58300,0.310547,-0.90625,0.169434,0
58320,0.283203,-0.899902,0.172852,0
58340,0.290527,-0.899902,0.158691,0
58360,0.30127,-0.907715,0.16748,0
58380,0.304688,-0.899902,0.171387,0
58380,0.300781,-0.911621,0.164062,0
58400,0.313477,-0.917969,0.154297,0
58400,0.330078,-0.937012,0.17041,0
58420,0.310059,-0.911133,0.175781,0
58420,0.32959,-0.896973,0.184082,0
58440,0.341309,-0.913574,0.154297,0
58460,0.306152,-0.913086,0.171387,0
58460,0.311523,-0.912109,0.181152,0
58480,0.345703,-0.912109,0.158691,0
58500,0.316895,-0.919922,0.163086,0
58520,0.282715,-0.919922,0.171875,0
58520,0.28418,-0.898438,0.168945,0
58540,0.311523,-0.916992,0.181152,0
58560,0.306641,-0.917969,0.186035,0
58580,0.297363,-0.924316,0.166016,0
58600,0.311523,-0.916504,0.187012,0
58600,0.295898,-0.900391,0.156738,0
58620,0.293457,-0.90625,0.163574,0
58640,0.300293,-0.933594,0.155273,0
58650,0.303711,-0.919434,0.167969,0
58660,0.307129,-0.904785,0.163086,0
58680,0.307617,-0.894531,0.17041,0
58700,0.310059,-0.90625,0.164551,0
58720,0.310547,-0.921387,0.155762,0
58720,0.295898,-0.925781,0.161621,0
58740,0.278809,-0.907715,0.152832,0
58760,0.300781,-0.901855,0.158691,0
58780,0.295898,-0.884766,0.159668,0
58780,0.306152,-0.898438,0.165527,0
58790,0.303223,-0.924316,0.13916,0
58810,0.293457,-0.925781,0.150879,0
58830,0.313477,-0.933105,0.15332,0
58890,0.335938,-0.914062,0.162109,0
58900,0.328125,-0.914551,0.15625,0
58920,0.312012,-0.899902,0.163574,0
58940,0.309082,-0.917969,0.159668,0
58940,0.327148,-0.933105,0.154297,0
58960,0.308105,-0.933105,0.164062,0
58980,0.289551,-0.918945,0.161621,0
59000,0.287598,-0.900879,0.150391,0
59010,0.285645,-0.90332,0.15625,0
59020,0.279785,-0.917969,0.15625,0
59060,0.294922,-0.913574,0.160645,0
59120,0.294922,-0.918457,0.148926,0
59170,0.294922,-0.912109,0.152832,0
59190,0.302246,-0.924805,0.15918,0
59210,0.315918,-0.911621,0.148438,0
59230,0.319824,-0.906738,0.150391,0
59230,0.32373,-0.90918,0.140137,0
59270,0.304199,-0.913086,0.137207,0
59330,0.291504,-0.921875,0.152344,0
59370,0.291992,-0.898438,0.15332,0
59380,0.319336,-0.918945,0.139648,0
59410,0.298828,-0.922363,0.14502,0
59420,0.291016,-0.913574,0.154785,0
59440,0.320312,-0.900879,0.134766,0
59460,0.31543,-0.92041,0.132324,0
59460,0.29541,-0.919922,0.155762,0
59480,0.303223,-0.923828,0.146973,0
59500,0.321777,-0.913574,0.151855,0
59520,0.309082,-0.92041,0.133789,0
59520,0.30127,-0.905273,0.145996,0
59540,0.314453,-0.907227,0.147461,0
59560,0.312988,-0.914062,0.140137,0
59580,0.281738,-0.92041,0.146973,0
59600,0.281738,-0.91748,0.150879,0
59600,0.313477,-0.918457,0.151367,0
59620,0.300781,-0.917969,0.151855,0
59640,0.276367,-0.925293,0.14209,0
59660,0.272461,-0.922363,0.134766,0
59660,0.296875,-0.933105,0.150391,0
59680,0.299805,-0.923828,0.149902,0
59700,0.29248,-0.927734,0.146484,0
59720,0.290039,-0.92041,0.13916,0
59720,0.311523,-0.916504,0.151367,0
59740,0.330078,-0.925781,0.149414,0
59760,0.316895,-0.930664,0.141602,0
59780,0.298828,-0.927246,0.139648,0
59780,0.311523,-0.921875,0.132812,0
59800,0.333496,-0.92041,0.142578,0
59820,0.334961,-0.910156,0.144531,0
59840,0.328613,-0.902344,0.13916,0
59840,0.323242,-0.910645,0.134277,0
59860,0.326172,-0.911133,0.131348,0
59880,0.336426,-0.908203,0.137695,0
59900,0.328125,-0.903809,0.12793,0
59910,0.313477,-0.906738,0.120605,0
59920,0.327637,-0.915527,0.119629,0
59940,0.356934,-0.899414,0.128906,0
59960,0.349121,-0.899902,0.132812,0
59980,0.341309,-0.891113,0.133301,0
59980,0.352051,-0.912598,0.12793,0
60000,0.362305,-0.907227,0.120117,0
60020,0.36377,-0.911621,0.127441,0
60040,0.355469,-0.891602,0.129883,0
60060,0.353516,-0.894043,0.129395,0
60060,0.36377,-0.898438,0.12793,0
60080,0.361816,-0.901855,0.130859,0
60100,0.370605,-0.905273,0.124512,0
60110,0.376465,-0.899414,0.117188,0
60120,0.393066,-0.893066,0.125488,0
60140,0.415039,-0.885254,0.125977,0
60160,0.437012,-0.88916,0.11084,0
60180,0.421875,-0.888672,0.112793,0
60240,0.391113,-0.882324,0.12207,0
60300,0.393066,-0.884766,0.116211,0
60390,0.456055,-0.852539,0.117188,0
60460,0.452148,-0.866699,0.112793,0
60480,0.462402,-0.871582,0.107422,0
60500,0.45166,-0.879883,0.119629,0
60520,0.421387,-0.863281,0.106934,0
60540,0.414551,-0.874023,0.0698242,0
60560,0.390625,-0.87793,0.0888672,0
60580,0.379883,-0.89209,0.118164,0
60600,0.362793,-0.881348,0.10498,0
60620,0.348145,-0.89209,0.119141,0
60640,0.350586,-0.901367,0.105957,0
60660,0.334473,-0.892578,0.12793,0
60670,0.312012,-0.887207,0.104004,0
60670,0.282715,-0.899902,0.119629,0
60690,0.272949,-0.887207,0.153809,0
60720,0.243652,-0.899414,0.0161133,0
60750,0.229004,-0.817383,-0.125,0
60770,0.379395,-0.95459,0.259766,0
60790,0.585449,-0.823242,-0.185059,0
60810,0.0288086,-0.975586,0.015625,0
60830,-0.437012,-1.04395,0.174805,0
60830,-0.232422,-1.04102,0.335449,0
60850,0.248535,-0.977051,0.14502,0
60850,0.3125,-0.94043,0.134766,0
60870,0.355469,-0.955078,0.133789,0
60870,0.345703,-0.922363,0.123047,0
60890,0.340332,-0.909668,0.134277,0
60890,0.342773,-0.912109,0.124512,0
60910,0.34375,-0.904785,0.129395,0
60920,0.337891,-0.906738,0.126465,0
60930,0.319824,-0.903809,0.131836,0
60950,0.308105,-0.893555,0.131836,0
60950,0.308594,-0.902344,0.130859,0
60970,0.295898,-0.910156,0.116211,0
60970,0.286621,-0.910645,0.117188,0
60990,0.282227,-0.903809,0.134766,0
60990,0.287109,-0.908203,0.12793,0
61010,0.297363,-0.931152,0.115723,0
61010,0.294922,-0.934082,0.130371,0
61030,0.296875,-0.936035,0.115234,0
61060,0.392578,-0.956055,0.153809,0
61090,0.368652,-0.896973,0.0307617,0
61110,0.172852,-1.03369,0.45459,0
61130,0.67041,-0.855469,0.00439453,0
61150,0.789551,-0.808105,-0.180176,0
61170,0.36084,-0.863281,-0.151855,0
61190,-0.043457,-0.905273,-0.119141,0
61210,-0.219727,-0.905762,-0.130859,0
61230,-0.078125,-0.86377,-0.213379,0
61250,0.263672,-0.847656,-0.0546875,0
61270,0.310547,-0.834473,-0.0888672,0
61290,0.116211,-1.00928,0.415527,0
61310,0.574219,-0.841309,-0.0302734,0
61310,0.519043,-0.964844,0.301758,0
61330,0.306641,-0.917969,0.169922,0
61350,0.325684,-0.927734,0.0942383,0
61350,0.34082,-0.921387,0.0996094,0
61370,0.325195,-0.934082,0.113281,0
61370,0.355469,-0.923828,0.127441,0
61390,0.398438,-0.934082,0.121582,0
61410,0.419434,-0.914551,0.11084,0
61410,0.404785,-0.901855,0.123047,0
61430,0.37793,-0.87793,0.133301,0
61450,0.371094,-0.882812,0.116699,0
61450,0.383301,-0.87793,0.115234,0
61470,0.377441,-0.886719,0.124512,0
61490,0.365723,-0.878418,0.125,0
61510,0.360352,-0.87793,0.120117,0
61520,0.363281,-0.880859,0.123535,0
61530,0.373047,-0.897949,0.117676,0
61550,0.357422,-0.891602,0.129883,0
61570,0.334961,-0.897949,0.117188,0
61570,0.325684,-0.901367,0.111328,0
61580,0.32666,-0.90625,0.124023,0
61600,0.326172,-0.913574,0.115723,0
61620,0.320801,-0.929688,0.109863,0
61640,0.310547,-0.92041,0.114746,0
61640,0.306641,-0.919434,0.123535,0
61660,0.313965,-0.922363,0.124023,0
61680,0.310547,-0.920898,0.111328,0
61680,0.315918,-0.921875,0.0991211,0
61700,0.335938,-0.92627,0.119141,0
61720,0.304199,-0.926758,0.0844727,0
61750,0.316406,-0.937988,0.266113,0
61780,0.219238,-0.937012,0.194336,0
61800,0.532227,-0.907715,0.0761719,0
61820,0.677246,-0.789551,-0.166016,0
61840,0.132324,-0.867676,-0.0805664,0
61860,-0.30957,-0.959473,-0.0185547,0
61880,-0.522949,-0.98877,-0.0283203,0
61900,-0.51416,-0.957031,-0.137207,0
61920,-0.0341797,-0.834473,-0.277832,0
61950,1.04736,-0.733887,0.0776367,0
61960,0.601074,-1.00439,0.526367,0
61980,-0.153809,-0.867676,-0.334961,0
62000,1.12549,-0.791504,0.192871,0
62020,1.12598,-0.761719,0.0224609,0
62040,0.628418,-0.777344,-0.115234,0
62060,-0.14209,-0.989258,0.196289,0
62080,-0.147949,-1.07373,0.373047,0
62100,0.375,-0.990234,0.37207,0
62140,0.855957,-0.904297,0.297852,0
62160,1.10156,-0.864746,0.302734,0
62180,1.12598,-0.883789,0.387695,0
62200,0.766602,-0.999512,0.490723,0
62220,-0.261719,-1.10254,0.250977,0
62240,-0.296387,-0.893066,-0.319824,0
62260,1.1001,-0.849121,0.46582,0
62280,-0.411133,-0.987305,-0.259766,0
62300,0.836914,-0.95166,0.579102,0
62320,-0.202637,-1.00879,0.168945,0
62320,0.271973,-0.947754,0.192383,0
62340,0.319336,-0.915039,0.106445,0
62360,0.337891,-0.923828,0.123047,0
62380,0.348145,-0.918457,0.119629,0
62390,0.334961,-0.925781,0.115234,0
62400,0.317383,-0.925293,0.112305,0
62420,0.310059,-0.91748,0.128418,0
62440,0.309082,-0.897949,0.133789,0
62460,0.312012,-0.90625,0.125,0
62460,0.307129,-0.912598,0.118652,0
62480,0.308594,-0.918457,0.12793,0
62500,0.316895,-0.917969,0.134277,0
62520,0.324707,-0.902832,0.128906,0
62520,0.332031,-0.902344,0.120117,0
62540,0.330566,-0.914062,0.123047,0
62560,0.352539,-0.915527,0.125488,0
62580,0.361328,-0.926758,0.123535,0
62580,0.35791,-0.925781,0.121094,0
62600,0.352051,-0.915527,0.115723,0
62620,0.34668,-0.913574,0.116211,0
62640,0.361328,-0.914551,0.113281,0
62640,0.354004,-0.90625,0.111816,0
62660,0.335449,-0.907227,0.121582,0
62680,0.343262,-0.90625,0.120117,0
62700,0.363281,-0.900879,0.121582,0
62710,0.371094,-0.897949,0.113281,0
62720,0.369629,-0.898438,0.106934,0
62740,0.351074,-0.904297,0.11377,0
62760,0.333984,-0.905762,0.113281,0
62780,0.339355,-0.903809,0.111816,0
62780,0.353516,-0.895508,0.104492,0
62800,0.356445,-0.887695,0.10791,0
62820,0.34668,-0.890625,0.105469,0
62840,0.345215,-0.893555,0.111816,0
62840,0.355957,-0.898438,0.111328,0
62860,0.344238,-0.90918,0.106445,0
62880,0.350586,-0.901367,0.110352,0
62900,0.364746,-0.89502,0.123535,0
62900,0.374512,-0.899414,0.117188,0
62920,0.365234,-0.896484,0.110352,0
62940,0.364746,-0.899414,0.108887,0
62960,0.358398,-0.904297,0.119141,0
62960,0.376465,-0.904785,0.113281,0
62980,0.377441,-0.910156,0.115723,0
63000,0.372559,-0.905762,0.102539,0
63020,0.364746,-0.916016,0.109375,0
63020,0.366699,-0.909668,0.118652,0
63040,0.363281,-0.905762,0.124023,0
63060,0.364258,-0.900391,0.116699,0
63070,0.364258,-0.900879,0.11084,0
63080,0.381348,-0.898438,0.132812,0
63100,0.382324,-0.892578,0.119629,0
63120,0.39209,-0.88916,0.115723,0
63140,0.406738,-0.890625,0.123047,0
63140,0.430176,-0.880859,0.129883,0
63180,0.430176,-0.876953,0.109863,0
63210,0.40918,-0.879883,0.116699,0
63250,0.402832,-0.885254,0.114746,0
63300,0.413086,-0.886719,0.118164,0
63350,0.402832,-0.870117,0.11377,0
63490,0.374023,-0.879395,0.119141,0
63570,0.376465,-0.887207,0.106445,0
63600,0.40332,-0.897949,0.117188,0
63650,0.40332,-0.887207,0.131348,0
63680,0.361328,-0.85791,0.125,0
63700,0.390137,-0.854492,0.105957,0
63720,0.379883,-0.896484,0.0966797,0
63740,0.361328,-0.903809,0.136719,0
63740,0.364258,-0.909668,0.132812,0
63760,0.394531,-0.910156,0.121094,0
63780,0.351074,-0.911133,0.120605,0
63800,0.415039,-0.94043,0.0766602,0
63820,0.43457,-0.907715,0.090332,0
63840,0.162109,-0.999512,0.293945,0
63870,0.33252,-1.01514,0.37207,0
63900,0.91748,-0.865723,0.0620117,0
63920,1.12598,-0.754883,-0.0537109,0
63920,1.16162,-0.729004,-0.0800781,0
63960,0.658203,-0.906738,0.331055,0
63980,0.318848,-0.906738,0.153809,0
64000,0.320312,-0.92334,0.150879,0
64020,0.317383,-0.924316,0.159668,0
64040,0.312012,-0.908203,0.162109,0
64060,0.328125,-0.895996,0.148926,0
64080,0.349121,-0.895508,0.149414,0
64100,0.34082,-0.910645,0.145996,0
64120,0.325195,-0.904297,0.143555,0
64140,0.317383,-0.907227,0.14502,0
64160,0.300293,-0.887207,0.145508,0
64180,0.322754,-0.910156,0.145996,0
64200,0.32373,-0.919922,0.151367,0
64220,0.324219,-0.911133,0.148926,0
64240,0.310059,-0.874512,0.145996,2000
64260,0.303223,-0.884277,0.150391,0
64280,0.313477,-0.910645,0.15625,0
64280,0.311523,-0.955078,0.161621,0
64300,0.315918,-0.941895,0.146484,0
64320,0.326172,-0.916016,0.168457,0
64340,0.197266,-0.858887,0.0288086,0
64360,0.237305,-0.819824,-0.153809,0
64380,0.274414,-0.998535,0.380371,0
64420,0.73877,-0.817383,-0.126465,0
64430,0.512695,-0.833984,-0.152832,0
64450,0.00537109,-0.911133,-0.0644531,0
64470,-0.308105,-0.935059,-0.0214844,0
64490,-0.380371,-0.94873,-0.0795898,0
64510,-0.0942383,-0.879883,-0.211914,0
64530,0.803223,-0.749512,-0.132812,0
64550,1.05713,-0.917969,0.506836,0
64550,0.248047,-0.992676,0.272461,0
64570,0.249023,-0.943359,0.107422,0
64570,0.291504,-0.958984,0.126465,0
64590,0.285645,-0.93457,0.147461,0
64590,0.280273,-0.938477,0.131348,0
64610,0.287598,-0.938965,0.124512,0
64610,0.292969,-0.937012,0.133301,0
64630,0.297363,-0.930664,0.130371,0
64630,0.27002,-0.910645,0.138184,0
64650,0.256348,-0.905273,0.154297,0
64660,0.265625,-0.914551,0.150879,0
64670,0.281738,-0.924805,0.150391,0
64690,0.26416,-0.909668,0.152832,0
64690,0.280273,-0.913574,0.158203,0
64710,0.282715,-0.92334,0.134277,0
64710,0.280762,-0.92627,0.158203,0
64730,0.293457,-0.930176,0.141602,0
64730,0.303711,-0.929199,0.141602,0
64750,0.299805,-0.916992,0.148438,0
64750,0.320801,-0.928223,0.148926,0
64770,0.335449,-0.916992,0.146484,0
64770,0.334961,-0.919922,0.138672,0
64790,0.328613,-0.922363,0.134766,0
64790,0.314453,-0.918457,0.141602,0
64810,0.328125,-0.908203,0.134277,0
64830,0.316895,-0.905273,0.138672,0
64830,0.299316,-0.901367,0.14502,0
64830,0.299316,-0.901367,0.14502,0
64840,0.280762,-0.92627,0.158203,0
64870,0.299805,-0.916992,0.148438,0
64870,0.320801,-0.928223,0.148926,0
64890,0.335449,-0.916992,0.146484,0
64890,0.334961,-0.919922,0.138672,0
64910,0.328613,-0.922363,0.134766,0
64910,0.314453,-0.918457,0.141602,0
64930,0.328125,-0.908203,0.134277,0
64950,0.316895,-0.905273,0.138672,0
64950,0.299316,-0.901367,0.14502,0
64960,0.287598,-0.928711,0.145508,0
64980,0.298828,-0.933594,0.141113,0
64980,0.294922,-0.911621,0.135742,0
65000,0.293457,-0.912598,0.138184,0
65000,0.302734,-0.931641,0.127441,0
65020,0.308105,-0.933594,0.132324,0
65020,0.307129,-0.952148,0.136719,0
65040,0.311035,-0.940918,0.124512,0
65040,0.291504,-0.925293,0.130371,0
65060,0.291016,-0.943848,0.137695,0
65080,0.304688,-0.941895,0.128906,0
65080,0.301758,-0.941895,0.125,0
65090,0.280762,-0.919434,0.136719,0
65100,0.28418,-0.901367,0.13623,0
65120,0.289062,-0.916504,0.14502,0
65120,0.291504,-0.915039,0.144531,0
65140,0.297363,-0.935059,0.143555,0
65140,0.313965,-0.937012,0.145996,0
65160,0.305176,-0.923828,0.134277,0
65160,0.30957,-0.902832,0.144531,0
65180,0.301758,-0.916992,0.140137,0
65180,0.312012,-0.921387,0.139648,0
65200,0.303711,-0.927246,0.145508,0
65200,0.307129,-0.919434,0.133789,0
65220,0.29248,-0.915527,0.141113,0
65220,0.279785,-0.910156,0.141113,0
65240,0.281738,-0.963379,0.120117,0
65250,0.262207,-0.897949,0.162109,0
65300,0.262207,-0.875,0.175781,0
65350,0.302246,-0.899902,0.164551,0
65390,0.291504,-0.922852,0.131836,0
65450,0.283203,-0.950684,0.15918,0
65490,0.313477,-0.929688,0.14209,0
