Timestamp, Acceleration x, Acceleration y, Acceleration z, Marker
40,0.0161133,-0.657715,0.693359,0
60,0.00146484,-0.63623,0.675293,0
80,0.0620117,-0.69873,0.6875,0
90,0.0800781,-0.724121,0.704102,0
110,0.0742188,-0.692871,0.671387,0
130,0.0795898,-0.665527,0.65625,0
150,0.0639648,-0.665039,0.65625,0
170,0.0556641,-0.624023,0.688965,0
180,0.0463867,-0.644043,0.719238,0
180,0.0644531,-0.65625,0.688965,0
230,0.0996094,-0.635254,0.652344,0
250,0.0786133,-0.660156,0.663086,0
270,0.0654297,-0.654785,0.669434,0
290,0.0693359,-0.646484,0.631836,0
310,0.0678711,-0.677246,0.646484,0
330,0.0561523,-0.665527,0.668945,0
350,0.0610352,-0.680176,0.69043,0
370,0.0957031,-0.669434,0.671875,0
390,0.111816,-0.675781,0.660645,0
410,0.11084,-0.643555,0.657227,0
430,0.10498,-0.629883,0.665039,0
450,0.132812,-0.628418,0.665039,0
470,0.158203,-0.635254,0.649414,0
490,0.17334,-0.634766,0.654297,0
510,0.182617,-0.619629,0.660156,0
530,0.189941,-0.573242,0.65918,0
550,0.195801,-0.554199,0.682617,0
570,0.200195,-0.539062,0.700195,0
590,0.210449,-0.549316,0.687988,0
610,0.243164,-0.571777,0.663086,0
630,0.258789,-0.560059,0.660156,0
650,0.246582,-0.549805,0.663086,0
670,0.216309,-0.54248,0.733398,0
690,0.230469,-0.530762,0.713867,0
710,0.17334,-0.563965,0.681641,0
730,0.128418,-0.589844,0.695312,0
750,0.14502,-0.553223,0.751953,0
770,0.174316,-0.567871,0.706543,0
790,0.205566,-0.641113,0.672363,0
810,0.206543,-0.688965,0.654785,0
830,0.195312,-0.677246,0.63916,0
850,0.20752,-0.691895,0.620117,0
870,0.219238,-0.683594,0.620117,0
890,0.196289,-0.652832,0.629395,0
910,0.181641,-0.637695,0.628418,0
930,0.191406,-0.614258,0.66748,0
950,0.214355,-0.614258,0.665527,0
970,0.189453,-0.60791,0.673828,0
980,0.165039,-0.604492,0.685059,0
1000,0.163086,-0.630859,0.706543,0
1020,0.172363,-0.656738,0.728516,0
1040,0.179688,-0.668457,0.695312,0
1060,0.200684,-0.671875,0.663574,0
1080,0.211914,-0.658203,0.647949,0
1100,0.187988,-0.636719,0.657715,0
1120,0.171875,-0.608398,0.665527,0
1140,0.175293,-0.623047,0.665527,0
1160,0.171875,-0.635254,0.695312,0
1180,0.158203,-0.583008,0.694824,0
1200,0.181641,-0.631348,0.667969,0
1220,0.229492,-0.634766,0.64209,0
1240,0.248535,-0.653809,0.589844,0
1260,0.187988,-0.644043,0.634277,0
1280,0.0932617,-0.599121,0.677246,0
1300,0.115234,-0.600586,0.726562,0
1320,0.19873,-0.606934,0.700684,0
1340,0.239746,-0.655762,0.653809,0
1360,0.239746,-0.655762,0.620117,0
1380,0.20166,-0.66748,0.648438,0
1400,0.202637,-0.662598,0.683594,0
1420,0.222656,-0.680176,0.663574,0
1440,0.260742,-0.711426,0.638672,0
1460,0.275391,-0.700195,0.634766,0
1480,0.289062,-0.693848,0.623047,0
1500,0.324219,-0.708008,0.630859,0
1520,0.317383,-0.720215,0.631836,0
1540,0.283691,-0.651855,0.641113,0
1560,0.280273,-0.61084,0.641113,0
1580,0.287598,-0.59082,0.651855,0
1600,0.267578,-0.606445,0.669922,0
1620,0.277344,-0.594238,0.647461,0
1640,0.300781,-0.57666,0.640625,0
1660,0.299316,-0.541992,0.630859,0
1680,0.301758,-0.519531,0.59668,0
1700,0.329102,-0.513184,0.626953,0
1720,0.335449,-0.550781,0.65625,0
1740,0.33252,-0.542969,0.60498,0
1760,0.321289,-0.540039,0.599609,0
1780,0.307129,-0.527344,0.638672,0
1800,0.325684,-0.546387,0.650391,0
1820,0.359375,-0.541504,0.611816,0
1840,0.369141,-0.535156,0.589844,0
1860,0.341797,-0.552246,0.621094,0
1880,0.343262,-0.598145,0.615723,0
1900,0.365723,-0.602051,0.612305,0
1920,0.370605,-0.585938,0.609863,0
1940,0.378418,-0.602539,0.625977,0
1960,0.388184,-0.59375,0.624023,0
1980,0.374023,-0.586426,0.633301,0
2000,0.38623,-0.576172,0.652344,0
2020,0.381836,-0.584473,0.649902,0
2040,0.375488,-0.614746,0.654297,0
2060,0.377441,-0.619629,0.632812,0
2080,0.375977,-0.60791,0.623535,0
2100,0.376953,-0.599609,0.619629,0
2120,0.370605,-0.597168,0.62207,0
2140,0.368164,-0.597168,0.602051,0
2160,0.375,-0.610352,0.605957,0
2180,0.373047,-0.615723,0.621094,0
2200,0.393555,-0.634766,0.604004,0
2220,0.410156,-0.619141,0.589844,0
2240,0.425293,-0.623047,0.599609,0
2260,0.423828,-0.614746,0.597656,0
2280,0.414551,-0.598633,0.589355,0
2300,0.427734,-0.583008,0.57666,0
2320,0.43457,-0.592773,0.574219,0
2340,0.422852,-0.608887,0.573242,0
2360,0.402344,-0.617676,0.57373,0
2380,0.409668,-0.587402,0.573242,0
2400,0.427246,-0.586914,0.557617,0
2420,0.4375,-0.602051,0.544922,0
2440,0.446777,-0.587891,0.541992,0
2460,0.437988,-0.581055,0.546387,0
2480,0.425293,-0.57373,0.539551,0
2500,0.433594,-0.589355,0.552734,0
2520,0.441406,-0.591797,0.556641,0
2540,0.432617,-0.598633,0.552734,0
2560,0.427246,-0.590332,0.547852,0
2580,0.435059,-0.586914,0.556152,0
2600,0.447266,-0.588867,0.552734,0
2620,0.450195,-0.600098,0.546387,0
2640,0.451172,-0.606445,0.547852,0
2660,0.449707,-0.602539,0.549805,0
2680,0.438965,-0.605469,0.537109,0
2700,0.467773,-0.614258,0.55127,0
2720,0.469238,-0.600586,0.541016,0
2740,0.459473,-0.602539,0.534668,0
2760,0.455078,-0.59375,0.559082,0
2780,0.458984,-0.597656,0.543945,0
2800,0.456543,-0.608398,0.534668,0
2820,0.44873,-0.591797,0.54834,0
2840,0.460449,-0.591797,0.543945,0
2860,0.463379,-0.618164,0.541504,0
2880,0.463379,-0.615234,0.541504,0
2900,0.473145,-0.614258,0.550781,0
2920,0.464355,-0.585938,0.558594,0
2940,0.447266,-0.569336,0.5625,0
2960,0.435547,-0.586914,0.57666,0
2980,0.451172,-0.61377,0.577637,0
3000,0.45752,-0.616211,0.547852,0
3020,0.446289,-0.617188,0.555176,0
3040,0.441406,-0.603027,0.559082,0
3060,0.437988,-0.601074,0.568359,0
3080,0.435547,-0.586914,0.570312,0
3100,0.444824,-0.593262,0.567871,0
3120,0.446289,-0.606445,0.566895,0
3140,0.455566,-0.605469,0.550293,0
3160,0.463379,-0.598145,0.541992,0
3180,0.458008,-0.587402,0.555176,0
3200,0.463379,-0.584473,0.546387,0
3220,0.469238,-0.598633,0.540039,0
3240,0.469238,-0.590332,0.541992,0
3260,0.468262,-0.58252,0.539551,0
3280,0.462402,-0.598145,0.526367,0
3300,0.463867,-0.596191,0.537109,0
3320,0.460938,-0.60791,0.53125,0
3340,0.467285,-0.61377,0.539551,0
3360,0.470215,-0.61377,0.533203,0
3380,0.470215,-0.591797,0.539551,0
3400,0.474609,-0.583984,0.535156,0
3420,0.475098,-0.589355,0.547363,0
3440,0.475586,-0.609375,0.531738,0
3460,0.475586,-0.600586,0.523438,0
3480,0.472656,-0.608398,0.535156,0
3500,0.45752,-0.58252,0.54834,0
3520,0.469238,-0.583008,0.539551,0
3540,0.477051,-0.601562,0.542969,0
3560,0.469238,-0.605957,0.541016,0
3580,0.460938,-0.616699,0.538574,0
3600,0.488281,-0.624512,0.543945,0
3620,0.455078,-0.610352,0.551758,0
3640,0.459961,-0.601562,0.547852,0
3650,0.463867,-0.590332,0.539062,0
3670,0.469727,-0.592285,0.535156,0
3690,0.485352,-0.597656,0.52832,0
3710,0.496582,-0.603027,0.533203,0
3730,0.48877,-0.616211,0.54248,0
3750,0.482422,-0.631348,0.539551,0
3770,0.474121,-0.659668,0.540039,0
3790,0.458984,-0.666016,0.54248,0
3810,0.458984,-0.667969,0.536621,0
3830,0.460938,-0.655762,0.533203,0
3850,0.475586,-0.641602,0.528809,0
3870,0.481934,-0.629395,0.521973,0
3890,0.480469,-0.611816,0.51416,0
3910,0.48291,-0.583008,0.519531,0
3930,0.48291,-0.59375,0.526367,0
3950,0.475586,-0.583008,0.537598,0
3970,0.478516,-0.567871,0.522461,0
3990,0.47998,-0.569336,0.525391,0
4010,0.473145,-0.54834,0.523438,0
4030,0.463379,-0.54541,0.545898,0
4050,0.460938,-0.539551,0.552734,0
4070,0.468262,-0.540527,0.560059,0
4090,0.466797,-0.563965,0.554688,0
4110,0.453125,-0.575195,0.557617,0
4130,0.453613,-0.560547,0.552734,0
4150,0.455566,-0.562012,0.554199,0
4170,0.454102,-0.582031,0.55957,0
4190,0.441406,-0.573242,0.560059,0
4210,0.442383,-0.562012,0.561523,0
4230,0.459961,-0.57373,0.544922,0
4250,0.461426,-0.584961,0.550781,0
4270,0.461426,-0.583496,0.546875,0
4290,0.466309,-0.602539,0.563965,0
4310,0.478027,-0.612305,0.552246,0
4330,0.47998,-0.602051,0.54248,0
4350,0.483887,-0.601074,0.539062,0
4370,0.479492,-0.617188,0.547852,0
4390,0.469727,-0.630859,0.557617,0
4410,0.481934,-0.600098,0.546875,0
4430,0.487305,-0.596191,0.538574,0
4450,0.46582,-0.596191,0.546387,0
4470,0.453125,-0.607422,0.546875,0
4490,0.452148,-0.604004,0.555176,0
4510,0.446777,-0.620605,0.553223,0
4530,0.448242,-0.614746,0.550293,0
4550,0.442871,-0.619141,0.552246,0
4570,0.436523,-0.614258,0.548828,0
4590,0.42627,-0.615234,0.550781,0
4610,0.416992,-0.612305,0.542969,0
4630,0.40332,-0.609863,0.530273,0
4650,0.397461,-0.61377,0.526367,0
4670,0.395508,-0.625977,0.512695,0
4690,0.402344,-0.634766,0.510254,0
4710,0.43457,-0.644531,0.534668,0
4730,0.441406,-0.636719,0.542969,0
4750,0.441406,-0.671387,0.550781,0
4770,0.417969,-0.646973,0.575195,0
4790,0.391602,-0.637695,0.575684,0
4810,0.398926,-0.627441,0.605469,0
4830,0.407227,-0.601074,0.625488,0
4850,0.390137,-0.583496,0.642578,0
4870,0.371582,-0.576172,0.663086,0
4890,0.378418,-0.569824,0.659668,0
4910,0.397461,-0.556641,0.65332,0
4930,0.414551,-0.535156,0.628418,0
4950,0.437012,-0.535645,0.625488,0
4970,0.450684,-0.551758,0.605957,0
4990,0.460449,-0.554688,0.595703,0
5010,0.474609,-0.537598,0.575195,0
5030,0.483887,-0.524902,0.57666,0
5050,0.501465,-0.514648,0.55957,0
5070,0.51416,-0.527832,0.549316,0
5090,0.517578,-0.530762,0.550781,0
5110,0.527832,-0.529785,0.537109,0
5130,0.527832,-0.536621,0.539062,0
5150,0.513672,-0.520996,0.533691,0
5170,0.516113,-0.506836,0.521973,0
5190,0.524902,-0.495605,0.516602,0
5210,0.533691,-0.491211,0.523438,0
5230,0.519531,-0.489746,0.533203,0
5250,0.507812,-0.496094,0.531738,0
5270,0.500488,-0.501953,0.544434,0
5290,0.504395,-0.503906,0.552734,0
5310,0.516113,-0.486816,0.543945,0
5330,0.508301,-0.501953,0.547363,0
5350,0.498535,-0.506348,0.576172,0
5370,0.501465,-0.515625,0.555664,0
5390,0.506348,-0.512695,0.570801,0
5410,0.513672,-0.485352,0.585449,0
5430,0.522461,-0.475098,0.59668,0
5450,0.529297,-0.459473,0.617188,0
5470,0.519531,-0.442383,0.626953,0
5490,0.510742,-0.452148,0.638672,0
5510,0.506348,-0.436035,0.647949,0
5530,0.503418,-0.428711,0.648438,0
5550,0.503906,-0.418945,0.651855,0
5570,0.51123,-0.40332,0.63916,0
5590,0.516602,-0.400391,0.63916,0
5610,0.520508,-0.396973,0.644531,0
5620,0.532227,-0.391113,0.638672,0
5640,0.536133,-0.394043,0.647949,0
5660,0.545898,-0.376465,0.65918,0
5680,0.558594,-0.374512,0.67334,0
5700,0.578613,-0.370605,0.683594,0
5720,0.585938,-0.381836,0.698242,0
5740,0.571777,-0.385254,0.704102,0
5760,0.571289,-0.385742,0.709961,0
5780,0.575195,-0.418945,0.710938,0
5800,0.568359,-0.38623,0.695312,0
5820,0.56543,-0.334961,0.669922,0
5840,0.535645,-0.361816,0.69043,0
5860,0.532715,-0.371094,0.688477,0
5880,0.509766,-0.344727,0.684082,0
5900,0.496094,-0.342285,0.666016,0
5920,0.501953,-0.361816,0.686035,0
5940,0.516602,-0.380859,0.672852,0
5960,0.546875,-0.387207,0.63916,0
5980,0.552246,-0.395996,0.640625,0
6000,0.549316,-0.42627,0.631836,0
6020,0.567383,-0.436523,0.589355,0
6040,0.575195,-0.458008,0.577148,0
6060,0.573242,-0.477051,0.543457,0
6080,0.557617,-0.517578,0.531738,0
6100,0.541016,-0.557129,0.540039,0
6120,0.495605,-0.562012,0.581055,0
6140,0.458984,-0.54541,0.578613,0
6160,0.455078,-0.54834,0.589844,0
6180,0.455566,-0.543945,0.601562,0
6200,0.439453,-0.549316,0.626953,0
6220,0.424805,-0.553711,0.63623,0
6240,0.419922,-0.560059,0.637695,0
6260,0.416016,-0.564941,0.628906,0
6280,0.417969,-0.559082,0.625977,0
6300,0.418457,-0.560547,0.617676,0
6320,0.416016,-0.56543,0.611328,0
6340,0.424316,-0.574707,0.60498,0
6360,0.434082,-0.578613,0.594238,0
6380,0.441895,-0.576172,0.574707,0
6400,0.437012,-0.579102,0.569824,0
6420,0.4375,-0.572754,0.565918,0
6440,0.453613,-0.569824,0.563477,0
6460,0.464355,-0.580566,0.560547,0
6480,0.46582,-0.573242,0.575684,0
6500,0.463379,-0.575195,0.577148,0
6520,0.45459,-0.576172,0.572266,0
6540,0.458008,-0.574707,0.567383,0
6560,0.454102,-0.581055,0.557617,0
6580,0.447754,-0.574219,0.564941,0
6600,0.445312,-0.575684,0.555664,0
6620,0.442383,-0.57666,0.54834,0
6640,0.439453,-0.578125,0.562012,0
6660,0.42627,-0.592773,0.557129,0
6680,0.426758,-0.591309,0.567871,0
6700,0.427246,-0.590332,0.552246,0
6720,0.434082,-0.603027,0.534668,0
6740,0.435547,-0.612793,0.537598,0
6760,0.436035,-0.621582,0.545898,0
6780,0.440918,-0.634766,0.540527,0
6800,0.440918,-0.629395,0.547363,0
6820,0.445801,-0.632324,0.557617,0
6840,0.453613,-0.623535,0.560059,0
6860,0.446289,-0.599609,0.57373,0
6880,0.44043,-0.583984,0.578613,0
6900,0.456055,-0.557617,0.574219,0
6920,0.447266,-0.557617,0.594238,0
6940,0.435547,-0.545898,0.587402,0
6960,0.424316,-0.533203,0.586426,0
6980,0.421875,-0.538086,0.602539,0
7000,0.430176,-0.527344,0.601074,0
7020,0.416992,-0.530273,0.605957,0
7040,0.40625,-0.52002,0.611328,0
7060,0.392578,-0.512207,0.616699,0
7080,0.382324,-0.521973,0.622559,0
7100,0.382324,-0.516602,0.625,0
7120,0.380859,-0.516602,0.647949,0
7140,0.362305,-0.518555,0.631348,0
7160,0.341309,-0.518555,0.635742,0
7180,0.321289,-0.522461,0.665039,0
7200,0.337402,-0.520996,0.671387,0
7220,0.346191,-0.51416,0.688477,0
7240,0.346191,-0.512695,0.673828,0
7260,0.351074,-0.512695,0.678711,0
7280,0.337891,-0.518066,0.677734,0
7300,0.330566,-0.51709,0.691406,0
7320,0.351074,-0.525391,0.687988,0
7340,0.35791,-0.557617,0.666504,0
7360,0.34375,-0.569336,0.651855,0
7380,0.328125,-0.580078,0.67041,0
7400,0.319824,-0.601562,0.706543,0
7420,0.330566,-0.622559,0.725586,0
7440,0.342285,-0.619629,0.731445,0
7460,0.316895,-0.599121,0.735352,0
7480,0.306641,-0.568848,0.721191,0
7500,0.332031,-0.550781,0.706055,0
7520,0.368652,-0.53125,0.705078,0
7540,0.381836,-0.517578,0.694336,0
7560,0.373535,-0.52002,0.680664,0
7580,0.37207,-0.527832,0.672852,0
7600,0.370117,-0.535645,0.675293,0
7620,0.372559,-0.533691,0.669434,0
7640,0.36377,-0.54834,0.680664,0
7660,0.353516,-0.543945,0.649414,0
7680,0.348145,-0.52832,0.63916,0
7700,0.338867,-0.541016,0.647461,0
7720,0.32666,-0.551758,0.64209,0
7740,0.313477,-0.564941,0.653809,0
7760,0.307129,-0.572754,0.662598,0
7790,0.27002,-0.572266,0.647949,0
7810,0.257324,-0.587891,0.665527,0
7830,0.258789,-0.584473,0.669434,0
7850,0.275879,-0.596191,0.675781,0
7870,0.267578,-0.591309,0.677246,0
7890,0.254883,-0.597168,0.66748,0
7910,0.25293,-0.61084,0.669434,0
7930,0.260742,-0.608887,0.669922,0
7950,0.260742,-0.604492,0.673828,0
7970,0.259277,-0.612305,0.67334,0
7990,0.257812,-0.603027,0.660645,0
8010,0.257812,-0.609375,0.650879,0
8030,0.260254,-0.608887,0.650879,0
8050,0.26123,-0.604492,0.649902,0
8080,0.237793,-0.581055,0.634766,0
8100,0.213867,-0.58252,0.617676,0
8120,0.196289,-0.580566,0.613281,0
8130,0.176758,-0.583008,0.621582,0
8150,0.195801,-0.595215,0.644531,0
8170,0.224609,-0.603516,0.652344,0
8180,0.223633,-0.618164,0.661133,0
8200,0.188477,-0.627441,0.654297,0
8220,0.165527,-0.654297,0.68457,0
8240,0.13916,-0.648926,0.714844,0
8260,0.150391,-0.647461,0.732422,0
8280,0.183105,-0.660645,0.710938,0
8300,0.182617,-0.641602,0.711914,0
8320,0.163086,-0.618652,0.720703,0
8340,0.145996,-0.609375,0.708984,0
8360,0.150879,-0.603516,0.716309,0
8380,0.158203,-0.626953,0.708496,0
8400,0.154785,-0.635254,0.724609,0
8420,0.155273,-0.61084,0.730957,0
8440,0.168945,-0.606445,0.709473,0
8460,0.163574,-0.572266,0.703613,0
8480,0.166504,-0.548828,0.696289,0
8500,0.154785,-0.505371,0.730469,0
8520,0.141113,-0.534668,0.730957,0
8540,0.12207,-0.597656,0.727539,0
8560,0.10791,-0.634277,0.734863,0
8580,0.118652,-0.627441,0.721191,0
8600,0.116211,-0.619629,0.714844,0
8620,0.117676,-0.605957,0.730957,0
8640,0.128418,-0.607422,0.719238,0
8660,0.134277,-0.605957,0.725586,0
8680,0.141602,-0.582031,0.72998,0
8700,0.143066,-0.576172,0.709473,0
8720,0.151367,-0.590332,0.706543,0
8740,0.171875,-0.587402,0.708984,0
8760,0.192871,-0.595215,0.708008,0
8780,0.203613,-0.585938,0.717285,0
8800,0.208008,-0.57373,0.719727,0
8820,0.219727,-0.564941,0.733398,0
8840,0.225586,-0.533691,0.725586,0
8860,0.201172,-0.520508,0.741699,0
8880,0.20166,-0.501465,0.75293,0
8900,0.221191,-0.48584,0.78125,0
8920,0.242676,-0.454102,0.777832,0
8940,0.266113,-0.477051,0.719727,0
8950,0.264648,-0.477539,0.699707,0
8970,0.228027,-0.450195,0.707031,0
8990,0.183594,-0.415039,0.737793,0
9010,0.185547,-0.380859,0.74707,0
9030,0.194824,-0.334961,0.775391,0
9050,0.189453,-0.302734,0.760742,0
9070,0.167969,-0.280273,0.750977,0
9090,0.120117,-0.262207,0.740234,0
9110,0.081543,-0.253906,0.748535,0
9130,0.0527344,-0.233398,0.757324,0
9150,0.0439453,-0.22168,0.77832,0
9170,-0.0180664,-0.229004,0.805176,0
9190,-0.0839844,-0.273926,0.82373,0
9210,-0.119629,-0.360352,0.777344,0
9230,-0.130859,-0.416992,0.752441,0
9250,-0.137695,-0.505859,0.891113,0
9270,-0.169434,-0.635742,0.836426,0
9290,-0.1875,-0.671875,0.774414,0
9310,-0.26123,-0.69873,0.788574,0
9330,-0.548828,-0.698242,1.13574,0
9350,-0.669922,-0.196777,1.30225,0
9370,-0.323242,0.00341797,0.992676,0
9390,-0.131836,-0.15332,0.776855,0
9410,-0.21582,-0.229492,0.748535,0
9430,-0.206543,-0.337402,0.680176,0
9450,-0.253418,-0.449219,0.678223,0
9470,-0.317383,-0.459473,0.694336,0
9490,-0.326172,-0.427246,0.771484,0
9510,-0.333496,-0.427246,0.877441,0
9530,-0.314941,-0.389648,0.918457,0
9550,-0.272949,-0.349121,0.922363,0
9570,-0.230957,-0.371094,0.850586,0
9590,-0.193359,-0.401367,0.789062,0
9610,-0.194336,-0.458984,0.779297,0
9630,-0.228027,-0.45752,0.769531,0
9650,-0.266602,-0.404785,0.796387,0
9670,-0.280273,-0.300293,0.825684,0
9690,-0.278809,-0.28125,0.855469,0
9710,-0.251953,-0.329102,0.871582,0
9730,-0.182129,-0.374023,0.877441,0
9750,-0.151855,-0.39209,0.829102,0
9770,-0.178711,-0.395996,0.812988,0
9790,-0.236328,-0.450684,0.812012,0
9810,-0.241211,-0.487793,0.796387,0
9830,-0.231445,-0.498535,0.788086,0
9850,-0.242676,-0.442383,0.786621,0
9870,-0.259766,-0.415527,0.794434,0
9890,-0.255859,-0.42334,0.78418,0
9910,-0.223145,-0.419922,0.798828,0
9930,-0.212402,-0.484863,0.784668,0
9950,-0.214844,-0.512207,0.792969,0
9970,-0.212891,-0.549316,0.750488,0
9990,-0.241211,-0.531738,0.749023,0
10010,-0.250488,-0.507812,0.760742,0
10030,-0.239258,-0.493652,0.755859,0
10050,-0.234375,-0.489746,0.763184,0
10070,-0.237305,-0.478516,0.759766,0
10090,-0.244141,-0.468262,0.773926,0
10110,-0.247559,-0.462891,0.794434,0
10130,-0.246582,-0.459961,0.79248,0
10150,-0.234863,-0.450195,0.800781,0
10170,-0.233398,-0.447266,0.806641,0
10190,-0.219727,-0.466797,0.791504,0
10210,-0.223633,-0.479492,0.783691,0
10230,-0.223145,-0.473145,0.790039,0
10250,-0.220703,-0.458496,0.783691,0
10270,-0.212891,-0.456543,0.779297,0
10290,-0.209473,-0.479492,0.78125,0
10310,-0.209961,-0.472656,0.78418,0
10330,-0.230469,-0.456543,0.797852,0
10350,-0.239746,-0.435547,0.799316,0
10370,-0.231445,-0.429199,0.804199,0
10390,-0.239746,-0.441406,0.808105,0
10410,-0.241211,-0.444824,0.802246,0
10430,-0.25,-0.442383,0.799805,0
10450,-0.256836,-0.439941,0.794922,0
10470,-0.247559,-0.4375,0.791992,0
10490,-0.237793,-0.452637,0.787109,0
10510,-0.229492,-0.461426,0.778809,0
10530,-0.23291,-0.458008,0.78418,0
10550,-0.246094,-0.45752,0.796387,0
10570,-0.234863,-0.45166,0.79248,0
10590,-0.23291,-0.452637,0.789551,0
10610,-0.22998,-0.461914,0.787109,0
10630,-0.233398,-0.449219,0.791016,0
10650,-0.240723,-0.439453,0.793457,0
10670,-0.247559,-0.445312,0.789551,0
10690,-0.244141,-0.443848,0.794922,0
10710,-0.239746,-0.45752,0.782227,0
10730,-0.233887,-0.459473,0.791016,0
10750,-0.241211,-0.445312,0.790527,0
10770,-0.248535,-0.435547,0.783691,0
10790,-0.242676,-0.44873,0.783691,0
10810,-0.255371,-0.454102,0.790527,0
10830,-0.262695,-0.441895,0.795898,0
10850,-0.287598,-0.421387,0.814453,0
10870,-0.273926,-0.416992,0.810059,0
10890,-0.257324,-0.407227,0.804199,0
10910,-0.25293,-0.428223,0.79248,0
10930,-0.259766,-0.435547,0.793457,0
10940,-0.271973,-0.432617,0.805664,0
10960,-0.26709,-0.415039,0.800781,0
10980,-0.253906,-0.424805,0.783203,0
11000,-0.246094,-0.441895,0.79248,0
11020,-0.249512,-0.443359,0.804199,0
11040,-0.251465,-0.422363,0.802246,0
11060,-0.254395,-0.411621,0.820801,0
11080,-0.264648,-0.40625,0.815918,0
11100,-0.255859,-0.419922,0.8125,0
11120,-0.237305,-0.434082,0.794434,0
11140,-0.23877,-0.445801,0.787598,0
11160,-0.255371,-0.438965,0.788086,0
11180,-0.255859,-0.437012,0.801758,0
11200,-0.245117,-0.411133,0.767578,0
11220,-0.265137,-0.44043,0.810547,0
11240,-0.263672,-0.439453,0.787109,0
11260,-0.255859,-0.438477,0.793457,0
11280,-0.254395,-0.430176,0.805176,0
11300,-0.237793,-0.415039,0.814453,0
11320,-0.235352,-0.428711,0.799316,0
11340,-0.241699,-0.443848,0.803223,0
11360,-0.23584,-0.42627,0.797852,0
11380,-0.236816,-0.423828,0.801758,0
11400,-0.248535,-0.425293,0.797363,0
11420,-0.245605,-0.431641,0.802734,0
11440,-0.241699,-0.42041,0.803223,0
11460,-0.240234,-0.424316,0.800781,0
11480,-0.237305,-0.426758,0.79834,0
11500,-0.235352,-0.420898,0.804688,0
11520,-0.250488,-0.42334,0.795898,0
11540,-0.25293,-0.422852,0.804199,0
11560,-0.250488,-0.418945,0.800781,0
11580,-0.255371,-0.454102,0.79834,0
11600,-0.266113,-0.45166,0.790527,0
11620,-0.251953,-0.439941,0.805664,0
11640,-0.251465,-0.387695,0.822266,0
11660,-0.254883,-0.363281,0.846191,0
11680,-0.266602,-0.406738,0.849121,0
11700,-0.276855,-0.426758,0.827148,0
11720,-0.244629,-0.422363,0.832031,0
11740,-0.189453,-0.42041,0.833984,0
11760,-0.154785,-0.42627,0.808594,0
11780,-0.150879,-0.445312,0.79541,0
11800,-0.162598,-0.454102,0.796387,0
11820,-0.161133,-0.454102,0.84668,0
11840,-0.172852,-0.453125,0.830078,0
11860,-0.143066,-0.460449,0.801758,0
11880,-0.126953,-0.500977,0.796875,0
11900,-0.109863,-0.499023,0.82373,0
11920,-0.09375,-0.498535,0.825684,0
11940,-0.0854492,-0.496094,0.825684,0
11960,-0.0688477,-0.452637,0.826172,0
11980,-0.0678711,-0.427246,0.816406,0
12000,-0.0698242,-0.408203,0.80127,0
12020,-0.0629883,-0.38916,0.826172,0
12040,-0.0654297,-0.376465,0.818848,0
12060,-0.078125,-0.379395,0.817383,0
12080,-0.0795898,-0.400879,0.842285,0
12100,-0.0834961,-0.398926,0.837402,0
12120,-0.0795898,-0.388672,0.830566,0
12140,-0.0644531,-0.393555,0.831543,0
12160,-0.0561523,-0.394531,0.821777,0
12180,-0.0527344,-0.376953,0.82666,0
12200,-0.0444336,-0.388672,0.812012,0
12220,-0.0395508,-0.390137,0.805176,0
12240,-0.0327148,-0.399414,0.793457,0
12260,-0.0263672,-0.399414,0.791992,0
12280,-0.0336914,-0.405762,0.786133,0
12300,-0.0517578,-0.404785,0.790527,0
12320,-0.0639648,-0.421387,0.78418,0
12340,-0.0634766,-0.434082,0.77832,0
12360,-0.0722656,-0.42041,0.793945,0
12380,-0.0727539,-0.401855,0.787598,0
12400,-0.074707,-0.391602,0.79834,0
12420,-0.0751953,-0.395996,0.809082,0
12440,-0.0703125,-0.391113,0.770508,0
12460,-0.0766602,-0.381836,0.775879,0
12480,-0.111816,-0.376465,0.794922,0
12500,-0.118164,-0.406738,0.824219,0
12520,-0.125488,-0.462891,0.852051,0
12540,-0.135742,-0.455566,0.834473,0
12560,-0.186523,-0.445801,0.898438,0
12580,-0.281738,-0.365723,1.05371,0
12600,-0.322754,-0.219727,1.1084,0
12620,-0.205078,-0.162109,0.975098,0
12640,-0.164062,-0.244629,0.868652,0
12660,-0.224121,-0.326172,0.8125,0
12680,-0.272461,-0.372559,0.75293,0
12700,-0.282715,-0.381836,0.743652,0
12720,-0.250488,-0.334473,0.768555,0
12740,-0.248535,-0.28418,0.835938,0
12760,-0.269043,-0.288574,0.871094,0
12780,-0.249512,-0.315918,0.88916,0
12800,-0.221191,-0.341797,0.890137,0
12820,-0.198242,-0.351074,0.853516,0
12840,-0.195312,-0.354004,0.835449,0
12860,-0.211426,-0.358398,0.831543,0
12880,-0.215332,-0.349121,0.831055,0
12900,-0.214355,-0.334473,0.833496,0
12920,-0.218262,-0.336426,0.844238,0
12940,-0.225098,-0.325684,0.852539,0
12960,-0.231445,-0.327637,0.853027,0
12980,-0.235352,-0.331543,0.850098,0
13000,-0.237793,-0.325684,0.841797,0
13020,-0.253418,-0.328125,0.84082,0
13040,-0.251465,-0.323242,0.851562,0
13060,-0.253906,-0.323242,0.855957,0
13080,-0.253418,-0.32959,0.853516,0
13100,-0.245117,-0.339844,0.84668,0
13120,-0.243164,-0.353516,0.844238,0
13140,-0.236328,-0.358398,0.840332,0
13160,-0.238281,-0.357422,0.837402,0
13180,-0.239746,-0.362305,0.831543,0
13200,-0.239258,-0.35791,0.823242,0
13220,-0.244141,-0.366699,0.820312,0
13240,-0.248535,-0.375,0.809082,0
13260,-0.254395,-0.371094,0.792969,0
13280,-0.24707,-0.381836,0.80127,0
13300,-0.242676,-0.371582,0.805664,0
13320,-0.238281,-0.365723,0.814941,0
13340,-0.234863,-0.356934,0.828613,0
13360,-0.230957,-0.347168,0.840332,0
13380,-0.237793,-0.353516,0.836914,0
13400,-0.239258,-0.354492,0.837891,0
13420,-0.249512,-0.352051,0.83252,0
13440,-0.250488,-0.350098,0.839355,0
13460,-0.258789,-0.347168,0.838379,0
13480,-0.253906,-0.333008,0.836914,0
13500,-0.25293,-0.312988,0.84375,0
13520,-0.257324,-0.293457,0.836914,0
13540,-0.256836,-0.287598,0.842773,0
13560,-0.252441,-0.282715,0.845215,0
13580,-0.25293,-0.291504,0.853516,0
13600,-0.255371,-0.300293,0.85791,0
13620,-0.243652,-0.303223,0.85791,0
13640,-0.246582,-0.318359,0.855957,0
13660,-0.237305,-0.318848,0.856934,0
13680,-0.224121,-0.313965,0.85498,0
13700,-0.21582,-0.30957,0.858887,0
13720,-0.201172,-0.286621,0.866211,0
13740,-0.196777,-0.273926,0.865723,0
13760,-0.189941,-0.280273,0.884277,0
13780,-0.179688,-0.270996,0.881348,0
13800,-0.200684,-0.270508,0.873047,0
13820,-0.206055,-0.267578,0.875488,0
13840,-0.19873,-0.266113,0.877441,0
13860,-0.214844,-0.27002,0.874023,0
13880,-0.218262,-0.259766,0.866211,0
13900,-0.212891,-0.250977,0.881836,0
13920,-0.208008,-0.246094,0.880371,0
13940,-0.21875,-0.251465,0.87207,0
13960,-0.228027,-0.236816,0.861816,0
13980,-0.224121,-0.231934,0.878906,0
14000,-0.234375,-0.196289,0.850098,0
14020,-0.219238,-0.262695,0.890137,0
14040,-0.22998,-0.257324,0.876953,0
14060,-0.226074,-0.249512,0.874512,0
14080,-0.208984,-0.246094,0.87793,0
14100,-0.214355,-0.242676,0.881836,0
14120,-0.208984,-0.248047,0.875,0
14140,-0.202637,-0.23877,0.871582,0
14160,-0.196777,-0.250977,0.871582,0
14180,-0.211914,-0.233887,0.883789,0
14200,-0.209961,-0.222656,0.865723,0
14220,-0.223145,-0.232422,0.866211,0
14240,-0.222168,-0.233398,0.868652,0
14260,-0.23584,-0.213379,0.86377,0
14280,-0.219238,-0.248047,0.896973,0
14300,-0.241211,-0.260742,0.876953,0
14320,-0.224609,-0.273438,0.902344,0
14330,-0.171875,-0.289062,0.914551,0
14350,-0.142578,-0.322754,0.885254,0
14370,-0.135254,-0.330566,0.87207,0
14390,-0.161621,-0.328125,0.863281,0
14410,-0.165039,-0.32373,0.882812,0
14430,-0.164062,-0.335938,0.845703,0
14450,-0.167969,-0.350098,0.835938,0
14470,-0.175781,-0.334961,0.848145,0
14490,-0.196777,-0.333984,0.859863,0
14510,-0.214844,-0.327148,0.849121,0
14530,-0.20166,-0.355469,0.856445,0
14550,-0.195801,-0.360352,0.851562,0
14570,-0.180176,-0.373535,0.833984,0
14590,-0.158691,-0.395508,0.815918,0
14610,-0.163574,-0.422852,0.797852,0
14630,-0.160645,-0.476562,0.768066,0
14650,-0.159668,-0.508301,0.762695,0
14670,-0.154785,-0.515625,0.762695,0
14690,-0.150879,-0.524414,0.768555,0
14710,-0.159668,-0.532715,0.775879,0
14730,-0.14209,-0.520508,0.785645,0
14750,-0.129395,-0.496582,0.785156,0
14770,-0.135742,-0.464844,0.791992,0
14790,-0.118652,-0.504395,0.790527,0
14810,-0.136719,-0.492188,0.783203,0
14830,-0.124023,-0.513672,0.775391,0
14850,-0.110352,-0.51123,0.740723,0
14870,-0.0952148,-0.490723,0.758301,0
14890,-0.101074,-0.458008,0.758301,0
14910,-0.121094,-0.455566,0.758789,0
14930,-0.142578,-0.487305,0.775879,0
14950,-0.140625,-0.515137,0.768555,0
14970,-0.130371,-0.534668,0.757324,0
14990,-0.119141,-0.524414,0.762207,0
15010,-0.11084,-0.509766,0.772461,0
15030,-0.124512,-0.515137,0.778809,0
15050,-0.146484,-0.5,0.785645,0
15070,-0.163086,-0.489746,0.759766,0
15090,-0.171875,-0.509766,0.76416,0
15110,-0.180664,-0.507324,0.762207,0
15130,-0.170898,-0.511719,0.769043,0
15150,-0.195801,-0.493652,0.750488,0
15170,-0.222656,-0.480957,0.75,0
15190,-0.26416,-0.480469,0.736816,0
15210,-0.266602,-0.495117,0.736328,0
15230,-0.256836,-0.522949,0.773926,0
15250,-0.262207,-0.485352,0.788574,0
15270,-0.196289,-0.486816,0.808105,0
15290,-0.168945,-0.541992,0.804688,0
15310,-0.166016,-0.560059,0.794434,0
15330,-0.159668,-0.577148,0.811523,0
15350,-0.143066,-0.589355,0.79834,0
15370,-0.139648,-0.561035,0.776367,0
15390,-0.146973,-0.557129,0.768555,0
15410,-0.152344,-0.561523,0.76416,0
15430,-0.142578,-0.583008,0.748535,0
15450,-0.149414,-0.572266,0.762695,0
15470,-0.166992,-0.551758,0.758789,0
15490,-0.195312,-0.546387,0.76416,0
15510,-0.212891,-0.537598,0.786133,0
15530,-0.225098,-0.540039,0.784668,0
15550,-0.242188,-0.594727,0.75,0
15570,-0.216797,-0.634766,0.681152,0
15590,-0.199219,-0.631348,0.676758,0
15610,-0.212402,-0.559082,0.735352,0
15630,-0.233398,-0.490723,0.774902,0
15650,-0.199219,-0.481445,0.770996,0
15670,-0.160645,-0.539551,0.706543,0
15690,-0.159668,-0.540527,0.709473,0
15710,-0.144043,-0.533203,0.76709,0
15730,-0.115234,-0.532715,0.790039,0
15750,-0.118652,-0.538086,0.780762,0
15770,-0.132812,-0.45752,0.776855,0
15790,-0.10498,-0.499512,0.708984,0
15810,-0.0991211,-0.52002,0.752441,0
15830,-0.0986328,-0.59082,0.812988,0
15850,-0.120117,-0.546387,0.808105,0
15870,-0.138672,-0.557129,0.78125,0
15890,-0.137207,-0.540039,0.726562,0
15910,-0.143555,-0.526367,0.731445,0
15930,-0.124023,-0.584473,0.742676,0
15950,-0.0576172,-0.652344,0.695312,0
15980,-0.117676,-0.61084,0.693359,0
15990,-0.0976562,-0.595215,0.706543,0
16010,-0.110352,-0.606934,0.739258,0
16030,-0.141602,-0.613281,0.75293,0
16050,-0.152832,-0.585449,0.781738,0
16070,-0.119141,-0.564453,0.739258,0
16090,-0.097168,-0.585449,0.712402,0
16110,-0.0698242,-0.614258,0.705566,0
16130,-0.0737305,-0.589844,0.74707,0
16150,-0.0537109,-0.625977,0.754395,0
16170,-0.0078125,-0.650391,0.731934,0
16190,-0.0366211,-0.634766,0.741211,0
16210,-0.0361328,-0.609375,0.731934,0
16220,0.0400391,-0.586914,0.695801,0
16240,0.0839844,-0.651855,0.68457,0
16260,0.0576172,-0.693848,0.688477,0
16280,0.0336914,-0.67041,0.695312,0
16300,0.0537109,-0.637207,0.705566,0
16320,0.101562,-0.626465,0.677734,0
16340,0.222168,-0.594727,0.614746,0
16360,0.29248,-0.49707,0.566406,0
16380,0.278809,-0.644531,0.432617,0
16410,-0.123047,-0.617188,0.759277,0
16430,-0.0268555,-0.716309,0.777832,0
16450,0.145508,-0.692383,0.748047,0
16470,0.169434,-0.57666,0.685547,0
16490,-0.0766602,-0.400391,0.827148,0
16510,-0.118164,-0.477051,0.82373,0
16530,0,-0.631348,0.831055,0
16550,-0.012207,-0.666016,0.866699,0
16570,0.00585938,-0.65918,0.80957,0
16590,0.0336914,-0.632812,0.744141,0
16610,0.034668,-0.65918,0.685547,0
16630,0.101074,-0.665527,0.679688,0
16650,0.187988,-0.640137,0.65332,0
16670,0.146484,-0.575195,0.635254,0
16690,0.141602,-0.487305,0.722168,0
16710,-0.102539,-0.447266,0.741211,0
16730,-0.109375,-0.479004,0.698242,0
16750,0.0415039,-0.539062,0.710938,0
16770,0.156738,-0.595703,0.685059,0
16790,0.0117188,-0.604492,0.611816,0
16810,-0.112305,-0.589355,0.623047,0
16830,-0.223633,-0.693359,0.59668,0
16850,-0.217285,-0.757324,0.603516,0
16870,-0.17041,-0.79834,0.598145,0
16890,-0.148926,-0.739258,0.610352,0
16910,-0.209961,-0.647949,0.599121,0
16930,-0.225586,-0.503906,0.547852,0
16950,-0.372559,-0.71582,0.663086,0
16970,-0.262695,-0.798828,0.666504,0
16990,-0.21875,-0.887207,0.701172,0
17010,-0.194336,-0.894043,0.673828,0
17030,-0.209473,-0.788086,0.653809,0
17050,-0.287598,-0.735352,0.626465,0
17070,-0.221191,-0.751465,0.657715,0
17090,-0.0883789,-0.697266,0.743652,0
17110,-0.0595703,-0.737793,0.640137,0
17130,-0.134277,-0.75,0.606934,0
17150,-0.188965,-0.717285,0.626953,0
17170,-0.193359,-0.714355,0.63916,0
17190,-0.15918,-0.64502,0.627441,0
17210,-0.105957,-0.590332,0.634766,0
17230,-0.0859375,-0.532227,0.60498,0
17250,-0.0820312,-0.602051,0.612793,0
17270,-0.102051,-0.702148,0.608887,0
17290,-0.15332,-0.741211,0.572266,0
17310,-0.185547,-0.754883,0.608887,0
17330,-0.140625,-0.70166,0.672852,0
17350,-0.0639648,-0.663086,0.650879,0
17370,0.012207,-0.645508,0.616699,0
17390,0.0410156,-0.649414,0.597168,0
17410,0.000976562,-0.695801,0.566406,0
17430,-0.0732422,-0.737305,0.603516,0
17450,-0.0820312,-0.762207,0.623535,0
17470,-0.0708008,-0.756348,0.626465,0
17490,-0.107422,-0.739746,0.621094,0
17510,-0.185059,-0.75,0.631348,0
17530,-0.242188,-0.751953,0.660156,0
17550,-0.235352,-0.71875,0.637207,0
17570,-0.202637,-0.731445,0.607422,0
17590,-0.18457,-0.709961,0.631836,0
17610,-0.210449,-0.689941,0.609375,0
17630,-0.234375,-0.666016,0.619629,0
17650,-0.205566,-0.68457,0.620605,0
17670,-0.187012,-0.689453,0.624512,0
17690,-0.182617,-0.681641,0.621094,0
17710,-0.194336,-0.677246,0.617188,0
17730,-0.205566,-0.662109,0.628906,0
17750,-0.229492,-0.628906,0.624512,0
17770,-0.256836,-0.632324,0.600098,0
17790,-0.248535,-0.616699,0.625,0
17810,-0.226074,-0.629883,0.605469,0
17830,-0.259766,-0.682129,0.648438,0
17850,-0.302246,-0.695801,0.658203,0
17870,-0.359375,-0.696289,0.683105,0
17890,-0.301758,-0.719727,0.717773,0
17910,-0.187012,-0.766602,0.706543,0
17930,-0.104004,-0.807129,0.616699,0
17950,0.012207,-0.831543,0.58252,0
17970,0.0761719,-0.815918,0.543945,0
17990,0.0537109,-0.785156,0.555664,0
18010,0.00878906,-0.777832,0.57666,0
18030,-0.0683594,-0.754395,0.640625,0
18050,-0.178711,-0.697754,0.682129,0
18070,-0.21582,-0.651855,0.739746,0
18090,-0.22998,-0.716797,0.756348,0
18110,-0.131836,-0.669922,0.733398,0
18130,-0.0947266,-0.556641,0.710449,0
18150,-0.216797,-0.407227,0.805176,0
18170,-0.282715,-0.318848,0.967285,0
18190,-0.202148,-0.304199,0.907715,0
18210,-0.194336,-0.322266,0.929688,0
18230,-0.171387,-0.429688,0.941406,0
18250,-0.0366211,-0.580078,0.885742,0
18270,-0.0249023,-0.733887,0.82959,0
18290,-0.104492,-0.763672,0.856934,0
18310,-0.0742188,-0.621094,0.79541,0
18330,-0.00927734,-0.480957,0.779297,0
18350,0.0146484,-0.411133,0.743652,0
18370,0.0444336,-0.388184,0.725098,0
18390,0.0722656,-0.425293,0.729004,0
18410,0.0981445,-0.500488,0.724609,0
18430,0.145508,-0.539062,0.644531,0
18450,0.175293,-0.600098,0.610352,0
18470,0.191406,-0.552246,0.647461,0
18490,0.213867,-0.505859,0.602051,0
18510,0.237305,-0.470215,0.608887,0
18530,0.219727,-0.505371,0.665039,0
18550,0.233398,-0.558594,0.666992,0
18570,0.286133,-0.59668,0.661621,0
18590,0.328613,-0.611328,0.651855,0
18610,0.345703,-0.580566,0.668457,0
18630,0.342285,-0.564941,0.665527,0
18650,0.328125,-0.565918,0.652832,0
18670,0.334961,-0.569824,0.675293,0
18690,0.349609,-0.570312,0.658203,0
18710,0.350586,-0.579102,0.648926,0
18730,0.34668,-0.569336,0.628906,0
18750,0.319824,-0.585449,0.635254,0
18770,0.314453,-0.57373,0.668945,0
18790,0.333496,-0.570312,0.652832,0
18810,0.344727,-0.623047,0.65332,0
18830,0.358398,-0.611328,0.647949,0
18850,0.352539,-0.561523,0.65625,0
18870,0.338379,-0.541992,0.662598,0
18890,0.301758,-0.54541,0.679688,0
18910,0.314453,-0.536621,0.69873,0
18930,0.380371,-0.54834,0.659668,0
18950,0.406738,-0.570312,0.628906,0
18970,0.37793,-0.520508,0.575195,0
18990,0.345215,-0.540039,0.604004,0
19010,0.366211,-0.620605,0.653809,0
19030,0.382812,-0.63916,0.657715,0
19050,0.375977,-0.602051,0.601074,0
19070,0.361816,-0.582031,0.559082,0
19090,0.367188,-0.585449,0.572266,0
19110,0.396484,-0.57959,0.583496,0
19130,0.407227,-0.59375,0.591309,0
19150,0.373535,-0.579102,0.602051,0
19170,0.364258,-0.583496,0.628906,0
19190,0.342773,-0.609375,0.639648,0
19210,0.356934,-0.630859,0.650879,0
19230,0.358398,-0.651855,0.61084,0
19250,0.36377,-0.669922,0.574707,0
19270,0.343262,-0.635254,0.592285,0
19290,0.334961,-0.596191,0.611816,0
19310,0.358887,-0.61377,0.572266,0
19330,0.37207,-0.665039,0.539551,0
19350,0.379883,-0.680176,0.557129,0
19370,0.346191,-0.638672,0.567871,0
19390,0.335938,-0.628418,0.570312,0
19410,0.359863,-0.651855,0.577637,0
19430,0.362305,-0.664551,0.562012,0
19450,0.317383,-0.667969,0.542969,0
19470,0.291992,-0.64502,0.554199,0
19490,0.321777,-0.650879,0.574707,0
19510,0.335449,-0.67041,0.571289,0
19530,0.344727,-0.678711,0.569336,0
19550,0.331055,-0.665527,0.564941,0
19560,0.331543,-0.655273,0.55127,0
19580,0.325684,-0.651367,0.534668,0
19600,0.324219,-0.651855,0.570801,0
19620,0.334473,-0.665527,0.595215,0
19640,0.34375,-0.701172,0.571777,0
19660,0.34668,-0.709961,0.563965,0
19680,0.352051,-0.674316,0.556641,0
19700,0.349121,-0.652344,0.561035,0
19720,0.349609,-0.651367,0.556641,0
19740,0.343262,-0.663574,0.561035,0
19760,0.340332,-0.666992,0.567871,0
19780,0.34082,-0.675781,0.564453,0
19800,0.345703,-0.65918,0.553223,0
19820,0.358887,-0.649414,0.553711,0
19840,0.347168,-0.65332,0.560547,0
19860,0.350586,-0.652832,0.564453,0
19880,0.333496,-0.65625,0.553223,0
19900,0.316895,-0.683105,0.562012,0
19920,0.324707,-0.66748,0.572754,0
19940,0.337891,-0.689941,0.561523,0
19960,0.338867,-0.686523,0.5625,0
19980,0.351074,-0.69043,0.547852,0
20000,0.34668,-0.687988,0.534668,0
20020,0.32959,-0.667969,0.536133,0
20040,0.328125,-0.656738,0.537109,0
20060,0.351562,-0.679199,0.536621,0
20080,0.331055,-0.679199,0.544434,0
20100,0.293457,-0.66748,0.588379,0
20120,0.255859,-0.635254,0.601074,0
20140,0.239746,-0.645508,0.628906,0
20160,0.190918,-0.608398,0.65918,0
20180,0.150391,-0.606445,0.6875,0
20200,0.154785,-0.630859,0.698242,0
20220,0.17334,-0.644043,0.682617,0
20240,0.1875,-0.661133,0.675293,0
20260,0.202637,-0.67041,0.654785,0
20280,0.206543,-0.663086,0.633301,0
20300,0.199219,-0.643555,0.622559,0
20320,0.195312,-0.651367,0.617188,0
20340,0.189453,-0.65918,0.610352,0
20360,0.21582,-0.663574,0.59375,0
20380,0.220703,-0.667969,0.600098,0
20400,0.20459,-0.677246,0.601562,0
20420,0.193848,-0.664551,0.609863,0
20440,0.214355,-0.656738,0.61377,0
20460,0.241211,-0.663086,0.624023,0
20480,0.229004,-0.657227,0.648438,0
20500,0.196289,-0.638184,0.664551,0
20520,0.169922,-0.655273,0.678223,0
20540,0.17627,-0.670898,0.682129,0
20560,0.185547,-0.699219,0.68457,0
20580,0.201172,-0.699219,0.706543,0
20600,0.192871,-0.696289,0.689453,0
20620,0.180664,-0.678711,0.685059,0
20640,0.170898,-0.664062,0.67627,0
20660,0.151855,-0.660156,0.67334,0
20680,0.121582,-0.661133,0.67334,0
20700,0.0839844,-0.649414,0.666992,0
20720,0.0361328,-0.644531,0.658691,0
20740,-0.000976562,-0.638672,0.677246,0
20760,-0.046875,-0.63916,0.679199,0
20780,-0.0957031,-0.621582,0.663086,0
20800,-0.134766,-0.614746,0.686523,0
20820,-0.164551,-0.595703,0.692871,0
20840,-0.155762,-0.557617,0.711914,0
20860,-0.134766,-0.630371,0.705566,0
20880,-0.145508,-0.706055,0.688477,0
20900,-0.157715,-0.720703,0.680664,0
20920,-0.163574,-0.703125,0.654297,0
20940,-0.0805664,-0.675293,0.6875,0
20960,-0.0356445,-0.681641,0.688477,0
20980,-0.0620117,-0.666504,0.688477,0
21000,-0.100586,-0.640137,0.649902,0
21020,-0.115234,-0.643066,0.644043,0
21040,-0.147461,-0.683594,0.654785,0
21060,-0.179199,-0.683594,0.668457,0
21080,-0.208008,-0.692871,0.661133,0
21100,-0.194824,-0.708984,0.660156,0
21120,-0.162598,-0.722168,0.65332,0
21140,-0.141602,-0.744141,0.668457,0
21160,-0.134766,-0.72998,0.668945,0
21180,-0.118652,-0.712891,0.651855,0
21200,-0.0976562,-0.685547,0.666016,0
21220,-0.0927734,-0.65332,0.677734,0
21240,-0.097168,-0.663086,0.693848,0
21260,-0.0791016,-0.662598,0.711914,0
21280,-0.0629883,-0.651367,0.716309,0
21300,-0.0639648,-0.629395,0.713379,0
21320,-0.0649414,-0.604004,0.705078,0
21340,-0.0532227,-0.59082,0.70459,0
21360,-0.0234375,-0.569824,0.69873,0
21380,0.0078125,-0.584961,0.696289,0
21400,0.0117188,-0.612305,0.688477,0
21420,-0.0175781,-0.621582,0.690918,0
21440,-0.050293,-0.615723,0.696289,0
21460,-0.0883789,-0.614746,0.714355,0
21480,-0.0761719,-0.608398,0.738281,0
21500,-0.0478516,-0.595215,0.725586,0
21520,-0.0478516,-0.585938,0.724121,0
21530,-0.0361328,-0.554688,0.720215,0
21550,-0.0322266,-0.547852,0.730469,0
21570,-0.0258789,-0.569824,0.732422,0
21590,0.0136719,-0.59082,0.72168,0
21610,0.0351562,-0.607422,0.711426,0
21630,0.0390625,-0.59668,0.714844,0
21650,0.0229492,-0.575195,0.709473,0
21670,0.0244141,-0.581543,0.706543,0
21690,0.0424805,-0.57959,0.719727,0
21710,0.0546875,-0.575195,0.71582,0
21730,0.0517578,-0.592773,0.69873,0
21750,0.0371094,-0.599609,0.697266,0
21770,0.0307617,-0.598145,0.709473,0
21790,0.0258789,-0.60498,0.723145,0
21810,0.00878906,-0.636719,0.70459,0
21830,0.012207,-0.640137,0.689453,0
21850,0.0126953,-0.645996,0.697754,0
21870,0.00976562,-0.625488,0.699707,0
21890,-0.00146484,-0.641602,0.671875,0
21910,-0.00634766,-0.652344,0.673828,0
21930,0.0175781,-0.651855,0.67334,0
21950,0.0302734,-0.659668,0.679688,0
21970,0.0405273,-0.653809,0.702148,0
21990,0.0546875,-0.677734,0.682129,0
22010,0.0493164,-0.675781,0.65918,0
22030,0.0522461,-0.621094,0.662598,0
22050,0.0439453,-0.600586,0.703125,0
22070,0.0625,-0.644043,0.71875,0
22090,0.0786133,-0.697266,0.694824,0
22110,0.0664062,-0.703125,0.677734,0
22130,0.046875,-0.628418,0.673828,0
22150,0.0234375,-0.591797,0.69873,0
22170,0.0258789,-0.616699,0.684082,0
22190,0.0327148,-0.672363,0.662598,0
22210,0.0322266,-0.678711,0.664062,0
22230,0.0395508,-0.679688,0.663086,0
22250,0.0483398,-0.685059,0.647461,0
22270,0.0605469,-0.671387,0.637207,0
22290,0.0644531,-0.647949,0.646484,0
22310,0.0366211,-0.661133,0.656738,0
22330,0.0341797,-0.6875,0.661133,0
22350,0.0512695,-0.674316,0.655762,0
22370,0.0541992,-0.65332,0.67041,0
22390,0.0527344,-0.632324,0.683594,0
22410,0.0419922,-0.640137,0.686035,0
22430,0.0419922,-0.645508,0.690918,0
22450,0.0473633,-0.661621,0.703125,0
22470,0.0512695,-0.664551,0.683594,0
22490,0.0576172,-0.681641,0.661621,0
22510,0.0654297,-0.681641,0.64502,0
22530,0.0917969,-0.654297,0.655762,0
22550,0.0893555,-0.640137,0.655273,0
22570,0.0800781,-0.658691,0.657227,0
22590,0.0869141,-0.681641,0.664062,0
22610,0.0957031,-0.69873,0.679199,0
22630,0.0961914,-0.702148,0.657227,0
22650,0.0791016,-0.682617,0.659668,0
22670,0.0678711,-0.64209,0.668945,0
22690,0.0678711,-0.622559,0.67627,0
22710,0.0859375,-0.64502,0.681641,0
22730,0.0932617,-0.671875,0.683105,0
22750,0.0854492,-0.64502,0.668945,0
22770,0.0976562,-0.649414,0.676758,0
22790,0.124023,-0.652832,0.65918,0
22810,0.134277,-0.647949,0.664062,0
22830,0.112305,-0.65918,0.652344,0
22850,0.101562,-0.65332,0.659668,0
22870,0.102051,-0.678223,0.655762,0
22890,0.0986328,-0.683105,0.64209,0
22910,0.0830078,-0.661133,0.649414,0
22930,0.0864258,-0.648926,0.658691,0
22950,0.0976562,-0.64209,0.663574,0
22970,0.0932617,-0.642578,0.665039,0
22990,0.0874023,-0.641602,0.655762,0
23010,0.105957,-0.651855,0.662598,0
23030,0.111816,-0.657715,0.645996,0
23050,0.104004,-0.649902,0.645996,0
23070,0.0961914,-0.65332,0.650391,0
23090,0.101074,-0.663086,0.63916,0
23110,0.116211,-0.657715,0.652344,0
23130,0.104492,-0.645508,0.658691,0
23150,0.0883789,-0.651855,0.651855,0
23170,0.0893555,-0.653809,0.674805,0
23190,0.0996094,-0.666992,0.672363,0
23210,0.125,-0.656738,0.660156,0
23230,0.114258,-0.65625,0.665039,0
23250,0.105957,-0.642578,0.674316,0
23270,0.103516,-0.647949,0.662598,0
23290,0.0864258,-0.65918,0.665039,0
23310,0.0810547,-0.688965,0.659668,0
23330,0.0981445,-0.695801,0.668945,0
23350,0.108887,-0.634277,0.702637,0
23370,0.11377,-0.636719,0.686523,0
23390,0.133301,-0.661621,0.669434,0
23410,0.13916,-0.67041,0.657227,0
23430,0.139648,-0.660645,0.654785,0
23450,0.13916,-0.658203,0.654785,0
23470,0.13623,-0.658691,0.645508,0
23490,0.132812,-0.667969,0.648438,0
23510,0.117188,-0.659668,0.637207,0
23530,0.101562,-0.632324,0.63916,0
23550,0.0961914,-0.608887,0.65625,0
23570,0.0986328,-0.606445,0.658691,0
23590,0.112305,-0.611816,0.672852,0
23610,0.129395,-0.652344,0.668457,0
23630,0.140137,-0.654297,0.68457,0
23650,0.141113,-0.676758,0.671387,0
23670,0.13623,-0.655273,0.67334,0
23690,0.138672,-0.621582,0.688477,0
23710,0.152344,-0.623535,0.666016,0
23730,0.146484,-0.646973,0.666504,0
23750,0.150879,-0.673828,0.663574,0
23770,0.151855,-0.680176,0.661621,0
23790,0.143555,-0.652344,0.662598,0
23810,0.130371,-0.650879,0.656738,0
23830,0.120605,-0.630859,0.671387,0
23850,0.12793,-0.617188,0.67334,0
23870,0.138184,-0.646484,0.667969,0
23890,0.137695,-0.660645,0.666992,0
23910,0.120605,-0.649414,0.691406,0
23930,0.109863,-0.618652,0.683105,0
23950,0.126465,-0.612305,0.672363,0
23970,0.144531,-0.625488,0.674805,0
23990,0.144043,-0.644043,0.650391,0
24010,0.139648,-0.635254,0.664062,0
24030,0.124512,-0.621582,0.689941,0
24050,0.116211,-0.620605,0.713867,0
24070,0.121582,-0.648926,0.674805,0
24090,0.129883,-0.656738,0.676758,0
24110,0.129395,-0.650391,0.672852,0
24130,0.118652,-0.637695,0.681641,0
24150,0.112305,-0.63916,0.687988,0
24170,0.116699,-0.652832,0.671875,0
24190,0.114258,-0.652344,0.676758,0
24210,0.106445,-0.63916,0.666504,0
24230,0.115723,-0.628906,0.670898,0
24250,0.120605,-0.629395,0.688965,0
24270,0.132324,-0.637695,0.684082,0
24290,0.14209,-0.646484,0.686035,0
24310,0.160645,-0.644531,0.6875,0
24330,0.175293,-0.661133,0.678711,0
24350,0.189453,-0.65625,0.677246,0
24370,0.182129,-0.645996,0.699219,0
24390,0.164551,-0.630371,0.704102,0
24410,0.153809,-0.633789,0.703613,0
24430,0.155762,-0.641602,0.702637,0
24450,0.147461,-0.609375,0.69873,0
24480,0.13916,-0.54834,0.683105,0
24500,0.148438,-0.533203,0.691895,0
24520,0.15625,-0.530273,0.712402,0
24540,0.168945,-0.580566,0.705078,0
24560,0.135254,-0.591309,0.726074,0
24580,0.0957031,-0.558594,0.720703,0
24600,0.106445,-0.527344,0.700195,0
24620,0.161621,-0.541992,0.702637,0
24640,0.166992,-0.554688,0.70459,0
24660,0.136719,-0.564941,0.695801,0
24680,0.0991211,-0.574707,0.699219,0
24700,0.111816,-0.60498,0.710449,0
24720,0.128418,-0.604492,0.716309,0
24740,0.101562,-0.57959,0.699707,0
24760,0.09375,-0.575195,0.700684,0
24780,0.0771484,-0.557617,0.705566,0
24800,0.0463867,-0.540039,0.72168,0
24820,0.0537109,-0.559082,0.751953,0
24840,0.0805664,-0.582031,0.762695,0
24860,0.11084,-0.607422,0.750977,0
24880,0.137207,-0.610352,0.744141,0
24900,0.126953,-0.577637,0.742188,0
24920,0.104492,-0.54834,0.744141,0
24930,0.0922852,-0.553711,0.737793,0
24950,0.0825195,-0.567871,0.73584,0
24970,0.081543,-0.596191,0.73291,0
24990,0.09375,-0.605957,0.725098,0
25010,0.104004,-0.616699,0.700684,0
25030,0.0996094,-0.633301,0.696289,0
25050,0.0917969,-0.594727,0.705566,0
25070,0.0888672,-0.560059,0.699219,0
25090,0.0864258,-0.544434,0.680176,0
25110,0.0898438,-0.525391,0.692871,0
25130,0.120605,-0.526367,0.695801,0
25150,0.135742,-0.58252,0.70166,0
25170,0.125977,-0.618164,0.70459,0
25190,0.126953,-0.598633,0.716797,0
25210,0.159668,-0.575684,0.717773,0
25230,0.194336,-0.563477,0.739746,0
25250,0.192383,-0.558594,0.741211,0
25270,0.169922,-0.569336,0.74707,0
25290,0.165039,-0.579102,0.739746,0
25310,0.183594,-0.580078,0.745117,0
25330,0.207031,-0.585449,0.738281,0
25350,0.198242,-0.572266,0.721191,0
25370,0.208008,-0.552734,0.714844,0
25390,0.202637,-0.5625,0.710449,0
25410,0.135742,-0.583008,0.687012,0
25430,-0.716309,-0.915039,0.727539,0
25450,1.48486,-0.830078,0.577148,0
25470,-0.197266,-0.616211,0.615723,0
25490,0.459961,-0.682129,0.579102,0
25510,0.343262,-0.731934,0.655273,0
25530,0.370117,-0.688965,0.547852,0
25550,0.352539,-0.734375,0.557617,0
25570,0.95459,-1.0083,0.541504,0
25590,-0.340332,-0.73584,0.60498,0
25610,0.125,-0.625,0.499023,0
25630,0.360352,-0.715332,0.652344,0
25650,0.379883,-0.685059,0.518555,0
25670,0.333496,-0.73877,0.58252,0
25690,0.296875,-0.724609,0.607422,0
25710,0.265625,-0.770996,0.577148,0
25730,0.28125,-0.837402,0.587891,0
25750,0.331055,-1.02539,0.700195,0
25770,0.293945,-0.669434,0.553223,0
25790,-0.271484,-0.514648,0.491699,0
25810,0.0463867,-0.527832,0.600098,0
25830,0.371094,-0.592285,0.575684,0
25850,0.437012,-0.641113,0.56543,0
25870,0.391113,-0.65918,0.565918,0
25890,0.351074,-0.640625,0.563965,0
25910,0.359375,-0.603516,0.584473,0
25930,0.393555,-0.550781,0.597656,0
25950,0.422852,-0.520996,0.575684,0
25970,0.399902,-0.51709,0.567383,0
25990,0.406738,-0.503906,0.585449,0
26010,0.406738,-0.504883,0.558594,0
26030,0.410156,-0.492676,0.558594,0
26050,0.414062,-0.484375,0.561035,0
26070,0.40625,-0.463379,0.587891,0
26090,0.429199,-0.419434,0.592285,0
26110,0.430664,-0.400879,0.608398,0
26130,0.436035,-0.394043,0.62207,0
26150,0.427246,-0.369629,0.626465,0
26170,0.410645,-0.391602,0.613281,0
26190,0.375,-0.47168,0.575684,0
26210,0.396484,-0.739258,0.466309,0
26230,0.51123,-0.585938,0.486328,0
26250,0.589844,-0.563965,0.550293,0
26270,0.591309,-0.800781,0.525391,0
26290,0.574219,-0.962891,0.429688,0
26310,0.490234,-0.933105,0.398926,0
26330,0.527832,-0.76709,0.427246,0
26350,0.530762,-0.745605,0.488281,0
26370,0.619629,-0.858887,0.397461,0
26390,0.610352,-1.19971,0.661621,0
26410,0.39502,-1.09473,-0.0976562,0
26430,0.54834,-0.790039,0.362305,0
26450,0.54541,-1.18604,0.75,0
26470,0.33252,-0.704102,0.314941,0
26490,0.514648,-0.287598,0.364746,0
26510,0.492676,-0.237305,0.458984,0
26530,0.447754,-0.266602,0.45459,0
26550,0.458984,-0.402832,0.431152,0
26570,0.416504,-0.542969,0.444336,0
26590,0.382812,-0.580566,0.459961,0
26610,0.352539,-0.5625,0.453613,0
26630,0.336914,-0.522461,0.428223,0
26650,0.388184,-0.564453,0.404785,0
26670,0.355957,-0.698242,0.402344,0
26690,0.42627,-0.783691,0.462402,0
26710,0.541992,-0.902344,0.540527,0
26730,0.494141,-0.834473,0.456055,0
26750,0.470703,-0.715332,0.486816,0
26770,0.518066,-0.650879,0.56543,0
26790,0.584473,-0.610352,0.567871,0
26810,0.602539,-0.563477,0.570312,0
26830,0.577148,-0.575195,0.578125,0
26850,0.540039,-0.581055,0.594727,0
26870,0.506836,-0.540527,0.586914,0
26880,0.513184,-0.486328,0.584473,0
26900,0.525879,-0.451172,0.572266,0
26920,0.525879,-0.447266,0.556641,0
26940,0.51709,-0.465332,0.554199,0
26960,0.521484,-0.476074,0.541504,0
26980,0.536621,-0.508301,0.526855,0
27000,0.559082,-0.516602,0.52002,0
27020,0.567871,-0.520508,0.514648,0
27040,0.590332,-0.545898,0.507812,0
27060,0.592773,-0.554688,0.515137,0
27080,0.580566,-0.549316,0.51123,0
27100,0.555176,-0.537109,0.532227,0
27120,0.561523,-0.525879,0.531738,0
27140,0.54541,-0.528809,0.533203,0
27160,0.539062,-0.516602,0.548828,0
27180,0.539551,-0.481445,0.548828,0
27200,0.545898,-0.48584,0.546387,0
27220,0.553223,-0.502441,0.536621,0
27240,0.551758,-0.500977,0.55127,0
27260,0.564453,-0.484375,0.550293,0
27280,0.585449,-0.500488,0.540527,0
27300,0.574219,-0.522949,0.542969,0
27320,0.569824,-0.525879,0.546875,0
27340,0.554199,-0.525879,0.539062,0
27360,0.549316,-0.523926,0.541504,0
27380,0.550781,-0.51123,0.546387,0
27400,0.541992,-0.520508,0.541504,0
27420,0.538574,-0.516602,0.538086,0
27440,0.53125,-0.518555,0.540527,0
27460,0.529297,-0.51709,0.546387,0
27480,0.537598,-0.519043,0.541992,0
27500,0.544922,-0.516113,0.546875,0
27520,0.552734,-0.505859,0.562012,0
27540,0.546875,-0.501465,0.562988,0
27560,0.540527,-0.50293,0.57373,0
27580,0.53418,-0.505371,0.574707,0
27600,0.530762,-0.498535,0.572266,0
27620,0.535156,-0.492188,0.59082,0
27640,0.541992,-0.479004,0.59082,0
27660,0.544922,-0.471191,0.597168,0
27680,0.543457,-0.478516,0.584961,0
27700,0.541992,-0.484863,0.590332,0
27720,0.539551,-0.470703,0.587891,0
27740,0.540527,-0.471191,0.583496,0
27760,0.53418,-0.478516,0.57666,0
27780,0.539062,-0.48584,0.572754,0
27800,0.556152,-0.483398,0.55957,0
27820,0.555176,-0.487793,0.574707,0
27840,0.535645,-0.473145,0.58252,0
27860,0.540039,-0.461914,0.586426,0
27880,0.543457,-0.460449,0.601074,0
27900,0.54541,-0.455078,0.591797,0
27920,0.533691,-0.485352,0.578613,0
27940,0.530762,-0.479492,0.583984,0
27960,0.532227,-0.485352,0.585938,0
27980,0.531738,-0.487305,0.581055,0
28000,0.535645,-0.48291,0.59375,0
28020,0.535156,-0.495117,0.590332,0
28040,0.532227,-0.510254,0.574219,0
28060,0.538574,-0.510254,0.569336,0
28080,0.551758,-0.502441,0.563477,0
28100,0.552734,-0.46875,0.5625,0
28120,0.549805,-0.460449,0.559082,0
28140,0.530273,-0.495605,0.563965,0
28160,0.523438,-0.496094,0.575684,0
28180,0.524902,-0.501953,0.564453,0
28200,0.537598,-0.50293,0.581055,0
28220,0.526367,-0.50293,0.575684,0
28240,0.522461,-0.514648,0.580566,0
28260,0.518066,-0.524414,0.57666,0
28280,0.518066,-0.522461,0.578613,0
28300,0.518555,-0.514648,0.57373,0
28320,0.518066,-0.525879,0.566406,0
28340,0.507812,-0.528809,0.576172,0
28360,0.5,-0.51416,0.574707,0
28380,0.481934,-0.546875,0.578125,0
28400,0.468262,-0.536621,0.584961,0
28420,0.478516,-0.55127,0.58252,0
28440,0.476562,-0.561523,0.58252,0
28460,0.467285,-0.560059,0.580078,0
28480,0.480957,-0.562012,0.572266,0
28500,0.476074,-0.567383,0.571777,0
28520,0.474121,-0.565918,0.566895,0
28540,0.474609,-0.569336,0.572754,0
28560,0.472656,-0.561035,0.574219,0
28580,0.479004,-0.55127,0.580078,0
28600,0.475586,-0.547852,0.574707,0
28620,0.479492,-0.533691,0.569336,0
28640,0.482422,-0.539062,0.575195,0
28660,0.478027,-0.553711,0.570801,0
28680,0.477539,-0.551758,0.570801,0
28700,0.485352,-0.553223,0.571777,0
28720,0.488281,-0.538574,0.578613,0
28740,0.484375,-0.578613,0.571777,0
28760,0.478516,-0.580566,0.566895,0
28780,0.501465,-0.566895,0.564453,0
28800,0.525391,-0.557617,0.554688,0
28820,0.517578,-0.557129,0.536621,0
28840,0.516113,-0.554688,0.552246,0
28860,0.509766,-0.553711,0.551758,0
28880,0.531738,-0.554688,0.550781,0
28900,0.54248,-0.552734,0.570801,0
28920,0.504395,-0.530273,0.600098,0
28940,0.44873,-0.472168,0.63916,0
28960,0.395996,-0.458496,0.647949,0
28980,0.428711,-0.479492,0.648926,0
29000,0.433594,-0.472656,0.648438,0
29020,0.404785,-0.443848,0.663086,0
29040,0.395508,-0.407227,0.689453,0
29060,0.39502,-0.394531,0.709473,0
29080,0.385742,-0.378418,0.730957,0
29100,0.378906,-0.376953,0.730469,0
29120,0.373535,-0.384766,0.754395,0
29140,0.364258,-0.353027,0.765625,0
29160,0.351074,-0.363281,0.78125,0
29180,0.345215,-0.361816,0.78125,0
29200,0.356934,-0.374023,0.769043,0
29220,0.355957,-0.382324,0.759277,0
29240,0.36084,-0.379395,0.751953,0
29260,0.364746,-0.38916,0.748047,0
29280,0.374023,-0.375488,0.742676,0
29300,0.393555,-0.369629,0.751953,0
29320,0.391602,-0.366211,0.750977,0
29340,0.385254,-0.374023,0.745605,0
29360,0.380859,-0.385254,0.734863,0
29380,0.382324,-0.391113,0.739746,0
29400,0.387695,-0.368164,0.730957,0
29420,0.383789,-0.371582,0.728516,0
29440,0.379395,-0.347168,0.733887,0
29460,0.375,-0.348633,0.744629,0
29480,0.368164,-0.353027,0.744141,0
29500,0.369141,-0.344727,0.757812,0
29520,0.368652,-0.350098,0.766602,0
29540,0.363281,-0.344727,0.783203,0
29560,0.362793,-0.352051,0.788574,0
29580,0.355469,-0.36377,0.786133,0
29600,0.362793,-0.369629,0.782715,0
29620,0.370605,-0.368164,0.775391,0
29640,0.377441,-0.364258,0.757324,0
29660,0.385254,-0.362793,0.74707,0
29680,0.384277,-0.359863,0.750488,0
29700,0.384277,-0.356445,0.742676,0
29720,0.388184,-0.35791,0.737793,0
29740,0.38623,-0.371582,0.734375,0
29760,0.388184,-0.375,0.732422,0
29780,0.390137,-0.386719,0.734863,0
29800,0.395508,-0.379395,0.732422,0
29820,0.407227,-0.375977,0.733398,0
29840,0.401855,-0.376465,0.727051,0
29860,0.413574,-0.369141,0.729492,0
29880,0.396484,-0.379883,0.728516,0
29900,0.397949,-0.37793,0.726074,0
29920,0.390137,-0.367188,0.741699,0
29940,0.389648,-0.370605,0.754883,0
29960,0.373535,-0.35791,0.750977,0
29980,0.381836,-0.356445,0.766602,0
30000,0.385254,-0.359375,0.76709,0
30020,0.382324,-0.363281,0.765625,0
30040,0.380371,-0.374512,0.769531,0
30060,0.37207,-0.367676,0.760254,0
30080,0.375,-0.375977,0.753418,0
30100,0.375977,-0.384766,0.744629,0
30120,0.373535,-0.383789,0.750488,0
30140,0.369141,-0.373047,0.734863,0
30160,0.37793,-0.377441,0.735352,0
30180,0.387695,-0.369629,0.725586,0
30200,0.387695,-0.366699,0.737793,0
30220,0.378906,-0.36084,0.73877,0
30240,0.369629,-0.358398,0.74707,0
30260,0.361328,-0.353027,0.752441,0
30280,0.364258,-0.355957,0.755371,0
30290,0.370605,-0.370605,0.753906,0
30310,0.383789,-0.376465,0.752441,0
30330,0.388184,-0.375,0.750977,0
30350,0.388672,-0.384766,0.75,0
30370,0.402344,-0.383301,0.740234,0
30390,0.397949,-0.396973,0.729492,0
30410,0.39209,-0.402344,0.725586,0
30430,0.391602,-0.39502,0.727051,0
30450,0.381836,-0.39502,0.731934,0
30470,0.379395,-0.392578,0.731934,0
30490,0.378418,-0.39502,0.732422,0
30510,0.377441,-0.395508,0.733887,0
30530,0.372559,-0.378418,0.750488,0
30550,0.365723,-0.375,0.748047,0
30570,0.357422,-0.374023,0.760254,0
30590,0.34668,-0.370605,0.758301,0
30610,0.351074,-0.376953,0.771973,0
30630,0.338867,-0.374023,0.773438,0
30650,0.34082,-0.376465,0.776367,0
30670,0.333008,-0.37207,0.769531,0
30690,0.334961,-0.364746,0.779297,0
30710,0.332031,-0.358887,0.768555,0
30730,0.334473,-0.358887,0.76416,0
30750,0.335449,-0.364746,0.76416,0
30770,0.333008,-0.361816,0.752441,0
30790,0.333496,-0.364258,0.760254,0
30810,0.338867,-0.374023,0.760254,0
30830,0.336426,-0.383789,0.760254,0
30850,0.339355,-0.386719,0.757812,0
30870,0.351074,-0.383789,0.755371,0
30890,0.358887,-0.386719,0.750977,0
30910,0.378906,-0.397461,0.756836,0
30930,0.391113,-0.390625,0.749512,0
30950,0.39209,-0.38623,0.752441,0
30970,0.38623,-0.38623,0.749023,0
30990,0.381348,-0.385742,0.748047,0
31010,0.387207,-0.389648,0.742188,0
31030,0.391113,-0.386719,0.741211,0
31050,0.391113,-0.380859,0.734375,0
31070,0.38916,-0.391602,0.728516,0
31090,0.385254,-0.395996,0.722656,0
31110,0.39209,-0.385742,0.72998,0
31130,0.375488,-0.391113,0.73584,0
31150,0.364258,-0.393555,0.737793,0
31170,0.370117,-0.393066,0.745605,0
31190,0.35791,-0.403809,0.750977,0
31210,0.355469,-0.403809,0.756836,0
31230,0.342773,-0.398926,0.760742,0
31250,0.345215,-0.394043,0.756836,0
31270,0.349121,-0.400879,0.754883,0
31290,0.344727,-0.387207,0.755371,0
31310,0.355469,-0.389648,0.754395,0
31330,0.349121,-0.394531,0.755859,0
31350,0.351074,-0.406738,0.757324,0
31370,0.348633,-0.419434,0.76709,0
31390,0.336426,-0.430664,0.761719,0
31410,0.325195,-0.4375,0.752441,0
31430,0.328125,-0.436523,0.73584,0
31450,0.335449,-0.445312,0.715332,0
31470,0.345215,-0.452637,0.690918,0
31490,0.343262,-0.466797,0.681641,0
31510,0.346191,-0.479004,0.687012,0
31530,0.327637,-0.506836,0.67627,0
31550,0.317383,-0.535156,0.674805,0
31570,0.308594,-0.549316,0.680176,0
31590,0.299316,-0.555176,0.690918,0
31610,0.283203,-0.564941,0.692383,0
31630,0.268066,-0.591797,0.700195,0
31640,0.217285,-0.586914,0.70459,0
31660,0.211914,-0.595703,0.706543,0
31680,0.195801,-0.597656,0.702637,0
31700,0.165039,-0.591797,0.71582,0
31720,0.123047,-0.575684,0.72168,0
31740,0.100586,-0.585449,0.723633,0
31760,0.0751953,-0.603027,0.724609,0
31780,0.0463867,-0.60498,0.720215,0
31800,0.0205078,-0.611816,0.728027,0
31820,0.000976562,-0.613281,0.711914,0
31840,-0.0112305,-0.61377,0.708984,0
31860,-0.0224609,-0.614258,0.692871,0
31880,-0.0327148,-0.617188,0.692383,0
31900,-0.027832,-0.615723,0.694336,0
31920,-0.034668,-0.61084,0.689941,0
31940,-0.0268555,-0.614746,0.690918,0
31960,-0.0219727,-0.616211,0.690918,0
31980,-0.0146484,-0.625977,0.697754,0
32000,-0.00341797,-0.618164,0.697266,0
32020,0.00341797,-0.629395,0.697754,0
32040,0.00830078,-0.635742,0.696289,0
32060,0.0234375,-0.639648,0.688477,0
32080,0.0283203,-0.644531,0.687012,0
32100,0.0351562,-0.643555,0.681641,0
32120,0.0307617,-0.638672,0.671875,0
32140,0.0258789,-0.642578,0.658691,0
32160,0.0244141,-0.638672,0.638184,0
32180,0.0185547,-0.656738,0.624512,0
32200,0.0263672,-0.648438,0.630371,0
32220,0.0805664,-0.640137,0.664062,0
32240,0.176758,-0.574707,0.739258,0
32250,0.217773,-0.530762,0.76709,0
32270,0.189941,-0.526855,0.751465,0
32290,0.135254,-0.566895,0.721191,0
32310,0.142578,-0.610352,0.664551,0
32330,0.154297,-0.620117,0.681641,0
32350,0.180176,-0.525391,0.687012,0
32370,0.166504,-0.41748,0.666992,0
32390,0.234863,-0.353516,0.768555,0
32410,0.209961,-0.455566,0.841797,0
32430,0.145508,-0.51709,0.823242,0
32450,0.32373,-0.720703,0.844727,0
32470,0.210938,-0.459473,0.717285,0
32490,0.353516,-0.515137,0.757324,0
32510,0.555664,-0.833496,0.902344,0
32530,0.450684,-1.07959,0.772461,0
32550,0.241211,-1.08594,0.662109,0
32570,0.140137,-0.924805,0.667969,0
32590,0.0532227,-0.62207,0.741699,0
32610,0.0146484,-0.345703,0.723633,0
32630,0.0708008,-0.176758,0.696777,0
32650,0.0478516,-0.134277,0.738281,0
32670,0.0229492,-0.276367,0.777344,0
32690,0.0522461,-0.460449,0.787598,0
32710,0.0756836,-0.586426,0.780762,0
32730,0.117676,-0.619629,0.762695,0
32750,0.146484,-0.572754,0.745605,0
32770,0.145508,-0.498535,0.729492,0
32790,0.141113,-0.470215,0.691895,0
32810,0.110352,-0.481445,0.669922,0
32830,0.090332,-0.540527,0.651855,0
32850,0.0869141,-0.607422,0.64209,0
32870,0.0834961,-0.618652,0.619141,0
32890,0.0668945,-0.638184,0.628906,0
32910,0.0522461,-0.597656,0.652344,0
32930,0.059082,-0.585449,0.668457,0
32950,0.059082,-0.575684,0.687988,0
32970,0.0625,-0.588867,0.694824,0
32990,0.0791016,-0.632812,0.698242,0
33010,0.0917969,-0.646484,0.701172,0
33030,0.0966797,-0.620117,0.71875,2000
33050,0.108398,-0.602539,0.723633,0
33070,0.120605,-0.593262,0.731445,0
33090,0.142578,-0.601074,0.726074,0
33110,0.147949,-0.608887,0.730957,0
33130,0.145508,-0.61377,0.727539,0
33150,0.130371,-0.606934,0.725586,0
33170,0.0932617,-0.589844,0.711914,0
33190,0.0644531,-0.571777,0.703125,0
33210,0.0668945,-0.562012,0.70752,0
33230,0.0908203,-0.553711,0.717773,0
33250,0.111328,-0.556152,0.725586,0
33270,0.105469,-0.558105,0.730469,0
33290,0.115234,-0.551758,0.742676,0
33310,0.182617,-0.565918,0.762207,0
33330,0.245605,-0.578125,0.776367,0
33350,0.269043,-0.571289,0.776367,0
33370,0.280762,-0.555664,0.766602,0
33390,0.288574,-0.55127,0.755859,0
33410,0.283691,-0.580566,0.699219,0
33430,0.274414,-0.616699,0.667969,0
33450,0.213867,-0.635742,0.647461,0
33470,0.129883,-0.615234,0.654785,0
33490,0.0791016,-0.594238,0.648926,0
33510,0.0527344,-0.578613,0.618652,0
33530,0.00244141,-0.525879,0.609863,0
33550,-0.0463867,-0.471191,0.688477,0
33570,-0.0405273,-0.493164,0.73584,0
33590,0.0375977,-0.556641,0.758789,0
33610,0.106445,-0.600586,0.770996,0
33630,0.141113,-0.61377,0.782227,0
33650,0.173828,-0.611328,0.794922,0
33670,0.199707,-0.618164,0.803223,0
33690,0.21582,-0.619629,0.811523,0
33710,0.223145,-0.624023,0.789062,0
33730,0.205078,-0.625488,0.770996,0
33750,0.195312,-0.605957,0.751953,0
33770,0.186035,-0.611328,0.726074,0
33790,0.17041,-0.597168,0.697266,0
33810,0.153809,-0.575195,0.684082,0
33830,0.119629,-0.552246,0.66748,0
33850,0.0883789,-0.538574,0.655273,0
33870,0.0766602,-0.529785,0.655762,0
33890,0.0722656,-0.515137,0.651855,0
33910,0.0673828,-0.516113,0.661133,0
33930,0.0546875,-0.51709,0.691895,0
33950,0.0737305,-0.524414,0.72998,0
33970,0.108887,-0.53418,0.743652,0
33990,0.133301,-0.571289,0.74707,0
34010,0.13916,-0.589844,0.762207,0
34030,0.152832,-0.605957,0.76416,0
34050,0.181152,-0.611328,0.755371,0
34070,0.214844,-0.612793,0.753418,0
34090,0.217773,-0.629883,0.736816,0
34110,0.189453,-0.638672,0.724609,0
34130,0.156738,-0.637695,0.708496,0
34150,0.134277,-0.64502,0.695801,0
34170,0.119141,-0.607422,0.677734,0
34190,0.110352,-0.57373,0.675781,0
34210,0.102539,-0.561523,0.678711,0
34230,0.100586,-0.569336,0.68457,0
34250,0.102539,-0.570312,0.696289,0
34270,0.123047,-0.574707,0.693848,0
34290,0.13623,-0.55957,0.69873,0
34310,0.131836,-0.549316,0.713867,0
34330,0.147461,-0.561523,0.710938,0
34350,0.155762,-0.575684,0.719727,0
34370,0.161621,-0.585938,0.714355,0
34390,0.174805,-0.61084,0.725098,0
34410,0.17627,-0.623047,0.71875,0
34430,0.164551,-0.619629,0.724609,0
34450,0.144531,-0.613281,0.715332,0
34470,0.137695,-0.587402,0.705566,0
34490,0.141113,-0.576172,0.696777,0
34510,0.137207,-0.583984,0.696289,0
34530,0.134277,-0.604004,0.708984,0
34550,0.133301,-0.631836,0.702148,0
34570,0.14502,-0.625977,0.702637,0
34590,0.14209,-0.614746,0.70166,0
34610,0.14502,-0.614746,0.703125,0
34630,0.158203,-0.620117,0.699219,0
34650,0.166992,-0.628418,0.702148,0
34670,0.172363,-0.628906,0.689453,0
34690,0.172852,-0.628418,0.675781,0
34710,0.166504,-0.620605,0.687988,0
34730,0.168945,-0.603027,0.681641,0
34750,0.166504,-0.606934,0.687988,0
34770,0.17041,-0.613281,0.673828,0
34790,0.159668,-0.595703,0.681641,0
34810,0.15918,-0.59375,0.688477,0
34830,0.17627,-0.596191,0.685059,0
34850,0.179199,-0.595703,0.699219,0
34870,0.177246,-0.592773,0.703125,0
34890,0.170898,-0.587402,0.697266,0
34910,0.160156,-0.586914,0.69873,0
34930,0.15918,-0.581543,0.696777,0
34950,0.169922,-0.564453,0.701172,0
34970,0.169434,-0.566895,0.695312,0
34990,0.166504,-0.586426,0.700195,0
35010,0.166504,-0.60498,0.710449,0
35030,0.178223,-0.600586,0.70752,0
35050,0.177734,-0.573242,0.708008,0
35070,0.172852,-0.577637,0.689941,0
35090,0.172363,-0.609375,0.692383,0
35110,0.168457,-0.626465,0.692383,0
35130,0.171387,-0.605957,0.703613,0
35150,0.184082,-0.576172,0.693848,0
35170,0.179688,-0.561035,0.693359,0
35190,0.170898,-0.594727,0.689453,0
35210,0.147949,-0.611328,0.700195,0
35230,0.141602,-0.614258,0.708496,0
35250,0.171875,-0.591797,0.689941,0
35270,0.171387,-0.588867,0.680176,0
35290,0.143555,-0.595703,0.694824,0
35310,0.126953,-0.610352,0.706543,0
35330,0.13916,-0.597168,0.689453,0
35350,0.137207,-0.606934,0.695801,0
35370,0.126465,-0.617188,0.685059,0
35390,0.117188,-0.622559,0.700195,0
35410,0.111816,-0.606934,0.698242,0
35430,0.123535,-0.596191,0.692383,0
35450,0.131836,-0.587891,0.691406,0
35470,0.129883,-0.600586,0.687988,0
35490,0.130371,-0.613281,0.687012,0
35510,0.142578,-0.609863,0.686523,0
35530,0.171387,-0.599121,0.681152,0
35550,0.183105,-0.589355,0.671875,0
35570,0.171875,-0.589355,0.663086,0
35590,0.155273,-0.599609,0.674316,0
35610,0.178711,-0.59375,0.672363,0
35630,0.19873,-0.580566,0.668945,0
35640,0.18457,-0.589844,0.667969,0
35660,0.178223,-0.595703,0.666016,0
35680,0.19873,-0.603027,0.691406,0
35700,0.227539,-0.593262,0.66748,0
35720,0.226562,-0.608398,0.667969,0
35740,0.217773,-0.601074,0.689453,0
35760,0.225098,-0.588867,0.662598,0
35780,0.229004,-0.590332,0.66748,0
35800,0.229492,-0.605957,0.669922,0
35820,0.251953,-0.606934,0.665527,0
35840,0.269531,-0.608887,0.67627,0
35860,0.259766,-0.585938,0.672363,0
35880,0.255371,-0.598145,0.642578,0
35900,0.246094,-0.599609,0.65918,0
35920,0.262207,-0.597168,0.679199,0
35940,0.277832,-0.60791,0.671387,0
35960,0.265625,-0.604004,0.672852,0
35980,0.270996,-0.612793,0.662598,0
36000,0.288574,-0.612305,0.649902,0
36020,0.303223,-0.586426,0.654297,0
36040,0.299805,-0.570801,0.652344,0
36060,0.270996,-0.577148,0.645508,0
36080,0.257324,-0.628418,0.633789,0
36100,0.294922,-0.641602,0.631836,0
36120,0.322754,-0.602051,0.653809,0
36140,0.334961,-0.582031,0.648926,0
36160,0.350586,-0.58252,0.655762,0
36180,0.34668,-0.57373,0.641602,0
36200,0.359375,-0.580078,0.625,0
36220,0.378418,-0.581055,0.628418,0
36240,0.389648,-0.583984,0.642578,0
36260,0.384766,-0.582031,0.625977,0
36280,0.388184,-0.569824,0.634766,0
36300,0.42041,-0.556152,0.64209,0
36320,0.447754,-0.539062,0.633301,0
36340,0.46875,-0.534668,0.647949,0
36360,0.47998,-0.541016,0.637695,0
36380,0.502441,-0.532715,0.626953,0
36400,0.536133,-0.526367,0.617188,0
36420,0.56543,-0.504883,0.604004,0
36440,0.579102,-0.503906,0.62793,0
36460,0.568359,-0.525879,0.630859,0
36480,0.577148,-0.523438,0.610352,0
36500,0.600098,-0.503906,0.62207,0
36520,0.628418,-0.460449,0.631348,0
36540,0.672852,-0.423828,0.606934,0
36560,0.677246,-0.44043,0.633301,0
36580,0.641113,-0.455566,0.658203,0
36600,0.612793,-0.472656,0.659668,0
36620,0.623535,-0.42627,0.64502,0
36640,0.597656,-0.392578,0.684082,0
36660,0.537109,-0.448242,0.705078,0
36680,0.495605,-0.476562,0.73584,0
36700,0.481934,-0.43457,0.714355,0
36720,0.467285,-0.402344,0.748047,0
36740,0.439941,-0.401367,0.771484,0
36760,0.418457,-0.459473,0.730957,0
36780,0.413574,-0.507324,0.761719,0
36800,0.400391,-0.494141,0.753418,0
36820,0.324707,-0.435547,0.78125,0
36840,0.282227,-0.37207,0.783203,0
36860,0.260254,-0.352539,0.755371,0
36880,0.20752,-0.344238,0.783203,0
36900,0.175293,-0.369629,0.773926,0
36920,0.171387,-0.39502,0.780762,0
36940,0.171387,-0.395996,0.782715,0
36960,0.161133,-0.4375,0.78418,0
36980,0.144043,-0.426758,0.783203,0
37000,0.153809,-0.407227,0.779785,0
37020,0.15625,-0.416992,0.780762,0
37040,0.152344,-0.444824,0.77832,0
37060,0.163086,-0.415527,0.788086,0
37080,0.151855,-0.428711,0.78418,0
37100,0.152832,-0.423828,0.754883,0
37120,0.190918,-0.442871,0.77002,0
37140,0.17041,-0.44043,0.762207,0
37160,0.163086,-0.447266,0.748047,0
37180,0.143555,-0.464355,0.730469,0
37200,0.163574,-0.472168,0.734863,0
37220,0.19043,-0.498535,0.735352,0
37240,0.186523,-0.525391,0.713379,0
37260,0.165039,-0.556152,0.689453,0
37280,0.19043,-0.583984,0.688477,0
37300,0.220703,-0.586426,0.6875,0
37320,0.196289,-0.591797,0.683594,0
37340,0.125977,-0.628418,0.67041,0
37360,0.0957031,-0.643555,0.651367,0
37380,0.090332,-0.649902,0.638672,0
37400,0.101562,-0.64502,0.632324,0
37420,0.0883789,-0.633789,0.624512,0
37440,0.0732422,-0.635254,0.622559,0
37460,0.0849609,-0.65625,0.606934,0
37480,0.11084,-0.646973,0.615723,0
37500,0.125977,-0.645508,0.615723,0
37520,0.104492,-0.647461,0.59668,0
37540,0.0952148,-0.670898,0.571289,0
37560,0.0996094,-0.693848,0.547363,0
37580,0.0791016,-0.708496,0.548828,0
37600,0.0673828,-0.679199,0.520508,0
37620,0.101074,-0.702637,0.501465,0
37630,0.152832,-0.700684,0.53125,0
37650,0.165527,-0.724609,0.537109,0
37670,0.156738,-0.734375,0.553223,0
37690,0.160645,-0.761719,0.527832,0
37710,0.183594,-0.787109,0.503906,0
37730,0.191406,-0.76709,0.50293,0
37750,0.187988,-0.731934,0.522949,0
37770,0.179199,-0.737305,0.529785,0
37790,0.195801,-0.724609,0.536133,0
37810,0.234375,-0.720703,0.530273,0
37830,0.256348,-0.72998,0.515137,0
37850,0.254395,-0.764648,0.504395,0
37870,0.27002,-0.739746,0.530762,0
37890,0.299805,-0.67041,0.550293,0
37910,0.321777,-0.687988,0.548828,0
37930,0.365723,-0.747559,0.518066,0
37950,0.394531,-0.74707,0.525879,0
37970,0.359863,-0.679199,0.55127,0
37990,0.320312,-0.655273,0.550781,0
38010,0.375,-0.669434,0.559082,0
38030,0.517578,-0.70752,0.560547,0
38050,0.564453,-0.666992,0.553711,0
38070,0.472656,-0.60498,0.541992,0
38090,0.422363,-0.617676,0.520508,0
38110,0.47998,-0.596191,0.54834,0
38130,0.555176,-0.580566,0.556152,0
38150,0.584473,-0.566406,0.516602,0
38170,0.574707,-0.558594,0.513184,0
38190,0.59082,-0.521973,0.509766,0
38210,0.612305,-0.521973,0.475098,0
38230,0.652344,-0.48877,0.477539,0
38250,0.67627,-0.48291,0.46875,0
38270,0.671387,-0.502441,0.445801,0
38290,0.703613,-0.483887,0.445801,0
38310,0.708008,-0.447754,0.456055,0
38330,0.687988,-0.426758,0.448242,0
38350,0.709961,-0.415527,0.413086,0
38370,0.727051,-0.414062,0.40332,0
38390,0.78125,-0.37793,0.408691,0
38410,0.765625,-0.364746,0.403809,0
38430,0.775391,-0.353516,0.392578,0
38450,0.775391,-0.350586,0.369629,0
38470,0.789062,-0.334961,0.350586,0
38490,0.828613,-0.3125,0.347168,0
38510,0.851562,-0.285645,0.34668,0
38530,0.84375,-0.293457,0.333008,0
38550,0.845703,-0.283691,0.310059,0
38570,0.888184,-0.260254,0.315918,0
38590,0.92041,-0.223633,0.306152,0
38610,0.900391,-0.20166,0.324707,0
38630,0.892578,-0.195801,0.32959,0
38650,0.850586,-0.186035,0.325195,0
38670,0.871094,-0.168945,0.314941,0
38690,0.989746,-0.13623,0.328125,0
38710,0.990234,-0.125977,0.336426,0
38730,1.02246,-0.143555,0.377441,0
38750,0.959473,-0.132324,0.413086,0
38770,0.911621,-0.109863,0.456055,0
38790,0.941895,-0.100586,0.492188,0
38810,0.943848,-0.109863,0.499023,0
38830,0.87793,-0.111328,0.525391,0
38850,0.770508,-0.0942383,0.570801,0
38870,0.741211,-0.09375,0.604492,0
38890,0.705078,-0.0844727,0.650391,0
38910,0.643066,-0.065918,0.672363,0
38930,0.624512,-0.0883789,0.726562,0
38950,0.604492,-0.0708008,0.753418,0
38970,0.648438,-0.019043,0.780273,0
38990,0.693848,-0.0932617,0.791992,0
39010,0.608887,-0.19873,0.761719,0
39030,0.470215,-0.238281,0.735352,0
39050,0.361328,-0.199707,0.759766,0
39070,0.328613,-0.09375,0.800781,0
39090,0.328613,-0.0927734,0.786133,0
39110,0.32666,-0.137695,0.770996,0
39130,0.304199,-0.21582,0.75293,0
39150,0.296875,-0.237793,0.773438,0
39170,0.312012,-0.230469,0.765137,0
39190,0.33252,-0.226074,0.776367,0
39210,0.317871,-0.243652,0.773438,0
39230,0.309082,-0.269531,0.764648,0
39250,0.323242,-0.282715,0.768066,0
39270,0.298828,-0.271973,0.774414,0
39290,0.246094,-0.285645,0.750488,0
39310,0.227539,-0.287598,0.71875,0
39330,0.23584,-0.299805,0.733398,0
39350,0.252441,-0.334473,0.75,0
39370,0.231445,-0.379395,0.728027,0
39390,0.212402,-0.413574,0.723145,0
39410,0.227539,-0.417969,0.703613,0
39430,0.286133,-0.408691,0.71582,0
39450,0.287109,-0.444824,0.714355,0
39470,0.274902,-0.491211,0.700684,0
39490,0.308105,-0.521484,0.6875,0
39510,0.287598,-0.532715,0.669922,0
39530,0.25293,-0.534668,0.635254,0
39550,0.270508,-0.560059,0.609863,0
39570,0.299805,-0.589844,0.627441,0
39590,0.340332,-0.617188,0.642578,0
39610,0.345215,-0.640137,0.622559,0
39630,0.302246,-0.615234,0.603027,0
39650,0.274414,-0.624512,0.57373,0
39670,0.313965,-0.612793,0.564941,0
39690,0.380371,-0.575195,0.578613,0
39710,0.428711,-0.571777,0.562012,0
39730,0.466309,-0.561523,0.55127,0
39750,0.439453,-0.5625,0.547363,0
39770,0.389648,-0.583496,0.541504,0
39790,0.431641,-0.583984,0.526367,0
39810,0.555664,-0.555664,0.499023,0
39830,0.61084,-0.493164,0.522949,0
39850,0.529297,-0.51709,0.525391,0
39870,0.502441,-0.559082,0.507812,0
39890,0.60498,-0.541016,0.45752,0
39910,0.719238,-0.477539,0.458984,0
39930,0.720215,-0.445801,0.464355,0
39950,0.667969,-0.469727,0.44043,0
39970,0.694824,-0.499023,0.426758,0
39990,0.793457,-0.436523,0.418945,0
40010,0.839355,-0.39502,0.399902,0
40030,0.825195,-0.387207,0.399902,0
40050,0.799316,-0.416016,0.383301,0
40070,0.839355,-0.415527,0.355469,0
40090,0.888672,-0.358887,0.347656,0
40110,0.879395,-0.291992,0.338867,0
40130,0.90332,-0.293945,0.321777,0
40150,0.915527,-0.282227,0.30957,0
40170,0.930664,-0.265137,0.299316,0
40190,0.936035,-0.230469,0.27002,0
40210,0.935059,-0.196289,0.283203,0
40230,0.925781,-0.181641,0.292969,0
40250,0.897461,-0.171875,0.299805,0
40270,0.873047,-0.137695,0.322266,0
40290,0.869141,-0.105957,0.341309,0
40310,0.847168,-0.0761719,0.334473,0
40330,0.853027,-0.0488281,0.368164,0
40350,0.873535,-0.0385742,0.389648,0
40370,0.913574,-0.0112305,0.393555,0
40390,0.964355,0.00292969,0.41748,0
40410,0.990234,-0.0214844,0.424805,0
40430,0.981445,-0.0317383,0.431152,0
40450,0.963867,-0.0307617,0.419434,0
40470,0.950684,0.00683594,0.435059,0
40490,0.935059,0.0458984,0.461426,0
40510,0.864746,-0.027832,0.484375,0
40530,0.766602,-0.123047,0.5,0
40550,0.753906,-0.138672,0.524902,0
40570,0.754883,-0.0185547,0.523926,0
40590,0.736816,0.00878906,0.588867,0
40610,0.736328,-0.0341797,0.601562,0
40630,0.748535,-0.0761719,0.660156,0
40650,0.751465,-0.0566406,0.665039,0
40670,0.73291,-0.0639648,0.679688,0
40690,0.624512,-0.108887,0.688965,0
40710,0.511719,-0.157227,0.690918,0
40730,0.479492,-0.108887,0.696777,0
40750,0.532227,-0.0556641,0.716309,0
40770,0.539551,-0.111816,0.692871,0
40790,0.491699,-0.23291,0.686523,0
40810,0.509766,-0.29541,0.680664,0
40830,0.541992,-0.276367,0.640625,0
40850,0.478516,-0.297363,0.618652,0
40870,0.415039,-0.362793,0.615723,0
40890,0.430176,-0.382324,0.598145,0
40910,0.458984,-0.38916,0.569824,0
40930,0.446289,-0.405762,0.574707,0
40950,0.422363,-0.456055,0.569336,0
40970,0.427734,-0.481934,0.568359,0
40990,0.415527,-0.508301,0.546875,0
41000,0.394531,-0.51709,0.509277,0
41020,0.384766,-0.525391,0.499512,0
41040,0.427246,-0.544922,0.494629,0
41060,0.500977,-0.569336,0.465332,0
41080,0.521484,-0.584473,0.46582,0
41100,0.498535,-0.583984,0.462402,0
41120,0.510742,-0.596191,0.432617,0
41140,0.530273,-0.581543,0.421875,0
41160,0.52832,-0.586426,0.403809,0
41180,0.523438,-0.572266,0.40332,0
41200,0.571289,-0.551758,0.398438,0
41220,0.60498,-0.534668,0.379883,0
41240,0.582031,-0.541504,0.381836,0
41260,0.56543,-0.54834,0.378418,0
41280,0.655273,-0.507812,0.342285,0
41300,0.754395,-0.479004,0.362305,0
41320,0.769043,-0.489746,0.354492,0
41340,0.715332,-0.486328,0.356445,0
41360,0.71582,-0.450684,0.333008,0
41380,0.798828,-0.40918,0.325195,0
41400,0.865234,-0.412109,0.318359,0
41420,0.837402,-0.410645,0.319336,0
41440,0.8125,-0.39209,0.317383,0
41460,0.864258,-0.367676,0.29834,0
41480,0.924316,-0.360352,0.289062,0
41500,0.919922,-0.359375,0.288574,0
41520,0.865234,-0.39502,0.267578,0
41540,0.858398,-0.351074,0.29248,0
41560,0.853027,-0.318848,0.272949,0
41580,0.838867,-0.311035,0.275879,0
41600,0.809082,-0.329102,0.287109,0
41620,0.769531,-0.330566,0.302734,0
41640,0.757812,-0.316406,0.30127,0
41660,0.76123,-0.307617,0.293945,0
41680,0.748047,-0.32959,0.291992,0
41700,0.719238,-0.351074,0.297363,0
41720,0.732422,-0.36377,0.3125,0
41740,0.75,-0.35791,0.326172,0
41760,0.769043,-0.339844,0.312988,0
41780,0.789551,-0.351562,0.321289,0
41800,0.785645,-0.359375,0.347168,0
41820,0.786133,-0.373535,0.362793,0
41840,0.796875,-0.388672,0.370605,0
41860,0.822754,-0.413086,0.382324,0
41880,0.853027,-0.430664,0.399902,0
41900,0.888184,-0.467285,0.447754,0
41920,0.912598,-0.472656,0.467285,0
41940,0.918457,-0.446777,0.477051,0
41960,0.920898,-0.407227,0.432129,0
41980,0.875977,-0.399902,0.443848,0
42000,0.825195,-0.399414,0.449219,0
42020,0.802246,-0.394043,0.427734,0
42040,0.773438,-0.403809,0.397949,0
42060,0.742188,-0.38916,0.371094,0
42080,0.716797,-0.374512,0.361816,0
42100,0.71582,-0.36084,0.339355,0
42120,0.758789,-0.342773,0.29248,0
42140,0.779785,-0.345703,0.298828,0
42160,0.783203,-0.365723,0.284668,2001
42180,0.770508,-0.385742,0.287109,0
42200,0.757324,-0.394531,0.283203,0
42220,0.803223,-0.377441,0.27002,0
42240,0.848145,-0.369141,0.262695,0
42260,0.842773,-0.359375,0.25293,0
42280,0.845215,-0.336914,0.271973,0
42300,0.853027,-0.383301,0.263184,0
42320,0.851562,-0.38916,0.254883,0
42340,0.845703,-0.378418,0.254883,0
42360,0.818848,-0.372559,0.250488,0
42380,0.786621,-0.398926,0.265137,0
42400,0.752441,-0.407227,0.247559,0
42420,0.772461,-0.400391,0.251465,0
42440,0.787109,-0.374023,0.269531,0
42460,0.781738,-0.361816,0.275391,0
42480,0.76123,-0.382324,0.258789,0
42500,0.741699,-0.399414,0.256348,0
42520,0.757812,-0.405273,0.260254,0
42540,0.778809,-0.415039,0.265625,0
42560,0.78125,-0.431152,0.269531,0
42580,0.784668,-0.421387,0.273438,0
42600,0.802246,-0.396484,0.280273,0
42620,0.804199,-0.39209,0.274902,0
42640,0.812988,-0.375,0.272949,0
42660,0.804688,-0.38623,0.283691,0
42680,0.773926,-0.394043,0.291016,0
42700,0.748535,-0.407227,0.285156,0
42720,0.73584,-0.414062,0.289551,0
42740,0.728027,-0.390625,0.285156,0
42760,0.726562,-0.366211,0.282715,0
42780,0.73877,-0.361328,0.286621,0
42800,0.754883,-0.35498,0.284668,0
42820,0.724121,-0.364746,0.287109,0
42840,0.681152,-0.355469,0.291504,0
42860,0.670898,-0.356934,0.299316,0
42880,0.684082,-0.358398,0.34082,0
42900,0.682617,-0.368164,0.358398,0
42920,0.644043,-0.36084,0.330078,0
42940,0.637207,-0.377441,0.324219,0
42960,0.652344,-0.372559,0.375,0
42970,0.669922,-0.375,0.433594,0
42990,0.657715,-0.423828,0.414062,0
43010,0.69873,-0.450195,0.376465,0
43030,0.793457,-0.47168,0.410645,0
43050,0.83252,-0.503418,0.442871,0
43070,0.771484,-0.530273,0.458496,0
43090,0.727539,-0.5625,0.508789,0
43110,0.748047,-0.640625,0.538574,0
43130,0.78418,-0.692383,0.569336,0
43150,0.724121,-0.691895,0.589355,0
43170,0.604004,-0.686035,0.596191,0
43190,0.494629,-0.66748,0.650391,0
43210,0.437988,-0.666016,0.660645,0
43230,0.431152,-0.698242,0.659668,0
43250,0.420898,-0.693848,0.645996,0
43270,0.390137,-0.665039,0.667969,0
43290,0.37793,-0.670898,0.625977,0
43310,0.352539,-0.687012,0.618652,0
43330,0.342773,-0.664551,0.600098,0
43350,0.344238,-0.672852,0.580078,0
43370,0.344238,-0.676758,0.531738,0
43390,0.32666,-0.636719,0.550293,0
43410,0.312012,-0.605469,0.543457,0
43430,0.304688,-0.628418,0.550781,0
43450,0.312988,-0.660645,0.541992,0
43470,0.336914,-0.682617,0.548828,0
43490,0.367188,-0.643066,0.555176,0
43510,0.383789,-0.649414,0.524902,0
43530,0.377441,-0.665039,0.531738,0
43550,0.371094,-0.656738,0.536621,0
43570,0.399414,-0.63916,0.574707,0
43590,0.424316,-0.659668,0.523438,0
43610,0.381836,-0.658203,0.540039,0
43630,0.350098,-0.637695,0.57373,0
43650,0.375,-0.63916,0.561523,0
43670,0.375977,-0.669434,0.543457,0
43690,0.342285,-0.658203,0.561523,0
43710,0.339355,-0.638184,0.57959,0
43730,0.370117,-0.676758,0.546387,0
43750,0.355469,-0.664062,0.541504,0
43770,0.333984,-0.650879,0.570312,0
43790,0.341797,-0.607422,0.582031,0
43810,0.344238,-0.630859,0.556152,0
43830,0.336426,-0.633301,0.563965,0
43850,0.36377,-0.648926,0.581055,0
43870,0.421875,-0.632812,0.584961,0
43890,0.478516,-0.616699,0.562012,0
43910,0.477051,-0.583984,0.560059,0
43930,0.4375,-0.566895,0.540527,0
43950,0.424316,-0.591797,0.550781,0
43970,0.475098,-0.591309,0.540527,0
43990,0.572266,-0.595703,0.519043,0
44010,0.635254,-0.590332,0.47998,0
44030,0.61084,-0.554688,0.471191,0
44050,0.666992,-0.574219,0.435547,0
44070,0.659668,-0.581543,0.434082,0
44090,0.650879,-0.57959,0.423828,0
44110,0.634277,-0.591309,0.408203,0
44130,0.631348,-0.591309,0.415527,0
44150,0.62793,-0.567871,0.406738,0
44170,0.651367,-0.544434,0.398438,0
44190,0.640625,-0.555176,0.38916,0
44210,0.62793,-0.596191,0.411133,0
44230,0.591797,-0.59082,0.452148,0
44250,0.567871,-0.578613,0.445801,0
44270,0.543945,-0.569824,0.464844,0
44290,0.555176,-0.549316,0.47998,0
44310,0.541016,-0.561035,0.497559,0
44330,0.534668,-0.57666,0.499512,0
44350,0.544434,-0.589355,0.501465,0
44370,0.5625,-0.608887,0.503906,0
44390,0.566895,-0.61084,0.504883,0
44410,0.545898,-0.629395,0.517578,0
44430,0.512695,-0.642578,0.520996,0
44450,0.508301,-0.614746,0.525879,0
44470,0.509766,-0.603027,0.524414,0
44490,0.50293,-0.601074,0.518555,0
44510,0.48584,-0.637207,0.53125,0
44530,0.474609,-0.669922,0.541992,0
44550,0.48291,-0.675293,0.522461,0
44570,0.503418,-0.663574,0.492188,0
44590,0.50293,-0.666016,0.481445,0
44610,0.453613,-0.687012,0.492676,0
44630,0.381836,-0.674805,0.495117,0
44650,0.331543,-0.708984,0.495605,0
44670,0.333496,-0.745605,0.508789,0
44690,0.345215,-0.73877,0.496094,0
44710,0.371094,-0.748535,0.486816,0
44730,0.390137,-0.733887,0.466309,0
44750,0.391113,-0.685059,0.442383,0
44770,0.41748,-0.665527,0.421875,0
44790,0.447266,-0.683594,0.405273,0
44810,0.46582,-0.705566,0.38916,0
44830,0.473633,-0.731445,0.392578,0
44850,0.458008,-0.74707,0.396484,0
44870,0.429688,-0.735352,0.388672,0
44890,0.423828,-0.742676,0.376953,0
44910,0.433105,-0.734375,0.376953,0
44930,0.450684,-0.734375,0.378418,0
44950,0.437012,-0.743652,0.38916,0
44970,0.414062,-0.740723,0.402344,0
44990,0.395996,-0.739258,0.42627,0
45010,0.391113,-0.744141,0.414062,0
45030,0.401855,-0.753906,0.39502,0
45050,0.415039,-0.774414,0.407227,0
45070,0.427246,-0.777344,0.399414,0
45090,0.441895,-0.769043,0.367676,2000
45110,0.452637,-0.714844,0.37793,0
45130,0.420898,-0.743652,0.370117,0
45150,0.469238,-0.741699,0.363281,0
45170,0.502441,-0.785645,0.355957,0
45190,0.470215,-0.769531,0.356934,0
45210,0.423828,-0.769043,0.375488,0
45230,0.478516,-0.744629,0.31543,0
45250,0.479004,-0.762207,0.324707,0
45270,0.437012,-0.789551,0.355957,0
45290,0.428223,-0.821289,0.33252,0
45310,0.446289,-0.800781,0.314453,0
45330,0.445801,-0.75293,0.32373,0
45350,0.426758,-0.762695,0.316406,0
45370,0.431152,-0.790039,0.303223,0
45390,0.399902,-0.821289,0.311035,0
45410,0.401367,-0.809082,0.324707,0
45430,0.436523,-0.79834,0.303711,0
45450,0.439453,-0.805664,0.296875,0
45470,0.430664,-0.796387,0.32666,0
45490,0.406738,-0.791992,0.362305,0
45510,0.423828,-0.793945,0.312988,0
45530,0.459473,-0.805176,0.32666,0
45550,0.428223,-0.769531,0.335449,0
45570,0.39502,-0.79248,0.34375,0
45590,0.421875,-0.790527,0.337891,0
45610,0.438477,-0.802246,0.338867,0
45630,0.429688,-0.813965,0.331055,0
45650,0.411621,-0.801758,0.331543,0
45670,0.39209,-0.775391,0.350098,0
45690,0.410156,-0.773926,0.339844,0
45710,0.418945,-0.792969,0.33252,0
45730,0.414551,-0.792969,0.336426,0
45750,0.414551,-0.784668,0.34668,0
45770,0.415527,-0.77832,0.337891,0
45790,0.419922,-0.77002,0.333008,0
45810,0.406738,-0.786133,0.336426,0
45830,0.399414,-0.791992,0.349121,0
45850,0.410645,-0.813477,0.34668,0
45870,0.4375,-0.798828,0.341797,0
45890,0.439453,-0.775391,0.339844,0
45910,0.430664,-0.771973,0.335449,0
45930,0.390625,-0.779785,0.341309,0
45950,0.389648,-0.780762,0.327637,0
45970,0.394043,-0.804199,0.354492,0
45990,0.353027,-0.792969,0.367188,0
46010,0.334961,-0.785156,0.366211,0
46030,0.311035,-0.810547,0.374023,0
46050,0.282227,-0.805176,0.375488,0
46070,0.261719,-0.800293,0.383789,0
46090,0.327637,-0.799316,0.392578,0
46110,0.410156,-0.768555,0.378906,0
46130,0.419434,-0.730957,0.37793,0
46150,0.393555,-0.722656,0.384766,0
46170,0.378906,-0.733887,0.374023,0
46190,0.358887,-0.753906,0.352539,0
46210,0.350098,-0.770508,0.335449,0
46230,0.411621,-0.774414,0.372559,0
46250,0.474121,-0.734375,0.358398,0
46270,0.489258,-0.703613,0.374512,0
46290,0.461914,-0.700684,0.365234,0
46310,0.473145,-0.710938,0.35498,0
46330,0.595215,-0.710449,0.385254,0
46350,0.640137,-0.664551,0.390137,0
46370,0.606445,-0.614746,0.398438,0
46380,0.547363,-0.599121,0.374512,0
46400,0.60791,-0.604004,0.347656,0
46420,0.669922,-0.615723,0.342285,0
46440,0.670898,-0.562012,0.32373,0
46460,0.715332,-0.52832,0.302734,0
46480,0.719238,-0.532715,0.262695,0
46500,0.758789,-0.541016,0.234863,0
46520,0.783203,-0.520508,0.212891,0
46540,0.786621,-0.494141,0.214355,0
46560,0.807129,-0.460449,0.20459,0
46580,0.847656,-0.444824,0.189453,0
46590,0.854004,-0.433105,0.203125,0
46610,0.896484,-0.359863,0.254395,0
46630,0.935547,-0.311523,0.266602,0
46650,0.960449,-0.297852,0.302246,0
46670,1.021,-0.298828,0.352051,0
46690,0.98291,-0.328613,0.391113,0
46710,0.948242,-0.322754,0.442383,0
46730,0.859863,-0.326172,0.501953,0
46750,0.824707,-0.308594,0.522461,0
46770,0.911621,-0.300293,0.55127,0
46790,0.915527,-0.293457,0.584961,0
46810,0.812988,-0.266602,0.617188,0
46830,0.783203,-0.316895,0.651367,0
46850,0.791016,-0.331543,0.675781,0
46870,0.83252,-0.30957,0.639648,0
46890,0.737305,-0.277344,0.72168,0
46910,0.59082,-0.324219,0.763184,0
46930,0.572754,-0.333008,0.750488,0
46950,0.581543,-0.308594,0.709473,0
46970,0.566895,-0.296387,0.736816,0
46990,0.489746,-0.336914,0.795898,0
47010,0.416016,-0.442871,0.787598,0
47030,0.394043,-0.474121,0.739258,0
47050,0.414062,-0.416992,0.756836,0
47070,0.326172,-0.39209,0.731445,0
47090,0.226074,-0.454102,0.732422,0
47110,0.226562,-0.496582,0.683105,0
47130,0.274902,-0.501465,0.687988,0
47150,0.228516,-0.488281,0.660645,0
47170,0.12793,-0.473145,0.655273,0
47190,0.0932617,-0.493164,0.619141,0
47210,0.135254,-0.495605,0.631348,0
47230,0.149414,-0.546387,0.606445,0
47250,0.148438,-0.565918,0.60791,0
47270,0.148438,-0.575684,0.572754,0
47290,0.185059,-0.580566,0.570312,0
47310,0.20459,-0.577148,0.564941,0
47330,0.1875,-0.584961,0.521973,0
47350,0.147949,-0.61377,0.520996,0
47370,0.126953,-0.67041,0.474609,0
47390,0.167969,-0.644531,0.493652,0
47410,0.214355,-0.644531,0.494629,0
47430,0.229004,-0.673828,0.494141,0
47450,0.244629,-0.763672,0.50293,0
47470,0.244141,-0.802246,0.493164,0
47490,0.224609,-0.810059,0.481934,0
47510,0.192383,-0.798828,0.483398,0
47530,0.190918,-0.782227,0.453125,0
47550,0.225586,-0.771484,0.414551,0
47570,0.253418,-0.734863,0.423828,0
47590,0.296387,-0.73877,0.447266,0
47610,0.312988,-0.770508,0.446777,0
47630,0.311523,-0.802734,0.425293,0
47650,0.341309,-0.817871,0.406738,0
47670,0.408691,-0.800781,0.411133,0
47690,0.489746,-0.750488,0.393555,0
47710,0.51709,-0.733887,0.388184,0
47730,0.52002,-0.731445,0.384766,0
47750,0.509766,-0.694824,0.361816,0
47770,0.50293,-0.69043,0.333496,0
47790,0.56543,-0.678711,0.32959,0
47810,0.637695,-0.662598,0.317383,0
47830,0.677734,-0.622559,0.306641,0
47850,0.737793,-0.581055,0.278809,0
47870,0.691895,-0.573242,0.27832,0
47890,0.6875,-0.583984,0.212402,0
47910,0.775879,-0.594238,0.181641,0
47930,0.824219,-0.558105,0.165039,0
47950,0.850586,-0.505859,0.148438,0
47970,0.888672,-0.469238,0.135742,0
47990,0.862793,-0.437012,0.0942383,0
48010,0.911621,-0.395996,0.0356445,0
48030,0.956055,-0.362305,0.0146484,0
48050,0.943848,-0.290527,0.0385742,0
48070,0.939453,-0.246582,0.0283203,0
48090,0.956543,-0.249023,0.0380859,0
48110,0.939941,-0.22998,0.0522461,0
48130,0.946289,-0.168457,0.0751953,0
48150,0.981445,-0.132812,0.116699,0
48170,0.990234,-0.10498,0.13916,0
48190,1.02295,-0.10498,0.141113,0
48210,1.05518,-0.100098,0.163574,0
48230,1.08008,-0.0742188,0.181152,0
48250,1.10791,-0.0786133,0.211914,0
48270,1.0791,-0.0668945,0.286621,0
48290,1.02881,-0.115234,0.313965,0
48310,1.00098,-0.17627,0.375488,0
48320,0.979492,-0.176758,0.407715,0
48340,0.996582,-0.175293,0.48877,0
48360,0.937988,-0.137695,0.533691,0
48380,0.824707,-0.152344,0.549805,0
48400,0.776855,-0.17334,0.612793,0
48420,0.755371,-0.181641,0.647461,0
48440,0.743164,-0.219238,0.658691,0
48460,0.72168,-0.216309,0.681152,0
48480,0.645508,-0.231445,0.71582,0
48500,0.603516,-0.300293,0.709961,0
48520,0.626953,-0.336914,0.713867,0
48540,0.62207,-0.297852,0.690918,0
48560,0.520996,-0.293457,0.691895,0
48580,0.439941,-0.340332,0.688965,0
48600,0.417969,-0.416016,0.653809,0
48620,0.410156,-0.390137,0.618164,0
48640,0.369629,-0.348145,0.625488,0
48660,0.29834,-0.422852,0.603027,0
48680,0.324707,-0.464844,0.593262,0
48700,0.338379,-0.499023,0.569824,0
48720,0.319336,-0.490234,0.566895,0
48740,0.312012,-0.523438,0.536133,0
48760,0.317871,-0.546875,0.509766,0
48780,0.309082,-0.59375,0.511719,0
48800,0.307617,-0.630859,0.489746,0
48820,0.288086,-0.653809,0.468262,0
48840,0.293945,-0.632812,0.446777,0
48860,0.29248,-0.665527,0.428711,0
48880,0.305176,-0.716309,0.40918,0
48900,0.317383,-0.708496,0.400879,0
48920,0.289551,-0.705078,0.358398,0
48940,0.280762,-0.714844,0.321289,0
48960,0.320801,-0.733398,0.345215,0
48980,0.342285,-0.757812,0.339844,0
49000,0.359863,-0.808594,0.312012,0
49020,0.402344,-0.823242,0.29541,0
49040,0.428223,-0.816895,0.294434,0
49060,0.399902,-0.804199,0.297852,0
49080,0.411133,-0.765137,0.291504,0
49100,0.459961,-0.706055,0.283203,0
49120,0.490723,-0.677734,0.240723,0
49140,0.507812,-0.673828,0.218262,0
49160,0.543457,-0.651855,0.228516,0
49180,0.581055,-0.626465,0.210449,0
49200,0.569336,-0.641602,0.158691,0
49220,0.624023,-0.682129,0.0913086,0
49240,0.749023,-0.646484,0.110352,0
49260,0.786621,-0.61084,0.121094,0
49280,0.770996,-0.618652,0.0996094,0
49300,0.8125,-0.595703,0.0849609,0
49320,0.864258,-0.549316,0.0683594,0
49340,0.881348,-0.526855,0.0581055,0
49360,0.869629,-0.497559,0.0517578,0
49380,0.875,-0.427734,0.0507812,0
49400,0.91748,-0.365723,0.00244141,0
49420,1.00732,-0.331543,-0.0185547,0
49440,1.00928,-0.32373,-0.0224609,0
49460,0.964844,-0.330078,-0.0410156,0
49480,0.977051,-0.312012,-0.0322266,0
49500,1.02588,-0.240234,-0.043457,0
49520,1.04248,-0.175293,-0.0317383,0
49540,1.02783,-0.178223,-0.0244141,0
49560,0.989746,-0.193359,0.00585938,0
49580,0.976074,-0.181641,0.0336914,0
49600,1.00537,-0.12793,0.0332031,0
49620,1.06738,-0.124023,0.0634766,0
49640,1.05469,-0.0952148,0.128906,0
49660,1.04053,-0.0927734,0.15918,0
49680,1.05371,-0.126953,0.179199,0
49700,1.06738,-0.150879,0.22998,0
49720,1.03711,-0.164551,0.28418,0
49740,1.04004,-0.181152,0.314941,0
49760,1.07227,-0.153809,0.364746,0
49780,1.12061,-0.15918,0.421387,0
49800,1.07959,-0.18457,0.455078,0
49820,0.953613,-0.247559,0.513672,0
49840,0.831543,-0.307617,0.539551,0
49860,0.78418,-0.26709,0.570312,0
49880,0.726562,-0.226562,0.577637,0
49900,0.660156,-0.222656,0.617676,0
49920,0.570801,-0.306641,0.594727,0
49940,0.511719,-0.395508,0.59375,0
49960,0.490723,-0.418945,0.604492,0
49980,0.449219,-0.410645,0.587891,0
50000,0.446289,-0.366699,0.549316,0
50020,0.4375,-0.39209,0.532227,0
50040,0.427246,-0.462891,0.527832,0
50060,0.438477,-0.530273,0.520996,0
50080,0.463867,-0.504883,0.467773,0
50100,0.430176,-0.561035,0.44043,0
50120,0.398926,-0.621582,0.438477,0
50140,0.424805,-0.648438,0.401855,0
50160,0.443359,-0.650879,0.34375,0
50180,0.415039,-0.661133,0.317871,0
50200,0.381348,-0.698242,0.321777,0
50220,0.392578,-0.706055,0.315918,0
50240,0.396973,-0.734375,0.282227,0
50260,0.378906,-0.774414,0.251953,0
50280,0.367188,-0.819336,0.23877,0
50300,0.375488,-0.8125,0.233398,0
50320,0.397461,-0.772949,0.22168,0
50340,0.416016,-0.759277,0.201172,0
50360,0.411621,-0.783203,0.207031,0
50380,0.405762,-0.788574,0.233398,0
50400,0.44043,-0.759277,0.229004,0
50420,0.48584,-0.731934,0.230469,0
50440,0.486328,-0.702148,0.203125,0
50460,0.493164,-0.681152,0.17334,0
50480,0.570312,-0.635742,0.132324,0
50500,0.646973,-0.64502,0.122559,0
50520,0.684082,-0.67627,0.127441,0
50540,0.714844,-0.726074,0.0898438,0
50560,0.77832,-0.690918,0.065918,0
50580,0.831543,-0.632812,0.03125,0
50600,0.825684,-0.609863,0.0585938,0
50620,0.82959,-0.588867,0.0214844,0
50640,0.881836,-0.58252,-0.00683594,0
50660,0.887207,-0.546875,0.00195312,0
50680,0.866699,-0.544922,-0.00439453,0
50700,0.891113,-0.523438,-0.0229492,0
50720,0.911621,-0.486328,-0.0415039,0
50740,0.93457,-0.44873,-0.0385742,0
50760,0.948242,-0.455078,-0.0649414,2001
50780,0.953613,-0.450684,-0.078125,0
50800,0.925781,-0.439941,-0.0771484,0
50820,0.903809,-0.423828,-0.0991211,0
50840,0.899902,-0.420898,-0.0976562,0
50860,0.878418,-0.424805,-0.112305,0
50880,0.869629,-0.454102,-0.0913086,0
50900,0.849121,-0.450195,-0.0947266,0
50920,0.834961,-0.424805,-0.0947266,0
50940,0.847168,-0.419434,-0.106445,0
50960,0.827637,-0.448242,-0.111816,0
50980,0.760742,-0.459961,-0.0874023,0
51000,0.733398,-0.45166,-0.114746,0
51020,0.733887,-0.455566,-0.126465,0
51040,0.73291,-0.481445,-0.121094,0
51060,0.727051,-0.506348,-0.120605,0
51080,0.718262,-0.49707,-0.0776367,0
51100,0.703613,-0.441406,-0.0439453,0
51120,0.678223,-0.424316,-0.0625,0
51140,0.667969,-0.447266,-0.034668,0
51160,0.692871,-0.490234,-0.0395508,0
51180,0.709961,-0.498535,0.00292969,0
51200,0.677734,-0.45752,0.0322266,0
51220,0.636719,-0.470703,0.0224609,0
51240,0.617188,-0.470703,0.0131836,0
51260,0.635254,-0.444824,0.0791016,0
51280,0.671387,-0.439453,0.134277,0
51300,0.660645,-0.453125,0.149902,0
51320,0.62207,-0.505371,0.14209,0
51340,0.661133,-0.514648,0.166016,0
51360,0.750977,-0.54541,0.208984,0
51380,0.812988,-0.568359,0.223145,0
51400,0.818848,-0.578125,0.23584,0
51420,0.82666,-0.584961,0.259766,0
51440,0.865234,-0.638184,0.279297,0
51460,0.854004,-0.741699,0.276855,0
51480,0.838867,-0.806641,0.312012,0
51500,0.785645,-0.800293,0.353027,0
51520,0.699707,-0.83252,0.361816,0
51540,0.646484,-0.835449,0.394043,0
51560,0.643555,-0.866211,0.442383,0
51580,0.600586,-0.860352,0.473633,0
51600,0.53125,-0.82666,0.491211,0
51620,0.486816,-0.823242,0.498535,0
51640,0.465332,-0.805664,0.546875,0
51660,0.418945,-0.810059,0.550781,0
51680,0.374512,-0.822754,0.515137,0
51700,0.352051,-0.813965,0.531738,0
51710,0.34375,-0.791016,0.527832,0
51730,0.349121,-0.78418,0.516113,0
51750,0.362305,-0.762207,0.499512,0
51770,0.375,-0.757324,0.479492,0
51790,0.405273,-0.750977,0.469238,0
51810,0.396484,-0.757812,0.474121,0
51830,0.396484,-0.741699,0.476074,0
51850,0.379883,-0.755859,0.472656,0
51870,0.347656,-0.740234,0.470215,0
51890,0.34375,-0.69873,0.463379,0
51910,0.353516,-0.691406,0.459473,0
51930,0.355469,-0.693359,0.446289,0
51950,0.344238,-0.679688,0.467285,0
51970,0.35498,-0.703613,0.491211,0
51990,0.354492,-0.717773,0.488281,0
52010,0.375488,-0.70459,0.504395,0
52030,0.39209,-0.720215,0.48291,0
52050,0.399902,-0.713867,0.476562,0
52070,0.378418,-0.682129,0.494629,0
52090,0.391602,-0.682617,0.48877,0
52110,0.409668,-0.699707,0.47998,0
52130,0.414062,-0.708008,0.479492,0
52150,0.411133,-0.708008,0.507324,0
52170,0.416016,-0.695312,0.503906,0
52190,0.395508,-0.701172,0.488281,0
52210,0.406738,-0.69043,0.480957,0
52230,0.429199,-0.700195,0.479492,0
52250,0.413574,-0.701172,0.502441,0
52270,0.414062,-0.688477,0.490234,0
52290,0.431152,-0.696777,0.482422,0
52310,0.400391,-0.706543,0.498047,0
52330,0.373535,-0.710449,0.477539,0
52350,0.385254,-0.695801,0.476562,0
52370,0.398438,-0.666504,0.491211,0
52390,0.376953,-0.660645,0.479004,0
52410,0.366211,-0.669434,0.474609,0
52430,0.437988,-0.689941,0.500488,0
52450,0.367188,-0.678223,0.439453,0
52470,0.318848,-0.696777,0.453613,0
52490,0.327637,-0.72168,0.47998,0
52510,0.293457,-0.742188,0.509277,0
52530,0.439453,-0.722656,0.48877,0
52550,0.332031,-0.682617,0.470703,0
52570,0.419922,-0.686035,0.46875,0
52590,0.58252,-0.652344,0.495605,0
52610,0.518066,-0.666016,0.45459,0
52630,0.439453,-0.685547,0.47168,0
52650,0.469238,-0.683105,0.457031,0
52670,0.586914,-0.706055,0.450195,0
52690,0.585938,-0.626465,0.44043,0
52710,0.559082,-0.580078,0.40625,0
52730,0.54834,-0.614746,0.39209,0
52750,0.567383,-0.615723,0.359375,0
52770,0.617676,-0.601074,0.335449,0
52790,0.666016,-0.580566,0.350098,0
52810,0.662598,-0.560059,0.32373,0
52830,0.671387,-0.535645,0.315918,0
52850,0.741211,-0.535156,0.321777,0
52870,0.830566,-0.507812,0.318359,0
52890,0.808105,-0.482422,0.311523,0
52910,0.794922,-0.449219,0.342285,0
52930,0.855469,-0.443359,0.335449,0
52950,0.86084,-0.447266,0.331543,0
52970,0.828613,-0.429199,0.34375,0
52990,0.820801,-0.398926,0.366699,0
53010,0.815918,-0.390137,0.388672,0
53030,0.808594,-0.387207,0.382324,0
53050,0.793945,-0.399902,0.368164,0
53070,0.807129,-0.435547,0.342773,0
53090,0.803711,-0.45166,0.338379,0
53110,0.810547,-0.446777,0.322266,0
53130,0.797363,-0.461426,0.319336,0
53150,0.79248,-0.487305,0.316895,0
53170,0.803711,-0.510254,0.3125,0
53190,0.786133,-0.552246,0.338379,0
53210,0.798828,-0.583984,0.395508,0
53230,0.6875,-0.645508,0.533691,0
53250,0.553223,-0.634766,0.463379,0
53270,0.501953,-0.623047,0.509277,0
53290,0.49707,-0.655762,0.523438,0
53310,0.51123,-0.720215,0.492676,0
53330,0.466797,-0.703125,0.526367,0
53350,0.414551,-0.59082,0.552246,0
53370,0.416992,-0.606445,0.524902,0
53390,0.442383,-0.662109,0.552246,0
53410,0.414062,-0.746582,0.516113,0
53430,0.365234,-0.608398,0.574219,0
53450,0.309082,-0.619141,0.550781,0
53470,0.24707,-0.486816,0.433105,0
53490,0.327637,-0.630859,0.615723,0
53510,0.202148,-0.782227,0.51709,0
53530,0.209473,-0.80957,0.5,0
53550,0.25293,-0.815918,0.488281,2000
53570,0.263672,-0.778809,0.458496,0
53590,0.270996,-0.730957,0.455566,0
53610,0.308594,-0.729004,0.446289,0
53630,0.304199,-0.726074,0.444336,0
53650,0.334473,-0.748047,0.471191,0
53670,0.361816,-0.731934,0.436035,0
53680,0.384766,-0.790527,0.429688,0
53700,0.397461,-0.780273,0.430176,0
53720,0.373535,-0.760254,0.429688,0
53740,0.362793,-0.730469,0.455078,0
53760,0.366211,-0.710938,0.455078,0
53780,0.354492,-0.718262,0.42627,0
53800,0.34668,-0.729004,0.442383,0
53820,0.365723,-0.733398,0.4375,0
53840,0.368164,-0.689941,0.435059,0
53860,0.39502,-0.729004,0.417969,0
53880,0.40918,-0.749023,0.418945,0
53900,0.39502,-0.739746,0.438477,0
53920,0.369629,-0.69873,0.440918,0
53940,0.387207,-0.771973,0.431641,0
53960,0.419434,-0.824707,0.372559,0
53980,0.375,-0.794434,0.422363,0
54000,0.369629,-0.713867,0.416992,0
54020,0.395996,-0.713867,0.389648,0
54040,0.383789,-0.76416,0.401855,0
54060,0.355469,-0.774414,0.408691,0
54080,0.349121,-0.798828,0.404785,0
54100,0.337891,-0.811035,0.416992,0
54120,0.311523,-0.790039,0.409668,0
54140,0.296875,-0.760254,0.428223,0
54160,0.305176,-0.772949,0.428711,0
54180,0.303223,-0.787109,0.444824,0
54200,0.294922,-0.783203,0.479492,0
54220,0.310059,-0.747559,0.478027,0
54240,0.331055,-0.731934,0.474121,0
54260,0.352051,-0.708008,0.475586,0
54280,0.363281,-0.72168,0.45459,0
54300,0.338867,-0.730957,0.482422,0
54320,0.391602,-0.699219,0.498535,0
54340,0.491699,-0.676758,0.478516,0
54360,0.533203,-0.651367,0.47168,0
54380,0.511719,-0.646484,0.455566,0
54400,0.500977,-0.67334,0.407227,0
54420,0.53418,-0.741699,0.369141,0
54440,0.558105,-0.76709,0.353027,0
54460,0.584961,-0.736328,0.360352,0
54480,0.580078,-0.705078,0.351074,0
54500,0.596191,-0.65918,0.343262,0
54520,0.604492,-0.562988,0.312012,0
54540,0.643555,-0.560059,0.281738,0
54560,0.608398,-0.612793,0.271973,0
54580,0.661133,-0.602051,0.288086,0
54600,0.726562,-0.547363,0.279297,0
54620,0.695801,-0.531738,0.23877,0
54640,0.698242,-0.504883,0.225098,0
54660,0.751953,-0.518555,0.203125,0
54680,0.776367,-0.500977,0.210938,0
54700,0.852539,-0.454102,0.191406,0
54720,0.817383,-0.436035,0.208496,0
54740,0.799316,-0.422363,0.228516,0
54760,0.790039,-0.424805,0.268066,0
54780,0.8125,-0.375488,0.282715,0
54800,0.871582,-0.338379,0.302246,0
54820,0.864258,-0.322754,0.344238,0
54840,0.814941,-0.315918,0.383301,0
54860,0.812012,-0.310547,0.425781,0
54880,0.837891,-0.310059,0.452148,0
54900,0.878906,-0.31543,0.480469,0
54920,0.815918,-0.352539,0.512207,0
54940,0.759766,-0.3125,0.601562,0
54960,0.763184,-0.336426,0.629883,0
54980,0.814453,-0.298828,0.679199,0
55000,0.800293,-0.20752,0.697754,0
55020,0.754883,-0.160645,0.731934,0
55040,0.727051,-0.179688,0.748047,0
55060,0.693848,-0.201172,0.788574,0
55080,0.623535,-0.22168,0.806152,0
55100,0.575684,-0.279297,0.827637,0
55120,0.583008,-0.297852,0.869629,0
55140,0.526855,-0.264648,0.865723,0
55160,0.404297,-0.228516,0.849121,0
55180,0.348145,-0.246582,0.907227,0
55200,0.339355,-0.289551,0.891602,0
55220,0.325684,-0.304688,0.868164,0
55240,0.291992,-0.28125,0.842285,0
55260,0.210938,-0.332031,0.823242,0
55280,0.137695,-0.354492,0.78418,0
55300,0.133301,-0.359863,0.773438,0
55320,0.158203,-0.344238,0.771484,0
55340,0.137207,-0.352051,0.733398,0
55360,0.115723,-0.411621,0.700195,0
55380,0.106934,-0.499512,0.679199,0
55400,0.0986328,-0.553711,0.634277,0
55420,0.0864258,-0.57373,0.578613,0
55440,0.0283203,-0.576172,0.538574,0
55460,-0.0561523,-0.614746,0.494141,0
55480,-0.0805664,-0.651367,0.467285,0
55520,0.0986328,-0.689941,0.447754,0
55530,0.135742,-0.716797,0.432129,0
55550,0.153809,-0.768066,0.447754,0
55570,0.214355,-0.797363,0.477539,0
55590,0.341797,-0.771973,0.49707,0
55610,0.413574,-0.725098,0.502441,0
55630,0.410645,-0.723633,0.483398,0
55650,0.458496,-0.752441,0.467773,0
55670,0.54834,-0.734375,0.445801,0
55690,0.57959,-0.697754,0.423828,0
55710,0.595703,-0.647949,0.374023,0
55730,0.656738,-0.656738,0.319824,0
55750,0.730469,-0.643066,0.278809,0
55770,0.766113,-0.615234,0.252441,0
55790,0.769531,-0.581055,0.203125,0
55810,0.839844,-0.5625,0.130859,0
55830,0.880371,-0.555664,0.109375,0
55850,0.90332,-0.482422,0.106445,0
55870,0.958496,-0.411621,0.0654297,0
55890,0.999512,-0.328125,0.0297852,0
55910,1.00293,-0.258789,0.0219727,0
55930,0.96582,-0.213867,0.0415039,0
55950,0.991211,-0.152832,0.0424805,0
55970,1.0127,-0.104004,0.0380859,0
55990,1.04248,-0.0371094,0.0751953,0
56010,1.02344,0.0214844,0.132324,0
56030,0.982422,0.0581055,0.169434,0
56050,0.969727,0.0429688,0.208008,0
56070,0.943359,0.0268555,0.23584,0
56090,1.01367,0.00683594,0.286621,0
56110,1.0293,0.00585938,0.34668,0
56130,0.939941,-0.0366211,0.40332,0
56150,0.973633,-0.0673828,0.454102,0
56170,1.05469,-0.081543,0.520508,0
56190,1.11328,-0.112305,0.563477,0
56210,1.07178,-0.176758,0.623047,0
56230,0.909668,-0.20459,0.657227,0
56250,0.728516,-0.206055,0.685547,0
56270,0.606934,-0.151367,0.710449,0
56290,0.520996,-0.170898,0.713379,0
56310,0.464355,-0.246094,0.733398,0
56330,0.474121,-0.310547,0.765137,0
56350,0.487305,-0.364258,0.673828,0
56370,0.469238,-0.387207,0.629883,0
56390,0.375977,-0.382324,0.634277,0
56410,0.297852,-0.42334,0.577148,0
56430,0.343262,-0.473145,0.563965,0
56450,0.381836,-0.468262,0.521484,0
56470,0.343262,-0.462402,0.511719,0
56490,0.279785,-0.486328,0.502441,0
56510,0.23877,-0.558594,0.487305,0
56530,0.271973,-0.593262,0.470703,0
56550,0.31543,-0.609863,0.46875,0
56570,0.300781,-0.650391,0.415527,0
56590,0.291992,-0.675293,0.379395,0
56610,0.299805,-0.69873,0.344727,0
56630,0.34668,-0.674316,0.354492,0
56650,0.387207,-0.680664,0.321289,0
56670,0.402832,-0.709473,0.320312,0
56690,0.412598,-0.762207,0.310547,0
56710,0.478027,-0.776367,0.305176,0
56730,0.570801,-0.747559,0.290039,0
56750,0.598145,-0.739746,0.277344,0
56770,0.609863,-0.732422,0.258789,0
56790,0.619629,-0.730957,0.233398,0
56810,0.619629,-0.742188,0.14502,0
56830,0.691895,-0.725586,0.164551,0
56850,0.706543,-0.734863,0.145996,0
56870,0.693359,-0.75,0.111328,0
56890,0.729492,-0.725586,0.101074,0
56910,0.784668,-0.648438,0.0722656,0
56930,0.832031,-0.558594,0.0629883,0
56950,0.79248,-0.589844,0.0205078,0
56970,0.793457,-0.579102,0.0444336,0
56990,0.842773,-0.512207,0.00341797,0
57010,0.867676,-0.397949,-0.00878906,0
57030,0.907715,-0.304199,-0.00195312,0
57050,0.931152,-0.236328,-0.0136719,0
57060,0.939453,-0.220703,-0.0419922,0
57080,0.943359,-0.206055,-0.050293,0
57100,0.958984,-0.152832,-0.0698242,0
57120,0.995117,-0.0805664,-0.0541992,0
57140,1.01562,-0.0532227,-0.0581055,0
57160,1.01465,-0.0283203,-0.0493164,0
57180,1.05713,0.00927734,-0.0366211,0
57200,1.08936,0.0170898,-0.0151367,0
57220,1.08838,0.0253906,0.0371094,0
57240,1.07861,0.0117188,0.0634766,0
57260,1.10547,-0.03125,0.103027,0
57280,1.1499,-0.015625,0.137695,0
57300,1.15918,-0.0117188,0.202148,0
57320,1.10693,-0.0332031,0.246582,0
57340,1.04004,-0.0717773,0.363281,0
57360,0.986328,-0.168945,0.381348,0
57380,0.925293,-0.243652,0.391602,0
57400,0.791992,-0.177734,0.431152,0
57420,0.710449,-0.212891,0.560547,0
57440,0.644531,-0.263672,0.623047,0
57460,0.70166,-0.315918,0.620117,0
57480,0.78125,-0.310547,0.608887,0
57500,0.700684,-0.316406,0.609375,0
57520,0.581055,-0.384766,0.617188,0
57540,0.608398,-0.429199,0.594727,0
57560,0.652832,-0.444336,0.535645,0
57580,0.598145,-0.412109,0.525391,0
57600,0.469727,-0.455566,0.494141,0
57620,0.450195,-0.530273,0.483887,0
57640,0.506348,-0.571777,0.447754,0
57660,0.497559,-0.576172,0.411621,0
57680,0.438965,-0.594727,0.38916,0
57700,0.402832,-0.634277,0.374512,0
57720,0.38623,-0.637207,0.311523,0
57740,0.383301,-0.656738,0.279785,0
57760,0.383789,-0.693848,0.258789,0
57780,0.395996,-0.749512,0.233398,0
57800,0.40918,-0.788574,0.223633,0
57820,0.413574,-0.785156,0.164551,0
57840,0.449219,-0.770508,0.139648,0
57860,0.499512,-0.762207,0.105469,0
57880,0.531738,-0.773438,0.101074,0
57900,0.500977,-0.77002,0.0771484,0
57920,0.492676,-0.783203,0.0498047,0
57940,0.557617,-0.75293,0.0375977,0
57960,0.639648,-0.725098,0.0615234,0
57980,0.638672,-0.69043,0.0351562,0
58000,0.64209,-0.687988,0.0180664,0
58020,0.70166,-0.681152,-0.0444336,0
58040,0.763184,-0.640625,-0.0288086,0
58060,0.742676,-0.585449,-0.0249023,0
58080,0.713867,-0.577637,-0.0732422,0
58100,0.765625,-0.583984,-0.106934,0
58120,0.817871,-0.555176,-0.10498,0
58140,0.853027,-0.501465,-0.119629,0
58160,0.867676,-0.540039,-0.184082,0
58180,0.932617,-0.49707,-0.193359,0
58200,0.913574,-0.436035,-0.188965,0
58220,0.906738,-0.45752,-0.215332,0
58240,0.928711,-0.469238,-0.256836,2001
58260,0.937988,-0.445801,-0.249023,0
58280,0.909668,-0.404785,-0.222168,0
58300,0.873047,-0.379883,-0.218262,0
58320,0.835938,-0.376465,-0.219238,0
58340,0.858887,-0.378418,-0.206055,0
58360,0.887695,-0.390625,-0.193848,0
58380,0.887207,-0.398438,-0.163086,0
58400,0.850098,-0.407715,-0.168457,0
58420,0.825195,-0.45752,-0.177246,0
58440,0.821289,-0.459961,-0.165527,0
58460,0.8125,-0.444824,-0.18457,0
58480,0.775879,-0.432617,-0.15625,0
58500,0.73877,-0.421387,-0.149414,0
58520,0.683594,-0.431641,-0.128906,0
58540,0.633301,-0.435059,-0.11377,0
58560,0.603516,-0.433105,-0.119629,0
58580,0.600586,-0.447754,-0.108398,0
58600,0.605957,-0.450195,-0.0976562,0
58620,0.594238,-0.460449,-0.0625,0
58640,0.598633,-0.475098,-0.0493164,0
58660,0.630859,-0.46582,0.0195312,0
58680,0.669434,-0.450684,0.0419922,0
58700,0.675293,-0.458008,0.0249023,0
58710,0.682129,-0.501953,0.00634766,0
58740,0.706055,-0.568848,0.050293,0
58760,0.743164,-0.594727,0.123047,0
58780,0.78125,-0.592773,0.128906,0
58800,0.789062,-0.62207,0.115234,0
58820,0.807129,-0.65332,0.146484,0
58840,0.855469,-0.703125,0.20166,0
58860,0.833496,-0.763672,0.257812,0
58880,0.803711,-0.793457,0.285645,0
58900,0.814453,-0.812988,0.272949,0
58920,0.766602,-0.82959,0.29834,0
58940,0.689453,-0.878906,0.34082,0
58960,0.670898,-0.879395,0.380371,0
58980,0.691406,-0.843262,0.42041,0
59000,0.655273,-0.799316,0.442383,0
59020,0.599121,-0.818359,0.41748,0
59030,0.539551,-0.879883,0.424316,0
59050,0.493652,-0.880859,0.45459,0
59070,0.458008,-0.820312,0.476074,0
59090,0.443848,-0.791016,0.494629,0
59110,0.40625,-0.802734,0.474121,0
59130,0.343262,-0.805176,0.456543,0
59150,0.282227,-0.773926,0.462891,0
59170,0.271484,-0.751465,0.480469,0
59190,0.308105,-0.74707,0.490723,0
59210,0.342285,-0.768066,0.484375,0
59230,0.375977,-0.743164,0.475098,0
59250,0.385254,-0.734375,0.494629,0
59270,0.394531,-0.73291,0.485352,0
59290,0.393555,-0.758301,0.477051,0
59310,0.396973,-0.755859,0.469727,0
59330,0.40332,-0.749023,0.463867,0
59350,0.418457,-0.745605,0.44873,0
59370,0.406738,-0.748535,0.452637,0
59390,0.379883,-0.735352,0.454102,0
59410,0.384277,-0.725098,0.45752,0
59430,0.413086,-0.706543,0.453613,0
59450,0.393066,-0.725098,0.443359,0
59470,0.373535,-0.715332,0.45752,0
59490,0.376953,-0.712891,0.455566,0
59510,0.399414,-0.702148,0.452148,0
59530,0.415527,-0.703613,0.442383,0
59550,0.409668,-0.699219,0.46582,0
59570,0.385254,-0.702148,0.462891,0
59590,0.399414,-0.70459,0.46582,0
59610,0.419922,-0.695312,0.462402,0
59630,0.41748,-0.70459,0.455566,0
59650,0.414551,-0.694824,0.473145,0
59670,0.396973,-0.699707,0.484375,0
59690,0.396973,-0.712402,0.473145,0
59710,0.418457,-0.705566,0.483887,0
59730,0.422852,-0.714355,0.448242,0
59750,0.39502,-0.730957,0.46582,0
59770,0.377441,-0.744629,0.466309,0
59790,0.372559,-0.702148,0.482422,0
59810,0.387207,-0.705078,0.473145,0
59830,0.394531,-0.71875,0.479492,0
59850,0.389648,-0.746094,0.461914,0
59870,0.390137,-0.734375,0.490234,0
59890,0.394043,-0.728027,0.471191,0
59910,0.387695,-0.697754,0.474609,0
59930,0.401855,-0.687988,0.45166,0
59950,0.385254,-0.685059,0.477539,0
59970,0.359863,-0.710449,0.483887,0
59990,0.342285,-0.704102,0.494141,0
60010,0.328613,-0.6875,0.513184,0
60030,0.315918,-0.67041,0.503418,0
60050,0.345703,-0.658203,0.507324,0
60070,0.393555,-0.652832,0.519043,0
60090,0.449707,-0.627441,0.559082,0
60110,0.525879,-0.631836,0.464844,0
60130,0.548828,-0.636719,0.452148,0
60150,0.520508,-0.637695,0.443359,0
60170,0.583008,-0.649414,0.434082,0
60190,0.648438,-0.605469,0.434082,0
60210,0.712891,-0.565918,0.374023,0
60230,0.72168,-0.580078,0.368164,0
60250,0.729004,-0.544434,0.333008,0
60270,0.693848,-0.527344,0.333984,0
60290,0.733398,-0.500488,0.28418,0
60310,0.770996,-0.51123,0.225586,0
60330,0.788086,-0.51709,0.20459,0
60350,0.782227,-0.469727,0.159668,0
60380,0.879883,-0.397949,0.0742188,0
60400,0.92627,-0.358887,0.0859375,0
60420,0.90332,-0.321289,0.0795898,0
60440,0.893555,-0.305176,0.115234,0
60460,0.873047,-0.312012,0.14502,0
60470,0.857422,-0.26416,0.174805,0
60490,0.857422,-0.33252,0.203125,0
60510,0.901367,-0.391113,0.208008,0
60530,0.94873,-0.42627,0.205078,0
60550,0.941406,-0.474609,0.237793,0
60570,0.912109,-0.506836,0.308594,0
60590,0.794922,-0.530762,0.370117,0
60610,0.722656,-0.533691,0.431152,0
60630,0.71582,-0.660156,0.634277,0
60650,0.652344,-0.64502,0.452637,0
60670,0.538086,-0.522949,0.568848,0
60690,0.490723,-0.527832,0.567383,0
60710,0.472168,-0.589844,0.578613,0
60730,0.397949,-0.545898,0.607422,0
60750,0.327637,-0.427734,0.589355,0
60770,0.304199,-0.568359,0.725098,0
60790,0.222656,-0.730469,0.574707,0
60810,0.305176,-0.742676,0.626465,0
60830,0.339844,-0.73877,0.606934,0
60850,0.279785,-0.70166,0.560059,0
60870,0.204102,-0.686523,0.516602,0
60890,0.222656,-0.682129,0.499023,0
60910,0.291504,-0.68457,0.498535,0
60930,0.32666,-0.700195,0.496094,0
60950,0.338379,-0.735352,0.481934,0
60970,0.345215,-0.757324,0.481934,0
60990,0.369141,-0.741211,0.492676,0
61010,0.383301,-0.703613,0.491211,0
61030,0.378906,-0.706543,0.493164,0
61050,0.364258,-0.706055,0.487305,0
61070,0.346191,-0.706055,0.476074,0
61090,0.37207,-0.703125,0.475586,2000
61110,0.395508,-0.725586,0.480469,0
61130,0.40625,-0.705078,0.487793,0
61150,0.399414,-0.668945,0.484375,0
61170,0.383301,-0.665527,0.494629,0
61190,0.390137,-0.706543,0.463379,0
61210,0.431152,-0.686035,0.47998,0
61230,0.440918,-0.67041,0.475586,0
61250,0.442871,-0.666016,0.473145,0
61270,0.435547,-0.692383,0.479492,0
61290,0.428711,-0.692383,0.474121,0
61310,0.430176,-0.65625,0.472656,0
61330,0.459961,-0.665527,0.451172,0
61350,0.469727,-0.658691,0.439941,0
61370,0.450195,-0.658203,0.444824,0
61390,0.445801,-0.730957,0.447266,0
61410,0.435547,-0.730957,0.464355,0
61430,0.422852,-0.736328,0.469727,0
61450,0.441895,-0.746094,0.449219,0
61470,0.441895,-0.727051,0.446289,0
61490,0.408691,-0.723633,0.464355,0
61510,0.38916,-0.697266,0.452637,0
61530,0.383789,-0.692871,0.467773,0
61550,0.391602,-0.71582,0.466309,0
61570,0.373047,-0.697266,0.480469,0
61590,0.354004,-0.687988,0.494141,0
61610,0.32373,-0.714355,0.493164,0
61630,0.286621,-0.714355,0.518066,0
61650,0.25293,-0.706055,0.51416,0
61670,0.229492,-0.685059,0.541504,0
61690,0.310547,-0.674805,0.531738,0
61710,0.410156,-0.676758,0.536133,0
61730,0.405762,-0.637207,0.558594,0
61750,0.422852,-0.593262,0.583984,0
61770,0.534668,-0.600098,0.516602,0
61790,0.590332,-0.599121,0.48584,0
61810,0.599121,-0.608887,0.481934,0
61830,0.652344,-0.547363,0.428223,0
61850,0.659668,-0.564453,0.45752,0
61870,0.625977,-0.513184,0.407227,0
61890,0.687012,-0.538086,0.392578,0
61910,0.720703,-0.466797,0.326172,0
61930,0.809082,-0.450684,0.244141,0
61950,0.716309,-0.512695,0.270508,0
61970,0.808105,-0.443848,0.21875,0
61990,0.84082,-0.425781,0.159668,0
62010,0.885254,-0.423828,0.162109,0
62030,0.873535,-0.389648,0.174316,0
62050,0.890625,-0.353516,0.16748,0
62070,0.945801,-0.32959,0.151367,0
62090,0.932129,-0.273438,0.200684,0
62110,0.884277,-0.213379,0.21875,0
62130,0.851074,-0.17334,0.271973,0
62150,0.75293,-0.17627,0.328125,0
62170,0.71875,-0.179688,0.395996,0
62190,0.768555,-0.170898,0.436523,0
62210,0.874512,-0.157227,0.435547,0
62230,0.850098,-0.168457,0.45459,0
62250,0.819336,-0.173828,0.5,0
62270,0.874023,-0.193359,0.568359,0
62290,0.929688,-0.183105,0.596191,0
62310,0.910156,-0.183105,0.645508,0
62320,0.834473,-0.168457,0.68457,0
62340,0.8125,-0.139648,0.716797,0
62360,0.858887,-0.141113,0.745117,0
62380,0.78125,-0.126953,0.780273,0
62400,0.671387,-0.130371,0.820801,0
62420,0.623047,-0.191406,0.824219,0
62440,0.606934,-0.169922,0.848145,0
62460,0.577148,-0.175293,0.887695,0
62480,0.558105,-0.13623,0.891113,0
62500,0.500977,-0.164551,0.918457,0
62520,0.381348,-0.153809,0.911621,0
62540,0.254395,-0.227051,0.876953,0
62560,0.168945,-0.291016,0.851562,0
62580,0.112305,-0.289062,0.886719,0
62600,0.0390625,-0.28418,0.794922,0
62620,0.0224609,-0.3125,0.769531,0
62640,0.0180664,-0.345215,0.774414,0
62660,-0.0102539,-0.385254,0.74707,0
62680,0.00390625,-0.39502,0.708496,0
62700,0.0141602,-0.431152,0.669434,0
62720,0.0234375,-0.421875,0.667969,0
62740,0.0439453,-0.43457,0.659668,0
62760,0.0771484,-0.48877,0.62207,0
62780,0.0893555,-0.537598,0.568359,0
62800,0.0908203,-0.593262,0.526367,0
62820,0.114258,-0.586426,0.551758,0
62840,0.173828,-0.602539,0.562988,0
62850,0.189941,-0.65625,0.516113,0
62870,0.163086,-0.759766,0.48584,0
62890,0.144531,-0.789062,0.4375,0
62910,0.192871,-0.760742,0.444824,0
62930,0.282227,-0.727539,0.48877,0
62950,0.344727,-0.733398,0.499512,0
62970,0.369141,-0.816406,0.46875,0
62990,0.40332,-0.811035,0.456055,0
63010,0.455566,-0.743652,0.469238,0
63030,0.469727,-0.665039,0.490723,0
63050,0.50293,-0.614258,0.474121,0
63070,0.570801,-0.595215,0.451172,0
63090,0.703613,-0.544922,0.379395,0
63110,0.779785,-0.606934,0.337402,0
63130,0.854004,-0.652344,0.269043,0
63150,0.856934,-0.624023,0.231445,0
63170,0.918457,-0.555176,0.190918,0
63190,1.0083,-0.526855,0.142578,0
63210,1.00391,-0.467285,0.0961914,0
63230,1.00391,-0.373535,0.0581055,0
63250,0.991699,-0.283691,0.0332031,0
63270,1.03857,-0.202148,0.0327148,0
63290,1.00635,-0.178711,0.0356445,0
63310,0.993652,-0.151855,0.0844727,0
63330,0.970703,-0.121094,0.106445,0
63350,0.932617,-0.0825195,0.116699,0
63370,0.913574,-0.0253906,0.15625,0
63390,0.933105,0.0419922,0.175781,0
63410,0.936523,0.0488281,0.204102,0
63430,0.905762,0.0483398,0.23584,0
63450,0.890625,-0.00244141,0.264648,0
63470,0.911621,-0.0625,0.281738,0
63490,0.958496,-0.0551758,0.321289,0
63510,0.965332,-0.0522461,0.359375,0
63530,0.962891,-0.101562,0.383789,0
63550,0.976074,-0.135254,0.443359,0
63570,0.995605,-0.115723,0.485352,0
63590,0.945312,-0.0878906,0.506348,0
63610,0.907227,-0.081543,0.540527,0
63630,0.899902,-0.0917969,0.574219,0
63650,0.873047,-0.0810547,0.594238,0
63670,0.830566,-0.104492,0.623047,0
63690,0.726074,-0.143555,0.672852,0
63710,0.644043,-0.238281,0.696777,0
63730,0.598145,-0.246094,0.689453,0
63750,0.540527,-0.203125,0.694336,0
63770,0.484863,-0.209961,0.69873,0
63790,0.427734,-0.289551,0.721191,0
63810,0.364746,-0.322754,0.695312,0
63830,0.359863,-0.261719,0.67041,0
63850,0.361328,-0.288086,0.618652,0
63870,0.37207,-0.368164,0.625488,0
63890,0.38623,-0.441895,0.608887,0
63910,0.363281,-0.479004,0.57373,0
63930,0.385742,-0.517578,0.530273,0
63950,0.379395,-0.529785,0.536621,0
63970,0.353027,-0.550781,0.506348,0
63990,0.36377,-0.571777,0.439453,0
64010,0.37793,-0.61377,0.397461,0
64030,0.401855,-0.642578,0.392578,0
64050,0.429688,-0.669434,0.377441,0
64070,0.402344,-0.725098,0.349121,0
64090,0.404785,-0.777832,0.290039,0
64110,0.466797,-0.799805,0.241699,0
64130,0.493164,-0.800293,0.213867,0
64150,0.46875,-0.783203,0.21582,0
64170,0.459961,-0.73877,0.212891,0
64190,0.537598,-0.73584,0.175781,0
64210,0.677734,-0.711426,0.15332,0
64230,0.767578,-0.689453,0.123535,0
64250,0.81543,-0.679688,0.0742188,0
64260,0.847656,-0.668457,0.0424805,0
64280,0.849121,-0.632812,0.00634766,0
64300,0.836914,-0.564941,-0.00195312,0
64320,0.802734,-0.542969,-0.0307617,0
64340,0.772461,-0.509766,-0.03125,0
64360,0.759277,-0.472656,-0.0288086,0
64380,0.773438,-0.416992,-0.0166016,0
64400,0.804688,-0.378906,0.00195312,0
64420,0.804199,-0.358398,0,0
64440,0.820801,-0.320801,0.00292969,0
64460,0.886719,-0.265137,0.0302734,0
64480,0.912598,-0.217773,0.0219727,0
64500,0.958008,-0.200684,0.0581055,0
64520,0.989746,-0.163086,0.0737305,0
64540,0.991211,-0.123535,0.0698242,0
64560,1.00391,-0.104492,0.0883789,0
64580,1.03174,-0.0996094,0.140137,0
64600,1.04541,-0.0888672,0.157227,0
64620,1.04199,-0.125488,0.178223,0
64640,1.06787,-0.129395,0.163574,0
64660,1.14648,-0.0976562,0.20752,0
64680,1.19336,-0.0581055,0.263672,0
64700,1.10986,-0.0297852,0.311035,0
64720,1.04248,-0.126465,0.347168,0
64740,1.06348,-0.163574,0.37793,0
64760,1.0625,-0.100098,0.446289,0
64780,0.97998,-0.0942383,0.471191,0
64800,0.888672,-0.166992,0.510254,0
64820,0.93457,-0.17627,0.597168,0
64840,1.02539,-0.152832,0.630859,0
64860,1.05811,-0.161133,0.649902,0
64880,0.986816,-0.211426,0.567871,0
64900,0.764648,-0.209961,0.605957,0
64920,0.550781,-0.160156,0.577637,0
64940,0.427246,-0.289062,0.536133,0
64960,0.342285,-0.445801,0.494629,0
64980,0.288086,-0.496094,0.449219,0
65000,0.294922,-0.525391,0.438477,0
65020,0.324707,-0.558594,0.416992,0
65040,0.354004,-0.631836,0.350098,0
65060,0.345215,-0.666504,0.310059,0
65080,0.284668,-0.714355,0.29541,0
65100,0.29541,-0.779297,0.249512,0
65120,0.375,-0.841797,0.209961,0
65140,0.438477,-0.891113,0.17334,0
65160,0.494141,-0.860352,0.141602,0
65180,0.498535,-0.785156,0.0888672,0
65200,0.424316,-0.747559,0.0385742,0
65220,0.358398,-0.80957,0.0297852,0
65240,0.421387,-0.777832,0.0244141,0
65260,0.594727,-0.671387,0.00585938,0
65280,0.67041,-0.58252,0.000488281,0
65300,0.594238,-0.567871,0.015625,0
65320,0.538574,-0.589844,0.00292969,0
65340,0.699707,-0.541016,0.00488281,0
65360,0.852539,-0.416504,-0.00732422,0
65380,0.792969,-0.364258,-0.050293,0
65400,0.750977,-0.464355,-0.0400391,0
65420,0.924316,-0.503906,-0.0483398,0
65440,1.06494,-0.411133,-0.0576172,0
65460,1.05127,-0.350098,-0.0864258,2001
65480,1.03516,-0.35498,-0.0698242,0
65500,1.05908,-0.391113,-0.0703125,0
65520,1.10791,-0.359863,-0.101074,0
65540,1.05908,-0.336914,-0.0986328,0
65560,0.980469,-0.353027,-0.105957,0
65580,0.959473,-0.376953,-0.112305,0
65600,0.931641,-0.388672,-0.0913086,0
65620,0.876465,-0.384766,-0.090332,0
65640,0.80957,-0.385254,-0.0976562,0
65660,0.745117,-0.416016,-0.0795898,0
65680,0.706055,-0.429199,-0.090332,0
65700,0.69873,-0.42041,-0.0991211,0
65720,0.696777,-0.410156,-0.104004,0
65740,0.669922,-0.383789,-0.102539,0
65760,0.630371,-0.359375,-0.0727539,0
65780,0.612305,-0.361328,-0.0444336,0
65800,0.600098,-0.388184,-0.0419922,0
65820,0.601074,-0.416992,-0.00830078,0
65840,0.64209,-0.400879,0.0581055,0
65860,0.705566,-0.391602,0.137207,0
65880,0.75,-0.430176,0.0839844,0
65900,0.734863,-0.448242,0.0556641,0
65920,0.716797,-0.414062,0.0859375,0
65940,0.768555,-0.359863,0.154785,0
65960,0.829102,-0.424805,0.237305,0
65980,0.826172,-0.540039,0.214844,0
66000,0.79541,-0.580078,0.217773,0
66020,0.822266,-0.600098,0.304199,0
66040,0.896973,-0.662109,0.371094,0
66060,0.944336,-0.6875,0.349121,0
66080,0.896973,-0.703125,0.367676,0
66100,0.839355,-0.762695,0.347656,0
66120,0.802734,-0.791992,0.384766,0
66140,0.783691,-0.74707,0.4375,0
66160,0.691895,-0.739258,0.490234,0
66180,0.62793,-0.764648,0.500488,0
66200,0.666504,-0.79248,0.44873,0
66220,0.709473,-0.794434,0.460938,0
66240,0.672363,-0.771484,0.491211,0
66260,0.593262,-0.687988,0.472656,0
66280,0.54541,-0.719238,0.422852,0
66300,0.459473,-0.777344,0.467285,0
66320,0.377441,-0.797363,0.432617,0
66340,0.328125,-0.786621,0.475098,0
66360,0.348145,-0.790039,0.476562,0
66380,0.381836,-0.748535,0.477539,0
66400,0.37207,-0.694336,0.504395,0
66420,0.368652,-0.650391,0.506348,0
66440,0.382812,-0.681152,0.494141,0
66460,0.390625,-0.692383,0.480469,0
66480,0.369629,-0.719727,0.478027,0
66500,0.322266,-0.725586,0.484375,0
66520,0.29248,-0.74707,0.477539,0
66540,0.289062,-0.751465,0.5,0
66560,0.315918,-0.712891,0.501953,0
66580,0.346191,-0.696289,0.490234,0
66600,0.340332,-0.700684,0.502441,0
66620,0.327637,-0.726074,0.494629,0
66640,0.325195,-0.74707,0.505859,0
66660,0.362793,-0.734863,0.499023,0
66680,0.389648,-0.714844,0.472168,0
66700,0.424316,-0.662598,0.475098,0
66720,0.485352,-0.605469,0.470215,0
66740,0.533203,-0.65332,0.468262,0
66760,0.518555,-0.694336,0.509277,0
66780,0.512207,-0.694336,0.478027,0
66800,0.47168,-0.651855,0.503906,0
