Timestamp, Acceleration x, Acceleration y, Acceleration z, Marker
30,-0.400391,-0.884277,0.242188,0
40,-0.401855,-0.883301,0.240723,0
70,-0.402832,-0.876953,0.251465,0
90,-0.401367,-0.878906,0.255859,0
90,-0.402344,-0.858887,0.273438,0
110,-0.409668,-0.881348,0.285645,0
110,-0.395996,-0.868164,0.302734,0
110,-0.39209,-0.869629,0.291016,0
150,-0.387695,-0.886719,0.287598,0
170,-0.381836,-0.85791,0.294434,0
210,-0.377441,-0.858398,0.290527,0
240,-0.386719,-0.864258,0.29541,0
250,-0.367676,-0.852051,0.321289,0
290,-0.370117,-0.858398,0.328125,0
320,-0.369141,-0.866699,0.330078,0
340,-0.366699,-0.864258,0.337891,0
370,-0.356445,-0.859863,0.363281,0
390,-0.336914,-0.860352,0.340332,0
410,-0.331543,-0.866211,0.343262,0
410,-0.358398,-0.854004,0.35498,0
430,-0.362793,-0.853027,0.346191,0
430,-0.364258,-0.856934,0.344727,0
450,-0.359863,-0.860352,0.343262,0
460,-0.345703,-0.873047,0.341309,0
460,-0.362793,-0.851074,0.337402,0
460,-0.339355,-0.858398,0.355957,0
480,-0.334473,-0.862793,0.367676,0
500,-0.359375,-0.837402,0.372559,0
550,-0.310059,-0.877441,0.357422,0
580,-0.372559,-0.818848,0.378906,0
600,-0.377441,-0.854492,0.353027,0
620,-0.45166,-0.858887,0.356445,0
640,-0.438965,-0.875488,0.397949,0
660,-0.421387,-0.885254,0.41748,0
660,-0.32373,-1.12842,0.521484,0
680,-0.206055,-1.21777,0.533691,0
720,-0.0512695,-1.1626,0.42041,0
740,0.0292969,-1.07324,0.420898,0
760,0.139648,-1.021,0.463867,0
780,0.240234,-1.01025,0.469238,0
800,0.269043,-0.998535,0.433594,0
820,0.269531,-0.969727,0.401855,0
840,0.227539,-0.921875,0.380859,0
860,0.289062,-0.833496,0.345703,0
870,0.371094,-0.766113,0.314453,0
890,0.364258,-0.657227,0.251953,0
910,0.38623,-0.618652,0.205566,0
930,0.411133,-0.620117,0.184082,0
950,0.387207,-0.583008,0.169922,0
970,0.412109,-0.564453,0.141113,0
990,0.455078,-0.555664,0.107422,0
1010,0.506836,-0.569824,0.0966797,0
1030,0.565918,-0.585449,0.0810547,0
1050,0.607422,-0.572266,0.0454102,0
1070,0.635742,-0.572754,-0.0161133,0
1090,0.629395,-0.574707,-0.0415039,0
1110,0.665039,-0.580566,-0.0415039,0
1130,0.595215,-0.595703,-0.0678711,0
1150,0.631348,-0.591797,-0.09375,0
1170,0.719727,-0.600586,-0.0551758,0
1190,0.720215,-0.669922,-0.0078125,0
1210,0.694336,-0.715332,-0.0107422,0
1230,0.681152,-0.772461,0.00585938,0
1250,0.733398,-0.783691,0.0415039,0
1270,0.734863,-0.692383,0.0864258,0
1290,0.676758,-0.706543,0.0268555,0
1310,0.700195,-0.722656,0.0322266,0
1330,0.719727,-0.710449,0.0449219,0
1350,0.689453,-0.683594,0.00830078,0
1370,0.682129,-0.67334,-0.027832,0
1390,0.70752,-0.6875,-0.00927734,0
1410,0.724609,-0.727051,0.00878906,0
1430,0.726074,-0.686035,0.015625,0
1450,0.722656,-0.661621,0.0195312,0
1470,0.734863,-0.659668,0.0146484,0
1490,0.749023,-0.655762,0.0151367,0
1510,0.765137,-0.655273,0.0239258,0
1530,0.753418,-0.656738,0.00976562,0
1550,0.730469,-0.64502,0.0151367,0
1570,0.723633,-0.644531,0.0214844,0
1590,0.759277,-0.640137,0.0249023,0
1610,0.75293,-0.616211,0.0253906,0
1630,0.745117,-0.595215,0.0385742,0
1650,0.764648,-0.612305,0.0385742,0
1670,0.74707,-0.613281,0.0366211,0
1690,0.734375,-0.596191,0.0297852,0
1710,0.769043,-0.602051,0.043457,0
1730,0.766113,-0.593262,0.0546875,0
1750,0.740723,-0.603027,0.0419922,0
1770,0.780762,-0.606934,-0.00732422,0
1790,0.772461,-0.595703,-0.00585938,0
1810,0.79834,-0.58252,0.0102539,0
1830,0.800781,-0.597168,-0.00390625,0
1850,0.841797,-0.60791,-0.0170898,0
1870,0.862793,-0.598633,-0.0141602,0
1890,0.828125,-0.568359,0.00244141,0
1910,0.810547,-0.565918,0.012207,0
1930,0.82373,-0.561523,-0.000488281,0
1950,0.830566,-0.553223,-0.0170898,0
1970,0.8125,-0.532227,-0.015625,0
1990,0.8125,-0.526855,-0.00292969,0
2010,0.82666,-0.526367,0.00878906,0
2030,0.828125,-0.53125,-0.00634766,0
2050,0.828125,-0.514648,-0.00634766,0
2070,0.824219,-0.501953,-0.00341797,0
2090,0.814453,-0.496094,-0.00830078,0
2110,0.808594,-0.49707,-0.0224609,0
2130,0.793945,-0.492676,-0.0136719,0
2150,0.779297,-0.476562,-0.00830078,0
2170,0.804199,-0.474121,-0.0244141,0
2190,0.800781,-0.473145,-0.0117188,0
2210,0.779297,-0.463379,-0.03125,0
2230,0.813477,-0.457031,-0.0410156,0
2250,0.844238,-0.457031,-0.0219727,0
2270,0.841797,-0.456543,-0.0224609,0
2290,0.867188,-0.455078,-0.0566406,0
2310,0.900879,-0.450195,-0.0541992,0
2330,0.911621,-0.458496,-0.0483398,0
2350,0.883789,-0.456055,-0.0556641,0
2370,0.868164,-0.458984,-0.0668945,0
2390,0.856934,-0.460938,-0.065918,0
2410,0.836914,-0.457031,-0.0581055,0
2430,0.814941,-0.450195,-0.0537109,0
2450,0.814453,-0.458984,-0.0375977,0
2470,0.811523,-0.449707,-0.0234375,0
2490,0.848145,-0.450195,-0.0317383,0
2510,0.852539,-0.456543,-0.0400391,0
2530,0.842773,-0.460449,-0.0483398,0
2550,0.843262,-0.462891,-0.0527344,0
2580,0.868164,-0.474609,-0.0688477,0
2590,0.858887,-0.46582,-0.0678711,0
2610,0.864258,-0.461426,-0.0566406,0
2630,0.89502,-0.456543,-0.0605469,0
2650,0.896973,-0.462402,-0.0673828,0
2670,0.875977,-0.445801,-0.0532227,0
2690,0.875,-0.468262,-0.046875,0
2710,0.861816,-0.467285,-0.0292969,0
2730,0.86377,-0.458008,-0.0258789,0
2750,0.859375,-0.463379,-0.0336914,0
2770,0.865723,-0.473633,-0.0371094,0
2790,0.861816,-0.466797,-0.0283203,0
2800,0.861816,-0.464844,-0.0375977,0
2820,0.866699,-0.471191,-0.0498047,0
2840,0.875488,-0.46875,-0.0537109,0
2860,0.874512,-0.466797,-0.0625,0
2880,0.876465,-0.462402,-0.0566406,0
2900,0.850586,-0.464844,-0.0561523,0
2920,0.832031,-0.463379,-0.050293,0
2940,0.819824,-0.467285,-0.0322266,0
2960,0.827637,-0.458008,-0.0214844,0
2980,0.826172,-0.459961,-0.0224609,0
3000,0.834473,-0.460938,-0.0219727,0
3020,0.848145,-0.451172,-0.0283203,0
3040,0.86084,-0.437988,-0.0527344,0
3060,0.855957,-0.424805,-0.0605469,0
3080,0.865234,-0.427734,-0.0488281,0
3120,0.880371,-0.432617,-0.0576172,0
3130,0.876953,-0.425293,-0.0742188,0
3140,0.875,-0.429199,-0.0820312,0
3150,0.886719,-0.431641,-0.0673828,0
3170,0.855957,-0.424805,-0.0585938,0
3190,0.850586,-0.420898,-0.059082,0
3210,0.847168,-0.431641,-0.0708008,0
3230,0.851074,-0.435547,-0.074707,0
3250,0.833984,-0.439941,-0.0668945,0
3270,0.844727,-0.432617,-0.0512695,0
3290,0.853516,-0.437012,-0.0410156,0
3290,0.852539,-0.432129,-0.0527344,0
3310,0.843262,-0.431152,-0.0517578,0
3330,0.833496,-0.417969,-0.03125,0
3350,0.816895,-0.42041,-0.00585938,0
3370,0.802246,-0.411133,-0.00341797,0
3390,0.811523,-0.41748,-0.0214844,0
3410,0.849121,-0.410645,0.0146484,0
3430,0.858887,-0.419434,0.0151367,0
3440,0.891113,-0.446777,-0.0693359,0
3450,0.905762,-0.460938,-0.0825195,0
3470,0.92334,-0.479004,-0.0957031,0
3480,0.931641,-0.500977,-0.0830078,0
3500,0.92041,-0.494629,-0.0683594,0
3520,0.913574,-0.496094,-0.0629883,0
3540,0.890137,-0.503906,-0.0605469,0
3560,0.888184,-0.48877,-0.0488281,0
3580,0.886719,-0.462891,-0.0263672,0
3610,0.840332,-0.456543,0.00537109,0
3630,0.841797,-0.456055,0.000488281,0
3650,0.852051,-0.464844,0.00732422,0
3670,0.869141,-0.467285,0.00634766,0
3690,0.883789,-0.468262,0.00244141,0
3710,0.889648,-0.470703,-0.0253906,0
3730,0.867188,-0.47168,-0.0512695,0
3750,0.870605,-0.47168,-0.0517578,0
3770,0.881836,-0.448242,-0.0395508,0
3800,0.894531,-0.443359,-0.0185547,0
3820,0.897461,-0.433594,-0.0131836,0
3840,0.902832,-0.446289,-0.0175781,0
3860,0.901367,-0.449707,-0.015625,0
3880,0.899414,-0.450684,-0.0112305,0
3910,0.875977,-0.43457,-0.0454102,0
3930,0.872559,-0.42334,-0.0585938,0
3950,0.878906,-0.428223,-0.0737305,0
3970,0.900391,-0.442871,-0.0795898,0
3990,0.894043,-0.413574,-0.0698242,0
4000,0.90625,-0.347168,-0.090332,0
4020,0.918945,-0.321289,-0.0888672,0
4040,0.915039,-0.287109,-0.0668945,0
4050,0.902832,-0.242188,-0.0976562,0
4070,0.893066,-0.228516,-0.123535,0
4090,0.908203,-0.20166,-0.12793,0
4110,0.89502,-0.187988,-0.115723,0
4130,0.900879,-0.17334,-0.131836,0
4170,0.908691,-0.13623,-0.175293,0
4190,0.916016,-0.132812,-0.166504,0
4230,0.90332,-0.131836,-0.196289,0
4250,0.896484,-0.141113,-0.181641,0
4270,0.888672,-0.147949,-0.17627,0
4290,0.878906,-0.148438,-0.17334,0
4310,0.875,-0.161133,-0.153809,0
4330,0.850098,-0.172363,-0.122559,0
4350,0.824707,-0.183105,-0.0776367,0
4370,0.803711,-0.202148,-0.0771484,0
4390,0.803223,-0.230957,-0.0825195,0
4410,0.838379,-0.225586,-0.0830078,0
4440,0.851074,-0.273926,-0.0493164,0
4460,0.863281,-0.289062,-0.0625,0
4480,0.935547,-0.30127,-0.0395508,0
4500,0.979492,-0.339355,-0.0366211,0
4520,0.953613,-0.385254,-0.0439453,0
4540,0.933105,-0.408203,-0.0493164,0
4560,0.926758,-0.447266,0.0229492,0
4580,0.979004,-0.506348,0.108887,0
4600,1.01221,-0.611816,0.125,0
4620,0.946289,-0.655273,0.139648,0
4640,0.789551,-0.617188,0.229004,0
4660,0.659668,-0.602539,0.273438,0
4680,0.661621,-0.644531,0.267578,0
4700,0.620117,-0.671387,0.306152,0
4720,0.447754,-0.632324,0.463379,0
4740,0.452637,-0.615234,0.406738,0
4760,0.360352,-0.665039,0.291016,0
4780,0.280762,-0.61084,0.365234,0
4800,0.178711,-0.648926,0.356445,0
4820,0.0551758,-0.760742,0.381348,0
4840,-0.0244141,-0.884277,0.433594,0
4860,-0.0634766,-0.986328,0.40625,0
4880,-0.0913086,-0.973633,0.358398,0
4900,-0.0693359,-1.04785,0.315918,0
4920,-0.0332031,-1.02246,0.338867,0
4940,-0.130859,-0.899414,0.327637,0
4980,-0.202148,-0.966797,0.301758,0
5000,-0.150879,-0.985352,0.265625,0
5040,-0.335938,-1.03174,0.210449,0
5060,-0.450684,-1.03027,0.195312,0
5080,-0.61084,-1.01465,0.20459,0
5100,-0.750488,-1.05029,0.377441,0
5120,-0.569336,-1.23438,0.241211,0
5140,-0.374512,-1.13281,0.0849609,0
5160,-0.286621,-0.962891,0.103027,0
5180,-0.286621,-0.944336,0.148438,0
5190,-0.410156,-0.756836,0.144043,0
5210,-0.410645,-0.751465,0.175293,0
5230,-0.424316,-0.775879,0.210449,0
5270,-0.42041,-0.881836,0.161621,0
5290,-0.401367,-0.938965,0.182129,0
5320,-0.444336,-1.00781,0.149414,0
5340,-0.438477,-0.97998,0.138184,0
5360,-0.433594,-0.938477,0.137207,0
5380,-0.43457,-0.896484,0.142578,0
5400,-0.424316,-0.875,0.159668,0
5420,-0.404785,-0.900879,0.119141,0
5440,-0.404297,-0.920898,0.0908203,0
5460,-0.40332,-0.942383,0.0644531,0
5480,-0.407715,-0.935547,0.0620117,0
5500,-0.427734,-0.950195,0.0512695,0
5520,-0.446289,-0.957031,0.0361328,0
5540,-0.465332,-0.944824,0.0288086,0
5560,-0.479004,-0.920898,0.0537109,0
5580,-0.485352,-0.894531,0.0419922,0
5600,-0.483887,-0.880859,0.0258789,0
5620,-0.487793,-0.872559,0.0180664,0
5640,-0.472656,-0.885742,0.0195312,0
5660,-0.460938,-0.901367,0.0273438,0
5680,-0.457031,-0.922852,0.0229492,0
5700,-0.449219,-0.927246,0.0239258,0
5720,-0.445312,-0.926758,0.019043,0
5760,-0.456543,-0.916992,0.0356445,0
5800,-0.462402,-0.902832,0.0258789,0
5820,-0.453613,-0.913086,0.00634766,0
5840,-0.44043,-0.90625,0.00878906,0
5860,-0.44873,-0.908691,0.0146484,0
5880,-0.462402,-0.910645,0.0195312,0
5900,-0.458984,-0.909668,0.0307617,0
5920,-0.450684,-0.916504,0.0283203,0
5940,-0.457031,-0.914062,0.027832,0
5960,-0.464844,-0.911621,0.027832,0
5980,-0.473633,-0.907715,0.0234375,0
6000,-0.472656,-0.913086,0.0117188,0
6020,-0.471191,-0.906738,0.0102539,0
6040,-0.481934,-0.915527,0.00439453,0
6060,-0.478027,-0.917969,0.00537109,0
6080,-0.466309,-0.921875,0.0146484,0
6100,-0.461914,-0.910645,0.015625,0
6120,-0.458984,-0.916504,0.00878906,0
6140,-0.45166,-0.915527,0.0161133,0
6160,-0.446289,-0.921387,0.0180664,0
6180,-0.440918,-0.918945,0.0195312,0
6200,-0.432617,-0.913574,-0.000976562,0
6220,-0.419434,-0.907227,0.000976562,0
6230,-0.433105,-0.914062,0.00488281,0
6250,-0.454102,-0.925293,0.0107422,0
6270,-0.466309,-0.925781,0,0
6290,-0.468262,-0.933105,-0.000976562,0
6310,-0.46582,-0.927246,-0.00634766,0
6330,-0.467285,-0.927734,-0.0107422,0
6350,-0.467773,-0.908691,-0.0214844,0
6370,-0.470215,-0.904297,-0.0175781,0
6390,-0.462891,-0.891113,-0.0151367,0
6410,-0.453613,-0.90918,-0.0131836,0
6430,-0.442383,-0.907715,-0.0146484,0
6450,-0.447754,-0.924316,-0.0126953,0
6470,-0.447266,-0.919434,-0.0170898,0
6490,-0.446777,-0.921387,-0.0117188,0
6510,-0.446777,-0.911133,-0.0205078,0
6530,-0.449219,-0.911133,-0.0229492,0
6550,-0.459961,-0.906738,-0.0166016,0
6570,-0.469727,-0.920898,-0.0224609,0
6590,-0.470215,-0.935547,-0.0239258,0
6610,-0.469238,-0.937988,-0.0185547,0
6640,-0.456055,-0.899902,-0.0136719,0
6660,-0.45166,-0.901367,-0.015625,0
6680,-0.448242,-0.904785,-0.0136719,0
6700,-0.449219,-0.916016,-0.00634766,0
6720,-0.451172,-0.928711,0.00341797,0
6740,-0.443359,-0.930664,0,0
6760,-0.438477,-0.916992,-0.00537109,0
6780,-0.446777,-0.905762,-0.0146484,0
6800,-0.462402,-0.893555,-0.0205078,0
6820,-0.477539,-0.911621,-0.027832,0
6840,-0.495117,-0.93457,-0.0405273,0
6860,-0.508789,-0.9375,-0.0527344,0
6880,-0.512695,-0.93457,-0.0610352,0
6900,-0.51123,-0.92041,-0.0576172,0
6920,-0.500977,-0.90625,-0.0522461,0
6940,-0.487305,-0.890137,-0.0341797,0
6960,-0.481934,-0.874512,-0.0263672,0
6980,-0.466797,-0.874023,-0.0234375,0
7000,-0.465332,-0.893555,-0.0341797,0
7020,-0.473145,-0.921875,-0.0512695,0
7040,-0.482422,-0.931152,-0.0541992,0
7060,-0.492676,-0.916504,-0.059082,0
7080,-0.491699,-0.894531,-0.0556641,0
7100,-0.47168,-0.888672,-0.0458984,0
7120,-0.48291,-0.904785,-0.0385742,0
7140,-0.489258,-0.905762,-0.0332031,0
7160,-0.479492,-0.922852,-0.0351562,0
7180,-0.467773,-0.93457,-0.0415039,0
7200,-0.475586,-0.93457,-0.027832,0
7220,-0.495605,-0.912109,-0.0288086,0
7240,-0.499023,-0.882812,-0.0380859,0
7260,-0.492188,-0.875488,-0.0478516,0
7280,-0.482422,-0.883789,-0.0498047,0
7300,-0.481934,-0.904297,-0.0527344,0
7320,-0.486328,-0.92334,-0.059082,0
7340,-0.486816,-0.931641,-0.0615234,0
7360,-0.48877,-0.92627,-0.0634766,0
7380,-0.478516,-0.921387,-0.0625,0
7400,-0.477539,-0.905273,-0.0551758,0
7420,-0.47998,-0.90625,-0.0449219,0
7430,-0.47998,-0.903809,-0.0415039,0
7450,-0.475098,-0.911621,-0.0405273,0
7470,-0.474121,-0.905762,-0.0429688,0
7490,-0.477051,-0.910156,-0.0493164,0
7510,-0.473145,-0.903809,-0.0551758,0
7530,-0.481445,-0.900391,-0.043457,0
7550,-0.489746,-0.896973,-0.03125,0
7570,-0.479004,-0.907227,-0.0400391,0
7590,-0.473633,-0.910156,-0.0566406,0
7610,-0.479492,-0.907227,-0.0424805,0
7630,-0.485352,-0.912109,-0.0463867,0
7650,-0.480957,-0.907715,-0.0478516,0
7670,-0.484375,-0.919922,-0.0522461,0
7690,-0.484863,-0.916992,-0.0541992,0
7710,-0.486816,-0.915527,-0.0551758,0
7730,-0.486328,-0.90625,-0.0615234,0
7750,-0.48877,-0.902832,-0.0532227,0
7770,-0.48291,-0.89209,-0.0581055,0
7790,-0.474609,-0.894043,-0.0561523,0
7810,-0.477539,-0.898926,-0.0522461,0
7830,-0.482422,-0.909668,-0.0454102,0
7850,-0.481445,-0.899414,-0.0458984,0
7870,-0.474609,-0.905762,-0.0449219,0
7890,-0.480469,-0.898438,-0.0512695,0
7910,-0.492676,-0.896484,-0.0664062,0
7930,-0.480469,-0.899414,-0.0683594,0
7950,-0.47998,-0.909668,-0.0722656,0
7970,-0.499023,-0.92334,-0.0683594,0
7990,-0.513672,-0.918457,-0.0698242,0
8010,-0.510742,-0.90332,-0.0693359,0
8030,-0.513672,-0.891602,-0.0683594,0
8050,-0.516113,-0.89209,-0.0698242,0
8070,-0.508789,-0.897949,-0.0698242,0
8090,-0.501953,-0.896484,-0.0722656,0
8110,-0.491211,-0.886719,-0.0830078,0
8140,-0.504883,-0.893555,-0.0737305,0
8160,-0.512695,-0.907227,-0.065918,0
8180,-0.503418,-0.908691,-0.0693359,0
8200,-0.498535,-0.912109,-0.0698242,0
8220,-0.495605,-0.900879,-0.0649414,0
8240,-0.498535,-0.889648,-0.0664062,0
8260,-0.512695,-0.878418,-0.0639648,0
8280,-0.51709,-0.882324,-0.0678711,0
8300,-0.519043,-0.894043,-0.0605469,0
8320,-0.505371,-0.910156,-0.0546875,0
8340,-0.492188,-0.913574,-0.0571289,0
8360,-0.487305,-0.915039,-0.0639648,0
8380,-0.492188,-0.901367,-0.074707,0
8400,-0.5,-0.884766,-0.0654297,0
8420,-0.503906,-0.884766,-0.0600586,0
8440,-0.498047,-0.88916,-0.0581055,0
8460,-0.495605,-0.90918,-0.0610352,0
8480,-0.493164,-0.90918,-0.0664062,0
8500,-0.507812,-0.907715,-0.0722656,0
8520,-0.509766,-0.891113,-0.0698242,0
8540,-0.504883,-0.88623,-0.0654297,0
8560,-0.501953,-0.89209,-0.0673828,0
8580,-0.504395,-0.892578,-0.0649414,0
8600,-0.50293,-0.891113,-0.0634766,0
8620,-0.490234,-0.895508,-0.0610352,0
8640,-0.494629,-0.901855,-0.0585938,0
8660,-0.503418,-0.90918,-0.0522461,0
8680,-0.506836,-0.910645,-0.0571289,0
8700,-0.497559,-0.914551,-0.059082,0
8720,-0.501465,-0.916504,-0.0566406,0
8740,-0.505859,-0.906738,-0.0576172,0
8760,-0.503906,-0.902344,-0.0668945,0
8780,-0.50293,-0.892578,-0.0610352,0
8800,-0.506836,-0.894531,-0.0541992,0
8820,-0.507812,-0.896484,-0.0537109,0
8840,-0.498535,-0.897461,-0.0634766,0
8860,-0.491699,-0.89502,-0.0634766,0
8880,-0.488281,-0.90332,-0.0610352,0
8900,-0.486328,-0.905273,-0.0581055,0
8920,-0.487305,-0.909668,-0.0546875,0
8940,-0.489746,-0.910645,-0.0668945,0
8960,-0.483887,-0.911133,-0.0620117,0
8980,-0.488281,-0.902344,-0.0620117,0
9000,-0.48291,-0.900391,-0.0605469,0
9020,-0.491699,-0.904297,-0.0605469,0
9040,-0.496094,-0.904297,-0.0610352,0
9060,-0.494629,-0.904785,-0.0581055,0
9080,-0.48584,-0.897461,-0.0581055,0
9100,-0.490723,-0.897461,-0.050293,0
9120,-0.48877,-0.894043,-0.0556641,0
9140,-0.484863,-0.901855,-0.0620117,0
9150,-0.481445,-0.903809,-0.0678711,0
9170,-0.483887,-0.907227,-0.0732422,0
9190,-0.48291,-0.908691,-0.0712891,0
9210,-0.484375,-0.908203,-0.0703125,0
9230,-0.489258,-0.912109,-0.0654297,0
9250,-0.48877,-0.91748,-0.0673828,0
9270,-0.488281,-0.916992,-0.0683594,0
9290,-0.493652,-0.91748,-0.059082,0
9310,-0.495605,-0.909668,-0.0522461,0
9330,-0.493652,-0.900391,-0.0541992,0
9350,-0.489746,-0.899414,-0.0522461,0
9370,-0.488281,-0.897461,-0.0561523,0
9390,-0.489746,-0.897461,-0.0605469,0
9410,-0.493652,-0.895508,-0.0483398,0
9430,-0.496582,-0.902832,-0.0527344,0
9450,-0.487793,-0.909668,-0.0424805,0
9470,-0.486328,-0.914062,-0.0473633,0
9490,-0.478027,-0.904297,-0.0541992,0
9510,-0.474121,-0.910156,-0.050293,0
9530,-0.466309,-0.906738,-0.0537109,0
9550,-0.464355,-0.901855,-0.0625,0
9560,-0.469238,-0.908691,-0.065918,0
9580,-0.477051,-0.914551,-0.074707,0
9600,-0.479492,-0.90625,-0.0727539,0
9620,-0.487305,-0.90625,-0.0605469,0
9640,-0.502441,-0.909668,-0.0458984,0
9660,-0.49707,-0.914062,-0.0566406,0
9680,-0.464844,-0.916504,-0.0595703,0
9700,-0.453125,-0.90918,-0.0600586,0
9720,-0.459473,-0.915039,-0.059082,0
9740,-0.469727,-0.921387,-0.0566406,0
9760,-0.478516,-0.930176,-0.0556641,0
9780,-0.480469,-0.933594,-0.0546875,0
9800,-0.469238,-0.936523,-0.0488281,0
9820,-0.469727,-0.913086,-0.0385742,0
9840,-0.472656,-0.896973,-0.0405273,0
9860,-0.472656,-0.880859,-0.0449219,0
9880,-0.473633,-0.896484,-0.0410156,0
9900,-0.467773,-0.90332,-0.0439453,0
9920,-0.465332,-0.918457,-0.0410156,0
9940,-0.473145,-0.919434,-0.0410156,0
9960,-0.477539,-0.920898,-0.043457,0
9980,-0.462402,-0.925293,-0.0483398,0
10000,-0.455566,-0.919434,-0.0498047,0
10020,-0.464355,-0.924316,-0.0522461,0
10040,-0.469238,-0.922852,-0.0371094,0
10060,-0.462891,-0.923828,-0.0375977,0
10080,-0.452637,-0.924805,-0.0390625,0
10100,-0.456055,-0.92041,-0.034668,0
10120,-0.45752,-0.922852,-0.0419922,0
10140,-0.456055,-0.929199,-0.0341797,0
10160,-0.458496,-0.921875,-0.0258789,0
10180,-0.459961,-0.925781,-0.0297852,0
10200,-0.462402,-0.919922,-0.027832,0
10220,-0.458984,-0.912598,-0.0307617,0
10240,-0.452148,-0.903809,-0.0292969,0
10260,-0.46582,-0.906738,-0.0332031,0
10280,-0.467773,-0.896484,-0.0297852,0
10300,-0.459961,-0.899902,-0.0302734,0
10320,-0.461914,-0.899902,-0.0371094,0
10340,-0.479492,-0.907715,-0.0600586,0
10360,-0.471191,-0.905273,-0.0644531,0
10380,-0.453125,-0.922363,-0.0546875,0
10400,-0.476074,-0.937988,-0.0444336,0
10420,-0.493652,-0.953613,-0.0375977,0
10440,-0.472168,-0.958008,-0.0444336,0
10460,-0.462402,-0.935547,-0.0419922,0
10480,-0.476562,-0.916992,-0.0332031,0
10500,-0.487793,-0.89209,-0.0292969,0
10520,-0.479004,-0.898926,-0.0327148,0
10540,-0.467773,-0.895508,-0.0375977,0
10560,-0.465332,-0.904297,-0.0405273,0
10580,-0.46582,-0.899902,-0.0356445,0
10600,-0.472656,-0.904785,-0.0444336,0
10620,-0.479004,-0.908203,-0.0429688,0
10640,-0.473145,-0.92041,-0.0463867,0
10660,-0.473633,-0.91748,-0.0517578,0
10680,-0.476074,-0.913574,-0.0561523,0
10700,-0.483887,-0.904785,-0.0581055,0
10720,-0.48584,-0.901855,-0.0517578,0
10740,-0.484375,-0.900391,-0.0571289,0
10760,-0.47168,-0.905273,-0.0600586,0
10780,-0.47168,-0.914551,-0.0625,0
10800,-0.486816,-0.92334,-0.0639648,0
10820,-0.501465,-0.915039,-0.0571289,0
10840,-0.489746,-0.913574,-0.059082,0
10860,-0.470215,-0.908691,-0.0517578,0
10880,-0.473633,-0.900391,-0.0234375,0
10900,-0.479492,-0.88916,-0.0292969,0
10920,-0.481934,-0.873535,-0.0195312,0
10940,-0.483887,-0.891113,-0.0361328,0
10960,-0.474609,-0.908203,-0.0361328,0
10980,-0.475586,-0.933594,-0.0302734,0
11000,-0.483887,-0.947754,-0.0371094,0
11020,-0.477539,-0.931641,-0.0419922,0
11040,-0.479004,-0.90918,-0.0327148,0
11060,-0.475098,-0.887207,-0.0317383,0
11080,-0.475098,-0.891113,-0.0224609,0
11100,-0.469238,-0.899902,-0.0268555,0
11120,-0.467773,-0.913574,-0.0244141,0
11130,-0.476074,-0.916992,-0.0219727,0
11150,-0.478516,-0.921387,-0.0307617,0
11170,-0.472168,-0.918457,-0.0356445,0
11190,-0.475098,-0.915527,-0.0317383,0
11210,-0.467285,-0.911621,-0.0371094,0
11230,-0.472168,-0.911621,-0.0405273,0
11250,-0.472168,-0.90332,-0.0341797,0
11270,-0.474609,-0.906738,-0.0336914,0
11290,-0.495605,-0.912109,-0.0429688,0
11310,-0.55127,-0.972168,-0.090332,0
11330,-0.51416,-1.10938,-0.0634766,0
11350,-0.52832,-1.13428,-0.0683594,0
11370,-0.570312,-0.901855,-0.03125,0
11390,-0.567871,-0.771973,-0.0961914,0
11410,-0.600586,-0.824219,-0.0410156,0
11430,-0.669434,-0.801758,0.294922,0
11450,-0.738281,-0.743164,0.452148,0
11470,-0.605957,-0.773438,0.457031,0
11490,-0.300293,-0.891602,0.475586,0
11510,-0.0546875,-1.03613,0.418457,0
11530,-0.00195312,-0.995605,0.473633,0
11550,-0.0112305,-0.908691,0.52002,0
11570,0.0517578,-0.867188,0.481445,0
11590,0.172363,-0.812012,0.357422,0
11610,0.230469,-0.79834,0.20459,0
11630,0.245605,-0.794434,0.210938,0
11650,0.196777,-0.797363,0.258789,0
11670,0.149414,-0.822754,0.245117,0
11690,0.148438,-0.827637,0.246094,0
11710,0.174316,-0.831055,0.294434,0
11730,0.193848,-0.802246,0.374512,0
11750,0.211426,-0.775879,0.416504,0
11770,0.248047,-0.752441,0.378418,0
11790,0.279297,-0.756836,0.378418,0
11810,0.275391,-0.773926,0.40918,0
11830,0.258301,-0.81543,0.415039,0
11850,0.247559,-0.835449,0.400391,0
11870,0.246094,-0.856934,0.427246,0
11890,0.284668,-0.866699,0.45459,0
11910,0.333008,-0.860352,0.457031,0
11930,0.352539,-0.870605,0.426758,0
11950,0.355957,-0.875,0.407715,0
11970,0.371094,-0.870605,0.403809,0
11990,0.359375,-0.861328,0.420898,0
12010,0.324707,-0.864746,0.412598,0
12030,0.328613,-0.854492,0.433105,0
12050,0.335449,-0.82666,0.460449,0
12070,0.352539,-0.817383,0.421387,0
12080,0.344238,-0.816895,0.388672,0
12100,0.310059,-0.804688,0.382324,0
12110,0.300293,-0.799316,0.388184,0
12130,0.293945,-0.793457,0.39209,0
12150,0.301758,-0.803711,0.387695,0
12170,0.292969,-0.812012,0.371094,0
12190,0.279297,-0.825684,0.375977,0
12210,0.273926,-0.810059,0.391602,0
12230,0.270996,-0.817383,0.386719,0
12250,0.272949,-0.805664,0.377441,0
12270,0.27002,-0.817383,0.367188,0
12290,0.285645,-0.816406,0.35791,0
12310,0.294434,-0.821777,0.355957,0
12330,0.295898,-0.832031,0.36084,0
12350,0.29834,-0.839355,0.35498,0
12370,0.306152,-0.841309,0.328125,0
12390,0.310547,-0.834473,0.334961,0
12410,0.310547,-0.83252,0.357422,0
12430,0.313477,-0.82959,0.348145,0
12450,0.320312,-0.835938,0.339355,0
12470,0.315918,-0.834961,0.34082,0
12490,0.322266,-0.828125,0.352539,0
12510,0.320312,-0.818359,0.361816,0
12530,0.32373,-0.818848,0.364258,0
12550,0.321777,-0.821777,0.362793,0
12570,0.324707,-0.83252,0.358398,0
12590,0.329102,-0.827637,0.355469,0
12610,0.315918,-0.822754,0.362305,0
12630,0.29834,-0.824219,0.367188,0
12650,0.296875,-0.829102,0.37793,0
12670,0.306641,-0.837891,0.374023,0
12690,0.308105,-0.833496,0.357422,0
12710,0.311523,-0.82959,0.359375,0
12730,0.306152,-0.825684,0.357422,0
12750,0.297852,-0.830078,0.360352,0
12770,0.305176,-0.836914,0.355469,0
12790,0.307129,-0.839844,0.365723,0
12810,0.312012,-0.835938,0.361328,0
12830,0.311523,-0.828125,0.363281,0
12850,0.32666,-0.827148,0.363281,0
12870,0.320801,-0.828125,0.371582,0
12890,0.323242,-0.833496,0.382812,0
12910,0.318848,-0.841309,0.382324,0
12930,0.321777,-0.827637,0.375488,0
12950,0.319824,-0.822754,0.375488,0
12970,0.339355,-0.833496,0.371094,0
12990,0.336914,-0.839355,0.376953,0
13010,0.337402,-0.845703,0.394531,0
13030,0.354492,-0.855957,0.382812,0
13050,0.35791,-0.851074,0.346191,0
13070,0.293457,-0.841309,0.365723,0
13080,0.365723,-0.844727,0.405762,0
13090,0.374512,-0.839844,0.349121,0
13110,0.253906,-0.858887,0.354004,0
13130,0.21582,-0.810059,0.381836,0
13150,0.314941,-0.830566,0.325684,0
13170,0.399414,-0.80127,0.320801,0
13190,0.404297,-0.812988,0.315918,0
13210,0.437988,-0.815918,0.269531,0
13220,0.467285,-0.816406,0.298828,0
13240,0.483887,-0.850586,0.323242,0
13260,0.453613,-0.837402,0.303711,0
13280,0.378418,-0.812988,0.312012,0
13300,0.297852,-0.808105,0.318848,0
13320,0.256836,-0.744141,0.34375,0
13340,0.250977,-0.75293,0.397461,0
13360,0.307129,-0.822266,0.331543,0
13380,0.375488,-0.876465,0.261719,0
13400,0.312012,-0.885742,0.290527,0
13420,0.239258,-0.912109,0.284668,0
13440,0.214355,-0.895996,0.254395,0
13460,0.148438,-0.900879,0.265625,0
13480,0.104492,-0.92334,0.30957,0
13500,0.210938,-0.897461,0.313477,0
13520,0.278809,-0.906738,0.272949,0
13540,0.288086,-0.896973,0.255371,0
13550,0.278809,-0.873535,0.290527,0
13570,0.316406,-0.854492,0.318359,0
13590,0.345703,-0.864258,0.339844,0
13610,0.345215,-0.858887,0.359863,0
13630,0.335938,-0.840332,0.369629,0
13650,0.369141,-0.853027,0.349609,0
13670,0.412598,-0.836914,0.323242,0
13690,0.408691,-0.776367,0.333008,0
13710,0.383789,-0.78125,0.347168,0
13730,0.406738,-0.816895,0.34082,0
13750,0.418945,-0.825195,0.382324,0
13760,0.39209,-0.849121,0.393555,0
13780,0.403809,-0.820801,0.387207,0
13800,0.397461,-0.804688,0.401367,0
13820,0.390625,-0.819824,0.422852,0
13840,0.418457,-0.808105,0.405273,0
13860,0.444336,-0.789551,0.354004,0
13880,0.402344,-0.758789,0.376953,0
13900,0.374512,-0.744141,0.403809,0
13920,0.396484,-0.735352,0.382812,0
13940,0.36084,-0.70752,0.302734,0
13960,0.31543,-0.681641,0.396973,0
13980,0.385742,-0.702148,0.489258,0
14000,0.496582,-0.657227,0.416504,0
14020,0.471191,-0.609375,0.422852,0
14040,0.453613,-0.621582,0.447754,0
14060,0.476074,-0.688965,0.379395,0
14080,0.48291,-0.693848,0.376465,0
14100,0.476562,-0.691895,0.46582,0
14120,0.486816,-0.666016,0.480957,0
14140,0.505859,-0.661621,0.419434,0
14160,0.498535,-0.666504,0.41748,0
14180,0.468262,-0.671387,0.476074,0
14200,0.470215,-0.699707,0.484863,0
14220,0.469238,-0.707031,0.434082,0
14240,0.470215,-0.709961,0.436523,0
14260,0.459961,-0.691895,0.473633,0
14280,0.452637,-0.718262,0.427246,0
14300,0.469238,-0.73584,0.399414,0
14320,0.47168,-0.71582,0.408203,0
14340,0.491211,-0.700684,0.439941,0
14360,0.538086,-0.685059,0.40625,0
14380,0.470215,-0.682129,0.366699,0
14400,0.435547,-0.711426,0.400879,0
14420,0.416504,-0.648438,0.449707,0
14430,0.411133,-0.64502,0.457031,0
14450,0.462402,-0.650391,0.415527,0
14470,0.416992,-0.678223,0.398926,0
14490,0.45459,-0.764648,0.364258,0
14510,0.45752,-0.822754,0.399902,0
14530,0.400879,-0.779785,0.438477,0
14550,0.379883,-0.778809,0.350098,0
14570,0.279297,-0.731934,0.318359,0
14590,0.285156,-0.754395,0.347168,0
14610,0.368652,-0.761719,0.397949,0
14630,0.397461,-0.846191,0.354004,0
14650,0.331055,-0.883301,0.375,0
14670,0.321777,-0.892578,0.421875,0
14690,0.336426,-0.831055,0.393066,0
14710,0.325195,-0.814941,0.375488,0
14720,0.294434,-0.830078,0.389648,0
14740,0.258789,-0.822266,0.48584,0
14760,0.24707,-0.801758,0.458008,0
14780,0.290039,-0.785156,0.422363,0
14800,0.304688,-0.802734,0.398438,0
14820,0.312988,-0.826172,0.371094,0
14840,0.341797,-0.842773,0.388672,0
14860,0.287598,-0.815918,0.402344,0
14880,0.254883,-0.807129,0.436035,0
14900,0.166016,-0.783203,0.472168,0
14920,0.189453,-0.746094,0.475098,0
14940,0.291992,-0.785645,0.46875,0
14960,0.29834,-0.795898,0.510742,0
14980,0.233887,-0.822266,0.52832,0
15000,0.208984,-0.840332,0.486816,0
15020,0.211426,-0.859863,0.486816,0
15040,0.197266,-0.833984,0.472656,0
15060,0.130371,-0.827148,0.465332,0
15080,0.121094,-0.830078,0.472656,0
15100,0.106934,-0.880859,0.496582,0
15120,0.106445,-0.882812,0.496582,0
15140,0.142578,-0.843262,0.459961,0
15160,0.136719,-0.786621,0.507812,0
15180,0.110352,-0.717285,0.579102,0
15200,0.146973,-0.727051,0.533691,0
15220,0.131836,-0.763672,0.503906,0
15260,0.090332,-0.803223,0.504883,0
15280,0.0849609,-0.791504,0.504395,0
15300,0.0859375,-0.805664,0.510254,0
15340,0.0888672,-0.847656,0.510254,0
15360,0.105469,-0.836426,0.47168,0
15380,0.102051,-0.810547,0.49707,0
15400,0.0932617,-0.790527,0.536621,0
15420,0.078125,-0.790039,0.499512,0
15440,0.0805664,-0.818359,0.493164,0
15460,0.106445,-0.816406,0.523926,0
15480,0.106445,-0.808594,0.539551,0
15500,0.0957031,-0.802734,0.539551,0
15520,0.0966797,-0.824219,0.520508,0
15540,0.114258,-0.820312,0.524414,0
15560,0.0961914,-0.830078,0.54541,0
15580,0.106934,-0.831543,0.513184,0
15600,0.132324,-0.828613,0.485352,0
15620,0.107422,-0.804199,0.496582,0
15640,0.097168,-0.773438,0.514648,0
15660,0.116699,-0.807617,0.512695,0
15680,0.132812,-0.822266,0.506836,0
15700,0.119141,-0.797852,0.48877,0
15720,0.097168,-0.777344,0.5,0
15740,0.0908203,-0.786133,0.53125,0
15760,0.102539,-0.797363,0.529297,0
15780,0.0991211,-0.774902,0.487305,0
15800,0.0708008,-0.744141,0.528809,0
15820,0.074707,-0.750977,0.55127,0
15840,0.105469,-0.735352,0.506836,0
15860,0.0854492,-0.76709,0.522949,0
15880,0.0737305,-0.757324,0.571289,0
15900,0.0996094,-0.73877,0.561035,0
15920,0.109863,-0.730957,0.548828,0
15940,0.100586,-0.706055,0.550781,0
15960,0.101562,-0.735352,0.550781,0
15980,0.103516,-0.780273,0.543945,0
16000,0.0908203,-0.772949,0.571777,0
16020,0.0766602,-0.785645,0.57666,0
16040,0.0600586,-0.77832,0.583496,0
16060,0.0786133,-0.788086,0.544922,0
16080,0.0634766,-0.790527,0.548828,0
16100,0.0825195,-0.808594,0.546387,0
16120,0.0727539,-0.824707,0.504395,0
16140,0.0366211,-0.838379,0.509277,0
16160,0.0478516,-0.803711,0.497559,0
16180,0.0322266,-0.749023,0.547363,0
16200,0.0380859,-0.808105,0.594727,0
16220,0.0410156,-0.786621,0.59375,0
16240,0.0761719,-0.79248,0.540527,0
16260,0.0473633,-0.753418,0.572266,0
16280,0.000976562,-0.732422,0.60791,0
16300,0.00830078,-0.740234,0.599609,0
16320,0.0419922,-0.760254,0.566406,0
16340,0.0571289,-0.774902,0.583984,0
16360,0.0380859,-0.743652,0.570312,0
16380,0.00146484,-0.746094,0.583496,0
16400,-0.00195312,-0.775879,0.598145,0
16410,0.0200195,-0.758301,0.613281,0
16430,0.00976562,-0.772461,0.605469,0
16450,0.0249023,-0.783203,0.54248,0
16470,0.0244141,-0.769043,0.530762,0
16490,-0.00878906,-0.752441,0.56543,0
16510,0.00146484,-0.751465,0.595703,0
16530,-0.0102539,-0.759766,0.61377,0
16550,0.00683594,-0.760254,0.575684,0
16570,0.0205078,-0.765625,0.570312,0
16590,0.0117188,-0.757812,0.569824,0
16610,-0.00341797,-0.727539,0.602539,0
16630,0.0200195,-0.719727,0.583496,0
16650,0.0273438,-0.720703,0.594238,0
16670,-0.0117188,-0.792969,0.609863,0
16690,-0.0175781,-0.836426,0.583008,0
16710,0.0170898,-0.798828,0.51123,0
16730,0.0512695,-0.775391,0.4375,0
16750,0.00244141,-0.797852,0.508789,0
16770,-0.065918,-0.813965,0.530273,0
16790,-0.0629883,-0.764648,0.451172,0
16810,-0.0224609,-0.724609,0.382812,0
16830,0.00341797,-0.788574,0.418945,0
16850,-0.0766602,-0.821289,0.535645,0
16870,-0.147461,-0.880859,0.530762,0
16890,-0.144531,-0.948242,0.453125,0
16910,-0.144531,-0.922363,0.479492,0
16930,-0.118164,-0.859375,0.499023,0
16950,-0.0751953,-0.883301,0.477051,0
16970,-0.0864258,-0.874512,0.505859,0
17000,-0.078125,-0.910156,0.450684,0
17020,-0.119629,-0.89502,0.445312,0
17040,-0.135254,-0.851562,0.458984,0
17060,-0.116211,-0.800781,0.506836,0
17080,-0.141602,-0.713867,0.505371,0
17100,-0.133301,-0.71875,0.45166,0
17120,-0.0283203,-0.765137,0.408203,0
17140,-0.105957,-0.849609,0.531738,0
17160,-0.13623,-0.782715,0.606445,0
17180,-0.00976562,-0.724609,0.593262,0
17200,-0.0102539,-0.738281,0.522949,0
17220,-0.0766602,-0.825684,0.496582,0
17240,-0.065918,-0.868652,0.527832,0
17260,-0.100586,-0.846191,0.546875,0
17280,-0.00292969,-0.800781,0.46875,0
17300,0.0761719,-0.78418,0.48291,0
17320,0.111816,-0.875,0.530273,0
17340,0.0834961,-0.890625,0.515625,0
17360,0.0429688,-0.883301,0.550293,0
17380,0.0297852,-0.870117,0.557129,0
17400,0.0732422,-0.861328,0.515137,0
17420,0.14502,-0.907227,0.510742,0
17440,0.152344,-0.966797,0.504883,0
17460,0.159668,-0.931152,0.464844,0
17480,0.155273,-0.945312,0.491211,0
17500,0.168457,-0.976074,0.501953,0
17520,0.181152,-0.969727,0.453613,0
17540,0.15625,-0.993652,0.412109,0
17560,0.106445,-1.00537,0.385254,0
17580,0.106934,-1.01416,0.418457,0
17600,0.103027,-0.976074,0.405762,0
17620,0.0966797,-1.02197,0.299805,0
17640,0.0756836,-0.976074,0.310059,0
17660,0.133301,-0.967773,0.245117,0
17680,0.157715,-0.959473,0.1875,0
17700,0.148438,-0.959473,0.176758,0
17720,0.160156,-0.972656,0.23877,0
17740,0.191895,-0.997559,0.284668,0
17760,0.192383,-0.96582,0.228516,0
17780,0.16748,-0.88916,0.196289,0
17800,0.223145,-0.820801,0.135742,0
17820,0.26123,-0.791504,0.123047,0
17840,0.261719,-0.807617,0.129883,0
17860,0.248047,-0.879883,0.128906,0
17880,0.293457,-0.890625,0.129883,0
17900,0.331543,-0.872559,0.104004,0
17920,0.350586,-0.862793,0.0712891,0
17940,0.360352,-0.863281,0.0249023,0
17960,0.322754,-0.859375,0.0419922,0
17980,0.305176,-0.890625,0.0463867,0
18000,0.307617,-0.95752,-0.0161133,0
18020,0.295898,-0.959961,-0.0805664,0
18040,0.276367,-0.943359,-0.0258789,0
18060,0.258301,-0.941406,-0.00146484,0
18080,0.248047,-0.939453,-0.0478516,0
18100,0.228516,-0.95166,-0.0556641,0
18120,0.213379,-0.964844,-0.0317383,0
18140,0.237305,-0.95459,-0.0703125,0
18160,0.27002,-0.966309,-0.0869141,0
18180,0.243164,-0.969238,-0.0991211,0
18200,0.223633,-0.970703,-0.0878906,0
18220,0.263184,-0.938477,-0.114746,0
18240,0.265625,-0.949707,-0.125488,0
18260,0.21582,-0.949707,-0.104004,0
18280,0.178223,-0.925293,-0.125,0
18300,0.205566,-0.928711,-0.15332,0
18320,0.246582,-0.937012,-0.146973,0
18340,0.22998,-0.96582,-0.144531,0
18360,0.206543,-0.987305,-0.175293,0
18380,0.213379,-0.975098,-0.166992,0
18400,0.202148,-0.98291,-0.155762,0
18420,0.174316,-0.960449,-0.202637,0
18440,0.227051,-0.950195,-0.205566,0
18460,0.244629,-0.972656,-0.170898,0
18480,0.21875,-0.97998,-0.195312,0
18500,0.193359,-0.962891,-0.20459,0
18520,0.150391,-1.00732,-0.170898,0
18540,0.148926,-1.00098,-0.150879,0
18560,0.188477,-1.00195,-0.214355,0
18580,0.168945,-1.0083,-0.192871,0
18600,0.136719,-1.01074,-0.176758,0
18620,0.15625,-0.993652,-0.133789,0
18640,0.160156,-1.0083,-0.169922,0
18660,0.139648,-1.00635,-0.204102,0
18680,0.116699,-0.982422,-0.174805,0
18700,0.10791,-0.958496,-0.191895,0
18720,0.141602,-0.974121,-0.199707,0
18740,0.154785,-0.981934,-0.184082,0
18760,0.140137,-0.984863,-0.171875,0
18780,0.145996,-0.984863,-0.180664,0
18800,0.177246,-0.970703,-0.188477,0
18820,0.179688,-0.940918,-0.189453,0
18840,0.144531,-0.959961,-0.203125,0
18860,0.101562,-1.00293,-0.217773,0
18880,0.10791,-0.999023,-0.175293,0
18900,0.120117,-0.986816,-0.187012,0
18920,0.0957031,-0.989746,-0.197266,0
18940,0.0268555,-0.999023,-0.208984,0
18960,-0.015625,-0.993164,-0.198242,0
18980,0.00683594,-1.01221,-0.180664,0
19000,0.0805664,-1.02979,-0.181641,0
19020,0.124512,-1.02783,-0.180176,0
19040,0.164551,-0.999023,-0.140625,0
19060,0.217773,-0.999512,-0.151367,0
19080,0.251465,-0.979492,-0.150391,0
19100,0.21875,-0.961914,-0.172852,0
19120,0.193359,-0.935547,-0.164062,0
19140,0.23291,-0.958496,-0.201172,0
19160,0.29541,-0.98877,-0.177734,0
19180,0.287598,-0.993652,-0.170898,0
19200,0.226562,-0.976074,-0.185547,0
19220,0.251953,-0.961914,-0.165527,0
19240,0.366211,-0.972168,-0.120605,0
19260,0.442383,-0.973145,-0.147461,0
19280,0.430176,-0.921387,-0.158203,0
19300,0.403809,-0.905273,-0.168457,0
19320,0.430664,-0.914551,-0.206543,0
19340,0.411133,-0.943848,-0.233887,0
19360,0.237305,-1.01221,-0.255859,0
19380,0.121094,-1.00684,-0.260254,0
19400,0.0991211,-0.980469,-0.202637,0
19420,0.104492,-0.96875,-0.171875,0
19440,0.105469,-0.929688,-0.178711,0
19460,0.157715,-0.910156,-0.10498,0
19480,0.293945,-0.933105,-0.0639648,0
19500,0.387207,-0.927734,-0.0976562,0
19520,0.395508,-0.902344,-0.130371,0
19540,0.379395,-0.894531,-0.185059,0
19560,0.454102,-0.92334,-0.226074,0
19580,0.493164,-0.962891,-0.163574,0
19600,0.466797,-0.959961,-0.191895,0
19620,0.409668,-0.945312,-0.244141,0
19640,0.370117,-0.963379,-0.23877,0
19660,0.324219,-0.939453,-0.193848,0
19680,0.28125,-0.934082,-0.169922,0
19700,0.239746,-0.971191,-0.16748,0
19720,0.202637,-0.949707,-0.166992,0
19740,0.162598,-0.953613,-0.173828,0
19760,0.149414,-0.949219,-0.180664,0
19780,0.0917969,-0.962891,-0.182129,0
19790,0.03125,-0.987305,-0.184082,0
19810,0.00390625,-1.00391,-0.176758,0
19830,0.00341797,-1.00049,-0.180176,0
19850,0.0209961,-1.00781,-0.162598,0
19870,0.0292969,-0.992188,-0.175781,0
19890,0.0400391,-1.01367,-0.186523,0
19910,0.0732422,-1.03369,-0.160156,0
19930,0.109863,-1.06543,-0.16748,0
19950,0.132812,-1.07812,-0.177734,0
19970,0.171387,-1.05273,-0.182129,0
19990,0.192383,-1.03125,-0.177246,0
20010,0.192383,-1.01611,-0.200684,0
20030,0.181641,-1.0083,-0.185547,0
20050,0.188965,-0.995117,-0.185547,0
20070,0.209473,-1.00293,-0.158691,0
20090,0.21582,-1.00049,-0.165527,0
20110,0.212891,-0.998047,-0.172363,0
20130,0.208008,-0.986328,-0.168945,0
20150,0.208496,-0.979492,-0.179688,0
20170,0.201172,-0.981934,-0.168945,0
20190,0.193359,-0.975586,-0.168945,0
20210,0.181152,-0.974121,-0.175293,0
20230,0.180176,-0.973633,-0.181152,0
20250,0.174316,-0.950684,-0.16748,0
20270,0.171387,-0.958496,-0.164062,0
20290,0.174805,-0.958984,-0.171875,0
20310,0.178711,-0.980469,-0.181641,0
20330,0.163086,-0.984375,-0.177246,0
20350,0.168457,-0.980469,-0.177734,0
20370,0.195801,-0.982422,-0.169922,0
20390,0.195801,-0.974121,-0.174316,0
20410,0.152832,-0.984863,-0.163086,2000
20430,0.121094,-0.998047,-0.180664,0
20450,0.172363,-0.972168,-0.171387,0
20470,0.19043,-0.997559,-0.164062,0
20490,0.181152,-1.00537,-0.180176,0
20510,0.152832,-1.03027,-0.15625,0
20530,0.149414,-1.00195,-0.158691,0
20550,0.189453,-0.984375,-0.14502,0
20570,0.225586,-0.972168,-0.15625,0
20590,0.201172,-0.979492,-0.151367,0
20610,0.188965,-1.00195,-0.156738,0
20630,0.192871,-1.00049,-0.162598,0
20650,0.208984,-0.99707,-0.168457,0
20670,0.182129,-0.99707,-0.170898,0
20690,0.140137,-0.989746,-0.157715,0
20710,0.112793,-1.00146,-0.184082,0
20730,0.097168,-1.00098,-0.182617,0
20750,0.0634766,-1.01367,-0.206055,0
20770,0.0166016,-1.0332,-0.227539,0
20790,-0.0332031,-1.0166,-0.218262,0
20810,-0.0185547,-1.03467,-0.202148,0
20830,0.0371094,-1.0376,-0.163574,0
20850,0.0957031,-1.04248,-0.116699,0
20870,0.166992,-1.03174,-0.117188,0
20890,0.248047,-1.00586,-0.157715,0
20910,0.280762,-0.95752,-0.14502,0
20930,0.27002,-0.933105,-0.136719,0
20950,0.307129,-0.932129,-0.159668,0
20970,0.345215,-0.948242,-0.170898,0
20990,0.327148,-0.942871,-0.165039,0
21010,0.266113,-0.947266,-0.187988,0
21030,0.288574,-0.945312,-0.166992,0
21050,0.339355,-0.95752,-0.16748,0
21070,0.35791,-0.948242,-0.165527,0
21090,0.306641,-0.945801,-0.162109,0
21110,0.240234,-0.937012,-0.172852,0
21130,0.247559,-0.943848,-0.188965,0
21150,0.254883,-0.956055,-0.199707,0
21170,0.225586,-0.967773,-0.186035,0
21190,0.202148,-0.970215,-0.188965,0
21210,0.192383,-0.964355,-0.191895,0
21230,0.182617,-0.969238,-0.190918,0
21250,0.18457,-0.963379,-0.154785,0
21270,0.191895,-0.959961,-0.168457,0
21290,0.210449,-0.950684,-0.201172,0
21310,0.193359,-0.95459,-0.184082,0
21330,0.182617,-0.959473,-0.205566,0
21350,0.220215,-0.977051,-0.20752,0
21370,0.244629,-0.989258,-0.192383,0
21390,0.219238,-0.98291,-0.178223,0
21410,0.22998,-0.987793,-0.160156,0
21430,0.20166,-0.983398,-0.215332,0
21450,0.291504,-0.956543,-0.214844,0
21470,0.277344,-0.945801,-0.187988,0
21490,0.24707,-0.944824,-0.193359,0
21510,0.271973,-0.95752,-0.170898,0
21530,0.318359,-0.955566,-0.154785,0
21550,0.304199,-0.929688,-0.155273,0
21570,0.308594,-0.901855,-0.160645,0
21590,0.339355,-0.940918,-0.157227,0
21610,0.342285,-0.936523,-0.157227,0
21630,0.318848,-0.938477,-0.17041,0
21660,0.337891,-0.958496,-0.191406,0
21680,0.331055,-0.952148,-0.193359,0
21690,0.368652,-0.941406,-0.166504,0
21710,0.412109,-0.93457,-0.18457,0
21730,0.450684,-0.90332,-0.178223,0
21750,0.500488,-0.889648,-0.178223,0
21770,0.521973,-0.894531,-0.182129,0
21790,0.547363,-0.893066,-0.17627,0
21810,0.585938,-0.888184,-0.195312,0
21830,0.605469,-0.875488,-0.194336,0
21850,0.600586,-0.87207,-0.189941,0
21870,0.607422,-0.859863,-0.168945,0
21890,0.611328,-0.84082,-0.175293,0
21910,0.600098,-0.826172,-0.166504,0
21930,0.604004,-0.835449,-0.159668,0
21960,0.541992,-0.837891,-0.162109,0
21970,0.543457,-0.855469,-0.145996,0
21990,0.536133,-0.859375,-0.140137,0
22010,0.51123,-0.852051,-0.130859,0
22030,0.491699,-0.845703,-0.143555,0
22050,0.492188,-0.853516,-0.145996,0
22070,0.483398,-0.881348,-0.140625,0
22090,0.446777,-0.874512,-0.141113,0
22110,0.433594,-0.878906,-0.133789,0
22130,0.444824,-0.875488,-0.15332,0
22150,0.362305,-0.883789,-0.148926,0
22170,0.40625,-0.927734,-0.116211,0
22190,0.434082,-0.919922,-0.124023,0
22210,0.443359,-0.94043,-0.123535,0
22230,0.439453,-0.915527,-0.140137,0
22250,0.418945,-0.902344,-0.138672,0
22270,0.408203,-0.90332,-0.130859,0
22290,0.419922,-0.930664,-0.116699,0
22310,0.449707,-0.936523,-0.122559,0
22330,0.452637,-0.947266,-0.119629,0
22350,0.435547,-0.926758,-0.109375,0
22370,0.426758,-0.916504,-0.0981445,0
22390,0.438477,-0.928711,-0.116699,0
22410,0.438477,-0.922852,-0.112305,0
22430,0.429199,-0.92334,-0.0839844,0
22450,0.404785,-0.925781,-0.0947266,0
22470,0.384766,-0.936523,-0.0874023,0
22490,0.371582,-0.951172,-0.090332,0
22510,0.36377,-0.949219,-0.0776367,0
22530,0.364258,-0.939453,-0.0834961,0
22550,0.369141,-0.935547,-0.0429688,0
22570,0.364258,-0.928223,-0.0610352,0
22590,0.319824,-0.931641,-0.0751953,0
22610,0.292969,-0.941895,-0.0708008,0
22630,0.296875,-0.963867,-0.0664062,0
22650,0.310547,-0.967285,-0.090332,0
22670,0.273926,-0.949707,-0.104004,0
22690,0.229004,-0.939941,-0.125977,0
22710,0.240234,-0.957031,-0.124023,0
22730,0.253418,-0.965332,-0.14209,0
22750,0.21582,-0.952637,-0.164551,0
22770,0.188477,-0.94043,-0.178711,0
22790,0.17334,-0.933594,-0.205078,0
22810,0.151367,-0.937988,-0.208496,0
22830,0.149414,-0.944824,-0.228516,0
22850,0.171875,-0.926758,-0.242188,0
22870,0.202637,-0.919922,-0.258789,0
22890,0.229004,-0.945801,-0.23584,0
22910,0.26416,-0.957031,-0.236328,0
22930,0.295898,-0.963867,-0.263184,0
22950,0.308594,-0.955566,-0.268066,0
22970,0.28125,-0.953125,-0.252441,0
22990,0.291504,-0.94873,-0.277832,0
23010,0.344727,-0.956543,-0.287598,0
23030,0.336914,-0.937988,-0.290527,0
23050,0.311035,-0.942383,-0.29834,0
23070,0.32666,-0.916992,-0.27002,0
23090,0.348633,-0.906738,-0.251953,0
23110,0.32373,-0.90918,-0.271973,0
23130,0.294434,-0.907715,-0.284668,0
23150,0.324707,-0.913574,-0.283691,0
23170,0.396973,-0.914551,-0.250488,0
23190,0.417969,-0.888184,-0.256836,0
23210,0.394531,-0.885254,-0.26123,0
23230,0.335938,-0.904297,-0.265137,0
23250,0.336426,-0.864746,-0.258301,0
23270,0.427734,-0.873535,-0.268555,0
23290,0.432129,-0.887695,-0.28125,0
23310,0.345703,-0.885254,-0.258301,0
23330,0.334961,-0.853027,-0.251465,0
23350,0.388672,-0.864746,-0.298828,0
23370,0.376465,-0.875,-0.318848,0
23390,0.297363,-0.893066,-0.297363,0
23410,0.323242,-0.882812,-0.281738,0
23430,0.399414,-0.898438,-0.305664,0
23450,0.38916,-0.914062,-0.320312,0
23470,0.351074,-0.924805,-0.285645,0
23490,0.39209,-0.887695,-0.268066,0
23510,0.450684,-0.866699,-0.270996,0
23530,0.460938,-0.87793,-0.299805,0
23550,0.45752,-0.865723,-0.28125,0
23570,0.543945,-0.856934,-0.260742,0
23590,0.574219,-0.833496,-0.23584,0
23610,0.556152,-0.814453,-0.244141,0
23630,0.575195,-0.806152,-0.259277,0
23650,0.621582,-0.816406,-0.249512,0
23670,0.665039,-0.803223,-0.227539,0
23690,0.647949,-0.779785,-0.225586,0
23710,0.630371,-0.757324,-0.226074,0
23730,0.663086,-0.750488,-0.217773,0
23750,0.694336,-0.74707,-0.22168,0
23770,0.694824,-0.730469,-0.229004,0
23790,0.684082,-0.725586,-0.25,0
23810,0.691895,-0.714844,-0.251953,0
23830,0.702637,-0.724609,-0.229492,0
23850,0.665039,-0.729492,-0.23877,0
23870,0.648926,-0.714844,-0.239258,0
23890,0.671875,-0.702148,-0.219238,0
23910,0.678223,-0.696777,-0.19873,0
23930,0.651367,-0.697754,-0.217773,0
23950,0.641602,-0.708496,-0.220703,0
23970,0.659668,-0.708984,-0.210938,0
23990,0.665527,-0.709961,-0.210938,0
24010,0.643555,-0.713379,-0.206543,0
24030,0.667969,-0.708496,-0.185059,0
24050,0.68457,-0.711914,-0.18457,0
24070,0.680664,-0.703613,-0.198242,0
24090,0.69043,-0.710449,-0.203125,0
24110,0.694824,-0.713379,-0.194336,0
24130,0.669434,-0.713867,-0.174805,0
24150,0.670898,-0.714844,-0.188477,0
24170,0.677734,-0.716797,-0.17041,0
24190,0.692383,-0.719727,-0.15918,0
24210,0.689941,-0.727539,-0.167969,0
24230,0.682129,-0.73584,-0.149414,0
24250,0.674805,-0.731934,-0.125977,0
24270,0.700195,-0.737305,-0.135742,0
24290,0.700195,-0.760742,-0.14502,0
24310,0.663086,-0.752441,-0.129883,0
24330,0.637207,-0.774902,-0.128906,0
24350,0.674805,-0.780273,-0.111328,0
24370,0.688965,-0.782715,-0.121582,0
24390,0.657227,-0.776367,-0.104492,0
24410,0.648926,-0.775879,-0.10498,0
24430,0.680176,-0.785645,-0.0932617,0
24450,0.680664,-0.791504,-0.0698242,0
24470,0.655762,-0.786133,-0.0429688,0
24490,0.644531,-0.791992,-0.0449219,0
24510,0.645996,-0.79541,-0.0483398,0
24530,0.615723,-0.785156,-0.0410156,0
24550,0.600098,-0.788574,-0.0239258,0
24570,0.597656,-0.799805,-0.0356445,0
24590,0.586426,-0.803711,-0.0341797,0
24610,0.561523,-0.810547,-0.0493164,0
24630,0.53418,-0.80957,-0.0302734,0
24650,0.529297,-0.80957,-0.0532227,0
24670,0.549316,-0.837402,-0.0698242,0
24690,0.53125,-0.849609,-0.0722656,0
24710,0.505859,-0.853516,-0.0581055,0
24730,0.504395,-0.872559,-0.0698242,0
24750,0.482422,-0.867676,-0.078125,0
24770,0.481934,-0.865723,-0.0786133,0
24790,0.485352,-0.871094,-0.0708008,0
24810,0.474121,-0.878418,-0.0634766,0
24830,0.475098,-0.87793,-0.0688477,0
24850,0.474609,-0.877441,-0.0708008,0
24870,0.480469,-0.866699,-0.0678711,0
24890,0.479492,-0.885254,-0.0883789,0
24910,0.459473,-0.884766,-0.0893555,0
24930,0.458496,-0.894531,-0.0854492,0
24950,0.452637,-0.888184,-0.0795898,0
24970,0.42334,-0.879883,-0.0922852,0
24990,0.433594,-0.89502,-0.0893555,0
25010,0.44873,-0.887695,-0.0854492,0
25030,0.437012,-0.883301,-0.0942383,0
25050,0.432129,-0.885742,-0.0917969,0
25070,0.419922,-0.883789,-0.104492,0
25080,0.428223,-0.882812,-0.10498,0
25100,0.418945,-0.881836,-0.114258,0
25120,0.414551,-0.876953,-0.125,0
25140,0.416016,-0.875488,-0.12207,0
25160,0.41748,-0.880859,-0.135254,0
25180,0.413574,-0.887695,-0.133301,0
25200,0.408691,-0.879395,-0.133301,0
25220,0.395508,-0.877441,-0.137207,0
25240,0.419434,-0.878906,-0.157227,0
25260,0.430664,-0.900879,-0.162598,0
25280,0.405762,-0.895996,-0.157227,0
25300,0.383301,-0.893066,-0.169922,0
25320,0.393066,-0.867188,-0.169922,0
25340,0.424805,-0.887207,-0.189453,0
25360,0.39502,-0.890137,-0.190918,0
25380,0.361816,-0.886719,-0.197266,0
25400,0.394043,-0.881348,-0.203613,0
25420,0.422852,-0.88916,-0.220703,0
25440,0.40918,-0.881836,-0.215332,0
25460,0.387695,-0.875,-0.230469,0
25480,0.411621,-0.899902,-0.228516,0
25500,0.424316,-0.89502,-0.23584,0
25520,0.387207,-0.883789,-0.245117,0
25540,0.39502,-0.880859,-0.212891,0
25560,0.405762,-0.879883,-0.242188,0
25580,0.40918,-0.879883,-0.229492,0
25600,0.400391,-0.892578,-0.235352,0
25620,0.401855,-0.876953,-0.238281,0
25640,0.402344,-0.881348,-0.240234,0
25660,0.439941,-0.884277,-0.238281,0
25680,0.46582,-0.893555,-0.263672,0
25700,0.427734,-0.872559,-0.243652,0
25720,0.395508,-0.873535,-0.258789,0
25740,0.427246,-0.879883,-0.284668,0
25760,0.4375,-0.879395,-0.277832,0
25780,0.408691,-0.873535,-0.297363,0
25800,0.424805,-0.884277,-0.26416,0
25820,0.46875,-0.884277,-0.265137,0
25840,0.477051,-0.853516,-0.268555,0
25860,0.444336,-0.868164,-0.265137,0
25880,0.487305,-0.871094,-0.238281,0
25900,0.573242,-0.859863,-0.249512,0
25920,0.53125,-0.827148,-0.228027,0
25940,0.46582,-0.79541,-0.205566,0
25960,0.521484,-0.785645,-0.19873,0
25980,0.557617,-0.794434,-0.213379,0
26000,0.507324,-0.76709,-0.205566,0
26020,0.48584,-0.776855,-0.196289,0
26040,0.507324,-0.776367,-0.263672,0
26060,0.498047,-0.769531,-0.243652,0
26080,0.506348,-0.76709,-0.222168,0
26100,0.535156,-0.776855,-0.230469,0
26120,0.516113,-0.780762,-0.259277,0
26140,0.487793,-0.776855,-0.244141,0
26160,0.575684,-0.790039,-0.240723,0
26180,0.683594,-0.791504,-0.240234,0
26200,0.638672,-0.787598,-0.216309,0
26220,0.599121,-0.757812,-0.213379,0
26240,0.688477,-0.762695,-0.18457,0
26260,0.775879,-0.750488,-0.198242,0
26280,0.745117,-0.734375,-0.176758,0
26300,0.681152,-0.706543,-0.183105,0
26320,0.706543,-0.704102,-0.196777,0
26340,0.799316,-0.708008,-0.140137,0
26360,0.768555,-0.691895,-0.159668,0
26380,0.700195,-0.653809,-0.15918,0
26400,0.705566,-0.640137,-0.153809,0
26420,0.750488,-0.635254,-0.141602,0
26440,0.760254,-0.626953,-0.133301,0
26460,0.750488,-0.611328,-0.123047,0
26480,0.742188,-0.603516,-0.13623,0
26500,0.760742,-0.599121,-0.0869141,0
26520,0.782227,-0.581543,-0.0942383,0
26540,0.790039,-0.568359,-0.113281,0
26560,0.80127,-0.553223,-0.120117,0
26580,0.820801,-0.561523,-0.0874023,0
26600,0.81543,-0.542969,-0.0693359,0
26620,0.802734,-0.540039,-0.0727539,0
26640,0.82959,-0.539062,-0.0756836,0
26660,0.842773,-0.537109,-0.0634766,0
26680,0.832031,-0.533691,-0.0449219,0
26700,0.820801,-0.520996,-0.050293,0
26720,0.827637,-0.508789,-0.00830078,0
26740,0.835449,-0.517578,-0.00488281,0
26760,0.829102,-0.508301,-0.0195312,0
26780,0.813965,-0.501465,0.0078125,0
26800,0.851562,-0.498535,0.019043,0
26820,0.867676,-0.515137,0.0180664,0
26840,0.860352,-0.524414,0.0273438,0
26860,0.836426,-0.527344,0.0180664,0
26880,0.812988,-0.537109,0.0405273,0
26900,0.824219,-0.530762,0.0703125,0
26920,0.843262,-0.553711,0.0507812,0
26940,0.831543,-0.568359,0.0610352,0
26960,0.80127,-0.579102,0.0722656,0
26980,0.804199,-0.573242,0.0874023,0
27000,0.822754,-0.575684,0.0883789,0
27020,0.834961,-0.599609,0.0898438,0
27040,0.814453,-0.625977,0.102539,0
27050,0.784668,-0.612305,0.111816,0
27070,0.783203,-0.626465,0.120605,0
27090,0.79834,-0.637695,0.137207,0
27110,0.775391,-0.63916,0.132812,0
27130,0.768066,-0.639648,0.131348,0
27150,0.778809,-0.653809,0.144043,0
27170,0.756836,-0.655273,0.135254,0
27190,0.742676,-0.652832,0.135254,0
27210,0.748047,-0.667969,0.125977,0
27230,0.716797,-0.673828,0.117188,0
27250,0.694824,-0.649902,0.134766,0
27270,0.726562,-0.651855,0.11084,0
27290,0.722168,-0.674316,0.103027,0
27310,0.67627,-0.693359,0.106445,0
27330,0.663086,-0.696289,0.109375,0
27350,0.678711,-0.696289,0.101074,0
27370,0.651367,-0.689453,0.0961914,0
27390,0.633301,-0.685059,0.0947266,0
27410,0.635742,-0.695801,0.0810547,0
27430,0.612793,-0.714844,0.0839844,0
27450,0.587891,-0.723633,0.0966797,0
27470,0.570801,-0.729004,0.074707,0
27490,0.571289,-0.743164,0.0429688,0
27510,0.592773,-0.740234,0.0649414,0
27530,0.609863,-0.743652,0.0756836,0
27550,0.567871,-0.765625,0.0712891,0
27570,0.591309,-0.774902,0.0576172,0
27590,0.657715,-0.770996,0.0688477,0
27610,0.647949,-0.759766,0.0581055,0
27630,0.602051,-0.746582,0.0615234,0
27650,0.616699,-0.742676,0.0664062,0
27670,0.628906,-0.74707,0.081543,0
27690,0.577148,-0.75293,0.0625,0
27710,0.5625,-0.76123,0.0478516,0
27730,0.603027,-0.748535,0.0380859,0
27750,0.600098,-0.751465,0.0419922,0
27770,0.569824,-0.756348,0.0366211,0
27790,0.571289,-0.76123,0.0332031,0
27810,0.601074,-0.776855,0.0166016,0
27830,0.600586,-0.779297,0.0126953,0
27850,0.604492,-0.778809,0.0112305,0
27870,0.617676,-0.775879,-0.0078125,0
27890,0.595703,-0.797852,-0.0102539,0
27910,0.572266,-0.789551,-0.0307617,0
27930,0.592285,-0.789062,-0.0380859,0
27950,0.607422,-0.79248,-0.0375977,0
27970,0.594238,-0.803711,-0.0498047,0
27990,0.568848,-0.797363,-0.0566406,0
28010,0.564941,-0.80957,-0.0620117,0
28030,0.584961,-0.80127,-0.0761719,0
28050,0.598145,-0.808105,-0.0869141,0
28070,0.600098,-0.806641,-0.0844727,0
28090,0.602051,-0.808594,-0.0961914,0
28110,0.591309,-0.800293,-0.0888672,0
28130,0.586914,-0.782227,-0.0981445,0
28150,0.617188,-0.795898,-0.113281,0
28170,0.623047,-0.792969,-0.129883,0
28190,0.599121,-0.771973,-0.121094,0
28210,0.605957,-0.758789,-0.132324,0
28230,0.606445,-0.763184,-0.134766,0
28250,0.578613,-0.757324,-0.15625,0
28270,0.566895,-0.756348,-0.172852,0
28290,0.569824,-0.747559,-0.182129,0
28310,0.580566,-0.746582,-0.186035,0
28330,0.57959,-0.751465,-0.212891,0
28350,0.560547,-0.748047,-0.213379,0
28370,0.568848,-0.742676,-0.21582,0
28390,0.597168,-0.741699,-0.223633,0
28410,0.599121,-0.732422,-0.227051,0
28430,0.599121,-0.723145,-0.236816,0
28450,0.611816,-0.741211,-0.239258,0
28470,0.626465,-0.742188,-0.241699,0
28490,0.63623,-0.73291,-0.237793,0
28510,0.651367,-0.711426,-0.234375,0
28530,0.650391,-0.710938,-0.229492,0
28550,0.685059,-0.709473,-0.240234,0
28570,0.703613,-0.696777,-0.238281,0
28590,0.666992,-0.681152,-0.215332,0
28610,0.65918,-0.66748,-0.221191,0
28630,0.692383,-0.671875,-0.245117,0
28650,0.705566,-0.671387,-0.235352,0
28670,0.701172,-0.664062,-0.237793,0
28690,0.689941,-0.65918,-0.239746,0
28710,0.707031,-0.646973,-0.255371,0
28730,0.727051,-0.654297,-0.248047,0
28750,0.730957,-0.640137,-0.247559,0
28770,0.73584,-0.627441,-0.245605,0
28790,0.74707,-0.611816,-0.230957,0
28810,0.758301,-0.609375,-0.248047,0
28830,0.758789,-0.608398,-0.229004,0
28850,0.778809,-0.588867,-0.213379,0
28870,0.800781,-0.580078,-0.208496,0
28890,0.801758,-0.575684,-0.226562,0
28910,0.803711,-0.568848,-0.234863,0
28930,0.827148,-0.559082,-0.206543,0
28950,0.843262,-0.545898,-0.197754,0
28970,0.839844,-0.539551,-0.214844,0
28990,0.82959,-0.535156,-0.228027,0
29010,0.826172,-0.524414,-0.226562,0
29030,0.829102,-0.526855,-0.230957,0
29050,0.841309,-0.529785,-0.229004,2001
29070,0.833496,-0.52002,-0.224121,0
29090,0.824707,-0.515625,-0.214355,0
29100,0.811523,-0.500977,-0.209473,0
29120,0.833008,-0.502441,-0.205566,0
29140,0.821289,-0.508789,-0.231934,0
29160,0.782227,-0.496094,-0.211426,0
29180,0.799805,-0.493164,-0.206055,0
29200,0.829102,-0.5,-0.213867,0
29220,0.812988,-0.509766,-0.219727,0
29240,0.810059,-0.503906,-0.206055,0
29260,0.805176,-0.509277,-0.18457,0
29280,0.791504,-0.51123,-0.185059,0
29300,0.770996,-0.510254,-0.182617,0
29320,0.756348,-0.522461,-0.17334,0
29340,0.73877,-0.523926,-0.17041,0
29360,0.749512,-0.492188,-0.172852,0
29380,0.751953,-0.496094,-0.195801,0
29400,0.728027,-0.516113,-0.206543,0
29420,0.732422,-0.534668,-0.23877,0
29440,0.740723,-0.541016,-0.187988,0
29460,0.73584,-0.556641,-0.188965,0
29480,0.717773,-0.561523,-0.165039,0
29500,0.70459,-0.549316,-0.161621,0
29520,0.701172,-0.540527,-0.15918,0
29540,0.686523,-0.538086,-0.154297,0
29560,0.65918,-0.55957,-0.140137,0
29580,0.629395,-0.572754,-0.150391,0
29600,0.652344,-0.602539,-0.149902,0
29620,0.708008,-0.591797,-0.128906,0
29640,0.753418,-0.596191,-0.136719,0
29660,0.735352,-0.59668,-0.169922,0
29680,0.685059,-0.606934,-0.130859,0
29700,0.661133,-0.626953,-0.171875,0
29720,0.683105,-0.67627,-0.194824,0
29740,0.71582,-0.719727,-0.216309,0
29760,0.724609,-0.783691,-0.184082,0
29780,0.695801,-0.835938,-0.178711,0
29800,0.630859,-0.859375,-0.203613,0
29820,0.558105,-0.858887,-0.208984,0
29840,0.566895,-0.917969,-0.26709,0
29860,0.625488,-0.977051,-0.176758,0
29880,0.579102,-1.01025,-0.171875,0
29900,0.475098,-1.00781,-0.191895,0
29920,0.43457,-1.02197,-0.188477,0
29940,0.428223,-1.04541,-0.15918,0
29960,0.449707,-1.05078,-0.144043,0
29980,0.425781,-1.04395,-0.175781,0
30000,0.359863,-1.02979,-0.198242,0
30020,0.312012,-1.02148,-0.17041,0
30040,0.312988,-1.03076,-0.157227,0
30060,0.339844,-1.03027,-0.147461,0
30080,0.335938,-1.01416,-0.138672,0
30100,0.319336,-0.977539,-0.15918,0
30120,0.308105,-0.968262,-0.170898,0
30140,0.316895,-0.953125,-0.149414,0
30160,0.314941,-0.939453,-0.135742,0
30180,0.317871,-0.9375,-0.15918,0
30200,0.311035,-0.930664,-0.161621,0
30220,0.301758,-0.914551,-0.154785,0
30240,0.3125,-0.923828,-0.16748,0
30260,0.330078,-0.915527,-0.161133,0
30280,0.320312,-0.928711,-0.168945,0
30300,0.307129,-0.917969,-0.162109,2000
30320,0.314453,-0.921387,-0.158691,0
30340,0.340332,-0.922852,-0.165039,0
30360,0.34375,-0.933105,-0.151855,0
30380,0.310547,-0.954102,-0.175293,0
30400,0.283203,-0.958008,-0.182617,0
30420,0.282227,-0.952148,-0.157227,0
30440,0.294434,-0.9375,-0.153809,0
30450,0.290527,-0.932617,-0.149414,0
30470,0.269043,-0.950684,-0.163086,0
30490,0.241699,-0.967285,-0.165039,0
30510,0.221191,-0.961914,-0.161133,0
30530,0.232422,-0.969238,-0.15918,0
30550,0.232422,-0.973633,-0.160645,0
30570,0.227539,-0.981445,-0.146973,0
30590,0.227051,-0.976562,-0.141113,0
30610,0.243652,-0.984375,-0.146484,0
30630,0.262207,-0.976562,-0.164062,0
30650,0.302246,-0.967285,-0.159668,0
30670,0.305176,-0.969238,-0.15625,0
30690,0.299316,-0.962402,-0.155762,0
30710,0.317871,-0.936523,-0.150391,0
30730,0.308105,-0.937988,-0.163086,0
30750,0.322754,-0.919922,-0.147461,0
30770,0.359375,-0.933105,-0.161621,0
30790,0.35791,-0.935059,-0.152344,0
30810,0.327637,-0.906738,-0.141602,0
30830,0.36084,-0.899414,-0.162598,0
30850,0.416504,-0.900391,-0.17041,0
30870,0.39209,-0.905762,-0.166016,0
30890,0.381836,-0.894043,-0.159668,0
30910,0.379395,-0.902832,-0.181152,0
30930,0.377441,-0.889648,-0.172852,0
30950,0.390137,-0.890137,-0.17334,0
30970,0.411133,-0.896973,-0.181152,0
30990,0.390625,-0.87793,-0.172363,0
31010,0.412109,-0.870605,-0.170898,0
31030,0.456543,-0.873047,-0.191895,0
31050,0.437988,-0.85498,-0.165039,0
31070,0.458984,-0.836914,-0.153809,0
31090,0.471191,-0.853027,-0.19043,0
31100,0.493652,-0.85791,-0.180664,0
31120,0.478027,-0.853516,-0.167969,0
31140,0.507812,-0.846191,-0.17334,0
31160,0.546875,-0.846191,-0.171387,0
31180,0.572266,-0.836914,-0.165039,0
31200,0.541016,-0.833008,-0.180176,0
31220,0.537598,-0.822754,-0.148926,0
31240,0.581055,-0.836914,-0.158691,0
31260,0.592285,-0.821289,-0.15332,0
31280,0.591309,-0.814453,-0.144531,0
31300,0.579102,-0.810059,-0.142578,0
31320,0.60498,-0.800781,-0.130371,0
31340,0.635254,-0.802734,-0.0991211,0
31360,0.623535,-0.797852,-0.113281,0
31380,0.621582,-0.785156,-0.0957031,0
31400,0.637695,-0.78125,-0.0996094,0
31420,0.644531,-0.788574,-0.0834961,0
31440,0.62207,-0.769043,-0.0805664,0
31460,0.60498,-0.777344,-0.0625,0
31480,0.605469,-0.771484,-0.0615234,0
31500,0.614746,-0.77832,-0.0405273,0
31520,0.601562,-0.784668,-0.0371094,0
31540,0.589355,-0.776855,-0.0317383,0
31560,0.624512,-0.773438,-0.0253906,0
31580,0.629883,-0.776855,-0.0180664,0
31600,0.603027,-0.779297,-0.0224609,0
31620,0.611328,-0.787598,-0.019043,0
31640,0.629395,-0.791992,-0.00634766,0
31660,0.658203,-0.797852,0.0126953,0
31680,0.666016,-0.793945,0.0131836,0
31700,0.642578,-0.785645,0.0229492,0
31720,0.669922,-0.794434,0.0239258,0
31740,0.649902,-0.805176,0.0375977,0
31760,0.65332,-0.794434,0.0439453,0
31780,0.666504,-0.782715,0.0356445,0
31800,0.63623,-0.798828,0.0537109,0
31820,0.637695,-0.785156,0.0703125,0
31840,0.616211,-0.791992,0.0751953,0
31860,0.602539,-0.79248,0.078125,0
31880,0.59082,-0.794434,0.0717773,0
31900,0.577148,-0.802246,0.0883789,0
31920,0.562012,-0.799316,0.0795898,0
31940,0.572754,-0.791016,0.0942383,0
31960,0.583496,-0.802734,0.0878906,0
31980,0.570801,-0.804688,0.102051,0
32000,0.562988,-0.794922,0.0922852,0
32020,0.557617,-0.806152,0.0839844,0
32040,0.54541,-0.815918,0.090332,0
32060,0.533203,-0.826172,0.0869141,0
32080,0.538086,-0.818359,0.0776367,0
32100,0.525879,-0.82373,0.0639648,0
32120,0.516113,-0.813477,0.0722656,0
32140,0.522461,-0.835449,0.0537109,0
32160,0.535645,-0.851562,0.0483398,0
32180,0.529785,-0.852051,0.0488281,0
32200,0.527344,-0.862793,0.0454102,0
32220,0.52002,-0.870605,0.0395508,0
32240,0.525879,-0.853027,0.0527344,0
32260,0.526367,-0.841309,0.0454102,0
32280,0.527832,-0.845703,0.0375977,0
32300,0.518555,-0.84375,0.03125,0
32320,0.519043,-0.850586,0.0400391,0
32340,0.51123,-0.840332,0.0454102,0
32360,0.495605,-0.835449,0.0522461,0
32380,0.505371,-0.835449,0.0283203,0
32390,0.511719,-0.838867,0.0302734,0
32410,0.502441,-0.82959,0.0400391,0
32430,0.492676,-0.826172,0.0258789,0
32450,0.492188,-0.824707,0.0302734,0
32470,0.479004,-0.836914,0.0229492,0
32490,0.492676,-0.83252,0.0170898,0
32510,0.481934,-0.851074,0.00585938,0
32530,0.478516,-0.837891,0.0209961,0
32550,0.46875,-0.858398,0.0117188,0
32570,0.46582,-0.853516,0.00683594,0
32590,0.483887,-0.865723,0.00390625,0
32610,0.458496,-0.875488,0.0102539,0
32630,0.429688,-0.878906,0.00537109,0
32650,0.45752,-0.876953,-0.015625,0
32670,0.474609,-0.884766,-0.0166016,0
32690,0.443848,-0.874512,-0.0107422,0
32710,0.412598,-0.869629,-0.00537109,0
32730,0.429199,-0.890625,-0.0380859,0
32750,0.459473,-0.891602,-0.0395508,0
32770,0.449219,-0.881348,-0.0307617,0
32790,0.429199,-0.890625,-0.0571289,0
32810,0.431641,-0.885742,-0.0620117,0
32830,0.44873,-0.887207,-0.0708008,0
32850,0.451172,-0.904785,-0.0673828,0
32870,0.44873,-0.890137,-0.0693359,0
32890,0.432129,-0.893066,-0.0703125,0
32910,0.427734,-0.885742,-0.0654297,0
32930,0.424805,-0.905273,-0.0766602,0
32950,0.438477,-0.907715,-0.0761719,0
32970,0.427246,-0.914551,-0.0908203,0
32990,0.39502,-0.904785,-0.0976562,0
33010,0.400879,-0.905273,-0.0795898,0
33030,0.399414,-0.915527,-0.105469,0
33050,0.407715,-0.902344,-0.0961914,0
33070,0.418945,-0.900391,-0.100098,0
33090,0.42041,-0.886719,-0.0966797,0
33110,0.419434,-0.903809,-0.107422,0
33130,0.400391,-0.898926,-0.128906,0
33150,0.39209,-0.905762,-0.118652,0
33170,0.413574,-0.888184,-0.132812,0
33190,0.418945,-0.900391,-0.141602,0
33210,0.400879,-0.881348,-0.166504,0
33230,0.420898,-0.885742,-0.155762,0
33250,0.441406,-0.875488,-0.151855,0
33270,0.436523,-0.883301,-0.177734,0
33290,0.416992,-0.883301,-0.17627,0
33310,0.415527,-0.875977,-0.19873,0
33330,0.422363,-0.874023,-0.210938,0
33350,0.401855,-0.859375,-0.225586,0
33370,0.366699,-0.849121,-0.227539,0
33390,0.345215,-0.843262,-0.24707,0
33410,0.370605,-0.869141,-0.264648,0
33430,0.431152,-0.872559,-0.242188,0
33450,0.443359,-0.876465,-0.25,0
33470,0.415039,-0.871582,-0.236328,0
33490,0.422852,-0.861328,-0.22998,0
33510,0.477539,-0.884277,-0.251953,0
33530,0.481445,-0.892578,-0.255859,0
33550,0.458984,-0.877441,-0.245605,0
33570,0.462891,-0.866699,-0.236328,0
33590,0.480957,-0.86084,-0.254883,0
33610,0.493652,-0.874512,-0.274414,0
33630,0.459961,-0.864746,-0.260254,0
33650,0.468262,-0.846191,-0.24707,0
33670,0.48584,-0.84668,-0.276367,0
33690,0.460938,-0.845703,-0.260742,0
33710,0.417969,-0.847168,-0.268555,0
33730,0.459961,-0.825684,-0.262207,0
33750,0.522949,-0.837402,-0.273926,0
33770,0.481934,-0.832031,-0.273926,0
33790,0.420898,-0.830566,-0.277344,0
33810,0.471191,-0.820312,-0.269043,0
33830,0.551758,-0.825684,-0.292969,0
33850,0.551758,-0.811523,-0.283691,0
33870,0.52002,-0.791992,-0.271973,0
33890,0.554688,-0.760742,-0.256836,0
33910,0.629395,-0.77002,-0.283203,0
33930,0.654297,-0.772461,-0.273926,0
33950,0.630859,-0.743652,-0.264648,0
33970,0.648926,-0.725586,-0.269531,0
33990,0.687988,-0.729004,-0.237305,0
34010,0.710449,-0.721191,-0.258301,0
34030,0.689941,-0.684082,-0.275879,0
34050,0.710938,-0.679199,-0.277344,0
34070,0.738281,-0.686035,-0.263184,0
34090,0.724121,-0.676758,-0.254395,0
34110,0.705566,-0.645508,-0.254395,0
34130,0.708984,-0.627441,-0.242188,0
34150,0.736816,-0.606445,-0.226562,0
34170,0.737793,-0.622559,-0.234863,0
34190,0.713867,-0.609863,-0.230469,0
34210,0.720215,-0.591309,-0.210938,0
34230,0.760742,-0.580078,-0.174805,0
34250,0.756836,-0.566406,-0.17627,0
34270,0.781738,-0.558594,-0.198242,0
34290,0.80957,-0.558594,-0.172852,0
34310,0.813477,-0.561523,-0.116211,0
34330,0.80127,-0.541504,-0.112793,0
34350,0.825684,-0.538086,-0.135742,0
34370,0.816895,-0.513672,-0.125488,0
34390,0.835449,-0.526367,-0.121582,0
34410,0.831055,-0.539062,-0.106934,0
34430,0.804688,-0.549316,-0.0952148,0
34450,0.811035,-0.529785,-0.0825195,0
34470,0.870117,-0.517578,-0.0507812,0
34490,0.855957,-0.509766,-0.059082,0
34510,0.840332,-0.520996,-0.0854492,0
34530,0.853516,-0.512207,-0.0493164,0
34550,0.881348,-0.517578,-0.0175781,0
34570,0.87207,-0.517578,-0.0273438,0
34590,0.875977,-0.52002,-0.0273438,0
34610,0.892578,-0.51123,0.00537109,0
34630,0.884277,-0.529297,0.0078125,0
34650,0.869629,-0.535156,0.0102539,0
34670,0.868652,-0.525879,0.0229492,0
34690,0.868164,-0.526855,0.0375977,0
34710,0.862793,-0.544922,0.0444336,0
34730,0.867676,-0.537598,0.0498047,0
34750,0.862305,-0.54541,0.0634766,0
34770,0.839844,-0.566895,0.0678711,0
34790,0.79834,-0.585938,0.0751953,0
34810,0.79541,-0.572266,0.0869141,0
34830,0.827148,-0.586426,0.0849609,0
34850,0.829102,-0.607422,0.0927734,0
34870,0.803223,-0.612305,0.0957031,0
34890,0.77002,-0.635254,0.0996094,0
34910,0.757812,-0.637207,0.11084,0
34930,0.765137,-0.652344,0.0932617,0
34950,0.77002,-0.70166,0.0605469,0
34970,0.731934,-0.701172,0.114746,0
34990,0.685547,-0.689453,0.116211,0
35010,0.707031,-0.694336,0.109375,0
35030,0.712402,-0.703613,0.106445,0
35050,0.679199,-0.70752,0.0859375,0
35070,0.658691,-0.729004,0.0908203,0
35090,0.64502,-0.739746,0.097168,0
35110,0.606445,-0.749023,0.0874023,0
35130,0.59375,-0.743164,0.0839844,0
35150,0.593262,-0.762695,0.0532227,0
35170,0.597168,-0.765625,0.0507812,0
35190,0.596191,-0.77002,0.065918,0
35210,0.572266,-0.768066,0.0551758,0
35230,0.560547,-0.770508,0.0429688,0
35250,0.562988,-0.759766,0.0327148,0
35270,0.564453,-0.770996,0.0288086,0
35290,0.529785,-0.776855,0.0078125,0
35310,0.54248,-0.797363,-0.00244141,0
35330,0.550781,-0.807129,-0.0126953,0
35350,0.541016,-0.806641,-0.0200195,0
35370,0.530273,-0.8125,-0.0341797,0
35390,0.524902,-0.809082,-0.0527344,0
35410,0.526367,-0.822754,-0.0551758,0
35430,0.520508,-0.814453,-0.0595703,0
35450,0.508789,-0.831543,-0.103516,0
35470,0.464844,-0.823242,-0.105469,0
35490,0.467285,-0.83252,-0.100586,0
35510,0.480469,-0.834473,-0.120605,0
35530,0.484863,-0.837402,-0.127441,0
35550,0.500488,-0.82959,-0.120605,0
35570,0.487305,-0.848145,-0.135254,0
35590,0.474609,-0.84668,-0.164062,0
35610,0.504883,-0.845215,-0.18457,0
35630,0.516113,-0.858887,-0.171387,0
35650,0.476562,-0.848633,-0.19043,0
35670,0.440918,-0.852539,-0.209961,0
35690,0.458008,-0.848145,-0.225098,0
35710,0.503418,-0.848145,-0.226562,0
35730,0.501465,-0.852051,-0.248535,0
35750,0.460938,-0.81543,-0.245605,0
35770,0.476074,-0.819336,-0.238281,0
35780,0.554199,-0.844238,-0.246582,0
35800,0.563477,-0.838379,-0.253418,0
35820,0.502441,-0.822754,-0.244141,0
35840,0.515137,-0.802734,-0.256836,0
35860,0.578125,-0.808594,-0.272461,0
35880,0.577637,-0.809082,-0.285156,0
35900,0.541504,-0.789062,-0.262695,0
35920,0.540039,-0.78125,-0.27002,0
35940,0.599121,-0.78125,-0.287109,0
35960,0.586914,-0.784668,-0.292969,0
35980,0.557129,-0.774414,-0.283691,0
36000,0.601562,-0.770996,-0.307129,0
36020,0.631836,-0.753906,-0.315918,0
36040,0.59375,-0.752441,-0.308594,0
36060,0.59082,-0.739746,-0.298828,0
36080,0.634766,-0.730957,-0.308105,0
36100,0.643066,-0.724609,-0.32959,0
36120,0.595215,-0.711426,-0.327637,0
36140,0.598633,-0.706543,-0.330566,0
36160,0.622559,-0.696289,-0.340332,0
36180,0.595703,-0.677734,-0.344727,0
36200,0.551758,-0.657227,-0.342285,0
36220,0.567871,-0.643555,-0.34082,0
36240,0.633789,-0.640625,-0.359863,0
36260,0.646484,-0.647461,-0.349609,0
36280,0.620605,-0.651367,-0.356934,0
36300,0.645996,-0.652344,-0.341797,0
36320,0.722656,-0.649414,-0.348145,0
36340,0.736328,-0.63623,-0.333008,0
36360,0.72168,-0.611328,-0.3125,0
36380,0.722656,-0.609375,-0.320801,0
36400,0.736328,-0.590332,-0.329102,0
36420,0.775879,-0.585449,-0.299316,0
36440,0.793945,-0.567383,-0.300293,0
36460,0.744629,-0.557617,-0.294922,0
36480,0.75293,-0.544922,-0.295898,0
36500,0.812012,-0.538574,-0.296875,0
36520,0.856445,-0.539062,-0.259766,0
36540,0.834473,-0.512695,-0.250977,0
36560,0.816895,-0.486816,-0.228516,0
36580,0.833008,-0.481934,-0.219238,0
36600,0.837402,-0.461426,-0.209473,0
36620,0.804199,-0.449219,-0.203613,0
36640,0.806641,-0.432617,-0.188965,0
36660,0.854492,-0.416992,-0.18457,0
36680,0.875,-0.408691,-0.176758,0
36700,0.865234,-0.385742,-0.166992,0
36720,0.897461,-0.395508,-0.14209,0
36740,0.921875,-0.400391,-0.125977,0
36760,0.916992,-0.402344,-0.134277,0
36780,0.908203,-0.395508,-0.118164,0
36800,0.936035,-0.391602,-0.09375,0
36820,0.939453,-0.381836,-0.0786133,0
36840,0.919922,-0.368164,-0.0825195,0
36860,0.910645,-0.362305,-0.0649414,0
36880,0.932617,-0.37207,-0.034668,0
36900,0.94873,-0.364258,-0.0170898,0
36920,0.915039,-0.362305,-0.027832,0
36940,0.888672,-0.35498,-0.00878906,0
36960,0.884277,-0.348145,0.0214844,0
36980,0.914551,-0.365234,0.0351562,0
37000,0.922852,-0.364258,0.0102539,0
37020,0.895996,-0.366211,0.0478516,0
37040,0.895508,-0.359375,0.0742188,0
37060,0.93457,-0.37793,0.0952148,0
37080,0.937988,-0.37207,0.0854492,0
37100,0.935547,-0.390625,0.0991211,0
37120,0.951172,-0.412109,0.11084,0
37140,0.907227,-0.431152,0.11084,0
37160,0.888672,-0.411621,0.141602,0
37180,0.905273,-0.421387,0.13916,0
37200,0.907227,-0.446777,0.140137,0
37220,0.867188,-0.458008,0.15918,0
37240,0.852539,-0.460938,0.150879,0
37260,0.859863,-0.458984,0.184082,0
37280,0.867676,-0.47998,0.186523,0
37300,0.868652,-0.503906,0.180664,0
37320,0.842773,-0.521484,0.187988,0
37340,0.832031,-0.517578,0.201172,0
37360,0.815918,-0.521973,0.20459,0
37380,0.789062,-0.537598,0.221191,0
37400,0.772949,-0.540527,0.213379,0
37420,0.782715,-0.543457,0.208984,0
37440,0.771973,-0.536621,0.215332,0
37460,0.755859,-0.556641,0.202637,0
37480,0.740723,-0.580078,0.185547,0
37500,0.729492,-0.591309,0.18457,0
37520,0.741699,-0.61084,0.179688,0
37540,0.744141,-0.620117,0.151367,0
37560,0.713379,-0.612793,0.132324,0
37580,0.699219,-0.614746,0.140137,0
37600,0.708984,-0.641113,0.120117,0
37620,0.70166,-0.669434,0.107422,0
37640,0.678711,-0.665039,0.100586,0
37660,0.675781,-0.668945,0.0859375,0
37680,0.685059,-0.67627,0.0878906,0
37700,0.680664,-0.696777,0.0693359,0
37720,0.67627,-0.713379,0.0449219,0
37740,0.668457,-0.714355,0.0380859,0
37760,0.648926,-0.70752,0.0444336,0
37770,0.666504,-0.734863,0.0205078,0
37790,0.657715,-0.714844,0.0351562,0
37810,0.590332,-0.733887,0.00244141,0
37830,0.613281,-0.745605,-0.00878906,0
37850,0.645996,-0.737793,-0.000488281,0
37870,0.595703,-0.732422,-0.0151367,0
37890,0.557129,-0.739258,-0.0390625,0
37910,0.552734,-0.740723,-0.0458984,0
37930,0.568359,-0.741699,-0.0498047,0
37950,0.587891,-0.770508,-0.0703125,0
37970,0.580078,-0.754883,-0.0869141,0
37990,0.581055,-0.750977,-0.0683594,0
38010,0.663574,-0.766602,-0.0996094,0
38030,0.671387,-0.769043,-0.119141,0
38050,0.583496,-0.750977,-0.132324,0
38070,0.602539,-0.744629,-0.143066,0
38090,0.656738,-0.737305,-0.171387,0
38110,0.618652,-0.750977,-0.199707,0
38130,0.588379,-0.762695,-0.22998,0
38150,0.62207,-0.744629,-0.214355,0
38170,0.644531,-0.726074,-0.216309,0
38190,0.654785,-0.713379,-0.241211,0
38210,0.645996,-0.70459,-0.24707,0
38230,0.617188,-0.679199,-0.239258,0
38250,0.63916,-0.696289,-0.258301,0
38270,0.687012,-0.714844,-0.288086,0
38290,0.686035,-0.728027,-0.304688,0
38310,0.687988,-0.704102,-0.283203,0
38330,0.67334,-0.69043,-0.276367,0
38350,0.688477,-0.669922,-0.26709,0
38370,0.720703,-0.662109,-0.270996,0
38380,0.750977,-0.64209,-0.260254,0
38400,0.699219,-0.643555,-0.304199,0
38420,0.684082,-0.61084,-0.28418,0
38440,0.744629,-0.612305,-0.291016,0
38460,0.760254,-0.606934,-0.326172,0
38480,0.714844,-0.571289,-0.318359,0
38500,0.709473,-0.578613,-0.321777,0
38520,0.758301,-0.57666,-0.316406,0
38540,0.748535,-0.575684,-0.33252,0
38560,0.728516,-0.553711,-0.331543,0
38580,0.714844,-0.541016,-0.317383,0
38600,0.719727,-0.53418,-0.310059,0
38620,0.750488,-0.526367,-0.333496,0
38640,0.76416,-0.519043,-0.332031,0
38660,0.740234,-0.510254,-0.311035,0
38680,0.755371,-0.510742,-0.333496,0
38700,0.805176,-0.518555,-0.351562,0
38720,0.818848,-0.501953,-0.321777,0
38740,0.786133,-0.481934,-0.307129,0
38760,0.780273,-0.47998,-0.339355,0
38780,0.844727,-0.48584,-0.333984,0
38800,0.884766,-0.475586,-0.3125,0
38820,0.830078,-0.454102,-0.301758,0
38840,0.80957,-0.44043,-0.324707,0
38860,0.856934,-0.435547,-0.354492,0
38880,0.882812,-0.443359,-0.342285,0
38900,0.862305,-0.443848,-0.320801,2001
38920,0.82666,-0.414551,-0.299805,0
38940,0.838379,-0.395996,-0.317871,0
38960,0.878418,-0.42041,-0.316895,0
38980,0.894043,-0.422852,-0.297852,0
39000,0.852539,-0.405762,-0.283691,0
39020,0.842773,-0.375977,-0.281738,0
39040,0.850586,-0.381348,-0.28418,0
39060,0.884766,-0.383789,-0.303711,0
39080,0.907715,-0.400391,-0.288574,0
39100,0.878906,-0.384766,-0.251465,0
39120,0.806152,-0.373047,-0.240723,0
39140,0.759766,-0.388184,-0.241699,0
39160,0.72168,-0.425781,-0.282227,0
39180,0.756836,-0.410156,-0.28418,0
39200,0.812012,-0.40625,-0.271484,0
39220,0.783691,-0.414551,-0.286621,0
39240,0.697754,-0.429688,-0.282715,0
39260,0.700195,-0.442383,-0.279785,0
39280,0.765625,-0.458008,-0.257812,0
39300,0.8125,-0.482422,-0.265625,0
39320,0.75,-0.461426,-0.23291,0
39340,0.680176,-0.468262,-0.230957,0
39360,0.663086,-0.483887,-0.286621,0
39380,0.72168,-0.52002,-0.26123,0
39400,0.753906,-0.531738,-0.228027,0
39420,0.709473,-0.538574,-0.226074,0
39440,0.703125,-0.560059,-0.208008,0
39460,0.751953,-0.563477,-0.162109,0
39480,0.750977,-0.584473,-0.164551,0
39500,0.723145,-0.596191,-0.209961,0
39520,0.785645,-0.599609,-0.227051,0
39540,0.874512,-0.653809,-0.148926,0
39560,0.879395,-0.693848,-0.160645,0
39580,0.807617,-0.699707,-0.202637,0
39600,0.720703,-0.698242,-0.213867,0
39620,0.690918,-0.739258,-0.22998,0
39640,0.680176,-0.833496,-0.284668,0
39660,0.669434,-0.861328,-0.236328,0
39680,0.569824,-0.910645,-0.211914,0
39700,0.518066,-0.914551,-0.221191,0
39720,0.50293,-0.927246,-0.280762,0
39740,0.51709,-0.955566,-0.232422,0
39760,0.496094,-0.979492,-0.222168,0
39780,0.463379,-0.986328,-0.20752,0
39800,0.438965,-0.996094,-0.214844,0
39820,0.408203,-1,-0.214844,0
39840,0.380859,-1.00488,-0.246582,0
39860,0.377441,-0.998047,-0.237305,0
39880,0.368164,-0.994629,-0.22168,0
39900,0.330566,-1.00146,-0.250977,0
39920,0.307617,-0.998535,-0.233887,0
39940,0.318359,-0.997559,-0.203125,0
39960,0.338379,-0.977051,-0.19873,0
39980,0.330078,-0.949707,-0.227051,0
40000,0.302734,-0.9375,-0.22998,0
40020,0.287598,-0.943359,-0.19873,0
40040,0.302246,-0.95459,-0.201172,0
40060,0.310547,-0.960449,-0.214355,0
40080,0.270508,-0.941406,-0.225586,0
40100,0.239746,-0.941406,-0.213379,0
40120,0.258301,-0.937988,-0.221191,0
40150,0.227539,-0.96582,-0.217285,0
40170,0.228027,-0.967773,-0.208008,0
40190,0.242676,-0.944336,-0.224609,0
40210,0.230957,-0.951172,-0.21582,2000
40230,0.201172,-0.958984,-0.225098,0
40250,0.234863,-0.961426,-0.236328,0
40270,0.28418,-0.977051,-0.206055,0
40290,0.298828,-0.984375,-0.228516,0
40310,0.248047,-0.997559,-0.240234,0
40330,0.202148,-1.00879,-0.221191,0
40350,0.20752,-0.994141,-0.200195,0
40370,0.271484,-0.962402,-0.193359,0
40390,0.299316,-0.958008,-0.190918,0
40410,0.239746,-0.977539,-0.208496,0
40430,0.214844,-0.949707,-0.200195,0
40450,0.227051,-0.968262,-0.196289,0
40470,0.200195,-0.966797,-0.197754,0
40490,0.15918,-0.975586,-0.185547,0
40510,0.183105,-0.960449,-0.187012,0
40530,0.242188,-0.977539,-0.15918,0
40550,0.266113,-0.962402,-0.170898,0
40570,0.287109,-0.949707,-0.160645,0
40590,0.303711,-0.958496,-0.187988,0
40610,0.305176,-0.955078,-0.195312,0
40630,0.324707,-0.936523,-0.18457,0
40650,0.304688,-0.939453,-0.200684,0
40670,0.305664,-0.931641,-0.188477,0
40680,0.325684,-0.952637,-0.202148,0
40700,0.352051,-0.945801,-0.191406,0
40720,0.375488,-0.932617,-0.195312,0
40740,0.354004,-0.912598,-0.197754,0
40760,0.352539,-0.898438,-0.193359,0
40780,0.339844,-0.913574,-0.193359,0
40800,0.340332,-0.914551,-0.181152,0
40820,0.331055,-0.90332,-0.188477,0
40840,0.295898,-0.890137,-0.19873,0
40860,0.271484,-0.89209,-0.199219,0
40880,0.302246,-0.893066,-0.188965,0
40900,0.329102,-0.900879,-0.190918,0
40920,0.30957,-0.890625,-0.186523,0
40940,0.296875,-0.890137,-0.180664,0
40960,0.315918,-0.893066,-0.161621,0
40980,0.359863,-0.900879,-0.145508,0
41000,0.391602,-0.917969,-0.163086,0
41020,0.380371,-0.91748,-0.185547,0
41040,0.42041,-0.913086,-0.174316,0
41060,0.432617,-0.92334,-0.159668,0
41080,0.463379,-0.919434,-0.170898,0
41100,0.472168,-0.902832,-0.174805,0
41120,0.463867,-0.88916,-0.166504,0
41140,0.477539,-0.882812,-0.138184,0
41150,0.492676,-0.888184,-0.124512,0
41170,0.523926,-0.88623,-0.154785,0
41190,0.515625,-0.854492,-0.134766,0
41210,0.516113,-0.836426,-0.141602,0
41230,0.516602,-0.842773,-0.134277,0
41250,0.527832,-0.837891,-0.125977,0
41270,0.537109,-0.834961,-0.127441,0
41290,0.546875,-0.820312,-0.106934,0
41310,0.580566,-0.808105,-0.0820312,0
41330,0.578125,-0.789551,-0.111816,0
41350,0.57373,-0.789551,-0.118164,0
41370,0.600586,-0.806152,-0.106445,0
41390,0.618164,-0.811523,-0.102051,0
41410,0.637695,-0.784668,-0.0854492,0
41430,0.646973,-0.768066,-0.0776367,0
41450,0.661133,-0.77002,-0.0800781,0
41470,0.691895,-0.768555,-0.0605469,0
41490,0.693359,-0.767578,-0.0585938,0
41510,0.687988,-0.747559,-0.0732422,0
41530,0.708984,-0.741699,-0.0600586,0
41550,0.71875,-0.733887,-0.0566406,0
41570,0.70752,-0.724609,-0.0546875,0
41590,0.716309,-0.723145,-0.0297852,0
41610,0.740723,-0.734863,-0.00244141,0
41630,0.716797,-0.733887,-0.0117188,0
41650,0.722168,-0.727051,-0.0117188,0
41670,0.730469,-0.725098,-0.0180664,0
41690,0.700684,-0.739258,0.0175781,0
41710,0.682129,-0.741211,0.0268555,0
41730,0.689453,-0.734375,0.0185547,0
41750,0.663086,-0.736816,0.0161133,0
41770,0.666992,-0.752441,0.0219727,0
41790,0.668457,-0.769043,0.0473633,0
41810,0.681641,-0.752441,0.0517578,0
41830,0.64502,-0.763184,0.0532227,0
41850,0.618652,-0.76416,0.0727539,0
41870,0.625488,-0.776367,0.0756836,0
41890,0.612305,-0.772949,0.0610352,0
41910,0.581055,-0.793945,0.0615234,0
41930,0.615234,-0.803223,0.0698242,0
41940,0.596191,-0.811523,0.0595703,0
41960,0.561035,-0.837891,0.0664062,0
42000,0.585449,-0.819336,0.0771484,0
42020,0.585449,-0.832031,0.0556641,0
42040,0.539551,-0.847168,0.0405273,0
42060,0.51123,-0.841797,0.0800781,0
42080,0.531738,-0.851074,0.0791016,0
42100,0.549316,-0.881836,0.0654297,0
42120,0.51123,-0.865234,0.0854492,0
42140,0.47998,-0.842285,0.0742188,0
42160,0.489746,-0.868652,0.0561523,0
42180,0.471191,-0.878418,0.0488281,0
42200,0.4375,-0.86084,0.0356445,0
42220,0.432617,-0.878418,0.0253906,0
42240,0.41748,-0.884766,0.0180664,0
42260,0.408203,-0.884766,0.00585938,0
42280,0.439453,-0.872559,-0.00878906,0
42300,0.421875,-0.886719,-0.0136719,0
42320,0.379883,-0.881348,-0.0180664,0
42340,0.391113,-0.893555,-0.0356445,0
42360,0.445801,-0.907715,-0.0527344,0
42380,0.450684,-0.914551,-0.0517578,0
42400,0.404297,-0.905762,-0.0488281,0
42420,0.405762,-0.891602,-0.0478516,0
42440,0.435547,-0.894531,-0.0512695,0
42460,0.439453,-0.885254,-0.0283203,0
42460,0.419922,-0.891602,-0.0610352,0
42480,0.40625,-0.868652,-0.065918,0
42500,0.399902,-0.866211,-0.0649414,0
42520,0.415527,-0.867676,-0.0786133,0
42540,0.42041,-0.884277,-0.0825195,0
42560,0.410645,-0.876953,-0.0800781,0
42580,0.398438,-0.867676,-0.0732422,0
42600,0.405762,-0.867188,-0.0961914,0
42620,0.411621,-0.87207,-0.0878906,0
42640,0.417969,-0.879395,-0.0922852,0
42660,0.408203,-0.884277,-0.0854492,0
42680,0.38916,-0.89502,-0.105469,0
42700,0.383789,-0.886719,-0.113281,0
42720,0.38623,-0.898926,-0.116211,0
42740,0.396973,-0.920898,-0.125,0
42760,0.386719,-0.929199,-0.135254,0
42780,0.385742,-0.918945,-0.124023,0
42800,0.37793,-0.935547,-0.137695,0
42820,0.35498,-0.932617,-0.154785,0
42840,0.335449,-0.930664,-0.166992,0
42860,0.358398,-0.936035,-0.169434,0
42880,0.390137,-0.936035,-0.171875,0
42900,0.391602,-0.903809,-0.175781,0
42920,0.380859,-0.913574,-0.177246,0
42940,0.373535,-0.918457,-0.193848,0
42960,0.374023,-0.932617,-0.20166,0
42980,0.401855,-0.932617,-0.209473,0
43000,0.382324,-0.919434,-0.231445,0
43020,0.337891,-0.910156,-0.234375,0
43040,0.351074,-0.90625,-0.23291,0
43060,0.368164,-0.894043,-0.239746,0
43070,0.336426,-0.874512,-0.249023,0
43090,0.297363,-0.875,-0.25,0
43110,0.309082,-0.873535,-0.271973,0
43130,0.381348,-0.880371,-0.258301,0
43150,0.42334,-0.884766,-0.276855,0
43170,0.373047,-0.870605,-0.280273,0
43190,0.347656,-0.858398,-0.284668,0
43210,0.409668,-0.861328,-0.271973,0
43230,0.475098,-0.871094,-0.267578,0
43250,0.469238,-0.864258,-0.28125,0
43270,0.408203,-0.855957,-0.289551,0
43290,0.411133,-0.843262,-0.288574,0
43310,0.460938,-0.842773,-0.294922,0
43330,0.540039,-0.84082,-0.303223,0
43350,0.529785,-0.832031,-0.305176,0
43370,0.466797,-0.812988,-0.274414,0
43390,0.460449,-0.810059,-0.276367,0
43410,0.529297,-0.79541,-0.258789,0
43430,0.574707,-0.79541,-0.264648,0
43450,0.546875,-0.789062,-0.282715,0
43470,0.501465,-0.778809,-0.276367,0
43490,0.510742,-0.769043,-0.254883,0
43510,0.567871,-0.760742,-0.228027,0
43530,0.601074,-0.734863,-0.237793,0
43550,0.556641,-0.731934,-0.264648,0
43570,0.568359,-0.741211,-0.263672,0
43590,0.614746,-0.725586,-0.26123,0
43610,0.664551,-0.72168,-0.274414,0
43630,0.689941,-0.725098,-0.251953,0
43650,0.694824,-0.689941,-0.20752,0
43670,0.726074,-0.652344,-0.194824,0
43690,0.745117,-0.651855,-0.223145,0
43710,0.762695,-0.662598,-0.236328,0
43730,0.793457,-0.645508,-0.187988,0
43750,0.810059,-0.623535,-0.193359,0
43770,0.828613,-0.623047,-0.20459,0
43790,0.815918,-0.599609,-0.173828,0
43810,0.810059,-0.60791,-0.170898,0
43830,0.838379,-0.584961,-0.168457,0
43850,0.874512,-0.571289,-0.154785,0
43870,0.848145,-0.552246,-0.152832,0
43890,0.790527,-0.533203,-0.133301,0
43910,0.775391,-0.51709,-0.126953,0
43930,0.818359,-0.501953,-0.124023,0
43950,0.848145,-0.510254,-0.119141,0
43970,0.879395,-0.512207,-0.117188,0
43990,0.91748,-0.518066,-0.0966797,0
44010,0.884766,-0.520508,-0.0185547,0
44030,0.859375,-0.52832,-0.0214844,0
44050,0.877441,-0.51123,-0.046875,0
44070,0.890625,-0.504883,-0.0200195,0
44090,0.909668,-0.490234,0.0317383,0
44110,0.875488,-0.521973,0.0488281,0
44130,0.892578,-0.541992,0.0493164,0
44150,0.887695,-0.56543,0.0541992,0
44170,0.870605,-0.561035,0.0571289,0
44190,0.881836,-0.567871,0.0771484,0
44210,0.853516,-0.580566,0.0922852,0
44230,0.836426,-0.59375,0.0742188,0
44250,0.832031,-0.614746,0.059082,0
44270,0.806641,-0.624023,0.0913086,0
44290,0.737305,-0.608398,0.11377,0
44310,0.736816,-0.617676,0.0908203,0
44330,0.772461,-0.633301,0.0625,0
44350,0.76709,-0.629883,0.081543,0
44370,0.741211,-0.631348,0.11084,0
44390,0.760254,-0.67041,0.124512,0
44410,0.765137,-0.686523,0.0849609,0
44430,0.725586,-0.687012,0.0976562,0
44450,0.657227,-0.689941,0.097168,0
44470,0.665527,-0.687988,0.0996094,0
44490,0.699707,-0.713379,0.0913086,0
44510,0.651367,-0.734375,0.0854492,0
44530,0.56543,-0.727539,0.0917969,0
44550,0.565918,-0.748047,0.078125,0
44570,0.592285,-0.747559,0.0532227,0
44590,0.56543,-0.750977,0.0639648,0
44610,0.559082,-0.760742,0.0419922,0
44630,0.542969,-0.78125,0.034668,0
44650,0.504883,-0.778809,0.012207,0
44670,0.507812,-0.789062,0.0161133,0
44690,0.521484,-0.792969,-0.00195312,0
44710,0.531738,-0.806152,-0.0268555,0
44730,0.536133,-0.810547,-0.0351562,0
44750,0.522461,-0.828613,-0.019043,0
44770,0.507324,-0.821289,-0.0292969,0
44790,0.497559,-0.82959,-0.0512695,0
44810,0.525879,-0.829102,-0.0405273,0
44830,0.555664,-0.834473,-0.0375977,0
44850,0.547363,-0.833496,-0.059082,0
44870,0.509766,-0.816406,-0.0625,0
44890,0.492188,-0.821289,-0.0698242,0
44910,0.531738,-0.837402,-0.050293,0
44930,0.526855,-0.831543,-0.0771484,0
44950,0.505371,-0.825195,-0.078125,0
44970,0.527344,-0.84082,-0.0922852,0
44990,0.527344,-0.849609,-0.0966797,0
45010,0.492188,-0.852539,-0.102539,0
45030,0.513184,-0.845215,-0.113281,0
45050,0.506348,-0.859375,-0.11377,0
45070,0.494141,-0.84375,-0.126465,0
45090,0.494141,-0.860352,-0.150879,0
45110,0.483398,-0.855957,-0.146973,0
45130,0.478516,-0.855957,-0.156738,0
45150,0.476562,-0.847168,-0.167969,0
45170,0.475586,-0.851562,-0.190918,0
45190,0.47998,-0.841309,-0.183105,0
45210,0.477051,-0.835449,-0.20459,0
45230,0.458008,-0.835449,-0.211426,0
45250,0.44873,-0.850098,-0.216309,0
45270,0.486328,-0.857422,-0.233887,0
45290,0.496094,-0.838867,-0.275879,0
45310,0.508789,-0.84668,-0.277832,0
45330,0.561035,-0.828613,-0.251953,0
45350,0.575195,-0.82666,-0.285156,0
45370,0.529785,-0.806641,-0.29541,0
45390,0.527832,-0.801758,-0.29248,0
45410,0.589844,-0.805664,-0.30957,0
45430,0.611816,-0.803223,-0.32959,0
45450,0.55957,-0.750977,-0.300293,0
45470,0.520508,-0.729004,-0.304688,0
45490,0.579102,-0.727051,-0.335938,0
45510,0.60498,-0.734375,-0.35791,0
45530,0.532227,-0.712402,-0.342285,0
45550,0.504395,-0.697266,-0.32666,0
45570,0.580078,-0.688477,-0.333984,0
45590,0.597656,-0.68457,-0.344238,0
45610,0.54541,-0.651367,-0.306152,0
45630,0.532715,-0.670898,-0.352051,0
45650,0.599609,-0.674805,-0.361816,0
45670,0.638184,-0.662598,-0.337402,0
45690,0.654297,-0.646484,-0.336914,0
45710,0.676758,-0.63916,-0.335938,0
45730,0.690918,-0.616699,-0.325684,0
45750,0.753906,-0.59082,-0.294922,0
45770,0.800293,-0.580078,-0.272461,0
45790,0.812012,-0.557129,-0.262695,0
45810,0.808105,-0.532227,-0.261719,0
45830,0.786621,-0.499023,-0.239258,0
45850,0.84375,-0.490234,-0.205078,0
45870,0.907715,-0.481934,-0.203125,0
45890,0.875,-0.449707,-0.20166,0
45910,0.846191,-0.430664,-0.179199,0
45930,0.907227,-0.404297,-0.114258,0
45950,0.918945,-0.39209,-0.10498,0
45970,0.914062,-0.377441,-0.135742,0
45990,0.902832,-0.375488,-0.121094,0
46010,0.896973,-0.354492,-0.0800781,0
46030,0.91748,-0.356934,-0.0571289,0
46050,0.930664,-0.340332,-0.0219727,0
46070,0.943848,-0.319336,0.0170898,0
46090,0.928711,-0.313477,0.00683594,0
46110,0.904785,-0.310059,0.0214844,0
46130,0.947754,-0.307617,0.0463867,0
46150,0.99707,-0.303223,0.0776367,0
46170,0.988281,-0.312012,0.0551758,0
46190,0.919922,-0.315918,0.078125,0
46210,0.912109,-0.3125,0.124023,0
46230,0.973145,-0.305664,0.122559,0
46250,1.00781,-0.341309,0.126953,0
46270,0.998047,-0.348145,0.14502,0
46290,0.925293,-0.348633,0.157227,0
46310,0.893555,-0.353027,0.16748,0
46330,0.944336,-0.378418,0.170898,0
46350,0.928223,-0.402344,0.169922,0
46370,0.872559,-0.429688,0.15918,0
46390,0.847656,-0.443359,0.185547,0
46410,0.85498,-0.474609,0.203613,0
46430,0.841309,-0.500977,0.208984,0
46450,0.825195,-0.518066,0.212891,0
46460,0.838379,-0.544434,0.225098,0
46480,0.832031,-0.561035,0.216309,0
46500,0.818848,-0.586914,0.217285,0
46520,0.773438,-0.61084,0.229492,0
46540,0.726074,-0.620117,0.214355,0
46560,0.727051,-0.639648,0.216797,0
46580,0.73291,-0.670898,0.208984,0
46600,0.708008,-0.684082,0.187988,0
46620,0.669922,-0.675293,0.189453,0
46640,0.65625,-0.67334,0.181152,0
46660,0.666016,-0.704102,0.161621,0
46680,0.646973,-0.703125,0.137695,0
46700,0.61377,-0.699219,0.135742,0
46720,0.628906,-0.720215,0.13916,0
46740,0.645508,-0.743652,0.112793,0
46760,0.621582,-0.747559,0.0800781,0
46780,0.596191,-0.73877,0.0610352,0
46800,0.593262,-0.744141,0.0629883,0
46820,0.618652,-0.756836,0.0620117,0
46840,0.616211,-0.753418,0.0478516,0
46860,0.600586,-0.734863,0.019043,0
46880,0.582031,-0.746094,0.00244141,0
46900,0.580566,-0.770996,-0.00732422,0
46920,0.56543,-0.789062,-0.0390625,0
46940,0.578125,-0.776367,-0.0537109,0
46960,0.605957,-0.786133,-0.0551758,0
46980,0.597656,-0.777832,-0.0708008,0
47000,0.569336,-0.761719,-0.0854492,0
47020,0.564453,-0.759277,-0.123535,0
47040,0.583496,-0.776367,-0.15332,0
47060,0.59082,-0.774414,-0.139648,0
47080,0.577148,-0.770996,-0.148926,0
47100,0.550293,-0.764648,-0.194336,0
47120,0.564453,-0.753418,-0.208496,0
47140,0.57959,-0.736328,-0.210938,0
47160,0.568359,-0.744141,-0.212891,0
47180,0.552246,-0.746094,-0.240723,0
47200,0.602051,-0.743652,-0.235352,0
47220,0.638672,-0.745117,-0.236816,0
47240,0.61084,-0.714355,-0.209473,0
47260,0.604004,-0.689941,-0.219238,0
47280,0.651855,-0.710938,-0.250977,0
47300,0.679688,-0.709961,-0.23877,0
47320,0.66748,-0.682617,-0.226562,0
47340,0.646973,-0.680176,-0.251953,0
47360,0.679199,-0.695312,-0.253418,0
47380,0.710938,-0.700195,-0.255371,0
47400,0.694824,-0.663574,-0.238281,0
47420,0.703613,-0.653809,-0.259766,0
47440,0.745605,-0.639648,-0.261719,0
47460,0.765137,-0.642578,-0.260254,0
47480,0.745117,-0.629395,-0.262207,0
47500,0.725586,-0.611816,-0.25293,0
47520,0.729004,-0.589844,-0.253906,0
47540,0.740234,-0.582031,-0.272949,0
47560,0.722656,-0.561523,-0.287109,0
47580,0.717285,-0.553711,-0.287598,0
47600,0.755371,-0.554199,-0.279297,0
47620,0.76123,-0.540527,-0.29248,0
47640,0.750488,-0.537598,-0.299805,0
47660,0.78125,-0.527344,-0.280273,0
47680,0.812988,-0.533691,-0.288574,0
47700,0.8125,-0.511719,-0.27832,0
47720,0.820312,-0.494629,-0.270996,0
47740,0.839355,-0.483887,-0.277832,0
47760,0.833496,-0.482422,-0.279297,0
47780,0.858887,-0.469727,-0.270508,0
47800,0.891113,-0.461426,-0.258789,0
47820,0.871094,-0.446289,-0.250488,0
47840,0.821777,-0.431641,-0.256836,0
47860,0.834961,-0.423828,-0.269531,0
47880,0.878418,-0.425293,-0.259277,0
47900,0.845703,-0.422852,-0.255371,2001
47920,0.812988,-0.40332,-0.260254,0
47940,0.84082,-0.407715,-0.282227,0
47960,0.869629,-0.399902,-0.260742,0
47980,0.834473,-0.416504,-0.259277,0
48000,0.838379,-0.416992,-0.262207,0
48020,0.894043,-0.418457,-0.246582,0
48040,0.898438,-0.412598,-0.233398,0
48060,0.857422,-0.416016,-0.239258,0
48080,0.813965,-0.401367,-0.212402,0
48100,0.778809,-0.422363,-0.201172,0
48120,0.738281,-0.45166,-0.245605,0
48140,0.732422,-0.439453,-0.253906,0
48160,0.806152,-0.448242,-0.258789,0
48180,0.821289,-0.45166,-0.247559,0
48200,0.755371,-0.448242,-0.270508,0
48220,0.704102,-0.469727,-0.281738,0
48240,0.722168,-0.483887,-0.249023,0
48260,0.772461,-0.489258,-0.260254,0
48280,0.791016,-0.498047,-0.268066,0
48300,0.766602,-0.494629,-0.294434,0
48320,0.747559,-0.510742,-0.27832,0
48340,0.739258,-0.533691,-0.262207,0
48360,0.760742,-0.569824,-0.201172,0
48380,0.759766,-0.570312,-0.189453,0
48400,0.712891,-0.533691,-0.204102,0
48420,0.683594,-0.526855,-0.196777,0
48440,0.716309,-0.54248,-0.213379,0
48450,0.729004,-0.592285,-0.138184,0
48470,0.71875,-0.617188,-0.143555,0
48490,0.689941,-0.642578,-0.162109,0
48510,0.668457,-0.662109,-0.149414,0
48530,0.692871,-0.721191,-0.130859,0
48550,0.696289,-0.759277,-0.0947266,0
48570,0.655273,-0.796875,-0.121582,0
48590,0.611328,-0.820312,-0.166992,0
48610,0.598145,-0.837402,-0.177246,0
48630,0.584961,-0.844238,-0.145508,0
48650,0.557617,-0.887695,-0.137207,0
48670,0.543945,-0.922363,-0.159668,0
48690,0.538574,-0.944336,-0.17041,0
48710,0.518066,-0.943848,-0.155273,0
48730,0.48291,-0.959473,-0.194336,0
48750,0.462402,-0.980469,-0.183105,0
48770,0.452148,-0.987305,-0.163086,0
48790,0.421875,-0.982422,-0.14209,0
48810,0.383789,-0.989746,-0.161621,0
48830,0.36377,-0.99707,-0.153809,0
48850,0.335938,-0.99707,-0.140625,0
48870,0.315918,-1.01025,-0.157227,0
48890,0.314941,-1.02588,-0.185547,0
48910,0.320312,-1.03662,-0.15625,0
48930,0.30127,-1.03467,-0.146973,0
48950,0.282227,-1.02588,-0.157227,0
48970,0.26416,-0.993164,-0.180176,0
48990,0.263672,-0.993652,-0.172363,0
49010,0.291992,-1.00293,-0.152832,0
49030,0.294434,-1.0083,-0.136719,0
49050,0.274902,-0.996582,-0.147949,0
49070,0.267578,-0.97998,-0.143066,0
49090,0.281738,-0.974121,-0.132812,0
49110,0.29248,-0.981445,-0.145508,0
49130,0.269531,-0.977051,-0.145996,0
49150,0.262695,-0.962402,-0.144043,0
49170,0.287109,-0.966309,-0.139648,0
49190,0.3125,-0.963379,-0.149414,0
49210,0.287109,-0.965332,-0.163574,0
49230,0.263184,-0.957031,-0.141602,0
49250,0.285645,-0.962402,-0.165527,0
49270,0.304688,-0.968262,-0.167969,0
49290,0.287109,-0.966309,-0.166504,0
49310,0.292969,-0.947266,-0.134277,0
49330,0.322754,-0.962402,-0.160645,0
49350,0.32959,-0.960938,-0.170898,2000
49360,0.318848,-0.937988,-0.160156,0
49390,0.332031,-0.931641,-0.155762,0
49410,0.327148,-0.941895,-0.15625,0
49430,0.325684,-0.962891,-0.15918,0
49450,0.315918,-0.979004,-0.18457,0
49470,0.28418,-0.976074,-0.166504,0
49490,0.249023,-0.966309,-0.136719,0
49510,0.284668,-0.956055,-0.145996,0
49530,0.32959,-0.938965,-0.140625,0
49550,0.326172,-0.924316,-0.149414,0
49570,0.324707,-0.927734,-0.154297,0
49590,0.334961,-0.956543,-0.17041,0
49610,0.306152,-0.955566,-0.160645,0
49630,0.278809,-0.940918,-0.141602,0
49650,0.309082,-0.933105,-0.15332,0
49670,0.294922,-0.943359,-0.147949,0
49690,0.268555,-0.921387,-0.149902,0
49710,0.260254,-0.946777,-0.157227,0
49730,0.265625,-0.952637,-0.156738,0
49750,0.241699,-0.949707,-0.150391,0
49770,0.230469,-0.977051,-0.141113,0
49790,0.240723,-0.969238,-0.15332,0
49810,0.219727,-0.966797,-0.159668,0
49830,0.208496,-0.972168,-0.15625,0
49850,0.21875,-0.979492,-0.150879,0
49870,0.230957,-0.985352,-0.152832,0
49890,0.248535,-0.984863,-0.151367,0
49910,0.288574,-0.974121,-0.141113,0
49930,0.309082,-0.957031,-0.133789,0
49940,0.328125,-0.954102,-0.141113,0
49960,0.342773,-0.967285,-0.157715,0
49980,0.356445,-0.958496,-0.150391,0
50000,0.322754,-0.947754,-0.155762,0
50020,0.259277,-0.933594,-0.157715,0
50040,0.257324,-0.919434,-0.165039,0
50060,0.275879,-0.91748,-0.177246,0
50080,0.267578,-0.913086,-0.172363,0
50100,0.272949,-0.908203,-0.186523,0
50120,0.259766,-0.921387,-0.185059,0
50140,0.276367,-0.909668,-0.160156,0
50160,0.300293,-0.907715,-0.124512,0
50180,0.311523,-0.920898,-0.130859,0
50200,0.289551,-0.935547,-0.161133,0
50220,0.297852,-0.925293,-0.165527,0
50240,0.336914,-0.939453,-0.168945,0
50260,0.344238,-0.95166,-0.175781,0
50280,0.34668,-0.9375,-0.171387,0
50300,0.359863,-0.943359,-0.154785,0
50320,0.358887,-0.912598,-0.143066,0
50340,0.397461,-0.884766,-0.128418,0
50360,0.425293,-0.881348,-0.175781,0
50380,0.442871,-0.888184,-0.148926,0
50400,0.404297,-0.865723,-0.119141,0
50420,0.434082,-0.852051,-0.142578,0
50440,0.445312,-0.860352,-0.175293,0
50460,0.451172,-0.874512,-0.144531,0
50480,0.467285,-0.866211,-0.144043,0
50500,0.484863,-0.862793,-0.151855,0
50520,0.466309,-0.860352,-0.17041,0
50540,0.502441,-0.874023,-0.15625,0
50560,0.51123,-0.878906,-0.130371,0
50580,0.516602,-0.869141,-0.125,0
50600,0.530273,-0.84668,-0.135742,0
50620,0.537109,-0.848633,-0.138672,0
50640,0.592773,-0.852539,-0.109375,0
50650,0.591797,-0.841797,-0.122559,0
50670,0.604492,-0.824707,-0.111328,0
50690,0.607422,-0.799805,-0.115723,0
50710,0.633789,-0.800293,-0.115723,0
50730,0.669434,-0.780273,-0.102051,0
50750,0.681641,-0.779785,-0.121094,0
50770,0.681641,-0.752441,-0.11377,0
50790,0.687988,-0.73877,-0.0942383,0
50810,0.740723,-0.730957,-0.0732422,0
50830,0.744141,-0.713867,-0.0913086,0
50850,0.755371,-0.694824,-0.0786133,0
50870,0.744141,-0.694336,-0.0620117,0
50890,0.727539,-0.702148,-0.027832,0
50910,0.70166,-0.701172,-0.0185547,0
50920,0.706055,-0.712402,0.00537109,0
50940,0.706055,-0.719727,0.0424805,0
50960,0.669922,-0.729004,0.0200195,0
50980,0.672363,-0.741211,0.0380859,0
51000,0.667969,-0.763672,0.0737305,0
51020,0.675293,-0.787109,0.0610352,0
51040,0.663574,-0.775391,0.0717773,0
51060,0.636719,-0.799805,0.0786133,0
51080,0.627441,-0.797852,0.101562,0
51100,0.637695,-0.808105,0.0883789,0
51120,0.633301,-0.817383,0.10498,0
51140,0.594238,-0.810547,0.112305,0
51160,0.577148,-0.819336,0.126465,0
51180,0.584961,-0.818359,0.113281,0
51200,0.583008,-0.8125,0.106934,0
51230,0.530762,-0.817383,0.131836,0
51250,0.562012,-0.820801,0.102051,0
51260,0.533203,-0.823242,0.102539,0
51280,0.503418,-0.820801,0.116211,0
51300,0.520996,-0.814941,0.121582,0
51320,0.532227,-0.839844,0.112305,0
51340,0.518066,-0.837891,0.126953,0
51360,0.495605,-0.834473,0.103027,0
51380,0.506348,-0.848145,0.0913086,0
51400,0.512207,-0.838867,0.0913086,0
51420,0.491699,-0.833008,0.0795898,0
51440,0.483398,-0.837891,0.0869141,0
51460,0.491211,-0.84668,0.081543,0
51480,0.508789,-0.844727,0.0595703,0
51500,0.490723,-0.856445,0.0571289,0
51520,0.483398,-0.85498,0.0493164,0
51540,0.503418,-0.859375,0.0385742,0
51560,0.503906,-0.86084,0.0283203,0
51580,0.491699,-0.867188,0.0341797,0
51600,0.493164,-0.865723,0.0351562,0
51620,0.47998,-0.870117,0.0327148,0
51640,0.477539,-0.869629,0.0205078,0
51660,0.489258,-0.878906,0.019043,0
51680,0.474609,-0.869141,0.0117188,0
51700,0.45166,-0.87793,0.00537109,0
51710,0.444824,-0.876953,0.0078125,0
51730,0.455566,-0.884766,-0.0166016,0
51750,0.451172,-0.875977,-0.0292969,0
51770,0.405762,-0.868164,-0.00927734,0
51790,0.38623,-0.854492,-0.0102539,0
51810,0.412598,-0.862793,-0.0473633,0
51830,0.415039,-0.874512,-0.0493164,0
51850,0.384277,-0.862793,-0.034668,0
51870,0.371094,-0.868164,-0.0610352,0
51890,0.365723,-0.867676,-0.0771484,0
51910,0.358887,-0.890625,-0.0776367,0
51930,0.372559,-0.897461,-0.100586,0
51950,0.392578,-0.895996,-0.0957031,0
51970,0.407227,-0.885254,-0.105469,0
51990,0.394531,-0.90625,-0.120117,0
52010,0.371582,-0.914062,-0.144043,0
52030,0.40332,-0.913574,-0.121582,0
52050,0.429688,-0.902832,-0.130859,0
52070,0.39209,-0.908203,-0.148926,0
52090,0.358887,-0.901367,-0.149414,0
52110,0.387207,-0.897949,-0.155762,0
52130,0.408691,-0.90625,-0.161621,0
52150,0.371094,-0.907715,-0.171875,0
52170,0.333496,-0.895996,-0.158691,0
52190,0.342773,-0.904297,-0.174805,0
52210,0.385742,-0.914551,-0.189941,0
52230,0.404785,-0.901367,-0.192383,0
52250,0.375488,-0.914062,-0.187012,0
52270,0.356934,-0.899414,-0.194336,0
52290,0.41748,-0.90625,-0.212891,0
52310,0.489746,-0.91748,-0.215332,0
52330,0.48877,-0.911621,-0.206055,0
52350,0.423828,-0.884766,-0.205566,0
52370,0.430176,-0.874512,-0.206543,0
52390,0.48291,-0.877441,-0.220215,0
52410,0.495117,-0.873535,-0.224121,0
52430,0.452148,-0.852051,-0.210938,0
52450,0.430176,-0.849121,-0.24707,0
52470,0.456055,-0.825195,-0.241699,0
52490,0.491211,-0.822266,-0.247559,0
52510,0.473145,-0.84082,-0.266113,0
52530,0.4375,-0.829102,-0.271973,0
52550,0.482422,-0.815918,-0.278809,0
52570,0.557617,-0.828125,-0.255859,0
52590,0.506836,-0.820801,-0.250977,0
52610,0.463867,-0.815918,-0.266113,0
52630,0.513672,-0.803223,-0.270996,0
52650,0.551758,-0.805176,-0.277832,0
52670,0.571289,-0.789062,-0.263184,0
52690,0.532715,-0.777344,-0.280762,0
52710,0.518066,-0.76416,-0.275879,0
52730,0.566895,-0.748535,-0.255371,0
52750,0.603516,-0.741211,-0.242188,0
52770,0.572266,-0.73584,-0.28125,0
52790,0.587402,-0.733398,-0.311035,0
52810,0.655273,-0.724609,-0.262207,0
52830,0.706543,-0.722656,-0.26123,0
52850,0.68457,-0.720703,-0.257812,0
52870,0.641113,-0.708496,-0.266602,0
52890,0.642578,-0.682129,-0.246094,0
52910,0.69873,-0.671387,-0.236816,0
52930,0.687012,-0.697266,-0.288086,0
52950,0.699219,-0.69873,-0.296875,0
52970,0.702148,-0.691895,-0.279785,0
52990,0.713379,-0.680176,-0.241211,0
53010,0.702637,-0.666016,-0.23877,0
53030,0.702637,-0.678223,-0.26709,0
53050,0.698242,-0.669922,-0.249023,0
53070,0.717773,-0.655762,-0.231934,0
53090,0.749512,-0.628906,-0.206543,0
53110,0.760742,-0.606934,-0.208008,0
53130,0.752441,-0.600586,-0.208984,0
53150,0.768555,-0.617676,-0.197266,0
53170,0.796387,-0.606934,-0.18457,0
53190,0.812012,-0.57666,-0.17041,0
53210,0.800293,-0.558594,-0.189941,0
53230,0.817871,-0.547852,-0.142578,0
53250,0.864258,-0.539062,-0.154297,0
53270,0.871094,-0.532227,-0.154785,0
53290,0.835938,-0.519043,-0.137207,0
53310,0.827148,-0.518555,-0.102539,0
53330,0.859863,-0.522949,-0.0957031,0
53350,0.822266,-0.532227,-0.0859375,0
53370,0.814453,-0.526367,-0.0639648,0
53390,0.807617,-0.532227,-0.0478516,0
53410,0.809082,-0.540527,-0.034668,0
53430,0.814453,-0.535156,-0.027832,0
53450,0.87793,-0.550781,0.000976562,0
53470,0.867676,-0.566406,-0.0214844,0
53490,0.805664,-0.578613,0.0141602,0
53510,0.791992,-0.587402,0.0175781,0
53530,0.820801,-0.587891,0.0395508,0
53550,0.845703,-0.592773,0.0361328,0
53570,0.811523,-0.606934,0.0439453,0
53590,0.802246,-0.596191,0.0629883,0
53610,0.833008,-0.605469,0.0966797,0
53630,0.848145,-0.61377,0.105957,0
53650,0.827148,-0.614258,0.106934,0
53670,0.796387,-0.61377,0.115234,0
53680,0.791992,-0.611816,0.134277,0
53700,0.790039,-0.644043,0.13916,0
53720,0.765137,-0.64209,0.133301,0
53740,0.742188,-0.655762,0.158203,0
53760,0.739258,-0.644531,0.156738,0
53780,0.729004,-0.661133,0.147461,0
53800,0.705566,-0.677734,0.127441,0
53820,0.701172,-0.680664,0.145508,0
53840,0.69043,-0.680176,0.140625,0
53860,0.685547,-0.709473,0.148926,0
53880,0.668945,-0.699219,0.138672,0
53900,0.646973,-0.705566,0.122559,0
53920,0.668945,-0.710938,0.138184,0
53940,0.671875,-0.72168,0.112305,0
53960,0.621582,-0.722168,0.0976562,0
53980,0.612305,-0.721191,0.119141,0
54000,0.646973,-0.740234,0.118164,0
54020,0.642578,-0.746582,0.0834961,0
54040,0.60498,-0.736328,0.0869141,0
54060,0.610352,-0.724609,0.0883789,0
54080,0.601562,-0.756348,0.0527344,0
54100,0.571777,-0.754883,0.0537109,0
54120,0.579102,-0.777832,0.050293,0
54140,0.612793,-0.783203,0.027832,0
54160,0.604004,-0.782227,0.0136719,0
54180,0.562988,-0.769531,0.0253906,0
54200,0.554688,-0.781738,0.027832,0
54220,0.557129,-0.791992,0.0200195,0
54240,0.541016,-0.771484,0.0107422,0
54260,0.53418,-0.774902,-0.0131836,0
54280,0.518066,-0.788086,-0.0229492,0
54300,0.511719,-0.799805,-0.0161133,0
54320,0.51416,-0.805664,-0.0449219,0
54340,0.504883,-0.808105,-0.0405273,0
54360,0.535645,-0.813477,-0.0400391,0
54380,0.535645,-0.81543,-0.0380859,0
54400,0.48584,-0.825195,-0.0585938,0
54420,0.498535,-0.810547,-0.0605469,0
54440,0.540527,-0.833496,-0.0800781,0
54460,0.526367,-0.835449,-0.0874023,0
54480,0.506836,-0.836914,-0.108398,0
54500,0.521484,-0.837402,-0.100586,0
54520,0.539551,-0.832031,-0.0957031,0
54540,0.529297,-0.838867,-0.105469,0
54560,0.509766,-0.839844,-0.142578,0
54580,0.503906,-0.83252,-0.129395,0
54600,0.487305,-0.843262,-0.150391,0
54620,0.487305,-0.848145,-0.156738,0
54640,0.512695,-0.844238,-0.163574,0
54660,0.518066,-0.834961,-0.184082,0
54680,0.48584,-0.84668,-0.182129,0
54700,0.470215,-0.825195,-0.189941,0
54720,0.516113,-0.832031,-0.20459,0
54740,0.581055,-0.839844,-0.211426,0
54760,0.557129,-0.828613,-0.21582,0
54780,0.512207,-0.803223,-0.210938,0
54800,0.536621,-0.799805,-0.232422,0
54820,0.589355,-0.801758,-0.240234,0
54840,0.572266,-0.816406,-0.246094,0
54860,0.54834,-0.800293,-0.252441,0
54880,0.571777,-0.771484,-0.25293,0
54900,0.593262,-0.774414,-0.253906,0
54920,0.595703,-0.773926,-0.262695,0
54940,0.575195,-0.776855,-0.278809,0
54960,0.592285,-0.757812,-0.271973,0
54980,0.619141,-0.743652,-0.253418,0
55000,0.609375,-0.726562,-0.262207,0
55020,0.583984,-0.716797,-0.289551,0
55040,0.599121,-0.698242,-0.301758,0
55060,0.658691,-0.708008,-0.303711,0
55080,0.671387,-0.70166,-0.297852,0
55100,0.650879,-0.68457,-0.305176,0
55120,0.675781,-0.664062,-0.286133,0
55140,0.686035,-0.649414,-0.278809,0
55160,0.702637,-0.63916,-0.273926,0
55180,0.687988,-0.626953,-0.29834,0
55200,0.723633,-0.611816,-0.289062,0
55220,0.738281,-0.611816,-0.296387,0
55240,0.716797,-0.58252,-0.273438,0
55260,0.742676,-0.559082,-0.285156,0
55280,0.77832,-0.555664,-0.296387,0
55300,0.781738,-0.546875,-0.297363,0
55320,0.76709,-0.541016,-0.285156,0
55340,0.800293,-0.51709,-0.263184,0
55360,0.805176,-0.513184,-0.26709,0
55380,0.795898,-0.494629,-0.260254,0
55400,0.819336,-0.48291,-0.277832,0
55420,0.836426,-0.474121,-0.258301,0
55440,0.818359,-0.461914,-0.227051,0
55460,0.818848,-0.447754,-0.229004,0
55480,0.852051,-0.443359,-0.228027,0
55500,0.883789,-0.424805,-0.163574,0
55520,0.888184,-0.412109,-0.183594,0
55540,0.86377,-0.398926,-0.187012,0
55560,0.874023,-0.378418,-0.153809,0
55580,0.91748,-0.379395,-0.133789,0
55600,0.939941,-0.36084,-0.101074,0
55620,0.933594,-0.352539,-0.114746,0
55640,0.913574,-0.344727,-0.0893555,0
55660,0.92041,-0.34375,-0.0527344,0
55680,0.958008,-0.326172,-0.050293,0
55700,0.97168,-0.341797,-0.0449219,0
55720,0.939453,-0.328613,-0.0439453,0
55740,0.915527,-0.324219,-0.00341797,0
55760,0.919434,-0.305664,0.0454102,0
55780,0.969238,-0.325684,0.0219727,0
55800,0.946289,-0.321289,0.0253906,0
55820,0.904297,-0.331543,0.0483398,0
55840,0.911133,-0.321289,0.0625,0
55860,0.923828,-0.336426,0.0668945,0
55880,0.92041,-0.350098,0.0898438,0
55900,0.930664,-0.368652,0.09375,0
55920,0.925781,-0.358398,0.106934,0
55940,0.908691,-0.367188,0.12793,0
55960,0.897461,-0.378418,0.158203,0
55980,0.922363,-0.395508,0.138672,0
56000,0.910156,-0.395508,0.166992,0
56020,0.862793,-0.399414,0.189941,0
56040,0.865723,-0.427246,0.208984,0
56060,0.876953,-0.44873,0.221191,0
56080,0.842285,-0.452148,0.222656,0
56100,0.836426,-0.456055,0.249023,0
56120,0.855469,-0.477051,0.251465,0
56140,0.813965,-0.495605,0.242188,0
56160,0.798828,-0.49707,0.262207,0
56180,0.803711,-0.51123,0.241211,0
56200,0.811523,-0.53418,0.244141,0
56220,0.817383,-0.560547,0.23584,0
56240,0.794922,-0.556641,0.237305,0
56260,0.750977,-0.559082,0.229004,0
56280,0.73877,-0.578125,0.206055,0
56300,0.740234,-0.589355,0.205566,0
56320,0.723633,-0.586426,0.206055,0
56340,0.700684,-0.604004,0.188477,0
56360,0.704102,-0.61084,0.158691,0
56380,0.695801,-0.624023,0.152344,0
56400,0.693848,-0.627441,0.163086,0
56420,0.692383,-0.625,0.147949,0
56440,0.662109,-0.632324,0.138184,0
56460,0.67041,-0.646484,0.130371,0
56480,0.663086,-0.638184,0.142578,0
56500,0.625,-0.637207,0.129883,0
56520,0.623047,-0.659668,0.108398,0
56540,0.638672,-0.664062,0.0991211,0
56560,0.632812,-0.676758,0.0791016,0
56580,0.638184,-0.683105,0.0561523,0
56600,0.628906,-0.709961,0.0517578,0
56620,0.663086,-0.714844,0.0302734,0
56640,0.663086,-0.73584,0.0112305,0
56660,0.672363,-0.733887,0.00927734,0
56680,0.662109,-0.728027,0.00634766,0
56700,0.64209,-0.727051,0.00585938,0
56720,0.619629,-0.740234,-0.0371094,0
56740,0.637207,-0.756348,-0.0507812,0
56760,0.661133,-0.764648,-0.0517578,0
56780,0.626953,-0.757324,-0.0429688,0
56800,0.584473,-0.763672,-0.0737305,0
56820,0.603027,-0.760254,-0.0751953,0
56840,0.626465,-0.762207,-0.0791016,0
56860,0.621094,-0.757324,-0.0942383,0
56880,0.597656,-0.752441,-0.103027,0
56900,0.612793,-0.738281,-0.121582,0
56920,0.680176,-0.742188,-0.123047,0
56940,0.692383,-0.730469,-0.11377,0
56960,0.646484,-0.721191,-0.138184,0
56980,0.614746,-0.723633,-0.15332,0
57000,0.668457,-0.711914,-0.166992,0
57020,0.73584,-0.720703,-0.17041,0
57040,0.666504,-0.697754,-0.16748,0
57060,0.63623,-0.700684,-0.180664,0
57070,0.685059,-0.70166,-0.210449,0
57090,0.72998,-0.699219,-0.192383,0
57110,0.711426,-0.692871,-0.185547,0
57130,0.708984,-0.683594,-0.19873,0
57150,0.719727,-0.669434,-0.217285,0
57170,0.739258,-0.65332,-0.216309,0
57190,0.74707,-0.63916,-0.201172,0
57210,0.761719,-0.625488,-0.224609,0
57230,0.760254,-0.632324,-0.25,0
57250,0.760742,-0.61084,-0.256348,0
57270,0.762207,-0.600098,-0.239746,0
57290,0.749023,-0.581543,-0.246582,0
57310,0.757812,-0.592285,-0.271973,0
57330,0.79248,-0.589355,-0.282715,0
57350,0.756348,-0.571777,-0.253418,0
57370,0.737305,-0.561523,-0.267578,0
57390,0.750488,-0.558105,-0.28125,0
57410,0.773438,-0.519531,-0.285156,0
57430,0.812012,-0.491211,-0.302734,0
57450,0.797363,-0.490723,-0.318848,0
57470,0.749512,-0.47998,-0.30127,0
57490,0.77002,-0.467285,-0.287109,0
57510,0.821289,-0.454102,-0.311523,0
57530,0.813477,-0.430176,-0.289551,0
57550,0.808594,-0.42041,-0.300293,0
57570,0.802246,-0.42627,-0.291992,0
57590,0.841797,-0.424805,-0.31543,0
57610,0.863281,-0.424316,-0.29248,0
57630,0.848145,-0.436035,-0.286133,0
57650,0.851562,-0.437988,-0.303711,0
57670,0.838867,-0.429688,-0.270996,0
57690,0.867188,-0.425781,-0.277344,0
57710,0.893555,-0.423828,-0.287598,0
57730,0.89209,-0.416504,-0.274414,2001
57750,0.867676,-0.423828,-0.259766,0
57770,0.868164,-0.4375,-0.252441,0
57790,0.879395,-0.419434,-0.26416,0
57810,0.900391,-0.425293,-0.250488,0
57830,0.885742,-0.439453,-0.258301,0
57850,0.833008,-0.420898,-0.246094,0
57870,0.840332,-0.427246,-0.245117,0
57890,0.891113,-0.418457,-0.242188,0
57910,0.902344,-0.44043,-0.236328,0
57930,0.841309,-0.416504,-0.256836,0
57950,0.787598,-0.431641,-0.23584,0
57970,0.789062,-0.425781,-0.231445,0
57990,0.85498,-0.418945,-0.241699,0
58010,0.834473,-0.401855,-0.255371,0
58030,0.76123,-0.405762,-0.254395,0
58050,0.741699,-0.424805,-0.248047,0
58070,0.762207,-0.436035,-0.273438,0
58090,0.794434,-0.447754,-0.310547,0
58110,0.760254,-0.439941,-0.313477,0
58130,0.666992,-0.427246,-0.310059,0
58150,0.609863,-0.449707,-0.30127,0
58170,0.607422,-0.475098,-0.301758,0
58190,0.644531,-0.485352,-0.257812,0
58210,0.633789,-0.478027,-0.228027,0
58230,0.599609,-0.497559,-0.243652,0
58250,0.586914,-0.510742,-0.255859,0
58270,0.623047,-0.562988,-0.242188,0
58290,0.689453,-0.634277,-0.210938,0
58310,0.726074,-0.665039,-0.164551,0
58330,0.729492,-0.67334,-0.148438,0
58350,0.709473,-0.693848,-0.181641,0
58370,0.73584,-0.730957,-0.167969,0
58390,0.788574,-0.779297,-0.110352,0
58410,0.760742,-0.827148,-0.112305,0
58430,0.644531,-0.853516,-0.11377,0
58450,0.569336,-0.85791,-0.119141,0
58470,0.536133,-0.93457,-0.177734,0
58490,0.531738,-1.00195,-0.140625,0
58510,0.46875,-0.995117,-0.110352,0
58530,0.400879,-1.03564,-0.129883,0
58550,0.402344,-1.0957,-0.157227,0
58570,0.421875,-1.09521,-0.152344,0
58590,0.418945,-1.06494,-0.155762,0
58610,0.413086,-1.04932,-0.140625,0
58630,0.389648,-1.06006,-0.143066,0
58650,0.369141,-1.07129,-0.158203,0
58670,0.380859,-1.08545,-0.178711,0
58690,0.369141,-1.06006,-0.176758,0
58710,0.355469,-1.0083,-0.164062,0
58730,0.34668,-0.980957,-0.181152,0
58750,0.322266,-0.962891,-0.1875,0
58770,0.293457,-0.967285,-0.192383,0
58790,0.271973,-0.957031,-0.18457,0
58810,0.254395,-0.941895,-0.196289,0
58830,0.249512,-0.918457,-0.187988,0
58850,0.229492,-0.920898,-0.180176,0
58870,0.231934,-0.929199,-0.172852,0
58890,0.253906,-0.956543,-0.169434,0
58910,0.257324,-0.956543,-0.137695,0
58930,0.246094,-0.964355,-0.148926,0
58940,0.251465,-0.966797,-0.17334,0
58970,0.244629,-0.969727,-0.17334,0
58990,0.227539,-0.974121,-0.150879,0
59010,0.230469,-0.973633,-0.146484,0
59030,0.243164,-0.98584,-0.157715,0
59050,0.233887,-0.986328,-0.140137,0
59070,0.231934,-0.975098,-0.143066,0
59080,0.239746,-0.970215,-0.154785,0
59100,0.248047,-0.97998,-0.142578,0
59120,0.249023,-0.981445,-0.143066,0
59140,0.234863,-0.994629,-0.155762,0
59160,0.241211,-0.97998,-0.148926,2000
59180,0.243164,-1.00488,-0.151855,0
59200,0.276855,-0.988281,-0.183594,0
59220,0.297363,-0.995605,-0.18457,0
59250,0.283691,-0.972168,-0.173828,0
59270,0.273438,-0.979004,-0.175293,0
59290,0.241211,-0.983887,-0.160645,0
59310,0.244629,-0.947266,-0.144043,0
59330,0.292969,-0.939941,-0.164551,0
59350,0.269043,-0.935059,-0.141113,0
59380,0.244141,-0.965332,-0.134766,0
59390,0.275391,-0.97998,-0.151855,0
59400,0.269531,-0.974121,-0.164062,0
59420,0.23584,-0.966797,-0.158691,0
59440,0.244629,-0.978516,-0.171875,0
59460,0.22998,-0.974609,-0.150391,0
59480,0.205566,-0.967773,-0.148438,0
59500,0.199707,-0.95166,-0.14209,0
59520,0.200684,-0.966797,-0.135254,0
59540,0.196777,-0.958496,-0.130859,0
59560,0.192871,-0.952637,-0.125,0
59580,0.20166,-0.953613,-0.128906,0
59600,0.200195,-0.935059,-0.128418,0
59620,0.208984,-0.92334,-0.128418,0
59640,0.250977,-0.933105,-0.15625,0
59660,0.270508,-0.955078,-0.153809,0
59680,0.266602,-0.97168,-0.139648,0
59700,0.239746,-0.981934,-0.150391,0
59720,0.26123,-0.96582,-0.174316,0
59730,0.296875,-0.966309,-0.162109,0
59750,0.313965,-0.95166,-0.152344,0
59770,0.299316,-0.947266,-0.152832,0
59790,0.290039,-0.927734,-0.147949,0
59810,0.324707,-0.929688,-0.13623,0
59830,0.342285,-0.927734,-0.123047,0
59850,0.326172,-0.905762,-0.136719,0
59870,0.339355,-0.882324,-0.115723,0
59890,0.327148,-0.874512,-0.12207,0
59910,0.317871,-0.883301,-0.133789,0
59930,0.370117,-0.904785,-0.141602,0
59950,0.393555,-0.924316,-0.124512,0
59970,0.376953,-0.919434,-0.103516,0
59990,0.392578,-0.921387,-0.132324,0
60010,0.436035,-0.942871,-0.154785,0
60030,0.434082,-0.939453,-0.122559,0
60050,0.451172,-0.916504,-0.121582,0
60070,0.472168,-0.901367,-0.157227,0
60090,0.445801,-0.905762,-0.150391,0
60120,0.492188,-0.885254,-0.124512,0
60140,0.508301,-0.875977,-0.132812,0
60150,0.497559,-0.848145,-0.121582,0
60180,0.551758,-0.828125,-0.12207,0
60200,0.525879,-0.802734,-0.125,0
60220,0.522949,-0.801758,-0.103027,0
60240,0.556152,-0.820801,-0.118652,0
60260,0.569336,-0.807129,-0.0981445,0
60280,0.575684,-0.785156,-0.102539,0
60300,0.601562,-0.78125,-0.123047,0
60320,0.608887,-0.774902,-0.107422,0
60340,0.605957,-0.781738,-0.0927734,0
60360,0.668945,-0.754395,-0.0795898,0
60380,0.681641,-0.747559,-0.0922852,0
60400,0.656738,-0.724121,-0.0888672,0
60420,0.669922,-0.725586,-0.0664062,0
60440,0.683594,-0.723633,-0.0473633,0
60460,0.6875,-0.724121,-0.0644531,0
60480,0.712891,-0.716797,-0.0556641,0
60500,0.721191,-0.71875,-0.0327148,0
60520,0.694824,-0.703613,-0.015625,0
60530,0.711914,-0.688477,-0.0107422,0
60550,0.734863,-0.697754,0.0288086,0
60560,0.724121,-0.70459,0.00878906,0
60580,0.761719,-0.705566,0.0170898,0
60600,0.734863,-0.709473,0.0375977,0
60620,0.726074,-0.705078,0.050293,0
60640,0.743164,-0.70459,0.0449219,0
60660,0.729004,-0.722168,0.0776367,0
60680,0.688965,-0.703125,0.0957031,0
60700,0.692383,-0.707031,0.0898438,0
60720,0.697754,-0.722168,0.0717773,0
60740,0.71875,-0.716797,0.106445,0
60760,0.680664,-0.730957,0.13916,0
60780,0.65625,-0.730469,0.120605,0
60800,0.666992,-0.746094,0.11084,0
60820,0.706543,-0.74707,0.118164,0
60840,0.70459,-0.744629,0.144043,0
60860,0.662598,-0.742676,0.17627,0
60880,0.647949,-0.759766,0.145508,0
60900,0.630859,-0.769531,0.13623,0
60920,0.62207,-0.778809,0.163086,0
60940,0.616211,-0.772949,0.164062,0
60960,0.606934,-0.774902,0.148926,0
60980,0.556641,-0.79248,0.152344,0
61000,0.562012,-0.795898,0.159668,0
61010,0.54541,-0.787598,0.162598,0
61030,0.524414,-0.796387,0.133301,0
61050,0.516602,-0.812012,0.12207,0
61070,0.508789,-0.80127,0.119141,0
61090,0.513672,-0.802246,0.130371,0
61110,0.522949,-0.811035,0.117676,0
61130,0.514648,-0.816406,0.103027,0
61150,0.498047,-0.819824,0.0942383,0
61170,0.51709,-0.848145,0.0800781,0
61190,0.513184,-0.848145,0.078125,0
61210,0.520996,-0.84082,0.0678711,0
61230,0.529785,-0.845215,0.0683594,0
61250,0.506348,-0.849609,0.0839844,0
61270,0.49707,-0.850098,0.0727539,0
61290,0.502441,-0.838379,0.0551758,0
61310,0.513184,-0.840332,0.0683594,0
61330,0.505859,-0.843262,0.0576172,0
61350,0.47998,-0.838867,0.0629883,0
61370,0.470215,-0.82373,0.0615234,0
61390,0.48877,-0.836426,0.043457,0
61410,0.481934,-0.846191,0.0288086,0
61430,0.467773,-0.850586,0.0395508,0
61450,0.460449,-0.835938,0.0419922,0
61470,0.462891,-0.844727,0.0458984,0
61490,0.452148,-0.841309,0.0322266,0
61510,0.431152,-0.861816,0.0175781,0
61530,0.414551,-0.862793,0.0234375,0
61550,0.427734,-0.864258,0.0175781,0
61570,0.433105,-0.861816,0.0146484,0
61590,0.400391,-0.878906,0.0102539,0
61610,0.379883,-0.89502,-0.00390625,0
61630,0.410156,-0.898926,-0.0117188,0
61650,0.419434,-0.898926,-0.0239258,0
61670,0.423828,-0.907227,-0.0400391,0
61690,0.430176,-0.902832,-0.0385742,0
61710,0.437988,-0.914062,-0.0610352,0
61730,0.443359,-0.921875,-0.0463867,0
61750,0.457031,-0.900391,-0.0517578,0
61770,0.459961,-0.902344,-0.0610352,0
61790,0.437012,-0.908691,-0.0541992,0
61810,0.42041,-0.902344,-0.0595703,0
61830,0.429688,-0.889648,-0.0722656,0
61850,0.422852,-0.893555,-0.0615234,0
61870,0.410156,-0.880859,-0.0654297,0
61890,0.421875,-0.876465,-0.0834961,0
61910,0.429688,-0.888672,-0.0869141,0
61930,0.425293,-0.882812,-0.0830078,0
61950,0.425781,-0.88623,-0.0986328,0
61970,0.419434,-0.88623,-0.0991211,0
61990,0.380371,-0.880371,-0.0913086,0
62010,0.369629,-0.883301,-0.109375,0
62030,0.381348,-0.893066,-0.128906,0
62050,0.383789,-0.900879,-0.145508,0
62070,0.36377,-0.894531,-0.148438,0
62090,0.357422,-0.873535,-0.143555,0
62110,0.396484,-0.893555,-0.164062,0
62130,0.430176,-0.90918,-0.176758,0
62150,0.414551,-0.901367,-0.179688,0
62170,0.415527,-0.893066,-0.189453,0
62190,0.444336,-0.888672,-0.192871,0
62210,0.487793,-0.891602,-0.206543,0
62230,0.482422,-0.897461,-0.212402,0
62240,0.442383,-0.86377,-0.191895,0
62260,0.469238,-0.850098,-0.205566,0
62280,0.530273,-0.866699,-0.218262,0
62300,0.518066,-0.865234,-0.224121,0
62320,0.472168,-0.850098,-0.209961,0
62340,0.50293,-0.836426,-0.21875,0
62360,0.519043,-0.842773,-0.223145,0
62380,0.506836,-0.833008,-0.222656,0
62400,0.469238,-0.819824,-0.229004,0
62420,0.45459,-0.805664,-0.216797,0
62440,0.489746,-0.821777,-0.223145,0
62460,0.507812,-0.832031,-0.23877,0
62480,0.48291,-0.827637,-0.227051,0
62500,0.465332,-0.815918,-0.237793,0
62520,0.515137,-0.818848,-0.229004,0
62540,0.511719,-0.841797,-0.248047,0
62560,0.513184,-0.822266,-0.241211,0
62580,0.515137,-0.814453,-0.249512,0
62600,0.541016,-0.806152,-0.236816,0
62620,0.554199,-0.811035,-0.234863,0
62640,0.563965,-0.79541,-0.241699,0
62660,0.591797,-0.768066,-0.227539,0
62680,0.619141,-0.766602,-0.246582,0
62700,0.614258,-0.774414,-0.255859,0
62720,0.625,-0.75293,-0.23584,0
62740,0.620605,-0.733887,-0.214355,0
62760,0.640137,-0.71582,-0.231934,0
62780,0.672852,-0.715332,-0.243164,0
62800,0.691895,-0.698242,-0.240234,0
62820,0.699707,-0.685547,-0.236328,0
62840,0.695312,-0.655762,-0.224121,0
62860,0.712402,-0.637207,-0.224121,0
62880,0.734375,-0.633301,-0.210938,0
62900,0.725098,-0.627441,-0.224121,0
62920,0.728027,-0.603027,-0.22168,0
62940,0.72168,-0.601562,-0.196289,0
62960,0.73877,-0.597656,-0.198242,0
62980,0.76123,-0.593262,-0.201172,0
63000,0.766602,-0.577148,-0.187012,0
63020,0.78418,-0.54248,-0.158691,0
63040,0.789062,-0.541504,-0.183105,0
63060,0.777344,-0.52002,-0.16748,0
63080,0.817383,-0.521973,-0.181641,0
63100,0.859863,-0.526367,-0.187012,0
63120,0.842285,-0.519531,-0.184082,0
63140,0.829102,-0.509277,-0.176758,0
63160,0.831543,-0.500977,-0.146973,0
63180,0.84082,-0.49707,-0.144531,0
63200,0.848633,-0.488281,-0.138672,0
63220,0.837891,-0.493164,-0.139648,0
63240,0.852539,-0.488281,-0.11377,0
63260,0.877441,-0.482422,-0.110352,0
63280,0.899902,-0.460449,-0.0932617,0
63300,0.924805,-0.462402,-0.090332,0
63320,0.92334,-0.463379,-0.0654297,0
63340,0.92041,-0.471191,-0.0444336,0
63360,0.92334,-0.453613,-0.034668,0
63380,0.915039,-0.45752,-0.0336914,0
63400,0.919922,-0.43457,0.00439453,0
63420,0.914551,-0.427734,0.0322266,0
63440,0.850586,-0.41748,0.0693359,0
63460,0.862305,-0.40332,0.0893555,0
63480,0.861816,-0.413574,0.0791016,0
63500,0.860352,-0.415527,0.10791,0
63520,0.841309,-0.424805,0.125977,0
63540,0.828125,-0.452148,0.133789,0
63560,0.842285,-0.494141,0.126953,0
63580,0.852539,-0.513184,0.118652,0
63600,0.868164,-0.532715,0.14209,0
63620,0.889648,-0.558594,0.168945,0
63640,0.875488,-0.570801,0.193848,0
63660,0.836914,-0.57959,0.202637,0
63680,0.811523,-0.593262,0.222656,0
63700,0.820801,-0.57373,0.25293,0
63720,0.789551,-0.568848,0.268555,0
63740,0.78125,-0.601074,0.26123,0
63760,0.76123,-0.615234,0.257324,0
63780,0.763672,-0.620117,0.282227,0
63800,0.781738,-0.619141,0.277832,0
63820,0.738281,-0.624512,0.263184,0
63840,0.716797,-0.631348,0.257324,0
63860,0.725586,-0.637695,0.264648,0
63880,0.70166,-0.640625,0.285645,0
63900,0.675293,-0.631348,0.262207,0
63920,0.661133,-0.63623,0.242676,0
63940,0.638672,-0.636719,0.25,0
63960,0.630371,-0.631836,0.219238,0
63980,0.620605,-0.670898,0.185547,0
64000,0.612305,-0.669922,0.187988,0
64020,0.597168,-0.681152,0.205078,0
64040,0.586914,-0.69043,0.188477,0
64060,0.577637,-0.717285,0.171875,0
64080,0.580566,-0.702637,0.177246,0
64100,0.583984,-0.708008,0.147949,0
64120,0.583984,-0.719727,0.133789,0
64140,0.567383,-0.712402,0.144531,0
64160,0.581055,-0.736816,0.135742,0
64180,0.595703,-0.737793,0.136719,0
64200,0.584473,-0.741211,0.106445,0
64210,0.616699,-0.75293,0.103027,0
64230,0.61377,-0.760742,0.121094,0
64250,0.559082,-0.753906,0.0981445,0
64270,0.540039,-0.768555,0.0722656,0
64290,0.57373,-0.770508,0.0615234,0
64310,0.574219,-0.787109,0.0581055,0
64330,0.527832,-0.796387,0.0283203,0
64350,0.52832,-0.795898,0.0175781,0
64370,0.546387,-0.793457,0.034668,0
64390,0.534668,-0.788574,0.0263672,0
64410,0.505371,-0.786621,0.00537109,0
64430,0.509766,-0.783203,-0.0258789,0
64450,0.55957,-0.789062,-0.0161133,0
64470,0.560059,-0.800781,-0.0185547,0
64490,0.528809,-0.796387,-0.0507812,0
64510,0.54541,-0.783203,-0.065918,0
64530,0.587891,-0.793945,-0.0898438,0
64550,0.602051,-0.81543,-0.0834961,0
64570,0.555176,-0.810059,-0.09375,0
64590,0.550293,-0.774414,-0.102051,0
64610,0.604492,-0.771484,-0.123047,0
64630,0.626465,-0.786133,-0.126953,0
64650,0.612305,-0.789062,-0.142578,0
64670,0.629395,-0.793457,-0.15332,0
64690,0.640137,-0.773926,-0.144531,0
64710,0.657227,-0.763672,-0.131348,0
64730,0.662598,-0.754883,-0.149902,0
64750,0.635742,-0.734375,-0.153809,0
64770,0.637207,-0.71875,-0.150391,0
64790,0.646973,-0.714355,-0.12793,0
64810,0.641113,-0.706543,-0.14502,0
64830,0.61377,-0.702148,-0.161621,0
64850,0.65625,-0.676758,-0.161621,0
64870,0.728516,-0.679199,-0.15625,0
64890,0.700684,-0.67627,-0.17041,0
64910,0.683105,-0.665527,-0.162109,0
64930,0.708984,-0.643555,-0.137695,0
64950,0.748535,-0.628418,-0.15332,0
64970,0.751953,-0.641113,-0.164551,0
64990,0.72168,-0.635254,-0.183594,0
65010,0.755371,-0.628418,-0.15332,0
65030,0.784668,-0.615234,-0.164062,0
65050,0.799316,-0.601562,-0.182617,0
65070,0.791504,-0.589844,-0.169922,0
65090,0.78418,-0.575195,-0.175293,0
65110,0.782227,-0.567383,-0.173828,0
65130,0.791016,-0.557617,-0.188965,0
65150,0.805176,-0.546387,-0.188477,0
