Timestamp, Acceleration x, Acceleration y, Acceleration z, Marker
40,0.132324,-0.883301,0.390137,0
50,0.126465,-0.876953,0.398438,0
70,0.120605,-0.857422,0.419434,0
80,0.0927734,-0.880859,0.418945,0
100,0.0761719,-0.864746,0.45166,0
120,0.0927734,-0.850586,0.434082,0
140,0.100098,-0.849609,0.42041,0
170,0.0795898,-0.821289,0.45752,0
190,0.100098,-0.779785,0.479004,0
210,0.135742,-0.878906,0.498047,0
230,0.130371,-0.883301,0.535645,0
240,0.162598,-0.837402,0.463379,0
260,0.15332,-0.793457,0.469238,0
280,0.172363,-0.72168,0.459961,0
300,0.132324,-0.767578,0.462402,0
330,0.118164,-0.913574,0.46875,0
350,0.158691,-0.897461,0.450684,0
360,0.130859,-0.811035,0.445801,0
360,0.121582,-0.812988,0.424805,0
390,0.166992,-0.841797,0.416016,0
420,0.15332,-0.862793,0.441895,0
440,0.162109,-0.869629,0.415527,0
460,0.148926,-0.841309,0.412598,0
490,0.152344,-0.842285,0.435059,0
510,0.15625,-0.824219,0.432129,0
530,0.162598,-0.841309,0.428711,0
550,0.165527,-0.86084,0.430664,0
590,0.159668,-0.814941,0.449219,0
610,0.149414,-0.844727,0.436035,0
630,0.129395,-0.844238,0.442383,0
640,0.155762,-0.883789,0.417969,0
670,0.112793,-0.838867,0.447266,0
690,0.140625,-0.838379,0.435059,0
700,0.119629,-0.853027,0.411133,0
720,0.144043,-0.824707,0.465332,0
730,0.146973,-0.885254,0.416504,0
740,0.106934,-0.829102,0.418457,0
760,0.120117,-0.822266,0.427734,0
780,0.131348,-0.850098,0.445312,0
790,0.132324,-0.893555,0.452637,0
810,0.150391,-0.891113,0.395508,0
830,0.139648,-0.881348,0.400391,0
840,0.135742,-0.879395,0.435547,0
860,0.121094,-0.853516,0.432617,0
880,0.112793,-0.858398,0.407227,0
890,0.133789,-0.844238,0.419434,0
920,0.110352,-0.869629,0.424805,0
940,0.107422,-0.875,0.407227,0
970,0.124512,-0.864258,0.416504,0
990,0.13623,-0.848633,0.407227,0
1010,0.14209,-0.828613,0.399414,0
1030,0.153809,-0.823242,0.38623,0
1050,0.143555,-0.878418,0.389648,0
1070,0.128418,-0.91748,0.396484,0
1090,0.143066,-0.897949,0.390625,0
1110,0.124023,-0.894043,0.368164,0
1130,0.120605,-0.894531,0.38623,0
1150,0.13916,-0.878906,0.408203,0
1170,0.122559,-0.850586,0.431152,0
1190,0.111816,-0.80957,0.449219,0
1210,0.0991211,-0.799805,0.465332,0
1230,0.106934,-0.828613,0.447266,0
1250,0.114746,-0.854004,0.428223,0
1280,0.130859,-0.864258,0.435547,0
1300,0.116211,-0.863281,0.417969,0
1320,0.116699,-0.855957,0.431641,0
1340,0.117676,-0.858887,0.427734,0
1360,0.115234,-0.87207,0.442871,0
1380,0.126953,-0.868652,0.425293,0
1400,0.115234,-0.866699,0.427246,0
1430,0.119629,-0.853516,0.433105,0
1450,0.118652,-0.838867,0.446777,0
1470,0.114746,-0.839844,0.439453,0
1490,0.114746,-0.850098,0.43457,0
1510,0.112305,-0.840332,0.433594,0
1530,0.100586,-0.818848,0.458008,0
1550,0.0917969,-0.838379,0.437988,0
1570,0.119629,-0.874512,0.424805,0
1590,0.125,-0.896484,0.402832,0
1610,0.101562,-0.869141,0.394531,0
1630,0.0952148,-0.849121,0.435547,0
1650,0.118652,-0.868652,0.437012,0
1670,0.106934,-0.875488,0.42041,0
1690,0.11377,-0.87207,0.436035,0
1710,0.105469,-0.880371,0.436523,0
1730,0.0727539,-0.837891,0.445801,0
1750,0.0834961,-0.864746,0.434082,0
1770,0.102051,-0.897461,0.433105,0
1790,0.103516,-0.86084,0.474121,0
1810,0.124512,-0.855957,0.45459,0
1830,0.168945,-0.837402,0.458008,0
1850,0.178223,-0.799805,0.425781,0
1870,0.124023,-0.785156,0.484863,0
1890,0.121582,-0.820312,0.479004,0
1900,0.118652,-0.845215,0.48584,0
1910,0.0693359,-0.814941,0.497559,0
1930,0.059082,-0.836426,0.470215,0
1940,0.0424805,-0.855469,0.456543,0
1960,0.059082,-0.867188,0.459473,0
1980,0.100098,-0.874512,0.442871,0
2000,0.118164,-0.878906,0.473145,0
2010,0.112793,-0.875488,0.464844,0
2030,0.159668,-0.817383,0.472656,0
2050,0.130859,-0.820312,0.462402,0
2070,0.114746,-0.818848,0.45166,0
2090,0.0991211,-0.790527,0.477539,0
2110,0.108887,-0.79541,0.5,0
2120,0.100586,-0.778809,0.496582,0
2140,0.0908203,-0.796875,0.491211,0
2160,0.107422,-0.834961,0.446777,0
2180,0.0922852,-0.833008,0.466797,0
2190,0.126953,-0.813965,0.5,0
2210,0.106934,-0.783203,0.505859,0
2230,0.10498,-0.786133,0.476562,0
2250,0.0986328,-0.806641,0.532227,0
2270,0.0981445,-0.76123,0.519531,0
2290,0.0820312,-0.792969,0.498535,0
2310,0.125977,-0.858887,0.474121,0
2330,0.163574,-0.91748,0.435547,0
2340,0.145996,-0.905762,0.420898,0
2360,0.108887,-0.867188,0.460449,0
2380,0.130859,-0.818359,0.438477,0
2400,0.112305,-0.851074,0.464844,0
2420,0.081543,-0.850586,0.469238,0
2460,0.0639648,-0.824219,0.48291,0
2490,0.0947266,-0.860352,0.459473,0
2510,0.0932617,-0.855957,0.471191,0
2530,0.0698242,-0.858887,0.469238,0
2540,0.109375,-0.861816,0.435547,0
2560,0.0834961,-0.881348,0.415527,0
2580,0.10498,-0.871582,0.421875,0
2590,0.0961914,-0.853516,0.421875,0
2600,0.106445,-0.801758,0.463379,0
2610,0.102051,-0.820801,0.468262,0
2630,0.102051,-0.833008,0.469727,0
2650,0.0966797,-0.853516,0.407227,0
2670,0.102539,-0.861328,0.437988,0
2690,0.0986328,-0.839355,0.4375,0
2710,0.0791016,-0.865234,0.380859,0
2740,0.132324,-0.885742,0.430664,0
2750,0.132324,-0.844238,0.416016,0
2790,0.227051,-0.950195,0.385742,0
2810,0.169922,-1.0166,0.435547,0
2830,0.230957,-1.11035,0.392578,0
2850,0.211426,-1.1001,0.349609,0
2870,0.230469,-1.02881,0.356934,0
2890,0.232422,-1.00342,0.33252,0
2910,0.266602,-0.974609,0.303711,0
2930,0.297852,-0.945312,0.30957,0
2950,0.326172,-0.922852,0.319824,0
2970,0.316895,-0.930664,0.359863,0
2990,0.333496,-0.916016,0.286133,0
3010,0.401367,-0.905273,0.237305,0
3030,0.339355,-0.858887,0.242188,0
3050,0.366211,-0.847168,0.240234,0
3070,0.394531,-0.858398,0.241211,0
3090,0.410156,-0.845703,0.242188,0
3110,0.376465,-0.814941,0.189941,0
3130,0.34668,-0.782715,0.162109,0
3150,0.387207,-0.753418,0.161621,0
3170,0.369629,-0.694824,0.1875,0
3190,0.36377,-0.70752,0.165039,0
3210,0.348633,-0.783203,0.154297,0
3230,0.293457,-0.786133,0.193359,0
3250,0.288086,-0.751465,0.174316,0
3270,0.26123,-0.774414,0.146973,0
3290,0.307617,-0.850098,0.126953,0
3310,0.323242,-0.861328,0.119141,0
3330,0.342285,-0.833496,0.0961914,0
3350,0.364258,-0.820801,0.111328,0
3370,0.388184,-0.814453,0.0957031,0
3390,0.374512,-0.824707,0.0483398,0
3410,0.385254,-0.844727,0.0786133,0
3430,0.439941,-0.876953,0.126953,0
3450,0.445801,-0.914551,0.0898438,0
3470,0.437012,-0.9375,0.0908203,0
3490,0.429688,-0.898438,0.123047,0
3510,0.421875,-0.875488,0.145508,0
3530,0.433594,-0.884277,0.162109,0
3550,0.446289,-0.872559,0.195312,0
3570,0.437988,-0.910156,0.148438,0
3590,0.432129,-0.930176,0.105957,0
3610,0.430664,-0.927246,0.116699,0
3630,0.427246,-0.880371,0.175293,0
3650,0.405762,-0.853516,0.167969,0
3670,0.388672,-0.88623,0.166504,0
3690,0.404785,-0.926758,0.160156,0
3710,0.391113,-0.916016,0.166992,0
3730,0.370605,-0.883789,0.157227,0
3750,0.363281,-0.855469,0.166016,0
3770,0.373047,-0.871582,0.186523,0
3790,0.376953,-0.907227,0.1875,0
3800,0.385254,-0.918457,0.17334,0
3820,0.380371,-0.896973,0.144531,0
3840,0.38623,-0.873047,0.159668,0
3860,0.387695,-0.83252,0.207031,0
3880,0.381836,-0.838379,0.209961,0
3900,0.392578,-0.86084,0.190918,0
3920,0.382324,-0.878418,0.185547,0
3940,0.376953,-0.884766,0.203125,0
3960,0.378418,-0.890625,0.206055,0
3980,0.390625,-0.889648,0.184082,0
4000,0.397461,-0.895996,0.147461,0
4020,0.414551,-0.895996,0.150879,0
4040,0.405762,-0.884766,0.161133,0
4060,0.39209,-0.871094,0.143555,0
4080,0.359863,-0.858398,0.166992,0
4100,0.387207,-0.86084,0.177246,0
4120,0.39209,-0.907715,0.177246,0
4140,0.385254,-0.898926,0.178223,0
4160,0.383789,-0.889648,0.162598,0
4180,0.370605,-0.886719,0.15625,0
4200,0.375,-0.861328,0.174805,0
4220,0.38916,-0.885254,0.17627,0
4240,0.407227,-0.902832,0.166504,0
4260,0.429199,-0.874023,0.154297,0
4280,0.396973,-0.869141,0.178223,0
4300,0.378906,-0.86377,0.163086,0
4320,0.401367,-0.87793,0.166992,0
4340,0.405762,-0.912598,0.183105,0
4360,0.402344,-0.884766,0.182129,0
4380,0.399414,-0.834473,0.152344,0
4400,0.391602,-0.84375,0.203613,0
4420,0.398438,-0.878906,0.171875,0
4440,0.41748,-0.871094,0.160645,0
4460,0.393066,-0.891113,0.187012,0
4480,0.38623,-0.870117,0.185547,0
4500,0.400879,-0.862305,0.179688,0
4520,0.40332,-0.900879,0.152344,0
4540,0.410156,-0.905273,0.158691,0
4560,0.399414,-0.883789,0.153809,0
4580,0.404297,-0.859863,0.162598,0
4600,0.400879,-0.86084,0.171387,0
4620,0.387695,-0.884277,0.158203,0
4640,0.397461,-0.888184,0.17334,0
4660,0.407227,-0.869141,0.165039,0
4680,0.408203,-0.84668,0.163086,0
4700,0.40332,-0.844238,0.178223,0
4720,0.404785,-0.884277,0.182617,0
4740,0.416016,-0.88623,0.175293,0
4760,0.419434,-0.878418,0.155273,0
4780,0.420898,-0.88916,0.166016,0
4800,0.413574,-0.895508,0.192383,0
4820,0.428223,-0.864258,0.152344,0
4840,0.394043,-0.834961,0.201172,0
4860,0.387695,-0.853516,0.178711,0
4880,0.40332,-0.88916,0.160645,0
4900,0.39502,-0.860352,0.193848,0
4920,0.38623,-0.820312,0.193359,0
4940,0.376465,-0.853516,0.164062,0
4960,0.405273,-0.859863,0.171875,0
4980,0.402832,-0.833008,0.15625,0
5000,0.417969,-0.833496,0.152832,0
5020,0.374023,-0.866699,0.168457,0
5040,0.368164,-0.877441,0.177246,0
5060,0.402344,-0.885254,0.18457,0
5080,0.431152,-0.893555,0.145508,0
5100,0.415527,-0.842285,0.19043,0
5120,0.387207,-0.840332,0.20459,0
5140,0.399414,-0.878906,0.163574,0
5160,0.400391,-0.909668,0.183594,0
5180,0.410645,-0.93457,0.19873,0
5200,0.397461,-0.916504,0.196289,0
5220,0.389648,-0.890137,0.194824,0
5240,0.398926,-0.867676,0.197266,0
5260,0.40918,-0.855469,0.1875,0
5280,0.40918,-0.864746,0.186035,0
5300,0.387207,-0.879883,0.169922,0
5320,0.379395,-0.878906,0.174805,0
5340,0.39502,-0.864258,0.197754,0
5360,0.393555,-0.87793,0.199707,0
5380,0.383789,-0.87793,0.182617,0
5400,0.382324,-0.862305,0.197754,0
5420,0.378906,-0.867676,0.193359,0
5440,0.395508,-0.855469,0.180176,0
5460,0.384277,-0.852539,0.196289,0
5480,0.384277,-0.853516,0.204102,0
5500,0.384277,-0.85791,0.197754,0
5520,0.390625,-0.853516,0.193359,0
5540,0.391602,-0.881348,0.178711,0
5560,0.382812,-0.905273,0.174805,0
5580,0.385254,-0.901367,0.180664,0
5600,0.388672,-0.873535,0.175781,0
5620,0.39209,-0.858398,0.181641,0
5640,0.390137,-0.838867,0.211914,0
5660,0.393555,-0.873047,0.177734,0
5680,0.394043,-0.898438,0.178223,0
5700,0.381348,-0.877441,0.213867,0
5720,0.361816,-0.863281,0.226562,0
5740,0.373535,-0.865234,0.195312,0
5760,0.407227,-0.897461,0.171875,0
5780,0.373047,-0.894043,0.214355,0
5800,0.353027,-0.861816,0.211914,0
5820,0.352051,-0.873535,0.208008,0
5840,0.374512,-0.890137,0.191895,0
5860,0.356934,-0.881348,0.20752,0
5880,0.352051,-0.868164,0.206055,0
5900,0.369141,-0.866699,0.191406,0
5920,0.374512,-0.901367,0.181152,0
5940,0.378906,-0.899902,0.203125,0
5960,0.376953,-0.893555,0.211426,0
5980,0.378418,-0.898438,0.194336,0
6000,0.378418,-0.867676,0.191895,0
6020,0.362305,-0.855957,0.229004,0
6040,0.375488,-0.888672,0.21582,0
6060,0.361328,-0.907227,0.197754,0
6080,0.366211,-0.900879,0.209961,0
6100,0.367188,-0.869141,0.222656,0
6120,0.370605,-0.849121,0.243652,0
6140,0.360352,-0.857422,0.224121,0
6160,0.353027,-0.861328,0.226562,0
6180,0.380859,-0.876465,0.195312,0
6200,0.371582,-0.879883,0.221191,0
6220,0.365723,-0.881348,0.212402,0
6240,0.368652,-0.866699,0.195312,0
6260,0.375488,-0.867676,0.182129,0
6280,0.373047,-0.863281,0.20459,0
6300,0.352539,-0.847168,0.226074,0
6320,0.356934,-0.867188,0.225098,0
6340,0.362793,-0.885254,0.226562,0
6360,0.348633,-0.870605,0.242676,0
6380,0.341309,-0.860352,0.223145,0
6400,0.337402,-0.856934,0.238281,0
6420,0.32666,-0.87793,0.249023,0
6440,0.347656,-0.897949,0.22998,0
6460,0.344727,-0.920898,0.251953,0
6480,0.337891,-0.92334,0.229004,0
6500,0.359863,-0.856934,0.236328,0
6520,0.353516,-0.82373,0.229004,0
6540,0.355469,-0.866699,0.245605,0
6560,0.369629,-0.928223,0.221191,0
6580,0.345703,-0.920898,0.238281,0
6600,0.337891,-0.894531,0.263184,0
6620,0.344727,-0.898926,0.242188,0
6640,0.352539,-0.879883,0.232422,0
6660,0.340332,-0.856934,0.233887,0
6680,0.328613,-0.840332,0.242676,0
6700,0.329102,-0.870605,0.254883,0
6720,0.341797,-0.915039,0.261719,0
6740,0.331055,-0.903809,0.253906,0
6760,0.313965,-0.858887,0.233398,0
6780,0.296875,-0.832031,0.224121,0
6800,0.292969,-0.823242,0.266113,0
6820,0.291016,-0.777344,0.313965,0
6840,0.257812,-0.759277,0.31543,0
6860,0.199219,-0.743652,0.307617,0
6880,0.133789,-0.716309,0.333496,0
6900,0.10791,-0.696777,0.336914,0
6920,0.0966797,-0.724609,0.293457,0
6940,0.141602,-0.765625,0.227051,0
6960,0.270508,-0.780273,0.224121,0
6980,0.352051,-0.790039,0.262207,0
7000,0.314941,-0.834961,0.316895,0
7020,0.200195,-0.851562,0.323242,0
7040,0.10791,-0.841797,0.356934,0
7060,0.0712891,-0.891602,0.349121,0
7080,0.0893555,-0.987793,0.400391,0
7100,0.081543,-1.01416,0.459961,0
7120,0.0332031,-1.26367,0.452148,0
7150,-0.0795898,-1.06836,0.436523,0
7170,0.000976562,-1.07568,0.40332,0
7190,0.00927734,-1.01416,0.381836,0
7210,-0.0195312,-1.00732,0.349121,0
7230,-0.0268555,-1.00098,0.354492,0
7240,-0.0385742,-0.959961,0.359375,0
7270,-0.0786133,-0.896973,0.382812,0
7290,-0.0961914,-0.874512,0.414551,0
7310,-0.116699,-0.842285,0.447754,0
7330,-0.115723,-0.831055,0.455078,0
7350,-0.119629,-0.80127,0.466797,0
7370,-0.11084,-0.804688,0.472168,0
7390,-0.113281,-0.822266,0.463867,0
7410,-0.117188,-0.819824,0.467773,0
7430,-0.115723,-0.848145,0.452148,0
7450,-0.107422,-0.85791,0.441895,0
7470,-0.106934,-0.865234,0.453613,0
7490,-0.0957031,-0.873535,0.449707,0
7510,-0.0942383,-0.883789,0.429688,0
7550,-0.0957031,-0.877441,0.44043,0
7580,-0.0844727,-0.830566,0.48877,0
7610,-0.0874023,-0.844727,0.490723,0
7640,-0.0981445,-0.816895,0.472656,0
7670,-0.0927734,-0.852539,0.467285,0
7690,-0.105957,-0.842285,0.463867,0
7710,-0.112793,-0.834473,0.476074,0
7730,-0.106934,-0.848145,0.459473,0
7760,-0.105469,-0.828613,0.469727,0
7780,-0.123047,-0.843262,0.478027,0
7800,-0.121094,-0.84668,0.470703,0
7820,-0.112793,-0.836914,0.486816,0
7840,-0.0908203,-0.831543,0.470703,0
7880,-0.102539,-0.87793,0.445801,0
7900,-0.0952148,-0.912598,0.428223,0
7920,-0.0976562,-0.912598,0.436523,0
7940,-0.109863,-0.921875,0.437988,0
7960,-0.109375,-0.932617,0.409668,0
7980,-0.0859375,-0.939453,0.42627,0
8000,-0.00390625,-0.973145,0.427734,0
8020,0.0600586,-0.995605,0.432617,0
8040,0.000976562,-1.01367,0.408203,0
8060,0.09375,-1.0957,0.435547,0
8100,0.0566406,-1.00977,0.316895,0
8120,0.0961914,-0.908203,0.286621,0
8140,0.175781,-0.871094,0.337891,0
8160,0.200684,-0.957031,0.336914,0
8180,0.160156,-1.02051,0.341309,0
8200,0.148926,-1.00977,0.322754,0
8220,0.168457,-0.996094,0.30957,0
8240,0.197266,-0.975586,0.302734,0
8260,0.201172,-0.91748,0.286133,0
8280,0.169922,-0.879883,0.256836,0
8300,0.145996,-0.850098,0.237793,0
8320,0.149414,-0.820801,0.26123,0
8340,0.138184,-0.833008,0.236328,0
8360,0.0830078,-0.871582,0.258789,0
8380,0.050293,-0.87793,0.294434,0
8400,0.081543,-0.933105,0.268066,0
8420,0.0986328,-0.931641,0.247559,0
8440,0.103027,-0.885742,0.23584,0
8460,0.109863,-0.84375,0.226074,0
8480,0.113281,-0.834473,0.209473,0
8500,0.140137,-0.881836,0.208008,0
8520,0.163574,-0.924805,0.178223,0
8540,0.179199,-0.942871,0.156738,0
8560,0.180664,-0.909668,0.169922,0
8580,0.165039,-0.870117,0.165527,0
8600,0.13916,-0.880371,0.152832,0
8620,0.161133,-0.933105,0.137695,0
8640,0.195312,-0.937012,0.13623,0
8660,0.205078,-0.934082,0.128418,0
8680,0.212402,-0.913574,0.114746,0
8700,0.247559,-0.924316,0.0737305,0
8720,0.28418,-0.971191,0.097168,0
8740,0.271973,-0.977539,0.105469,0
8760,0.239746,-0.978027,0.0991211,0
8780,0.244141,-0.98291,0.0600586,0
8800,0.228027,-0.960449,0.0864258,0
8820,0.223633,-0.940918,0.100098,0
8840,0.245117,-0.901367,0.0825195,0
8860,0.255371,-0.896973,0.0629883,0
8880,0.256348,-0.905762,0.0859375,0
8900,0.245117,-0.949707,0.0883789,0
8920,0.241699,-0.94873,0.0532227,0
8940,0.247559,-0.942871,0.0874023,0
8960,0.252441,-0.933594,0.0839844,0
8980,0.249512,-0.929688,0.115234,0
9000,0.253906,-0.935547,0.108398,0
9020,0.265137,-0.933594,0.0756836,0
9040,0.261719,-0.943848,0.0693359,0
9060,0.257812,-0.966797,0.0776367,0
9080,0.249512,-0.95166,0.0849609,0
9100,0.258789,-0.958008,0.0463867,0
9120,0.254395,-0.977051,0.065918,0
9140,0.265137,-0.985352,0.0751953,0
9150,0.258789,-0.958496,0.111328,0
9170,0.24707,-0.972656,0.0756836,0
9190,0.232422,-0.972656,0.0859375,0
9210,0.220703,-0.97168,0.0883789,0
9230,0.21875,-0.981445,0.0839844,0
9250,0.211914,-0.977539,0.0961914,0
9270,0.217773,-0.952637,0.0761719,0
9290,0.211914,-0.964355,0.0561523,0
9310,0.226562,-0.947266,0.0874023,0
9330,0.237793,-0.95459,0.100098,0
9350,0.22168,-0.98291,0.074707,0
9370,0.200684,-1.00879,0.0727539,0
9390,0.162598,-0.981445,0.097168,0
9410,0.173828,-0.949219,0.112793,0
9430,0.184082,-0.945801,0.107422,0
9450,0.168457,-0.98291,0.0957031,0
9470,0.141113,-0.98877,0.102051,0
9490,0.138184,-1.00879,0.114258,0
9510,0.165039,-0.99707,0.109863,0
9530,0.180664,-0.983887,0.107422,0
9550,0.168457,-0.943848,0.0957031,0
9570,0.151855,-0.943359,0.109863,0
9590,0.148438,-0.966797,0.0961914,0
9610,0.152344,-1,0.0908203,0
9630,0.147949,-0.975586,0.0859375,2000
9650,0.124512,-0.952148,0.101074,0
9670,0.123535,-0.958984,0.110352,0
9690,0.120117,-0.964355,0.0810547,0
9710,0.125488,-0.973633,0.0771484,0
9730,0.120605,-0.996582,0.0869141,0
9750,0.131836,-1.00146,0.103516,0
9770,0.153809,-1.02295,0.112793,0
9790,0.184082,-1.01709,0.0874023,0
9810,0.183594,-0.990234,0.0673828,0
9830,0.171875,-0.963867,0.0668945,0
9850,0.143066,-0.963867,0.0581055,0
9870,0.109863,-0.979004,0.0761719,0
9890,0.112305,-0.998535,0.108398,0
9910,0.133789,-0.995117,0.111816,0
9930,0.108398,-0.974609,0.0986328,0
9950,0.0766602,-0.954102,0.100586,0
9970,0.0898438,-0.947754,0.118652,0
9990,0.12793,-0.974609,0.101562,0
10010,0.136719,-0.996582,0.100098,0
10030,0.145508,-0.99707,0.0981445,0
10050,0.138672,-0.977539,0.0996094,0
10070,0.125488,-0.963867,0.0913086,0
10090,0.0981445,-0.981934,0.078125,0
10110,0.0864258,-0.972656,0.0966797,0
10130,0.081543,-0.944336,0.120605,0
10150,0.0825195,-0.937988,0.0917969,0
10170,0.0947266,-0.946289,0.101562,0
10190,0.11377,-0.957031,0.113281,0
10210,0.124023,-0.967773,0.101074,0
10230,0.12207,-0.973145,0.0981445,0
10250,0.121582,-0.984375,0.102051,0
10270,0.14502,-0.991211,0.118164,0
10290,0.182129,-0.984863,0.104492,0
10310,0.19873,-0.996094,0.0712891,0
10330,0.19043,-0.988281,0.0634766,0
10350,0.193359,-0.983398,0.0766602,0
10370,0.216309,-1.00684,0.0668945,0
10390,0.231934,-1.01611,0.0625,0
10410,0.194824,-0.990234,0.0756836,0
10430,0.168457,-0.978027,0.0761719,0
10450,0.187988,-0.979492,0.0458984,0
10470,0.216797,-0.971191,0.0483398,0
10490,0.193359,-0.945312,0.0805664,0
10510,0.174805,-0.933594,0.0932617,0
10530,0.207031,-0.945312,0.103027,0
10550,0.242188,-0.962402,0.0834961,0
10570,0.240723,-0.959473,0.0634766,0
10590,0.262695,-0.956543,0.0566406,0
10610,0.297363,-0.975098,0.0786133,0
10630,0.276855,-0.940918,0.103516,0
10650,0.236816,-0.927734,0.0908203,0
10670,0.209473,-0.939453,0.0732422,0
10690,0.261719,-0.946777,0.0966797,0
10710,0.287598,-0.933594,0.106445,0
10730,0.236816,-0.939453,0.0864258,0
10750,0.231934,-0.95166,0.0766602,0
10770,0.314453,-0.957031,0.0961914,0
10790,0.358887,-0.966309,0.116211,0
10810,0.31543,-0.913574,0.0952148,0
10830,0.253906,-0.895996,0.0527344,0
10850,0.28418,-0.904297,0.0683594,0
10870,0.369629,-0.913574,0.114258,0
10890,0.381348,-0.928223,0.0947266,0
10910,0.314453,-0.907715,0.0996094,0
10930,0.287598,-0.924316,0.0703125,0
10950,0.341797,-0.940918,0.0766602,0
10970,0.369629,-0.934082,0.116699,0
10990,0.318359,-0.909668,0.13623,0
11010,0.307129,-0.914062,0.100098,0
11030,0.350586,-0.931152,0.109375,0
11050,0.373047,-0.927246,0.144043,0
11070,0.358398,-0.912598,0.141602,0
11090,0.343262,-0.909668,0.132324,0
11110,0.354004,-0.918945,0.136719,0
11130,0.393066,-0.912598,0.15332,0
11150,0.380371,-0.898926,0.150879,0
11170,0.351562,-0.878418,0.154785,0
11190,0.362305,-0.869629,0.157227,0
11210,0.412109,-0.891113,0.151367,0
11230,0.433105,-0.905273,0.146973,0
11250,0.402832,-0.880371,0.15918,0
11270,0.373047,-0.861816,0.177246,0
11290,0.36377,-0.851562,0.17627,0
11310,0.406738,-0.879883,0.165527,0
11330,0.462402,-0.89502,0.156738,0
11350,0.464355,-0.877441,0.161621,0
11370,0.445312,-0.850098,0.159668,0
11390,0.45166,-0.835938,0.163574,0
11410,0.470703,-0.85498,0.135254,0
11430,0.474609,-0.84082,0.145508,0
11450,0.46582,-0.848145,0.15918,0
11470,0.46582,-0.84082,0.17041,0
11490,0.48877,-0.82959,0.189453,0
11510,0.509766,-0.848633,0.178711,0
11530,0.483887,-0.84375,0.186523,0
11550,0.475586,-0.822754,0.189941,0
11570,0.462891,-0.824219,0.208984,0
11590,0.472168,-0.816406,0.214355,0
11610,0.486816,-0.827148,0.19873,0
11630,0.492676,-0.831055,0.202637,0
11650,0.5,-0.817383,0.208496,0
11670,0.482422,-0.793457,0.195801,0
11690,0.490723,-0.824707,0.177246,0
11710,0.512695,-0.847656,0.192383,0
11730,0.520996,-0.841797,0.22168,0
11750,0.498535,-0.821289,0.233887,0
11770,0.494629,-0.814941,0.23877,0
11790,0.521973,-0.796387,0.228027,0
11810,0.528809,-0.808594,0.227539,0
11830,0.526367,-0.819824,0.22998,0
11850,0.518555,-0.819824,0.24707,0
11870,0.524902,-0.835938,0.231445,0
11890,0.54834,-0.824219,0.227051,0
11910,0.545898,-0.8125,0.241699,0
11930,0.491699,-0.823242,0.230957,0
11950,0.45752,-0.833984,0.251465,0
11970,0.47998,-0.838867,0.283203,0
11990,0.505859,-0.834961,0.270508,0
12010,0.527832,-0.822754,0.245117,0
12030,0.544922,-0.806152,0.219727,0
12050,0.505371,-0.836914,0.265625,0
12070,0.38916,-0.793945,0.339844,0
12090,0.343262,-0.841309,0.339844,0
12110,0.395996,-0.867676,0.32959,0
12130,0.386719,-0.82959,0.341797,0
12150,0.367676,-0.822754,0.333496,0
12170,0.393555,-0.818359,0.328613,0
12190,0.419434,-0.818359,0.304688,0
12210,0.403809,-0.802734,0.293457,0
12230,0.381836,-0.804688,0.278809,0
12250,0.349121,-0.834473,0.273926,0
12270,0.348633,-0.856934,0.308594,0
12290,0.334473,-0.859375,0.291992,0
12310,0.305664,-0.857422,0.276855,0
12330,0.26416,-0.868164,0.286621,0
12350,0.26709,-0.874023,0.307129,0
12370,0.306152,-0.855957,0.316895,0
12390,0.336914,-0.863281,0.284668,0
12410,0.348633,-0.860352,0.277344,0
12430,0.330566,-0.877441,0.28418,0
12450,0.328613,-0.877441,0.30127,0
12470,0.319824,-0.88916,0.292969,0
12490,0.314941,-0.891602,0.274902,0
12510,0.318848,-0.879883,0.312012,0
12530,0.311523,-0.871582,0.29834,0
12550,0.302734,-0.865234,0.286621,0
12570,0.314453,-0.876465,0.288086,0
12590,0.293945,-0.858887,0.29541,0
12600,0.271484,-0.844727,0.303711,0
12620,0.271973,-0.84668,0.282715,0
12640,0.283691,-0.875,0.289551,0
12660,0.287109,-0.895996,0.273438,0
12680,0.289062,-0.887207,0.267578,0
12700,0.290527,-0.879883,0.269531,0
12720,0.289062,-0.872559,0.282715,0
12740,0.273438,-0.877441,0.271973,0
12760,0.258789,-0.881348,0.250977,0
12780,0.269531,-0.887207,0.242188,0
12800,0.283691,-0.899902,0.257324,0
12820,0.271973,-0.899902,0.240234,0
12840,0.262695,-0.878906,0.226074,0
12860,0.270996,-0.876953,0.23291,0
12880,0.243652,-0.880859,0.225586,0
12900,0.203125,-0.883301,0.213379,0
12920,0.213379,-0.90332,0.194824,0
12940,0.264648,-0.924805,0.224609,0
12960,0.279785,-0.917969,0.254883,0
12980,0.247559,-0.905273,0.227051,0
13000,0.216309,-0.931152,0.209473,0
13020,0.216797,-0.961426,0.22168,0
13040,0.22168,-0.946777,0.231934,0
13060,0.217285,-0.928711,0.226074,0
13080,0.21582,-0.905762,0.208984,0
13100,0.223145,-0.913086,0.203613,0
13120,0.229004,-0.925781,0.211914,0
13140,0.232422,-0.932617,0.189453,0
13160,0.235352,-0.933594,0.195312,0
13180,0.221191,-0.943359,0.20752,0
13200,0.208984,-0.947754,0.194824,0
13220,0.216309,-0.949707,0.20166,0
13240,0.234375,-0.937012,0.200684,0
13260,0.223145,-0.933594,0.188965,0
13280,0.214355,-0.937988,0.179688,0
13300,0.225586,-0.958984,0.180664,0
13320,0.22998,-0.947754,0.19043,0
13340,0.212891,-0.939453,0.172363,0
13360,0.21875,-0.960938,0.161133,0
13380,0.237793,-0.95459,0.184082,0
13400,0.212891,-0.955566,0.161133,0
13420,0.216309,-0.959961,0.17334,0
13440,0.206543,-0.942383,0.181152,0
13460,0.194336,-0.920898,0.145996,0
13480,0.217773,-0.936035,0.147461,0
13500,0.224609,-0.933105,0.184082,0
13520,0.206055,-0.939453,0.169434,0
13540,0.188477,-0.929688,0.148926,0
13560,0.205566,-0.927246,0.148926,0
13580,0.231445,-0.941895,0.15332,0
13600,0.215332,-0.931152,0.13916,0
13620,0.197754,-0.930176,0.138184,0
13640,0.207031,-0.933105,0.129395,0
13660,0.22168,-0.930664,0.119141,0
13680,0.202148,-0.927734,0.109863,0
13700,0.186035,-0.930176,0.0996094,0
13720,0.174805,-0.939453,0.0932617,0
13740,0.17627,-0.937012,0.0776367,0
13760,0.221191,-0.956055,0.0756836,0
13780,0.263672,-0.963379,0.117676,0
13800,0.228516,-0.974121,0.106934,0
13820,0.201172,-0.98584,0.0805664,0
13840,0.223633,-1.00439,0.0717773,0
13860,0.224121,-1.00244,0.0610352,0
13880,0.205078,-0.990234,0.0541992,0
13900,0.21875,-0.986328,0.0439453,0
13920,0.232422,-0.967285,0.0341797,0
13940,0.203125,-0.953125,0.0258789,0
13960,0.189453,-0.961426,0.00878906,0
13980,0.217285,-0.970703,0.0322266,0
14000,0.213867,-0.975098,0.0463867,0
14020,0.206543,-0.991211,-0.00195312,0
14040,0.217285,-0.990723,-0.0258789,0
14060,0.213379,-0.967773,0.00585938,0
14080,0.191895,-0.959961,0.0102539,0
14100,0.201172,-0.973145,-0.0336914,0
14120,0.222656,-0.975098,-0.0273438,0
14140,0.234375,-0.964844,-0.00634766,0
14160,0.226074,-0.964844,-0.0263672,0
14180,0.231934,-0.967285,-0.0395508,0
14200,0.232422,-0.95752,-0.00292969,0
14220,0.229004,-0.944824,0.00634766,0
14240,0.243652,-0.97168,-0.0239258,0
14260,0.277344,-0.989746,-0.0356445,0
14280,0.276367,-0.952637,0.00585938,0
14300,0.236816,-0.915527,-0.0136719,0
14320,0.230469,-0.93457,-0.050293,0
14340,0.256836,-0.94873,-0.0405273,0
14360,0.252441,-0.938477,0.00195312,0
14380,0.228027,-0.949219,-0.0439453,0
14400,0.226562,-0.963867,-0.0629883,0
14420,0.214355,-0.936523,-0.00732422,0
14440,0.203125,-0.903809,-0.0175781,0
14460,0.260254,-0.941895,-0.0864258,0
14480,0.367676,-0.95459,-0.0317383,0
14500,0.40625,-0.942383,-0.00488281,0
14520,0.327148,-0.935547,-0.0224609,0
14540,0.282715,-0.943848,-0.0473633,0
14560,0.331543,-0.93457,-0.0200195,0
14580,0.398926,-0.941406,-0.00927734,0
14600,0.383789,-0.9375,-0.0375977,0
14610,0.354492,-0.935547,-0.0908203,0
14630,0.374023,-0.938965,-0.090332,0
14650,0.410645,-0.942383,-0.0546875,0
14670,0.40625,-0.915527,-0.015625,0
14690,0.365723,-0.912109,-0.0512695,0
14710,0.369629,-0.960449,-0.120605,0
14730,0.437012,-0.970703,-0.0625,0
14750,0.454102,-0.91748,0.0302734,0
14770,0.390625,-0.875488,0.0224609,0
14790,0.359375,-0.927734,-0.117188,0
14810,0.443848,-0.953613,-0.0791016,0
14830,0.496582,-0.901367,0.0488281,0
14850,0.447754,-0.859375,0.0493164,0
14870,0.382324,-0.887695,-0.074707,0
14890,0.419434,-0.910156,-0.0844727,0
14910,0.480469,-0.905273,0.0195312,0
14930,0.469238,-0.860352,0.0488281,0
14950,0.436035,-0.868652,-0.0244141,0
14970,0.455566,-0.896484,-0.0512695,0
14990,0.475586,-0.85791,0.0205078,0
15010,0.440918,-0.82373,0.0385742,0
15030,0.448242,-0.832031,-0.0141602,0
15050,0.549805,-0.833984,-0.027832,0
15070,0.591309,-0.817871,0.0268555,0
15090,0.541504,-0.80127,0.0205078,0
15110,0.490234,-0.818359,-0.0317383,0
15130,0.524414,-0.855957,-0.0385742,0
15150,0.57666,-0.853027,0.0322266,0
15170,0.565918,-0.839355,0.0410156,0
15190,0.524414,-0.812988,-0.00244141,0
15210,0.523438,-0.818848,-0.0517578,0
15230,0.523926,-0.812012,-0.00195312,0
15250,0.55957,-0.794922,0.0351562,0
15270,0.60791,-0.810547,0.00683594,0
15290,0.60498,-0.811523,0.00244141,0
15310,0.570312,-0.78418,0.0166016,0
15330,0.581543,-0.802734,0.0102539,0
15350,0.605957,-0.808105,0.0214844,0
15370,0.587402,-0.774902,0.043457,0
15390,0.582031,-0.771484,0.0229492,0
15410,0.621582,-0.79541,0.00976562,0
15430,0.635742,-0.777832,0.0668945,0
15450,0.606445,-0.740723,0.0825195,0
15470,0.569824,-0.743164,0.0639648,0
15490,0.570312,-0.761719,0.0595703,0
15510,0.603027,-0.771973,0.059082,0
15530,0.646484,-0.775879,0.0932617,0
15550,0.655762,-0.746094,0.107422,0
15570,0.629395,-0.743164,0.0942383,0
15590,0.598145,-0.772949,0.0864258,0
15610,0.605469,-0.775879,0.097168,0
15630,0.620605,-0.768555,0.119141,0
15650,0.623535,-0.753418,0.11377,0
15670,0.635742,-0.762207,0.0859375,0
15690,0.639648,-0.764648,0.0986328,0
15710,0.634277,-0.762207,0.116211,0
15730,0.644531,-0.764648,0.10498,0
15750,0.66748,-0.760254,0.100586,0
15770,0.651855,-0.759766,0.130371,0
15790,0.602051,-0.734375,0.137695,0
15810,0.604004,-0.740723,0.126953,0
15830,0.637207,-0.737793,0.13916,0
15850,0.650879,-0.736816,0.151855,0
15870,0.660156,-0.731934,0.138184,0
15890,0.648926,-0.737793,0.137207,0
15910,0.640625,-0.722168,0.163574,0
15930,0.628418,-0.728516,0.178223,0
15950,0.641113,-0.73877,0.156738,0
15970,0.654297,-0.723145,0.155273,0
15990,0.629883,-0.717773,0.192383,0
16010,0.603516,-0.719238,0.187988,0
16030,0.599609,-0.743652,0.18457,0
16050,0.608887,-0.733398,0.192871,0
16070,0.604004,-0.744629,0.169434,0
16090,0.578613,-0.74707,0.188965,0
16110,0.56543,-0.731445,0.22998,0
16130,0.604004,-0.750977,0.216797,0
16150,0.652344,-0.758301,0.172852,0
16170,0.679688,-0.748047,0.18457,0
16190,0.633789,-0.711914,0.226562,0
16210,0.591797,-0.692383,0.211914,0
16230,0.580566,-0.708984,0.200195,0
16250,0.584961,-0.726074,0.204102,0
16270,0.566895,-0.730957,0.220215,0
16290,0.560547,-0.719727,0.236816,0
16310,0.569824,-0.714844,0.243164,0
16330,0.569336,-0.726562,0.210938,0
16350,0.560547,-0.731445,0.201172,0
16370,0.54541,-0.733398,0.227539,0
16390,0.546875,-0.773926,0.229492,0
16410,0.564941,-0.804199,0.228027,0
16430,0.569824,-0.800293,0.235352,0
16450,0.564453,-0.814941,0.21875,0
16470,0.540527,-0.796387,0.264648,0
16490,0.494141,-0.793457,0.273438,0
16510,0.463379,-0.811523,0.25,0
16530,0.455566,-0.808105,0.236816,0
16550,0.424805,-0.771484,0.279297,0
16570,0.405762,-0.743164,0.26416,0
16590,0.474609,-0.784668,0.242676,0
16610,0.53125,-0.807129,0.250977,0
16630,0.543945,-0.808105,0.250488,0
16650,0.500977,-0.819824,0.239258,0
16670,0.469727,-0.817871,0.253418,0
16690,0.476074,-0.835938,0.249512,0
16710,0.477051,-0.860352,0.236816,0
16730,0.457031,-0.84668,0.262207,0
16750,0.449707,-0.818359,0.265137,0
16770,0.459473,-0.80127,0.240723,0
16790,0.447266,-0.791504,0.246582,0
16810,0.392578,-0.804199,0.254883,0
16830,0.396973,-0.816406,0.262207,0
16850,0.444336,-0.840332,0.257324,0
16870,0.459961,-0.831055,0.253906,0
16890,0.449219,-0.815918,0.23877,0
16910,0.455078,-0.814453,0.227539,0
16930,0.425293,-0.810547,0.274902,0
16950,0.370605,-0.799316,0.256348,0
16970,0.382324,-0.839355,0.223145,0
16990,0.416992,-0.84375,0.231934,0
17010,0.419922,-0.838867,0.256836,0
17030,0.38916,-0.825684,0.233398,0
17050,0.37207,-0.82959,0.218262,0
17070,0.401855,-0.83252,0.229492,0
17090,0.416016,-0.836914,0.244629,0
17110,0.378906,-0.849609,0.214844,0
17130,0.40332,-0.887207,0.188477,0
17150,0.407227,-0.895508,0.23877,0
17170,0.359863,-0.874512,0.232422,0
17190,0.393555,-0.869141,0.189941,0
17210,0.43457,-0.871582,0.232422,0
17230,0.387207,-0.859375,0.23877,0
17250,0.358398,-0.875488,0.212402,0
17270,0.353516,-0.87207,0.208008,0
17290,0.368652,-0.876465,0.20459,0
17310,0.365723,-0.875977,0.196289,0
17330,0.342285,-0.875,0.179199,0
17350,0.368652,-0.869141,0.160156,0
17370,0.37793,-0.866699,0.213867,0
17390,0.333496,-0.858887,0.193848,0
17410,0.344727,-0.895996,0.162598,0
17430,0.354004,-0.912598,0.179199,0
17450,0.34668,-0.898926,0.191406,0
17470,0.334961,-0.876953,0.196777,0
17490,0.32959,-0.864746,0.169922,0
17510,0.33252,-0.876465,0.135254,0
17530,0.359863,-0.891602,0.11084,0
17550,0.389648,-0.886719,0.158691,0
17570,0.364746,-0.881348,0.15332,0
17590,0.344727,-0.89209,0.0986328,0
17610,0.356934,-0.925293,0.0488281,0
17630,0.355469,-0.926758,0.0849609,0
17650,0.334473,-0.904297,0.115234,0
17670,0.352539,-0.912109,0.0698242,0
17690,0.367188,-0.946777,0.0883789,0
17710,0.330566,-0.944336,0.101074,0
17730,0.344727,-0.921387,0.0610352,0
17750,0.36377,-0.933105,0.0639648,0
17770,0.37793,-0.923828,0.0820312,0
17790,0.355957,-0.919922,0.0795898,0
17810,0.347168,-0.918945,0.0566406,0
17830,0.380371,-0.934082,0.0332031,0
17850,0.379883,-0.953125,0.0541992,0
17870,0.352539,-0.936035,0.0546875,0
17890,0.348633,-0.921387,0.0292969,0
17910,0.341797,-0.906738,0.00292969,0
17930,0.32373,-0.913086,0.00927734,0
17950,0.310059,-0.915527,0.0180664,0
17970,0.333984,-0.916016,-0.012207,0
17990,0.345215,-0.932617,-0.0205078,0
18010,0.330078,-0.92334,-0.0200195,0
18030,0.309082,-0.92041,-0.0141602,0
18050,0.330566,-0.919434,-0.0454102,0
18060,0.337402,-0.922363,-0.0395508,0
18080,0.296387,-0.890625,-0.0351562,0
18100,0.290527,-0.90918,-0.0537109,0
18120,0.349609,-0.962402,-0.0825195,0
18140,0.419922,-0.97998,-0.0424805,0
18160,0.422852,-0.92627,-0.0390625,0
18180,0.379395,-0.899414,-0.0639648,0
18200,0.348145,-0.878418,-0.0800781,0
18220,0.350586,-0.884277,-0.0834961,0
18240,0.372559,-0.89502,-0.0639648,0
18260,0.370605,-0.908203,-0.0649414,0
18280,0.347168,-0.927246,-0.0883789,0
18300,0.34375,-0.942871,-0.0874023,0
18320,0.359375,-0.949219,-0.0922852,0
18340,0.370117,-0.939453,-0.0908203,0
18360,0.370117,-0.911621,-0.104492,0
18380,0.370117,-0.90625,-0.0952148,0
18400,0.371582,-0.902832,-0.102539,0
18420,0.383301,-0.906738,-0.121094,0
18440,0.387207,-0.897949,-0.122559,0
18460,0.380859,-0.872559,-0.104004,0
18480,0.382324,-0.885254,-0.130859,0
18500,0.416992,-0.906738,-0.151367,0
18520,0.437012,-0.910645,-0.120117,0
18540,0.458496,-0.868652,-0.108398,0
18560,0.492676,-0.859863,-0.163574,0
18580,0.512695,-0.876953,-0.168945,0
18600,0.495605,-0.860352,-0.125,0
18620,0.473633,-0.853027,-0.122559,0
18640,0.494141,-0.852539,-0.163086,0
18660,0.49707,-0.866211,-0.146973,0
18680,0.490723,-0.882324,-0.118652,0
18700,0.503418,-0.85498,-0.123047,0
18720,0.518066,-0.813965,-0.145508,0
18740,0.503418,-0.799316,-0.140137,0
18760,0.491699,-0.809082,-0.14502,0
18780,0.489258,-0.822266,-0.148926,0
18800,0.5,-0.849609,-0.130859,0
18820,0.524414,-0.858887,-0.126465,0
18840,0.539551,-0.818848,-0.138672,0
18860,0.549805,-0.776855,-0.158203,0
18880,0.567871,-0.759766,-0.175293,0
18900,0.593262,-0.789062,-0.186035,0
18920,0.608398,-0.819824,-0.162598,0
18940,0.586426,-0.821777,-0.129883,0
18960,0.568848,-0.805664,-0.154785,0
18980,0.601562,-0.805176,-0.208496,0
19000,0.630859,-0.793457,-0.166992,0
19020,0.619629,-0.761719,-0.122559,0
19040,0.587891,-0.731445,-0.183594,0
19060,0.602051,-0.743652,-0.218262,0
19080,0.662598,-0.774902,-0.181641,0
19100,0.665527,-0.768555,-0.125,0
19120,0.653809,-0.729004,-0.127441,0
19140,0.65332,-0.742676,-0.212891,0
19160,0.677734,-0.766113,-0.216797,0
19180,0.692871,-0.744141,-0.172852,0
19200,0.67334,-0.716797,-0.132812,0
19220,0.67041,-0.714844,-0.161621,0
19240,0.675781,-0.731934,-0.161133,0
19260,0.682129,-0.702637,-0.141602,0
19280,0.687988,-0.685059,-0.180664,0
19300,0.710938,-0.679199,-0.158691,0
19320,0.719727,-0.674805,-0.109375,0
19340,0.696289,-0.676758,-0.128418,0
19360,0.69043,-0.69043,-0.157227,0
19380,0.722656,-0.677246,-0.119629,0
19400,0.734863,-0.657227,-0.0834961,0
19420,0.717773,-0.630859,-0.0986328,0
19440,0.711914,-0.625977,-0.13916,0
19460,0.743164,-0.629395,-0.0981445,0
19480,0.763672,-0.633301,-0.0581055,0
19500,0.771973,-0.630859,-0.0927734,0
19520,0.773926,-0.640625,-0.104004,0
19540,0.785156,-0.63623,-0.0595703,0
19560,0.788086,-0.619629,-0.034668,0
19580,0.793457,-0.592773,-0.0566406,0
19600,0.755371,-0.591309,-0.0664062,0
19620,0.755371,-0.606445,-0.0551758,0
19640,0.807129,-0.626465,-0.0117188,0
19660,0.814941,-0.595703,-0.000488281,0
19680,0.78125,-0.590332,-0.00195312,0
19700,0.782227,-0.614258,-0.0117188,0
19720,0.8125,-0.637207,-0.0161133,0
19740,0.798828,-0.635254,0.00439453,0
19760,0.773926,-0.636719,-0.0185547,0
19780,0.778809,-0.64209,-0.00683594,0
19800,0.79248,-0.633789,0.0151367,0
19820,0.790527,-0.615234,0.0322266,0
19840,0.758789,-0.604004,0.0151367,0
19860,0.746582,-0.598633,0.0166016,0
19880,0.749512,-0.60791,0.050293,0
19900,0.730469,-0.606445,0.065918,0
19920,0.73584,-0.602051,0.0375977,0
19940,0.746094,-0.600586,0.046875,0
19960,0.750488,-0.592285,0.0708008,0
19980,0.751953,-0.599121,0.0566406,0
20000,0.756348,-0.603516,0.0883789,0
20020,0.75,-0.616211,0.0820312,0
20030,0.755371,-0.623535,0.0693359,0
20050,0.767578,-0.611328,0.103027,0
20070,0.765137,-0.620605,0.114258,0
20090,0.778809,-0.638184,0.097168,0
20110,0.80127,-0.640137,0.104004,0
20130,0.797363,-0.630371,0.135742,0
20150,0.788574,-0.628418,0.136719,0
20170,0.765625,-0.632812,0.133789,0
20190,0.748535,-0.630859,0.166992,0
20210,0.738281,-0.635254,0.16748,0
20230,0.73877,-0.629883,0.155762,0
20250,0.727051,-0.621094,0.141113,0
20270,0.712402,-0.632812,0.158203,0
20290,0.703613,-0.638184,0.179199,0
20310,0.709961,-0.652832,0.147949,0
20330,0.728027,-0.657715,0.129395,0
20350,0.703125,-0.664062,0.106445,0
20370,0.668945,-0.712891,0.078125,0
20390,0.664551,-0.696777,0.146973,0
20410,0.609375,-0.678223,0.180176,0
20430,0.585449,-0.682617,0.195801,0
20450,0.626953,-0.71875,0.17627,0
20470,0.643555,-0.739746,0.128418,0
20490,0.62793,-0.743652,0.14502,0
20510,0.638184,-0.745117,0.170898,0
20530,0.612793,-0.748047,0.168457,0
20550,0.59082,-0.750977,0.146973,0
20570,0.620117,-0.746094,0.151367,0
20590,0.600098,-0.746094,0.174805,0
20610,0.582031,-0.730957,0.189453,0
20630,0.582031,-0.756348,0.180176,0
20650,0.581543,-0.787598,0.17334,0
20670,0.586914,-0.798828,0.177246,0
20690,0.572754,-0.780273,0.162109,0
20710,0.567871,-0.779297,0.158203,0
20730,0.570801,-0.759766,0.193359,0
20750,0.510254,-0.760254,0.16748,0
20770,0.529785,-0.760254,0.125488,0
20790,0.542969,-0.753418,0.185547,0
20810,0.526367,-0.76123,0.17627,0
20830,0.514648,-0.760254,0.150879,0
20850,0.490234,-0.758789,0.128906,0
20870,0.51416,-0.78125,0.134766,0
20890,0.511719,-0.791992,0.147949,0
20910,0.518555,-0.792969,0.134277,0
20930,0.518066,-0.783203,0.160156,0
20950,0.463379,-0.77832,0.143555,0
20970,0.482422,-0.818359,0.114258,0
20990,0.561035,-0.82666,0.121094,0
21010,0.585449,-0.820312,0.147461,0
21030,0.541016,-0.802246,0.147461,0
21050,0.463379,-0.819824,0.129395,0
21070,0.462402,-0.858887,0.102539,0
21090,0.523438,-0.855957,0.115234,0
21110,0.522949,-0.822266,0.128906,0
21130,0.468262,-0.792969,0.123047,0
21150,0.453125,-0.805176,0.090332,0
21170,0.509277,-0.832031,0.111328,0
21190,0.524414,-0.849121,0.13623,0
21210,0.478516,-0.846191,0.0932617,0
21230,0.496582,-0.847656,0.0668945,0
21250,0.52832,-0.84082,0.0844727,0
21270,0.534668,-0.830566,0.0957031,0
21290,0.498535,-0.811523,0.0673828,0
21310,0.477539,-0.818848,0.0415039,0
21330,0.509277,-0.826172,0.0522461,0
21350,0.489746,-0.818359,0.078125,0
21370,0.459961,-0.851562,0.081543,0
21390,0.472656,-0.852539,0.0566406,0
21410,0.486328,-0.851562,0.0522461,0
21430,0.477539,-0.855469,0.0620117,0
21450,0.450684,-0.862793,0.0883789,0
21470,0.484375,-0.888672,0.0581055,0
21490,0.499512,-0.894531,0.0449219,0
21510,0.457031,-0.893066,0.027832,0
21530,0.447754,-0.906738,0.0234375,0
21550,0.45752,-0.915527,0.0253906,0
21570,0.43457,-0.887207,0.0112305,0
21590,0.401855,-0.863281,-0.00341797,0
21610,0.463379,-0.92627,0.00878906,0
21630,0.554688,-0.970215,0.0751953,0
21650,0.439941,-0.900879,0.0795898,0
21670,0.30127,-0.805176,-0.0102539,0
21690,0.361328,-0.815918,-0.0864258,0
21710,0.476562,-0.882812,-0.0112305,0
21730,0.453125,-0.855957,0.000976562,0
21750,0.416992,-0.820312,-0.0390625,0
21770,0.473633,-0.84375,-0.0356445,0
21790,0.509277,-0.870605,-0.0200195,0
21810,0.442871,-0.841797,-0.0351562,0
21830,0.420898,-0.841309,-0.0654297,0
21850,0.445801,-0.884766,-0.050293,0
21870,0.42041,-0.88623,-0.0361328,0
21890,0.371094,-0.853516,-0.09375,0
21910,0.434082,-0.888184,-0.129395,0
21930,0.476074,-0.937988,-0.0532227,0
21950,0.458008,-0.909668,-0.0415039,0
21970,0.436523,-0.873535,-0.102051,0
21990,0.460449,-0.888184,-0.124512,0
22010,0.508789,-0.924316,-0.0927734,0
22030,0.460938,-0.909668,-0.100098,0
22050,0.427246,-0.875977,-0.135254,0
22070,0.453125,-0.888672,-0.129395,0
22090,0.458008,-0.886719,-0.111816,0
22110,0.43457,-0.848145,-0.111328,0
22130,0.447266,-0.820801,-0.138184,0
22150,0.491699,-0.830078,-0.149902,0
22170,0.489258,-0.828125,-0.158203,0
22190,0.484863,-0.812988,-0.176758,0
22210,0.480957,-0.817383,-0.16748,0
22230,0.502441,-0.83252,-0.172363,0
22250,0.523438,-0.833008,-0.179688,0
22270,0.525879,-0.822266,-0.209961,0
22290,0.506348,-0.818359,-0.223633,0
22310,0.515137,-0.820801,-0.211426,0
22330,0.541016,-0.811523,-0.176758,0
22350,0.556152,-0.815918,-0.20166,0
22370,0.549316,-0.789062,-0.217773,0
22390,0.566895,-0.776367,-0.226562,0
22410,0.576172,-0.789551,-0.23584,0
22430,0.581055,-0.787598,-0.226562,0
22450,0.583496,-0.760254,-0.209961,0
22470,0.566406,-0.737305,-0.208496,0
22490,0.541016,-0.728027,-0.199219,0
22510,0.553711,-0.70752,-0.199219,0
22530,0.618164,-0.730469,-0.247559,0
22550,0.652832,-0.759277,-0.217285,0
22570,0.650879,-0.742676,-0.20166,0
22590,0.669922,-0.722656,-0.250488,0
22610,0.72168,-0.709961,-0.244141,0
22630,0.712402,-0.727051,-0.201172,0
22650,0.660645,-0.73584,-0.198242,0
22670,0.666992,-0.746582,-0.243652,0
22690,0.712891,-0.728027,-0.245605,0
22710,0.683594,-0.694824,-0.217285,0
22730,0.666016,-0.679688,-0.246094,0
22750,0.706543,-0.678223,-0.264648,2001
22770,0.734863,-0.680176,-0.214844,0
22790,0.709473,-0.669922,-0.19043,0
22810,0.70752,-0.65918,-0.243164,0
22830,0.75293,-0.675293,-0.223145,0
22850,0.771973,-0.639648,-0.189941,0
22870,0.760742,-0.624512,-0.20166,0
22890,0.775879,-0.636719,-0.226562,0
22910,0.802246,-0.647949,-0.181152,0
22930,0.789551,-0.650391,-0.177734,0
22950,0.752441,-0.661621,-0.18457,0
22970,0.731934,-0.640137,-0.199707,0
22990,0.725098,-0.644531,-0.180664,0
23010,0.701172,-0.640137,-0.161133,0
23030,0.671875,-0.627441,-0.15625,0
23050,0.643555,-0.614746,-0.175781,0
23070,0.637207,-0.620117,-0.188477,0
23090,0.643555,-0.632812,-0.158691,0
23110,0.628906,-0.625,-0.149902,0
23130,0.612305,-0.635254,-0.15332,0
23150,0.632324,-0.632812,-0.17334,0
23170,0.655762,-0.646484,-0.175781,0
23190,0.635254,-0.664551,-0.14209,0
23210,0.61377,-0.651367,-0.158691,0
23230,0.654785,-0.655273,-0.160645,0
23250,0.66748,-0.672852,-0.161133,0
23270,0.626465,-0.667969,-0.160156,0
23290,0.584473,-0.666992,-0.154785,0
23310,0.580078,-0.662109,-0.14502,0
23330,0.60791,-0.680664,-0.138672,0
23350,0.573242,-0.688965,-0.0839844,0
23370,0.508301,-0.724121,-0.106445,0
23390,0.566406,-0.709961,-0.182129,0
23410,0.67627,-0.74707,-0.142578,0
23430,0.64502,-0.820801,-0.0864258,0
23450,0.529785,-0.805176,-0.116699,0
23470,0.540527,-0.806641,-0.114258,0
23490,0.630371,-0.82666,-0.0854492,0
23500,0.63916,-0.843262,-0.0498047,0
23520,0.554688,-0.861816,-0.00634766,0
23540,0.5,-0.895996,-0.0302734,0
23560,0.499512,-0.919434,0.0283203,0
23580,0.507324,-0.907715,0.0439453,0
23600,0.474609,-0.918945,0.0649414,0
23620,0.455566,-0.963867,0.0493164,0
23640,0.455566,-0.973145,0.0732422,0
23660,0.440918,-0.997559,0.111816,0
23680,0.398926,-0.981445,0.129883,0
23700,0.369629,-1.01221,0.103516,0
23720,0.371094,-1.01855,0.110352,0
23740,0.373047,-0.989746,0.130859,0
23760,0.331543,-0.95752,0.129883,0
23780,0.290039,-0.977051,0.0854492,0
23800,0.295898,-1.02051,0.0854492,0
23820,0.33252,-1.01318,0.137695,0
23840,0.305664,-1.00244,0.158203,0
23860,0.26123,-1.00928,0.141113,0
23880,0.233887,-1.01367,0.14209,0
23900,0.246582,-0.983887,0.141113,0
23920,0.257324,-0.956055,0.170898,0
23940,0.229492,-0.961914,0.180176,0
23960,0.205566,-0.955078,0.147949,0
23980,0.220215,-0.949219,0.116699,0
24000,0.230957,-0.95459,0.155273,0
24020,0.234863,-0.951172,0.16748,0
24040,0.212402,-0.982422,0.153809,0
24060,0.224121,-0.995605,0.0976562,0
24080,0.239258,-0.977051,0.108887,0
24100,0.199219,-0.965332,0.145996,0
24120,0.151367,-0.975098,0.128418,0
24140,0.156738,-0.959961,0.112305,0
24160,0.192383,-0.949707,0.123535,0
24180,0.186523,-0.929688,0.146973,0
24200,0.200195,-0.92627,0.143555,0
24220,0.178223,-0.971191,0.134766,0
24240,0.193359,-0.985352,0.130859,0
24260,0.213867,-0.983398,0.129395,0
24280,0.189453,-0.985352,0.123047,0
24300,0.191895,-0.958008,0.0888672,2000
24320,0.185059,-0.929199,0.118652,0
24340,0.169922,-0.916992,0.119141,0
24360,0.174316,-0.948242,0.107422,0
24380,0.214355,-0.987793,0.115234,0
24400,0.224609,-1,0.121094,0
24420,0.200684,-0.972656,0.113281,0
24440,0.171875,-0.95459,0.114746,0
24460,0.181152,-0.972656,0.126465,0
24480,0.199219,-0.967285,0.134766,0
24500,0.203125,-0.974121,0.106934,0
24520,0.206055,-0.962402,0.104004,0
24540,0.228027,-0.956055,0.127441,0
24560,0.253906,-0.955566,0.128418,0
24580,0.22998,-0.953125,0.122559,0
24600,0.202637,-0.938965,0.0986328,0
24620,0.219727,-0.925293,0.12793,0
24640,0.242676,-0.918945,0.125,0
24660,0.23584,-0.91748,0.123047,0
24680,0.203125,-0.902832,0.112793,0
24700,0.20166,-0.900391,0.105957,0
24720,0.226074,-0.929688,0.0976562,0
24740,0.249023,-0.966309,0.0991211,0
24760,0.257324,-0.945801,0.0771484,0
24780,0.269043,-0.930176,0.0766602,0
24800,0.271484,-0.960938,0.0927734,0
24820,0.268066,-0.979492,0.0620117,0
24840,0.282227,-0.97998,0.0888672,0
24860,0.272949,-0.952148,0.090332,0
24880,0.276367,-0.95752,0.0854492,0
24900,0.289062,-0.960938,0.0917969,0
24920,0.287598,-0.942383,0.0922852,0
24940,0.261719,-0.936523,0.0576172,0
24960,0.260254,-0.946777,0.0537109,0
24980,0.28125,-0.932129,0.100586,0
25000,0.270996,-0.919922,0.116211,0
25020,0.243164,-0.920898,0.0839844,0
25040,0.245605,-0.946289,0.0639648,0
25060,0.296875,-0.943359,0.0947266,0
25080,0.332031,-0.895508,0.111328,0
25100,0.307129,-0.896484,0.0874023,0
25120,0.282715,-0.930176,0.0537109,0
25140,0.296387,-0.938477,0.102539,0
25160,0.316406,-0.946777,0.112305,0
25180,0.320312,-0.938965,0.111816,0
25200,0.335449,-0.938965,0.0737305,0
25220,0.369141,-0.946289,0.0981445,0
25240,0.378418,-0.982422,0.169922,0
25260,0.352539,-0.928711,0.189453,0
25280,0.300781,-0.874512,0.0957031,0
25300,0.320801,-0.886719,0.0532227,0
25320,0.369629,-0.877441,0.0654297,0
25340,0.373535,-0.86084,0.114258,0
25360,0.380859,-0.880859,0.102051,0
25380,0.383301,-0.922363,0.065918,0
25400,0.400879,-0.932129,0.0625,0
25420,0.431152,-0.912109,0.0732422,0
25440,0.430664,-0.856445,0.119141,0
25460,0.413574,-0.848633,0.109863,0
25470,0.409668,-0.910156,0.074707,0
25500,0.429199,-0.933594,0.0751953,0
25510,0.432129,-0.899902,0.09375,0
25530,0.446777,-0.871094,0.0834961,0
25550,0.474121,-0.864746,0.0991211,0
25570,0.46582,-0.855469,0.0981445,0
25590,0.479004,-0.868652,0.112305,0
25610,0.517578,-0.86377,0.129395,0
25630,0.529785,-0.868652,0.135742,0
25650,0.517578,-0.832031,0.118164,0
25670,0.490234,-0.794922,0.0722656,0
25690,0.495605,-0.807617,0.0600586,0
25700,0.49707,-0.791992,0.0874023,0
25730,0.513184,-0.814941,0.0800781,0
25750,0.527832,-0.811523,0.0966797,0
25770,0.552734,-0.805664,0.106934,0
25790,0.539062,-0.791504,0.109375,0
25810,0.541504,-0.817383,0.0849609,0
25830,0.552246,-0.789551,0.116211,0
25850,0.581543,-0.765137,0.132324,0
25870,0.612305,-0.77002,0.132324,0
25890,0.591309,-0.775879,0.132324,0
25910,0.560547,-0.772949,0.156738,0
25930,0.575684,-0.748047,0.15625,0
25950,0.607422,-0.739746,0.185059,0
25970,0.606934,-0.75,0.169922,0
25990,0.602051,-0.739746,0.155762,0
26000,0.60498,-0.748535,0.153809,0
26020,0.59082,-0.728027,0.154297,0
26040,0.626465,-0.73584,0.149902,0
26060,0.661621,-0.737793,0.16748,0
26080,0.657227,-0.740723,0.167969,0
26100,0.652344,-0.722656,0.166504,0
26120,0.688965,-0.744629,0.163086,0
26140,0.687988,-0.727539,0.177734,0
26160,0.665527,-0.714355,0.167969,0
26180,0.658203,-0.712402,0.175293,0
26200,0.679199,-0.706055,0.186523,0
26220,0.681152,-0.709473,0.20752,0
26240,0.671875,-0.722168,0.217773,0
26260,0.654297,-0.681152,0.216797,0
26280,0.672852,-0.687988,0.208984,0
26300,0.673828,-0.713867,0.223633,0
26320,0.631348,-0.725098,0.210449,0
26340,0.609863,-0.70459,0.228516,0
26360,0.62207,-0.716309,0.232422,0
26380,0.594238,-0.723145,0.24707,0
26400,0.581543,-0.708496,0.242676,0
26420,0.566406,-0.75,0.266602,0
26440,0.554199,-0.744141,0.270996,0
26460,0.547363,-0.737305,0.235352,0
26480,0.567871,-0.770508,0.237793,0
26500,0.586914,-0.783203,0.275391,0
26520,0.584473,-0.835938,0.286621,0
26540,0.504883,-0.830078,0.286133,0
26560,0.461914,-0.797363,0.29834,0
26580,0.467285,-0.789062,0.291504,0
26600,0.46582,-0.790527,0.308105,0
26620,0.44043,-0.782227,0.333984,0
26640,0.411133,-0.77832,0.326172,0
26660,0.427246,-0.804688,0.300781,0
26680,0.480469,-0.797852,0.315918,0
26700,0.475098,-0.807617,0.302734,0
26720,0.432617,-0.835449,0.285156,0
26740,0.395508,-0.819336,0.344727,0
26760,0.390137,-0.8125,0.328125,0
26780,0.418457,-0.821289,0.268066,0
26800,0.42627,-0.785645,0.277832,0
26820,0.400879,-0.784668,0.31543,0
26840,0.368164,-0.779785,0.312988,0
26860,0.368652,-0.820312,0.294434,0
26880,0.390625,-0.842773,0.299805,0
26900,0.395996,-0.818359,0.29541,0
26920,0.395508,-0.853516,0.285645,0
26940,0.382812,-0.842773,0.290527,0
26960,0.38623,-0.830566,0.267578,0
26980,0.395508,-0.82666,0.291016,0
27000,0.389648,-0.826172,0.266113,0
27020,0.365234,-0.862305,0.25293,0
27040,0.352051,-0.858398,0.262695,0
27060,0.354004,-0.857422,0.304199,0
27080,0.355957,-0.847168,0.256836,0
27100,0.358887,-0.841309,0.227051,0
27120,0.360352,-0.834473,0.25293,0
27140,0.345215,-0.858887,0.272949,0
27160,0.347168,-0.901855,0.21582,0
27180,0.381836,-0.915039,0.19043,0
27200,0.384277,-0.899902,0.242188,0
27220,0.326172,-0.865723,0.254883,0
27240,0.289062,-0.86377,0.194824,0
27260,0.304199,-0.884277,0.233887,0
27280,0.296387,-0.904785,0.233398,0
27300,0.292969,-0.914551,0.196777,0
27320,0.306641,-0.920898,0.184082,0
27340,0.331543,-0.931152,0.208008,0
27360,0.311523,-0.913086,0.186523,0
27380,0.304199,-0.906738,0.144531,0
27400,0.328125,-0.90625,0.184082,0
27420,0.328125,-0.903809,0.165527,0
27440,0.297852,-0.908691,0.15625,0
27460,0.309082,-0.921875,0.159668,0
27480,0.303223,-0.905273,0.164062,0
27500,0.260254,-0.902344,0.121582,0
27520,0.266602,-0.894043,0.14209,0
27540,0.290527,-0.898926,0.166504,0
27560,0.287109,-0.904785,0.135254,0
27580,0.300781,-0.922363,0.10791,0
27600,0.31543,-0.908691,0.147461,0
27620,0.319336,-0.914062,0.154785,0
27640,0.325684,-0.939941,0.113281,0
27660,0.319336,-0.92627,0.111328,0
27680,0.281738,-0.916016,0.0893555,0
27700,0.276855,-0.907227,0.0615234,0
27720,0.320312,-0.915527,0.0898438,0
27740,0.300293,-0.910156,0.0947266,0
27760,0.239746,-0.924316,0.0297852,0
27780,0.277832,-0.954102,0.0219727,0
27800,0.324219,-0.95752,0.0649414,0
27820,0.266602,-0.929688,0.0654297,0
27840,0.211426,-0.928711,0.0263672,0
27860,0.273438,-0.959961,-0.0141602,0
27880,0.327148,-0.971191,0.0415039,0
27900,0.258301,-0.947754,0.034668,0
27920,0.21875,-0.934082,0.012207,0
27940,0.24707,-0.947266,-0.00683594,0
27960,0.236816,-0.963867,-0.00878906,0
27980,0.223633,-0.956055,-0.00439453,0
28000,0.263184,-0.954102,0.00927734,0
28020,0.299805,-0.958984,-0.00390625,0
28040,0.291016,-0.956055,-0.0454102,0
28060,0.297363,-0.956055,-0.0522461,0
28080,0.340332,-0.950195,-0.00341797,0
28100,0.34082,-0.925781,-0.00683594,0
28120,0.316406,-0.933105,-0.0512695,0
28140,0.321777,-0.937012,-0.0664062,0
28160,0.365234,-0.925781,-0.0463867,0
28180,0.398926,-0.91748,-0.0493164,0
28200,0.374023,-0.912598,-0.0737305,0
28220,0.358398,-0.907715,-0.0947266,0
28240,0.362305,-0.869141,-0.0717773,0
28260,0.379883,-0.881836,-0.0629883,0
28280,0.379395,-0.910645,-0.0927734,0
28300,0.41748,-0.909668,-0.123047,0
28320,0.432617,-0.919922,-0.0820312,0
28340,0.41748,-0.899902,-0.0771484,0
28360,0.38916,-0.904297,-0.102051,0
28380,0.401855,-0.908203,-0.117188,0
28400,0.419922,-0.885254,-0.0878906,0
28420,0.427734,-0.85791,-0.0966797,0
28440,0.423828,-0.887695,-0.105957,0
28460,0.437988,-0.875977,-0.104004,0
28480,0.466797,-0.871582,-0.0981445,0
28500,0.501465,-0.862305,-0.121094,0
28520,0.492676,-0.848145,-0.123535,0
28540,0.451172,-0.84082,-0.102539,0
28560,0.445312,-0.825684,-0.117188,0
28580,0.523438,-0.824219,-0.103516,0
28600,0.564941,-0.844238,-0.0668945,0
28620,0.519531,-0.807129,-0.0512695,0
28640,0.47168,-0.807617,-0.150879,0
28660,0.537598,-0.815918,-0.137207,0
28680,0.592285,-0.790039,-0.0478516,0
28700,0.544922,-0.769043,-0.0297852,0
28720,0.549316,-0.780762,-0.116699,0
28740,0.628906,-0.804688,-0.106934,0
28760,0.664551,-0.772461,-0.0185547,0
28780,0.610352,-0.736816,-0.0439453,0
28800,0.585938,-0.757324,-0.132324,0
28820,0.658203,-0.752441,-0.0654297,0
28840,0.662109,-0.780762,-0.027832,0
28860,0.621582,-0.779297,-0.0664062,0
28880,0.639648,-0.764648,-0.0615234,0
28900,0.704102,-0.745605,-0.0297852,0
28910,0.730469,-0.755371,-0.0532227,0
28920,0.697754,-0.718262,-0.0297852,0
28940,0.70459,-0.705566,-0.0229492,0
28960,0.727539,-0.694336,-0.0234375,0
28980,0.731934,-0.699707,-0.034668,0
29000,0.723145,-0.696777,-0.0151367,0
29020,0.745605,-0.668457,-0.0117188,0
29040,0.768066,-0.653809,-0.0229492,0
29060,0.766113,-0.623535,0.00683594,0
29080,0.774902,-0.634277,0.00732422,0
29100,0.787109,-0.629883,-0.00732422,0
29120,0.792969,-0.626953,0.0375977,0
29140,0.779785,-0.607422,0.027832,0
29160,0.784668,-0.592285,0.0166016,0
29180,0.795898,-0.600586,0.0385742,0
29200,0.788574,-0.585938,0.0483398,0
29220,0.803223,-0.587402,0.034668,0
29240,0.8125,-0.585449,0.0415039,0
29260,0.791504,-0.601074,0.0727539,0
29280,0.770508,-0.600098,0.0878906,0
29300,0.784668,-0.581543,0.0683594,0
29320,0.78125,-0.581543,0.0961914,0
29340,0.756836,-0.57666,0.0908203,0
29360,0.778809,-0.594727,0.081543,0
29380,0.790527,-0.615234,0.119141,0
29400,0.784668,-0.627441,0.124023,0
29420,0.789551,-0.630859,0.11084,0
29440,0.782227,-0.608887,0.163086,0
29460,0.755859,-0.59668,0.176758,0
29480,0.746582,-0.620605,0.156738,0
29500,0.750488,-0.632324,0.207031,0
29520,0.738281,-0.634766,0.214844,0
29540,0.752441,-0.68457,0.194824,0
29560,0.783691,-0.657227,0.211914,0
29580,0.776367,-0.621094,0.220215,0
29600,0.697266,-0.633301,0.201172,0
29620,0.641602,-0.677734,0.181641,0
29640,0.634277,-0.714844,0.212402,0
29660,0.637207,-0.703613,0.242676,0
29680,0.660645,-0.689453,0.206055,0
29700,0.678223,-0.674316,0.203613,0
29720,0.651367,-0.675781,0.189453,0
29740,0.568848,-0.688965,0.193848,0
29760,0.525391,-0.703613,0.226074,0
29780,0.510254,-0.722656,0.20752,0
29800,0.53418,-0.725586,0.227539,0
29820,0.557617,-0.765137,0.255371,0
29840,0.583008,-0.792969,0.222168,0
29860,0.609375,-0.779785,0.188965,0
29880,0.583496,-0.705566,0.226074,0
29900,0.561523,-0.683105,0.243652,0
29920,0.562012,-0.729004,0.22998,0
29940,0.529297,-0.786133,0.208496,0
29960,0.519531,-0.800293,0.210938,0
29980,0.515625,-0.803711,0.232422,0
30000,0.524902,-0.786133,0.224121,0
30020,0.494141,-0.742188,0.241699,0
30040,0.472168,-0.737793,0.21582,0
30060,0.509277,-0.786133,0.212402,0
30080,0.522461,-0.803223,0.244141,0
30100,0.487793,-0.795898,0.22168,0
30120,0.482422,-0.812012,0.187988,0
30140,0.51123,-0.815918,0.222656,0
30160,0.483887,-0.824219,0.218262,0
30180,0.436523,-0.815918,0.172852,0
30200,0.472168,-0.826172,0.186523,0
30220,0.503418,-0.828613,0.203125,0
30240,0.478516,-0.813477,0.171875,0
30260,0.424316,-0.833008,0.149902,0
30280,0.425293,-0.850098,0.160645,0
30300,0.461426,-0.84668,0.176758,0
30320,0.458496,-0.82959,0.14502,0
30340,0.426758,-0.821777,0.125977,0
30360,0.418457,-0.823242,0.128418,0
30380,0.438965,-0.84375,0.115723,0
30400,0.431641,-0.854492,0.0917969,0
30420,0.44043,-0.858887,0.0854492,0
30440,0.446289,-0.87207,0.0942383,0
30460,0.406738,-0.86084,0.090332,0
30480,0.378906,-0.853027,0.0649414,0
30500,0.414062,-0.894043,0.0229492,0
30520,0.452637,-0.927246,0.0673828,0
30540,0.428711,-0.901855,0.090332,0
30560,0.421875,-0.856445,0.0605469,0
30580,0.449219,-0.879395,0.0263672,0
30600,0.487793,-0.907715,0.0449219,0
30620,0.430176,-0.892578,0.0546875,0
30640,0.391113,-0.883789,0.0151367,0
30660,0.45752,-0.911133,0.00585938,0
30680,0.475586,-0.921387,0.0493164,0
30700,0.392578,-0.873047,0.0180664,0
30720,0.383301,-0.858398,-0.0390625,0
30740,0.458496,-0.882324,-0.00390625,0
30760,0.432129,-0.897461,0.0136719,0
30780,0.356445,-0.87793,-0.0268555,0
30800,0.391602,-0.889648,-0.0708008,0
30820,0.433594,-0.910645,-0.0424805,0
30840,0.423828,-0.893066,-0.012207,0
30860,0.404297,-0.879883,-0.0605469,0
30870,0.42041,-0.893555,-0.0957031,0
30890,0.435547,-0.898926,-0.0820312,0
30910,0.435059,-0.889648,-0.074707,0
30930,0.417969,-0.863281,-0.0986328,0
30950,0.412109,-0.857422,-0.13623,0
30970,0.442383,-0.875,-0.141113,0
30990,0.460938,-0.879395,-0.121094,0
31010,0.456055,-0.85498,-0.138672,0
31030,0.460449,-0.854492,-0.159668,0
31050,0.467285,-0.879883,-0.171875,0
31070,0.467773,-0.888672,-0.144531,0
31090,0.461914,-0.883789,-0.133301,0
31110,0.481445,-0.866699,-0.147949,0
31130,0.494629,-0.822266,-0.162598,0
31150,0.495605,-0.8125,-0.17627,0
31170,0.499512,-0.810059,-0.174316,0
31190,0.513672,-0.813477,-0.17334,0
31210,0.512207,-0.835938,-0.203613,0
31230,0.498047,-0.84082,-0.205566,0
31250,0.503906,-0.833984,-0.179688,0
31270,0.532227,-0.818848,-0.17627,0
31290,0.539551,-0.796387,-0.196289,0
31310,0.523438,-0.773926,-0.237305,0
31330,0.51416,-0.768066,-0.22168,0
31350,0.534668,-0.74707,-0.19873,0
31370,0.588379,-0.780762,-0.20166,0
31390,0.622559,-0.766113,-0.249512,0
31410,0.605957,-0.739258,-0.254395,0
31430,0.605957,-0.709473,-0.23584,0
31450,0.622559,-0.709473,-0.259766,0
31470,0.651855,-0.708984,-0.26416,0
31490,0.67041,-0.691406,-0.231934,0
31510,0.694336,-0.682129,-0.255371,0
31530,0.697266,-0.688477,-0.284668,0
31550,0.713867,-0.679199,-0.275879,0
31570,0.723145,-0.669922,-0.276367,0
31590,0.712891,-0.625,-0.280273,0
31610,0.750488,-0.598633,-0.284668,0
31630,0.817383,-0.621582,-0.273438,0
31650,0.803711,-0.618164,-0.250488,0
31670,0.757812,-0.581055,-0.267578,0
31690,0.795898,-0.569336,-0.270996,0
31710,0.868164,-0.565918,-0.253906,0
31730,0.836914,-0.546387,-0.222656,0
31750,0.786621,-0.515137,-0.231934,0
31770,0.798828,-0.523438,-0.236816,0
31790,0.842285,-0.522461,-0.19873,0
31810,0.832031,-0.512207,-0.175781,0
31830,0.810547,-0.473145,-0.177734,0
31850,0.831543,-0.45459,-0.168945,0
31870,0.865234,-0.458496,-0.132812,0
31890,0.852539,-0.45166,-0.113281,0
31910,0.834961,-0.445801,-0.135742,0
31930,0.862793,-0.458496,-0.160156,0
31950,0.888672,-0.490234,-0.122559,0
31970,0.90332,-0.512207,-0.101074,0
31990,0.936523,-0.512207,-0.117676,0
32010,0.944824,-0.546875,-0.078125,0
32030,0.893066,-0.586914,-0.0654297,0
32050,0.893066,-0.564453,-0.0380859,0
32070,0.899902,-0.534668,-0.0224609,0
32090,0.888672,-0.53418,-0.0297852,0
32110,0.871094,-0.546387,0.00195312,0
32130,0.850098,-0.557129,0.0410156,0
32150,0.842773,-0.572754,0.0283203,0
32170,0.855957,-0.585938,0.0405273,0
32190,0.833008,-0.558105,0.0893555,0
32210,0.822266,-0.548828,0.0849609,0
32230,0.812988,-0.556641,0.0756836,0
32250,0.794922,-0.597656,0.102051,0
32270,0.772461,-0.633789,0.138184,0
32290,0.791992,-0.631348,0.135742,0
32310,0.806641,-0.61084,0.123535,0
32330,0.773926,-0.608398,0.120605,0
32350,0.732422,-0.626465,0.119629,0
32370,0.680176,-0.634277,0.145508,0
32390,0.669434,-0.657227,0.138672,0
32410,0.662598,-0.683105,0.167969,0
32430,0.633301,-0.684082,0.166016,0
32450,0.616699,-0.68457,0.146973,0
32470,0.611328,-0.678223,0.162598,0
32490,0.645508,-0.699219,0.188477,0
32510,0.643555,-0.698242,0.191895,0
32530,0.597656,-0.692383,0.160645,0
32550,0.575195,-0.6875,0.157715,0
32570,0.622559,-0.702148,0.168457,0
32590,0.624512,-0.724121,0.188965,0
32610,0.56543,-0.714844,0.144531,0
32630,0.559082,-0.725586,0.119629,0
32650,0.586426,-0.724121,0.13623,0
32670,0.570801,-0.723145,0.132324,0
32690,0.571289,-0.73584,0.123535,0
32710,0.55957,-0.735352,0.109863,0
32730,0.567383,-0.760742,0.0786133,0
32750,0.587402,-0.789062,0.0771484,0
32770,0.571777,-0.807129,0.106445,0
32790,0.570801,-0.820801,0.0722656,0
32810,0.546387,-0.817871,0.081543,0
32830,0.544434,-0.818848,0.0961914,0
32850,0.516602,-0.836426,0.0874023,0
32870,0.500488,-0.839355,0.0576172,0
32890,0.472656,-0.845215,0.0913086,0
32910,0.490234,-0.843262,0.074707,0
32930,0.48877,-0.828125,0.0844727,0
32950,0.45459,-0.808594,0.0776367,0
32970,0.490723,-0.829102,0.0356445,0
32990,0.53125,-0.835449,0.0546875,0
33010,0.474121,-0.818848,0.0649414,0
33030,0.47998,-0.8125,0.03125,0
33050,0.560059,-0.833984,0.0336914,0
33070,0.523926,-0.847656,0.0327148,0
33090,0.487793,-0.845215,0.0102539,0
33110,0.500977,-0.850098,0.0102539,0
33130,0.514648,-0.851562,0.000976562,0
33150,0.510254,-0.836426,-0.0356445,0
33170,0.520996,-0.862305,-0.0439453,0
33190,0.571289,-0.899414,-0.0263672,0
33210,0.515625,-0.863281,-0.00830078,0
33230,0.423828,-0.827148,-0.0366211,0
33250,0.40332,-0.830566,-0.0244141,0
33270,0.425293,-0.819336,-0.074707,0
33290,0.467285,-0.833984,-0.115723,0
33310,0.516113,-0.871582,-0.112793,0
33330,0.479004,-0.839355,-0.0830078,0
33350,0.446289,-0.809082,-0.114746,0
33370,0.499023,-0.833496,-0.124512,0
33390,0.496582,-0.869629,-0.114746,0
33410,0.495117,-0.857422,-0.13916,0
33430,0.508301,-0.844238,-0.15332,0
33450,0.527344,-0.865723,-0.151367,0
33470,0.533203,-0.893555,-0.154785,0
33490,0.516602,-0.868164,-0.144043,0
33510,0.428223,-0.837891,-0.173828,0
33530,0.490234,-0.849121,-0.203613,0
33550,0.572266,-0.881348,-0.162109,0
33570,0.493164,-0.861816,-0.172852,0
33590,0.430664,-0.823242,-0.227051,0
33610,0.476074,-0.830078,-0.247559,0
33630,0.514648,-0.859863,-0.234863,0
33650,0.470703,-0.82959,-0.233398,0
33670,0.452148,-0.805176,-0.246582,0
33690,0.477051,-0.811035,-0.245605,0
33710,0.51416,-0.837402,-0.236816,0
33730,0.495605,-0.822266,-0.253906,0
33750,0.509277,-0.80127,-0.256348,0
33770,0.538574,-0.783203,-0.244141,0
33790,0.51709,-0.778809,-0.255859,0
33810,0.509766,-0.762695,-0.261719,0
33830,0.57959,-0.737793,-0.278809,0
33850,0.648438,-0.746582,-0.256836,0
33870,0.636719,-0.73584,-0.243652,0
33890,0.616699,-0.748047,-0.282227,0
33910,0.631348,-0.739746,-0.259766,0
33930,0.660645,-0.718262,-0.209473,0
33950,0.70166,-0.689941,-0.249512,0
33970,0.701172,-0.671875,-0.256348,0
33990,0.691895,-0.654785,-0.266602,0
34010,0.728027,-0.637207,-0.245605,0
34030,0.750488,-0.637207,-0.238281,0
34050,0.749512,-0.625,-0.248535,2001
34070,0.763184,-0.613281,-0.287109,0
34090,0.795898,-0.618652,-0.252441,0
34110,0.797363,-0.592285,-0.219238,0
34130,0.811035,-0.566895,-0.239746,0
34150,0.800293,-0.569336,-0.275391,0
34170,0.812012,-0.580078,-0.241699,0
34190,0.785645,-0.558105,-0.234863,0
34210,0.786621,-0.533203,-0.270996,0
34230,0.821289,-0.52002,-0.27002,0
34250,0.808105,-0.543945,-0.267578,0
34270,0.793945,-0.569336,-0.272461,0
34290,0.776367,-0.553223,-0.270996,0
34310,0.746582,-0.519531,-0.29541,0
34330,0.725098,-0.527832,-0.303711,0
34340,0.729492,-0.559082,-0.302734,0
34360,0.723633,-0.56543,-0.260254,0
34380,0.697754,-0.569336,-0.285156,0
34400,0.714355,-0.566895,-0.310059,0
34420,0.713379,-0.599121,-0.251953,0
34430,0.701172,-0.554199,-0.241211,0
34440,0.69043,-0.509277,-0.249023,0
34460,0.693359,-0.543457,-0.274414,0
34480,0.699219,-0.569824,-0.239746,0
34500,0.688477,-0.586914,-0.203613,0
34520,0.644043,-0.523438,-0.179688,0
34540,0.634277,-0.527344,-0.208984,0
34560,0.625977,-0.600098,-0.193359,0
34580,0.609863,-0.608398,-0.167969,0
34600,0.577637,-0.599121,-0.120605,0
34620,0.551758,-0.59668,-0.147949,0
34640,0.574219,-0.638184,-0.170898,0
34660,0.596191,-0.650879,-0.100098,0
34680,0.550293,-0.625488,-0.0493164,0
34700,0.504883,-0.706055,-0.0874023,0
34720,0.565918,-0.837891,-0.0966797,0
34740,0.606445,-0.836426,-0.0175781,0
34760,0.522461,-0.786133,0.0522461,0
34780,0.469727,-0.799316,0.0263672,0
34800,0.5,-0.930176,-0.00634766,0
34820,0.535156,-0.961426,0.0571289,0
34840,0.458496,-0.904785,0.162109,0
34860,0.404297,-0.95752,0.141113,0
34880,0.436035,-1.06738,0.0976562,0
34900,0.442383,-1.07617,0.127441,0
34920,0.394531,-0.982422,0.147949,0
34940,0.341309,-0.946289,0.166992,0
34960,0.30127,-1.0083,0.12793,0
34980,0.307617,-1.05762,0.118164,0
35000,0.313965,-1.03906,0.177734,0
35020,0.272949,-0.994629,0.164062,0
35040,0.212891,-1.06689,0.0932617,0
35060,0.216309,-1.11963,0.0952148,0
35080,0.254883,-1.08984,0.189453,0
35100,0.243652,-1.04736,0.1875,0
35120,0.238281,-1.06299,0.161621,0
35140,0.253906,-1.08203,0.149414,0
35160,0.270996,-1.05322,0.208496,0
35180,0.245605,-1.01172,0.231934,0
35200,0.23291,-0.972656,0.208496,0
35220,0.258301,-1.00732,0.217285,0
35240,0.227539,-0.986816,0.214355,0
35260,0.158691,-0.96582,0.206055,0
35280,0.171387,-0.961426,0.196289,0
35300,0.211426,-0.952637,0.191406,0
35320,0.205078,-0.905762,0.223145,0
35340,0.140137,-0.89209,0.212891,0
35360,0.113281,-0.891602,0.213867,0
35380,0.15918,-0.934082,0.219727,2000
35400,0.222168,-0.935059,0.242188,0
35420,0.199219,-0.891113,0.225098,0
35440,0.137207,-0.900391,0.208984,0
35460,0.140137,-0.908203,0.224609,0
35480,0.177246,-0.927246,0.203613,0
35500,0.20166,-0.921875,0.207031,0
35520,0.167969,-0.918457,0.212402,0
35540,0.165039,-0.932129,0.193848,0
35560,0.169434,-0.958008,0.233398,0
35580,0.167969,-0.974121,0.23584,0
35600,0.151367,-0.955566,0.213867,0
35620,0.161621,-0.937988,0.212402,0
35640,0.191406,-0.942871,0.203125,0
35660,0.21875,-0.923828,0.21875,0
35680,0.20459,-0.934082,0.23291,0
35700,0.212891,-0.945801,0.248047,0
35720,0.269531,-0.937988,0.224609,0
35740,0.304199,-0.936523,0.206055,0
35760,0.271973,-0.91748,0.183105,0
35780,0.263184,-0.912598,0.181641,0
35800,0.318359,-0.936035,0.187988,0
35820,0.383789,-0.908691,0.205078,0
35840,0.358887,-0.88916,0.163086,0
35860,0.291992,-0.892578,0.133789,0
35880,0.282227,-0.894043,0.132324,0
35900,0.332031,-0.911621,0.13623,0
35920,0.369141,-0.908691,0.145508,0
35940,0.37207,-0.905762,0.176758,0
35960,0.38623,-0.892578,0.144043,0
35980,0.415527,-0.882812,0.150391,0
36000,0.426758,-0.879883,0.151855,0
36020,0.383789,-0.890625,0.128418,0
36040,0.373535,-0.881348,0.124023,0
36060,0.397461,-0.892578,0.101562,0
36080,0.402832,-0.887695,0.111328,0
36100,0.399414,-0.863281,0.149902,0
36120,0.392578,-0.835449,0.155273,0
36140,0.394043,-0.868164,0.122559,0
36160,0.396973,-0.870605,0.144531,0
36180,0.417969,-0.861816,0.166992,0
36200,0.429688,-0.85791,0.154297,0
36220,0.45459,-0.833984,0.125488,0
36240,0.446289,-0.831543,0.116699,0
36260,0.424805,-0.837891,0.123535,0
36280,0.455078,-0.849609,0.138184,0
36300,0.474121,-0.858398,0.132324,0
36320,0.502441,-0.854492,0.126465,0
36330,0.526367,-0.842773,0.122559,0
36350,0.523926,-0.821777,0.135254,0
36360,0.488281,-0.817383,0.138672,0
36380,0.50293,-0.829102,0.13623,0
36400,0.525391,-0.824219,0.122559,0
36420,0.549316,-0.816406,0.109375,0
36440,0.550781,-0.802246,0.120117,0
36460,0.577637,-0.798828,0.114746,0
36470,0.570801,-0.795898,0.108398,0
36490,0.572266,-0.789062,0.0966797,0
36510,0.580078,-0.78418,0.109863,0
36530,0.588379,-0.769043,0.119141,0
36550,0.568359,-0.762207,0.132324,0
36570,0.56543,-0.766113,0.152344,0
36590,0.563477,-0.76416,0.141602,0
36610,0.592285,-0.742676,0.146973,0
36630,0.61084,-0.747559,0.164551,0
36650,0.598145,-0.748535,0.156738,0
36670,0.612305,-0.73877,0.155273,0
36690,0.621094,-0.744141,0.180664,0
36710,0.630859,-0.746582,0.19043,0
36730,0.636719,-0.77002,0.191406,0
36750,0.602051,-0.756836,0.212402,0
36770,0.630859,-0.746094,0.219238,0
36790,0.65918,-0.755859,0.206543,0
36810,0.678223,-0.726074,0.201172,0
36830,0.668945,-0.72168,0.203613,0
36850,0.64209,-0.709961,0.220703,0
36870,0.600098,-0.720215,0.239258,0
36890,0.595215,-0.730957,0.244141,0
36910,0.631836,-0.735352,0.241699,0
36930,0.642578,-0.709961,0.265137,0
36950,0.618164,-0.72998,0.263184,0
36970,0.556641,-0.728027,0.282227,0
36990,0.552246,-0.726074,0.316406,0
37010,0.588867,-0.737793,0.309082,0
37030,0.619141,-0.733398,0.278809,0
37050,0.620605,-0.754883,0.289551,0
37070,0.581543,-0.733887,0.333496,0
37090,0.513184,-0.750977,0.317383,0
37110,0.506348,-0.770996,0.339844,0
37130,0.526367,-0.782715,0.32666,0
37150,0.527832,-0.76709,0.30957,0
37170,0.496582,-0.755371,0.333984,0
37190,0.463379,-0.71582,0.349609,0
37210,0.444336,-0.74707,0.33252,0
37230,0.463867,-0.769531,0.313477,0
37250,0.488281,-0.748047,0.364258,0
37270,0.495605,-0.754395,0.348145,0
37290,0.500977,-0.776855,0.341309,0
37310,0.478027,-0.811523,0.339355,0
37330,0.426758,-0.788086,0.355469,0
37350,0.390137,-0.786621,0.345703,0
37370,0.421387,-0.795898,0.334961,0
37390,0.445312,-0.785156,0.325684,0
37410,0.431152,-0.776855,0.338379,0
37430,0.381836,-0.780762,0.345215,0
37450,0.342773,-0.800781,0.34082,0
37470,0.383301,-0.800293,0.340332,0
37490,0.429688,-0.796387,0.331055,0
37510,0.403809,-0.810059,0.338379,0
37530,0.349609,-0.805176,0.334473,0
37550,0.313965,-0.824219,0.353516,0
37570,0.364258,-0.803711,0.332031,0
37590,0.393555,-0.815918,0.315918,0
37610,0.364746,-0.821289,0.288086,0
37630,0.356934,-0.80957,0.321777,0
37650,0.35791,-0.831543,0.321777,0
37670,0.364746,-0.843262,0.29834,0
37690,0.374023,-0.851074,0.305176,0
37710,0.373535,-0.84082,0.307129,0
37730,0.35498,-0.833496,0.307129,0
37750,0.329102,-0.853516,0.291016,0
37770,0.349609,-0.866211,0.312988,0
37790,0.365234,-0.854004,0.32373,0
37810,0.341309,-0.830566,0.310547,0
37830,0.325195,-0.853027,0.282227,0
37850,0.327148,-0.859863,0.286133,0
37870,0.328125,-0.855469,0.294922,0
37890,0.333984,-0.854492,0.285645,0
37910,0.327637,-0.841797,0.307129,0
37930,0.320312,-0.852051,0.282227,0
37950,0.323242,-0.856934,0.286133,0
37970,0.327637,-0.85498,0.284668,0
37990,0.303223,-0.871094,0.26709,0
38010,0.281738,-0.870605,0.270996,0
38030,0.289551,-0.854492,0.268066,0
38050,0.278809,-0.84668,0.266602,0
38070,0.248047,-0.879395,0.246582,0
38090,0.256836,-0.902832,0.224121,0
38110,0.307617,-0.891113,0.237305,0
38130,0.287598,-0.866699,0.253418,0
38150,0.270508,-0.876465,0.205078,0
38170,0.299805,-0.907715,0.20459,0
38190,0.32666,-0.917969,0.239746,0
38210,0.291016,-0.895508,0.239258,0
38230,0.26709,-0.901855,0.190918,0
38250,0.305664,-0.921387,0.205078,0
38270,0.32373,-0.915527,0.227539,0
38290,0.272949,-0.890625,0.231445,0
38310,0.243652,-0.903809,0.183105,0
38330,0.272461,-0.940918,0.19873,0
38350,0.290527,-0.942871,0.21875,0
38370,0.254395,-0.929688,0.185059,0
38390,0.273926,-0.929199,0.154297,0
38410,0.296387,-0.934082,0.197754,0
38430,0.253906,-0.919434,0.160645,0
38450,0.227539,-0.908203,0.138672,0
38470,0.25,-0.910645,0.172852,0
38490,0.267578,-0.919922,0.166504,0
38510,0.245605,-0.923828,0.108887,0
38530,0.253418,-0.924316,0.10791,0
38550,0.286133,-0.914551,0.155273,0
38570,0.280273,-0.902832,0.141602,0
38590,0.238281,-0.916992,0.0961914,0
38610,0.257324,-0.9375,0.0649414,0
38630,0.294434,-0.939941,0.0981445,0
38650,0.29834,-0.918945,0.0825195,0
38670,0.279785,-0.897949,0.081543,0
38690,0.265625,-0.911621,0.0795898,0
38710,0.292969,-0.930664,0.0888672,0
38730,0.339844,-0.952637,0.0737305,0
38750,0.366211,-0.939453,0.0571289,0
38770,0.350586,-0.937988,0.0522461,0
38790,0.351074,-0.943848,0.0449219,0
38810,0.375977,-0.921387,0.043457,0
38830,0.388672,-0.903809,0.0419922,0
38850,0.355957,-0.900879,0.0239258,0
38870,0.357422,-0.927734,0.034668,0
38890,0.401855,-0.92334,0.0512695,0
38910,0.40332,-0.90332,0.0439453,0
38930,0.36084,-0.87207,0.00195312,0
38950,0.352539,-0.897461,-0.0317383,0
38970,0.384277,-0.900879,0.0214844,0
38990,0.390625,-0.881348,0.043457,0
39010,0.353516,-0.864258,0.0175781,0
39030,0.39502,-0.889648,-0.019043,0
39050,0.506836,-0.904785,0.00439453,0
39070,0.522461,-0.902344,0.0283203,0
39090,0.450195,-0.878906,0.00927734,0
39110,0.416992,-0.877441,-0.0415039,0
39130,0.467285,-0.892578,-0.0361328,0
39150,0.51123,-0.902832,-0.00439453,0
39170,0.462891,-0.868164,0.0117188,0
39190,0.42334,-0.838379,-0.043457,0
39210,0.47998,-0.855469,-0.0527344,0
39230,0.567871,-0.86377,-0.0224609,0
39250,0.548828,-0.856445,-0.0195312,0
39270,0.48877,-0.831055,-0.0498047,0
39290,0.500488,-0.833496,-0.0527344,0
39310,0.546875,-0.825195,-0.0288086,0
39330,0.549316,-0.806152,-0.0356445,0
39350,0.509766,-0.824219,-0.0795898,0
39370,0.550293,-0.841797,-0.0742188,0
39390,0.623535,-0.821289,-0.00976562,0
39410,0.625,-0.79248,-0.00292969,0
39430,0.571777,-0.758789,-0.0258789,0
39450,0.571777,-0.745605,-0.0419922,0
39470,0.59375,-0.774414,-0.0600586,0
39490,0.590332,-0.765625,-0.0332031,0
39510,0.596191,-0.757324,-0.0415039,0
39540,0.68457,-0.742676,-0.0463867,0
39560,0.668457,-0.722656,-0.0219727,0
39580,0.660156,-0.701172,-0.0400391,0
39600,0.6875,-0.71582,-0.0688477,0
39620,0.701172,-0.716797,-0.034668,0
39640,0.73877,-0.681641,-0.0327148,0
39660,0.760742,-0.666016,-0.0166016,0
39680,0.76123,-0.668457,-0.0214844,0
39700,0.735352,-0.666504,-0.0175781,0
39730,0.738281,-0.638672,-0.0146484,0
39740,0.740723,-0.635254,0,0
39760,0.749512,-0.631348,0.00976562,0
39780,0.765137,-0.614258,0.0234375,0
39800,0.758789,-0.613281,0.0297852,0
39820,0.765137,-0.619629,0.0288086,0
39840,0.814453,-0.618652,0.0366211,0
39860,0.808594,-0.618652,0.0810547,0
39880,0.763672,-0.624512,0.0981445,0
39900,0.741211,-0.628906,0.0678711,0
39920,0.790527,-0.638672,0.0927734,0
39940,0.829102,-0.63623,0.114258,0
39960,0.814941,-0.613281,0.10498,0
39980,0.749023,-0.614258,0.154297,0
40000,0.682617,-0.635742,0.166016,0
40020,0.6875,-0.6875,0.158203,0
40040,0.727051,-0.658691,0.172852,0
40060,0.733887,-0.651855,0.178223,0
40080,0.715332,-0.63623,0.1875,0
40100,0.674805,-0.623047,0.21582,0
40120,0.661621,-0.64209,0.232422,0
40140,0.683105,-0.67627,0.198242,0
40160,0.71875,-0.692383,0.218262,0
40180,0.726074,-0.662109,0.270996,0
40200,0.690918,-0.702637,0.246094,0
40220,0.668945,-0.703613,0.226562,0
40240,0.666992,-0.680664,0.263672,0
40260,0.669922,-0.669922,0.271973,0
40280,0.657227,-0.663086,0.257812,0
40300,0.636719,-0.690918,0.250488,0
40320,0.63916,-0.709961,0.268555,0
40340,0.641602,-0.69043,0.260742,0
40360,0.625488,-0.671387,0.241211,0
40380,0.571289,-0.669434,0.258301,0
40400,0.525879,-0.712891,0.262207,0
40420,0.555664,-0.73877,0.293945,0
40440,0.580566,-0.711426,0.273926,0
40460,0.569824,-0.70752,0.23584,0
40480,0.572754,-0.70459,0.264648,0
40500,0.541016,-0.696777,0.300293,0
40520,0.500488,-0.73877,0.282227,0
40540,0.504883,-0.782715,0.262695,0
40560,0.524902,-0.766113,0.283203,0
40580,0.550293,-0.72998,0.266602,0
40600,0.569824,-0.719238,0.284668,0
40620,0.54834,-0.73584,0.315918,0
40640,0.47998,-0.772949,0.274414,0
40660,0.487305,-0.791992,0.261719,0
40680,0.526367,-0.792969,0.290527,0
40700,0.51709,-0.766602,0.296387,0
40720,0.482422,-0.772461,0.289551,0
40740,0.463379,-0.79541,0.280762,0
40760,0.505859,-0.796875,0.267578,0
40780,0.525391,-0.76416,0.315918,0
40800,0.48584,-0.776855,0.27832,0
40820,0.416016,-0.791016,0.259766,0
40840,0.425781,-0.789062,0.250488,0
40860,0.47998,-0.799805,0.261719,0
40880,0.491211,-0.793945,0.260254,0
40900,0.431641,-0.776367,0.218262,0
40920,0.379395,-0.780273,0.198242,0
40940,0.387207,-0.80957,0.217285,0
40960,0.405762,-0.852051,0.204102,0
40980,0.375488,-0.874512,0.199707,0
41000,0.39209,-0.867676,0.219238,0
41020,0.413086,-0.879883,0.236816,0
41040,0.413086,-0.894531,0.210449,0
41060,0.398926,-0.90332,0.183105,0
41080,0.405273,-0.877441,0.208008,0
41100,0.399902,-0.858398,0.206543,0
41120,0.380371,-0.874023,0.172363,0
41140,0.384766,-0.89502,0.157715,0
41160,0.397949,-0.861328,0.165527,0
41180,0.354004,-0.841797,0.157715,0
41200,0.353516,-0.87207,0.139648,0
41220,0.372559,-0.896973,0.141602,0
41240,0.377441,-0.904297,0.138184,0
41260,0.356934,-0.895508,0.131836,0
41280,0.351562,-0.914551,0.0888672,0
41300,0.377441,-0.919922,0.103027,0
41320,0.375488,-0.900879,0.114746,0
41340,0.339355,-0.899902,0.10791,0
41360,0.32666,-0.931152,0.0644531,0
41380,0.35498,-0.920898,0.0458984,0
41400,0.335449,-0.854492,0.0874023,0
41420,0.315918,-0.863281,0.03125,0
41440,0.376953,-0.907715,-0.012207,0
41460,0.380371,-0.915039,0.0507812,0
41480,0.329102,-0.869629,0.0493164,0
41500,0.34375,-0.870605,-0.0229492,0
41520,0.396484,-0.924316,-0.0239258,0
41540,0.411133,-0.928223,-0.00732422,0
41560,0.34375,-0.883789,-0.00976562,0
41580,0.328613,-0.889648,-0.0385742,0
41600,0.427246,-0.932129,-0.00830078,0
41620,0.459961,-0.918457,0.00878906,0
41640,0.404297,-0.876953,-0.050293,0
41660,0.381836,-0.879883,-0.0712891,0
41680,0.431152,-0.895996,-0.0307617,0
41700,0.453125,-0.880859,-0.0229492,0
41720,0.424316,-0.84668,-0.0810547,0
41740,0.41748,-0.87207,-0.112793,0
41760,0.470215,-0.908691,-0.0620117,0
41770,0.474609,-0.890137,-0.0327148,0
41790,0.438477,-0.835449,-0.0786133,0
41810,0.467285,-0.833984,-0.128906,0
41830,0.551758,-0.849609,-0.0712891,0
41850,0.576172,-0.822754,-0.0493164,0
41870,0.514648,-0.77832,-0.114258,0
41890,0.520996,-0.797852,-0.177734,0
41910,0.529785,-0.803711,-0.128906,0
41930,0.487793,-0.775879,-0.0952148,0
41950,0.501953,-0.752441,-0.0991211,0
41970,0.646484,-0.766113,-0.121094,0
41990,0.728027,-0.796387,-0.0830078,0
42010,0.666504,-0.777344,-0.147949,0
42030,0.625,-0.754883,-0.214844,0
42050,0.657227,-0.739746,-0.154785,0
42070,0.682129,-0.730469,-0.0957031,0
42090,0.654297,-0.743652,-0.151855,0
42110,0.646973,-0.736328,-0.179688,0
42130,0.697266,-0.710449,-0.134766,0
42150,0.708984,-0.695801,-0.143555,0
42170,0.697266,-0.65332,-0.162598,0
42190,0.679199,-0.625977,-0.120117,0
42210,0.715332,-0.623535,-0.09375,0
42230,0.774414,-0.631348,-0.132324,0
42250,0.811523,-0.608887,-0.1875,0
42270,0.826172,-0.570801,-0.146973,0
42290,0.79541,-0.567383,-0.101562,0
42310,0.79834,-0.570312,-0.0947266,0
42330,0.856934,-0.569824,-0.101562,0
42350,0.888184,-0.536133,-0.0625,0
42370,0.854004,-0.509277,-0.0981445,0
42390,0.819824,-0.499512,-0.114258,0
42410,0.823242,-0.519043,-0.0722656,0
42430,0.835938,-0.525879,-0.0405273,0
42450,0.819824,-0.521973,-0.0620117,0
42470,0.828125,-0.497559,-0.0678711,0
42490,0.847656,-0.477051,-0.00195312,0
42510,0.836426,-0.472168,0.0161133,0
42530,0.853516,-0.499023,-0.00244141,0
42550,0.878418,-0.519043,0.00537109,0
42570,0.877441,-0.503418,0.0351562,0
42590,0.875,-0.500977,0.0102539,0
42610,0.876465,-0.512207,0.0117188,0
42630,0.862305,-0.525391,0.0405273,0
42650,0.852051,-0.51709,0.0654297,0
42670,0.867676,-0.516113,0.0629883,0
42690,0.874512,-0.530273,0.0703125,0
42710,0.871094,-0.536621,0.0605469,0
42730,0.878906,-0.515625,0.0883789,0
42750,0.854492,-0.524902,0.102539,0
42770,0.828613,-0.532227,0.0932617,0
42790,0.840332,-0.530273,0.0981445,0
42810,0.83252,-0.518555,0.108887,0
42830,0.806641,-0.520508,0.112793,0
42850,0.779297,-0.53418,0.143555,0
42870,0.772949,-0.5625,0.165039,0
42890,0.800781,-0.57373,0.135254,0
42910,0.803711,-0.648438,0.12207,0
42930,0.829102,-0.540527,0.213379,0
42950,0.720215,-0.451172,0.215332,0
42970,0.67041,-0.529297,0.147461,0
42990,0.699219,-0.583984,0.209961,0
43010,0.739258,-0.64502,0.260742,0
43030,0.759766,-0.658691,0.242676,0
43050,0.74707,-0.591309,0.216797,0
43070,0.761719,-0.607422,0.20166,0
43090,0.738281,-0.609863,0.211914,0
43110,0.660645,-0.64502,0.196777,0
43130,0.660156,-0.686035,0.20459,0
43150,0.67334,-0.691895,0.230957,0
43170,0.674316,-0.665527,0.216309,0
43190,0.654785,-0.650879,0.184082,0
43210,0.664551,-0.710938,0.200195,0
43230,0.69043,-0.706543,0.286621,0
43250,0.613281,-0.678223,0.27002,0
43270,0.555664,-0.743164,0.233398,0
43290,0.618652,-0.785156,0.217773,0
43310,0.601074,-0.759277,0.266113,0
43330,0.533691,-0.743164,0.230469,0
43350,0.600098,-0.778809,0.158691,0
43370,0.637695,-0.805176,0.168457,0
43390,0.600586,-0.736328,0.172363,0
43410,0.475098,-0.717773,0.163574,0
43430,0.432129,-0.791504,0.114258,0
43450,0.492676,-0.84082,0.132324,0
43470,0.491699,-0.820312,0.141602,0
43490,0.509277,-0.774902,0.151367,0
43510,0.430664,-0.789062,0.123535,0
43530,0.421875,-0.850586,0.0791016,0
43550,0.537598,-0.875977,0.11084,0
43570,0.533691,-0.850098,0.127441,0
43590,0.416504,-0.828125,0.0776367,0
43610,0.438477,-0.851562,0.0776367,0
43630,0.52832,-0.859863,0.115234,0
43650,0.447266,-0.813965,0.0493164,0
43670,0.393066,-0.835449,0,0
43690,0.500977,-0.858398,0.0620117,0
43710,0.432129,-0.833496,0.0834961,0
43730,0.406738,-0.817383,0.00830078,0
43750,0.448242,-0.849609,0.0219727,0
43770,0.483887,-0.863281,0.0209961,0
43790,0.437012,-0.838379,0.00390625,0
43810,0.369141,-0.820801,0.0180664,0
43830,0.376953,-0.884277,-0.00683594,0
43850,0.486328,-0.913574,-0.0317383,0
43870,0.463379,-0.885742,-0.0112305,0
43890,0.346191,-0.843262,-0.027832,0
43910,0.369629,-0.900391,-0.0395508,0
43930,0.508301,-0.958496,-0.0317383,0
43950,0.440918,-0.893066,-0.0356445,0
43970,0.384277,-0.834961,-0.0727539,0
43990,0.458496,-0.900391,-0.0786133,0
44010,0.468262,-0.904297,-0.0756836,0
44030,0.378418,-0.853027,-0.106445,0
44050,0.37207,-0.840332,-0.128418,0
44070,0.458008,-0.90918,-0.0996094,0
44090,0.455078,-0.901855,-0.123047,0
44110,0.379883,-0.844727,-0.152832,0
44130,0.412598,-0.864258,-0.199219,0
44150,0.482422,-0.906738,-0.163574,0
44170,0.444336,-0.890137,-0.135742,0
44190,0.395996,-0.843262,-0.182129,0
44210,0.420898,-0.87793,-0.219238,0
44230,0.489258,-0.897949,-0.212402,0
44250,0.474121,-0.84668,-0.174316,0
44270,0.45166,-0.835449,-0.161621,0
44290,0.508789,-0.883789,-0.202148,0
44310,0.564941,-0.888184,-0.244141,0
44330,0.521484,-0.818848,-0.220215,0
44350,0.475098,-0.769043,-0.200684,0
44370,0.481934,-0.77002,-0.219238,0
44390,0.521484,-0.786621,-0.237793,0
44410,0.505859,-0.755859,-0.254883,0
44430,0.446777,-0.719727,-0.256836,0
44450,0.411621,-0.763672,-0.251953,0
44470,0.515137,-0.733887,-0.236816,0
44490,0.612305,-0.725586,-0.158691,0
44510,0.619629,-0.687988,-0.21875,0
44530,0.64502,-0.703613,-0.345703,0
44550,0.733887,-0.721191,-0.358398,0
44570,0.737305,-0.695312,-0.164551,0
44590,0.694336,-0.628418,-0.126953,0
44610,0.745117,-0.617188,-0.318359,2001
44630,0.864746,-0.648926,-0.291504,0
44650,0.831055,-0.649902,-0.1875,0
44670,0.797852,-0.609863,-0.216309,0
44690,0.861328,-0.599121,-0.248535,0
44710,0.918945,-0.609863,-0.207031,0
44730,0.87793,-0.599609,-0.201172,0
44750,0.810547,-0.571777,-0.226074,0
44770,0.819336,-0.556641,-0.212402,0
44790,0.834961,-0.575195,-0.204102,0
44810,0.802734,-0.549805,-0.186523,0
44830,0.771973,-0.532227,-0.221191,0
44850,0.741211,-0.534668,-0.242676,0
44870,0.777344,-0.569336,-0.263184,0
44890,0.789551,-0.599121,-0.203613,0
44910,0.743164,-0.564941,-0.196289,0
44930,0.696289,-0.529297,-0.217285,0
44950,0.711914,-0.528809,-0.276367,0
44970,0.72998,-0.555176,-0.299805,0
44990,0.680664,-0.599609,-0.233398,0
45010,0.635742,-0.628418,-0.166016,0
45030,0.657715,-0.633301,-0.220215,0
45050,0.681641,-0.614746,-0.255371,0
45070,0.688965,-0.554199,-0.21875,0
45090,0.673828,-0.507324,-0.169922,0
45110,0.695801,-0.52832,-0.15332,0
45130,0.724609,-0.560547,-0.168457,0
45150,0.670898,-0.616699,-0.147949,0
45170,0.637207,-0.592285,-0.134277,0
45190,0.689941,-0.536133,-0.108887,0
45210,0.729492,-0.527832,-0.0942383,0
45220,0.669922,-0.512207,-0.0991211,0
45240,0.645508,-0.574219,-0.149414,0
45260,0.728516,-0.661133,-0.10498,0
45280,0.789551,-0.630859,-0.0869141,0
45300,0.699219,-0.553223,-0.0297852,0
45320,0.56543,-0.654297,-0.0366211,0
45340,0.620605,-0.760742,-0.0698242,0
45360,0.693359,-0.829102,-0.0170898,0
45380,0.60791,-0.79834,0.0703125,0
45400,0.509766,-0.778809,0.0952148,0
45420,0.479492,-0.881836,0.0600586,0
45440,0.491699,-0.913574,0.0634766,0
45460,0.49707,-0.864746,0.164062,0
45480,0.438477,-0.842285,0.206543,0
45500,0.34375,-0.913086,0.189941,0
45520,0.320801,-1.03467,0.117188,0
45540,0.347168,-1.01367,0.189453,0
45560,0.333496,-0.928223,0.277832,0
45580,0.271973,-0.946777,0.234375,0
45600,0.270996,-1.07422,0.173828,0
45620,0.332031,-1.09961,0.187012,0
45640,0.330566,-1.03857,0.241211,0
45660,0.261719,-1.03125,0.208008,0
45680,0.259277,-1.05762,0.14502,0
45700,0.300293,-1.06982,0.202637,0
45720,0.285645,-1.021,0.253418,0
45740,0.243164,-1.01318,0.208984,0
45760,0.223145,-1.02539,0.179688,0
45780,0.229004,-1.03369,0.214844,0
45800,0.224609,-1.03174,0.276367,0
45820,0.177246,-1.00439,0.274902,0
45840,0.145996,-0.983887,0.295898,0
45860,0.139648,-0.968262,0.262207,0
45880,0.158203,-0.978027,0.289062,0
45900,0.162109,-0.95166,0.316895,0
45920,0.125488,-0.95166,0.310547,0
45940,0.120117,-0.972656,0.237793,0
45960,0.124512,-0.95166,0.212402,0
45980,0.0966797,-0.896973,0.253906,0
46000,0.0771484,-0.859863,0.28418,0
46020,0.0541992,-0.859375,0.257812,0
46040,0.0688477,-0.883789,0.23584,0
46060,0.0996094,-0.897461,0.236328,0
46080,0.120117,-0.907715,0.270996,0
46100,0.149902,-0.920898,0.242188,0
46120,0.157715,-0.935059,0.203613,0
46140,0.149902,-0.914062,0.233887,0
46160,0.164062,-0.899414,0.263184,0
46180,0.189941,-0.904297,0.257324,0
46200,0.230469,-0.926758,0.224121,0
46220,0.246094,-0.949707,0.212402,0
46240,0.240234,-0.94043,0.227051,0
46260,0.257812,-0.943359,0.247559,0
46280,0.320312,-0.94043,0.208008,0
46300,0.338867,-0.918457,0.179199,0
46320,0.298828,-0.90918,0.185547,0
46340,0.256348,-0.895508,0.197754,0
46360,0.288574,-0.893555,0.191895,0
46380,0.338379,-0.92627,0.189941,0
46400,0.335938,-0.911621,0.18457,0
46420,0.310059,-0.897461,0.194336,0
46440,0.3125,-0.888672,0.20459,0
46460,0.344727,-0.880371,0.183105,0
46480,0.372559,-0.893555,0.168457,0
46500,0.389648,-0.894043,0.16748,0
46520,0.427734,-0.888184,0.211426,0
46540,0.469727,-0.877441,0.169434,0
46560,0.443359,-0.878906,0.151367,0
46580,0.392578,-0.86084,0.152832,0
46600,0.427734,-0.861816,0.13916,0
46620,0.520508,-0.855957,0.155273,0
46640,0.570801,-0.848633,0.124023,0
46660,0.532715,-0.827637,0.100586,0
46680,0.555664,-0.827637,0.0942383,0
46700,0.587891,-0.820312,0.0786133,0
46720,0.571289,-0.830078,0.078125,0
46740,0.549805,-0.807129,0.0761719,0
46760,0.525879,-0.790039,0.0712891,0
46780,0.523926,-0.818359,0.0551758,0
46800,0.489258,-0.851074,0.0888672,0
46820,0.443359,-0.840332,0.118164,0
46840,0.432617,-0.847656,0.156738,0
46860,0.416992,-0.888672,0.139648,0
46880,0.376953,-0.850098,0.155273,0
46900,0.369141,-0.835449,0.237793,0
46920,0.40625,-0.825684,0.243164,0
46940,0.419922,-0.865234,0.194824,0
46960,0.376953,-0.905273,0.238281,0
46980,0.338867,-0.902832,0.264648,0
47000,0.385254,-0.90625,0.216797,0
47020,0.400391,-0.927246,0.20459,0
47040,0.378418,-0.948242,0.212402,0
47060,0.384277,-0.963867,0.186035,0
47080,0.395508,-0.953125,0.185547,0
47090,0.424316,-0.902344,0.180176,0
47120,0.42334,-0.898926,0.189453,0
47140,0.403809,-0.912109,0.192871,0
47160,0.405273,-0.928223,0.163574,0
47180,0.395508,-0.938477,0.146973,0
47200,0.338867,-0.933594,0.22168,0
47220,0.28125,-0.948242,0.216797,0
47230,0.286621,-0.919922,0.195312,0
47250,0.28125,-0.859375,0.219727,0
47270,0.240723,-0.867188,0.228516,0
47290,0.20166,-0.910156,0.228516,0
47310,0.191895,-0.944336,0.20752,0
47330,0.194824,-0.93457,0.20459,0
47350,0.1875,-0.905273,0.224121,0
47370,0.162598,-0.897461,0.229492,0
47390,0.137207,-0.902344,0.207031,0
47410,0.125977,-0.916016,0.182129,0
47430,0.125488,-0.908691,0.200195,0
47450,0.114258,-0.92334,0.217773,0
47470,0.101562,-0.946289,0.172852,0
47490,0.10791,-0.972168,0.179688,0
47510,0.102539,-0.925293,0.20459,0
47530,0.111328,-0.92334,0.196777,0
47550,0.101562,-0.954102,0.186035,0
47570,0.10791,-0.95459,0.208496,0
47590,0.081543,-0.939453,0.208496,0
47610,0.0585938,-0.921387,0.261719,0
47630,0.0366211,-0.922852,0.20459,0
47650,0.0561523,-0.933594,0.210449,0
47670,0.0952148,-0.96875,0.227051,0
47690,0.12207,-0.984375,0.186523,0
47710,0.179199,-0.990723,0.185059,0
47730,0.204102,-0.966797,0.179688,0
47750,0.178711,-0.929688,0.194824,0
47770,0.166504,-0.963867,0.202148,0
47790,0.199707,-0.985352,0.19043,0
47810,0.263672,-0.95752,0.189941,0
47830,0.255859,-0.921875,0.189453,0
47850,0.203125,-0.907227,0.187012,0
47870,0.19043,-0.922363,0.151855,0
47890,0.226074,-0.935059,0.171875,0
47910,0.245605,-0.910645,0.181641,0
47930,0.231934,-0.897461,0.175781,0
47950,0.201172,-0.890625,0.163086,0
47970,0.178223,-0.903809,0.185547,0
47990,0.194336,-0.897461,0.192871,0
48010,0.214844,-0.890625,0.205078,0
48030,0.220215,-0.921387,0.174805,0
48050,0.249512,-0.939453,0.166992,0
48070,0.296875,-0.953613,0.169922,0
48090,0.292969,-0.958984,0.194336,0
48110,0.28125,-0.930664,0.192383,0
48130,0.280273,-0.928711,0.197266,0
48150,0.313965,-0.922363,0.166016,0
48170,0.335449,-0.922852,0.177246,0
48190,0.308105,-0.910645,0.189453,0
48210,0.297852,-0.916016,0.155762,0
48230,0.364746,-0.921875,0.145508,0
48250,0.407227,-0.932129,0.165039,0
48270,0.36377,-0.905762,0.17334,0
48290,0.317383,-0.883301,0.161621,0
48310,0.354004,-0.908691,0.151855,0
48330,0.416504,-0.906738,0.157227,0
48350,0.415039,-0.899414,0.147949,0
48370,0.385254,-0.890625,0.140625,0
48390,0.397949,-0.880371,0.157715,0
48410,0.475586,-0.881348,0.141113,0
48430,0.52002,-0.897461,0.105957,0
48450,0.532227,-0.880371,0.109375,0
48470,0.470215,-0.863281,0.132812,0
48490,0.403809,-0.816895,0.146973,0
48510,0.407227,-0.799805,0.137695,0
48530,0.415039,-0.851074,0.126953,0
48550,0.379395,-0.862305,0.0981445,0
48570,0.362793,-0.847168,0.111328,0
48590,0.444336,-0.836914,0.160645,0
48610,0.540527,-0.864258,0.128906,0
48630,0.539062,-0.882812,0.101074,0
48650,0.475586,-0.839355,0.122559,0
48670,0.440918,-0.805664,0.142578,0
48690,0.477051,-0.8125,0.132812,0
48710,0.535156,-0.86084,0.104004,0
48730,0.530762,-0.876953,0.0708008,0
48750,0.506836,-0.835938,0.0966797,0
48770,0.539062,-0.835938,0.0898438,0
48790,0.550781,-0.860352,0.0703125,0
48810,0.534668,-0.838867,0.0751953,0
48830,0.494629,-0.831543,0.0805664,0
48850,0.527344,-0.839355,0.0756836,0
48870,0.536133,-0.874023,0.0786133,0
48890,0.499512,-0.885254,0.105957,0
48910,0.478027,-0.862793,0.0986328,0
48930,0.464844,-0.840332,0.134277,0
48950,0.433105,-0.87793,0.171387,0
48970,0.422363,-0.879395,0.191895,0
48990,0.438477,-0.901855,0.143555,0
49010,0.452637,-0.880859,0.127441,0
49030,0.406738,-0.864746,0.171387,0
49050,0.374023,-0.872559,0.1875,0
49070,0.413574,-0.897949,0.15918,0
49090,0.43457,-0.913086,0.151367,0
49110,0.422363,-0.925293,0.178711,0
49130,0.390137,-0.932617,0.151855,0
49150,0.369141,-0.922852,0.149414,0
49170,0.355469,-0.889648,0.161133,0
49190,0.357422,-0.876953,0.173828,0
49210,0.349609,-0.927246,0.177246,0
49230,0.34082,-0.974609,0.209961,0
49250,0.309082,-0.910156,0.188965,0
49270,0.261719,-0.899902,0.185547,0
49290,0.250488,-0.917969,0.207031,0
49310,0.257324,-0.937012,0.219727,0
49330,0.241211,-0.95752,0.159668,0
49350,0.225586,-0.95166,0.130859,0
49370,0.206055,-0.900879,0.192871,0
49390,0.179688,-0.911133,0.188965,0
49410,0.146973,-0.944336,0.182617,0
49430,0.107422,-0.939453,0.187988,0
49450,0.100586,-0.913086,0.180176,0
49470,0.0957031,-0.898926,0.196777,0
49490,0.09375,-0.92041,0.213867,0
49510,0.106445,-0.94873,0.202637,0
49530,0.13623,-0.978027,0.189453,0
49550,0.15625,-0.969238,0.201172,0
49570,0.130859,-0.947266,0.208008,0
49590,0.0927734,-0.943359,0.22168,0
49610,0.109375,-0.971191,0.192871,0
49630,0.117676,-0.97168,0.172363,0
49650,0.100586,-0.947266,0.199219,0
49670,0.0561523,-0.932617,0.230469,0
49690,0.0634766,-0.949219,0.197266,0
49710,0.0991211,-0.933594,0.215332,0
49730,0.0942383,-0.900391,0.216797,0
49750,0.0605469,-0.918945,0.186523,0
49770,0.019043,-0.929199,0.199219,0
49790,0.0351562,-0.925293,0.223633,0
49810,0.0825195,-0.91748,0.224609,0
49830,0.11377,-0.93457,0.219238,0
49850,0.161621,-0.94043,0.207031,0
49870,0.230957,-0.975586,0.221191,0
49890,0.295898,-0.959473,0.196289,0
49910,0.26709,-0.910156,0.187012,0
49930,0.192383,-0.920898,0.17041,0
49950,0.205078,-0.966797,0.168945,0
49970,0.325684,-0.980957,0.173828,0
49990,0.361816,-0.927246,0.177734,0
50010,0.283203,-0.910156,0.161133,0
50030,0.233887,-0.936035,0.146973,0
50050,0.259766,-0.953613,0.165039,0
50070,0.308594,-0.947266,0.19043,0
50090,0.304688,-0.916504,0.19043,0
50110,0.256348,-0.89209,0.179688,0
50130,0.247559,-0.891602,0.166992,0
50150,0.268066,-0.908691,0.163086,0
50170,0.3125,-0.925293,0.167969,0
50190,0.302246,-0.896973,0.181152,0
50210,0.26123,-0.899414,0.165039,0
50230,0.26709,-0.913086,0.15332,0
50250,0.296387,-0.904297,0.166504,0
50270,0.303223,-0.871582,0.214355,0
50290,0.311035,-0.865234,0.245117,0
50310,0.319824,-0.850098,0.263672,0
50330,0.331543,-0.859375,0.271973,0
50350,0.331055,-0.863281,0.260254,0
50370,0.306152,-0.835938,0.270996,0
50390,0.258301,-0.862793,0.29248,0
50410,0.270508,-0.924805,0.249512,0
50430,0.333496,-0.943848,0.233887,0
50450,0.330566,-0.927734,0.272461,0
50470,0.294922,-0.888672,0.288574,0
50490,0.273438,-0.902832,0.295898,0
50510,0.27832,-0.937988,0.263184,0
50530,0.316406,-0.941406,0.299805,0
50550,0.341797,-0.964844,0.276855,0
50570,0.324219,-0.992676,0.203125,0
50590,0.306641,-0.901855,0.239746,0
50610,0.302246,-0.844727,0.298828,0
50630,0.317383,-0.84082,0.280273,0
50650,0.330566,-0.818359,0.316895,0
50670,0.334473,-0.869141,0.35498,0
50690,0.345215,-0.86084,0.315918,0
50700,0.340332,-0.8125,0.310059,0
50720,0.333984,-0.786621,0.305664,0
50740,0.341797,-0.804688,0.302734,0
50760,0.342285,-0.81543,0.309082,0
50780,0.348633,-0.850098,0.29834,0
50800,0.34375,-0.907227,0.310547,0
50820,0.306641,-0.900391,0.313965,0
50840,0.27832,-0.875977,0.300781,0
50860,0.29248,-0.855469,0.318848,0
50880,0.297852,-0.835449,0.341797,0
50900,0.283691,-0.817383,0.359863,0
50920,0.315918,-0.791504,0.362793,0
50940,0.32373,-0.835449,0.354004,0
50960,0.313477,-0.857422,0.335938,0
50980,0.299316,-0.805176,0.358398,0
51000,0.304688,-0.820801,0.371582,0
51020,0.308105,-0.868164,0.351074,0
51040,0.356445,-0.913086,0.305176,0
51060,0.36084,-0.935059,0.331055,0
51080,0.306641,-0.936523,0.368164,0
51100,0.272949,-0.881836,0.296875,0
51120,0.263672,-0.817383,0.335938,0
51140,0.275391,-0.830566,0.414062,0
51160,0.317871,-0.867676,0.393066,0
51180,0.289062,-0.900391,0.386719,0
51200,0.29248,-0.925293,0.330566,0
51220,0.324707,-0.826172,0.315918,0
51240,0.314453,-0.765137,0.380859,0
51260,0.308105,-0.783691,0.319336,0
51280,0.289062,-0.807617,0.299316,0
51300,0.251953,-0.822754,0.336914,0
51320,0.231934,-0.863281,0.388672,0
51340,0.209961,-0.894043,0.425293,0
51360,0.333496,-0.897461,0.378906,0
51380,0.40625,-0.882812,0.277832,0
51400,0.305664,-0.871582,0.257324,0
51420,0.268555,-0.818359,0.291504,0
51440,0.275879,-0.818848,0.293945,0
51460,0.259766,-0.842285,0.285645,0
51480,0.248535,-0.845215,0.289551,0
51500,0.254883,-0.848145,0.339844,0
51520,0.28125,-0.855469,0.395508,0
51540,0.281738,-0.865234,0.347168,0
51560,0.270996,-0.838379,0.348145,0
51580,0.29541,-0.879883,0.3125,0
51600,0.319336,-0.895996,0.34668,0
51620,0.285156,-0.910156,0.334961,0
51640,0.222168,-0.901855,0.338379,0
51660,0.241699,-0.865723,0.335449,0
51680,0.26416,-0.860352,0.355957,0
51700,0.248535,-0.866699,0.331055,0
51720,0.26123,-0.898438,0.333008,0
51740,0.265137,-0.900391,0.296387,0
51760,0.277832,-0.870117,0.301758,0
51780,0.275879,-0.908691,0.325684,0
51800,0.263184,-0.927734,0.321289,0
51820,0.234863,-0.904785,0.302246,0
51840,0.23584,-0.888184,0.28418,0
51860,0.269531,-0.890137,0.289551,0
51880,0.286621,-0.92627,0.30127,0
51900,0.29248,-0.961426,0.307617,0
51920,0.342285,-0.946289,0.299316,0
51940,0.404785,-0.956543,0.263672,0
51960,0.432617,-0.973145,0.218262,0
51980,0.460938,-0.946777,0.23291,0
52000,0.437988,-0.88623,0.259766,0
52020,0.368652,-0.911133,0.231445,0
52040,0.311035,-0.967285,0.269531,0
52060,0.272461,-0.940918,0.341309,0
52080,0.254883,-0.89209,0.319336,0
52100,0.240723,-0.872559,0.253418,0
52120,0.182617,-0.806641,0.241211,0
52140,0.090332,-0.739746,0.329102,0
52160,0.0532227,-0.754395,0.370117,0
52180,0.0722656,-0.825684,0.311035,0
52200,0.0654297,-0.84082,0.280273,0
52220,0.00878906,-0.852539,0.27832,0
52240,-0.0610352,-0.919434,0.333496,0
52260,-0.00244141,-0.984863,0.337402,0
52280,0.103027,-0.946289,0.305176,0
52300,0.144531,-0.899902,0.240723,0
52320,0.125488,-0.846191,0.272461,0
52340,0.135254,-0.870605,0.264648,0
52360,0.173828,-0.89502,0.259766,0
52380,0.196289,-0.941406,0.248535,0
52400,0.149902,-0.977051,0.23584,0
52420,0.160645,-0.96582,0.241211,0
52440,0.203613,-0.978027,0.214355,0
52460,0.213379,-0.961426,0.265137,0
52480,0.247559,-0.96875,0.185547,0
52500,0.259277,-0.986816,0.146484,0
52520,0.252441,-0.949219,0.162598,0
52540,0.280762,-0.910645,0.187012,0
52560,0.283691,-0.887695,0.1875,0
52580,0.230469,-0.890625,0.202637,0
52600,0.182129,-0.952637,0.214844,0
52620,0.188477,-0.986328,0.16748,0
52640,0.203613,-0.914551,0.198242,0
52660,0.185059,-0.884277,0.213379,0
52680,0.191406,-0.900391,0.204102,0
52690,0.234863,-0.88623,0.21875,0
52710,0.279785,-0.869629,0.217773,0
52730,0.253418,-0.841309,0.240723,0
52750,0.218262,-0.847168,0.251465,0
52770,0.225098,-0.888672,0.259277,0
52790,0.259277,-0.887695,0.249023,0
52810,0.268555,-0.900391,0.268555,0
52830,0.25,-0.907715,0.278809,0
52850,0.225098,-0.939453,0.234863,0
52870,0.193359,-0.933594,0.234863,0
52890,0.189941,-0.928223,0.243652,0
52910,0.197266,-0.92627,0.277832,0
52930,0.214355,-0.977539,0.231445,0
52950,0.215332,-0.98877,0.241211,0
52970,0.181152,-0.939941,0.314453,0
52990,0.185547,-0.958496,0.333008,0
53010,0.17627,-1.00439,0.286621,0
53030,0.192383,-0.978027,0.249512,0
53050,0.199219,-0.918457,0.240723,0
53070,0.204102,-0.933105,0.248535,0
53090,0.199707,-0.930176,0.30957,0
53110,0.203613,-0.91748,0.375,0
53130,0.201172,-0.901855,0.32959,0
53150,0.178223,-0.893555,0.306641,0
53170,0.152832,-0.872559,0.330566,0
53190,0.162598,-0.854004,0.315918,0
53210,0.167969,-0.841309,0.316406,0
53230,0.157715,-0.856445,0.348145,0
53250,0.149414,-0.913574,0.375977,0
53270,0.152832,-0.941895,0.358398,0
53290,0.164551,-0.900391,0.325684,0
53310,0.175781,-0.893066,0.320312,0
53330,0.18457,-0.894043,0.305664,0
53350,0.169434,-0.875977,0.341797,0
53370,0.162109,-0.907715,0.357422,0
53390,0.187012,-0.943848,0.328125,0
53410,0.193848,-0.913086,0.317383,0
53430,0.151855,-0.916504,0.310059,0
53450,0.130371,-0.924316,0.343262,0
53470,0.146973,-0.92627,0.333984,0
53490,0.169922,-0.921875,0.322266,0
53510,0.161133,-0.873047,0.354004,0
53530,0.160645,-0.862793,0.39209,0
53550,0.144043,-0.905273,0.362305,0
53570,0.146484,-0.898438,0.344238,0
53590,0.15625,-0.853027,0.348145,0
53610,0.138184,-0.849121,0.356934,0
53630,0.146484,-0.875977,0.316406,0
53650,0.126465,-0.859863,0.366699,0
53670,0.111328,-0.881348,0.338867,0
53690,0.10498,-0.884766,0.371094,0
53710,0.14502,-0.924316,0.391113,0
53730,0.159668,-0.957031,0.335938,0
53750,0.141113,-0.941406,0.347656,0
53770,0.155762,-0.937988,0.322754,0
53790,0.158203,-0.931641,0.324707,0
53810,0.162109,-0.932617,0.333496,0
53830,0.17627,-0.919434,0.342773,0
53850,0.165039,-0.897949,0.354004,0
53870,0.185059,-0.921387,0.353516,0
53890,0.203613,-0.919922,0.344727,0
53910,0.211914,-0.929688,0.304199,0
53930,0.235352,-0.932617,0.280273,0
53950,0.257812,-0.955078,0.279297,0
53970,0.286133,-0.99707,0.277344,0
53990,0.330566,-1.01758,0.289551,0
54010,0.353516,-1.02197,0.307129,0
54030,0.307617,-1.00293,0.291504,0
54050,0.221191,-0.974121,0.274902,0
54070,0.173828,-0.935059,0.313965,0
54090,0.216797,-0.895508,0.291992,0
54110,0.193359,-0.865723,0.280762,0
54130,0.134766,-0.838867,0.32373,0
54150,0.0708008,-0.847168,0.338379,0
54170,0.0893555,-0.89209,0.341309,0
54190,0.142578,-0.921875,0.308105,0
54210,0.165039,-0.898438,0.288086,0
54230,0.123047,-0.880859,0.307617,0
54250,0.0620117,-0.89502,0.339844,0
54270,0.0546875,-0.922363,0.330566,0
54290,0.101074,-0.898438,0.311523,0
54310,0.113281,-0.86084,0.347656,0
54330,0.081543,-0.834473,0.339355,0
54350,0.0732422,-0.839355,0.307617,0
54370,0.0908203,-0.879883,0.32959,0
54390,0.108398,-0.904785,0.316895,0
54410,0.101562,-0.904297,0.312988,0
54430,0.0878906,-0.867676,0.322754,0
54450,0.0961914,-0.864746,0.344727,0
54470,0.12207,-0.889648,0.319824,0
54490,0.122559,-0.905762,0.308594,0
54510,0.141113,-0.931641,0.299316,0
54530,0.181152,-0.939453,0.285645,0
54550,0.196777,-0.915039,0.286133,0
54570,0.195801,-0.911621,0.273438,0
54590,0.224609,-0.943359,0.244629,0
54610,0.265137,-0.961426,0.257812,0
54630,0.262207,-0.945801,0.277344,0
54650,0.237793,-0.937988,0.254395,0
54670,0.210938,-0.950684,0.248047,0
54690,0.18457,-0.94043,0.273926,0
54710,0.120117,-0.890625,0.268066,0
54730,0.0761719,-0.871094,0.299805,0
54750,0.0727539,-0.85791,0.303711,2000
54770,0.0947266,-0.860352,0.259277,0
54790,0.133789,-0.870117,0.272461,0
54810,0.152344,-0.898438,0.289062,0
54830,0.171875,-0.904785,0.286621,0
54850,0.20752,-0.898926,0.27832,0
54870,0.218262,-0.921387,0.262695,0
54890,0.200195,-0.916504,0.271973,0
54910,0.17041,-0.908203,0.30957,0
54930,0.157715,-0.903809,0.306641,0
54950,0.160645,-0.919434,0.265137,0
54970,0.175781,-0.905762,0.213379,0
54990,0.191406,-0.892578,0.242676,0
55010,0.215332,-0.877441,0.26123,0
55030,0.219727,-0.892578,0.241699,0
55050,0.205566,-0.922363,0.236328,0
55070,0.206543,-0.933594,0.231934,0
55090,0.237793,-0.927734,0.239258,0
55110,0.259277,-0.900391,0.254883,0
55130,0.250488,-0.92334,0.26123,0
55150,0.274902,-0.925293,0.219727,0
55170,0.305664,-0.896484,0.22998,0
55190,0.332031,-0.891113,0.253418,0
55210,0.358887,-0.899414,0.220703,0
55230,0.364258,-0.932129,0.175293,0
55250,0.36084,-0.905273,0.190918,0
55270,0.328613,-0.868164,0.220215,0
55290,0.297852,-0.874023,0.21875,0
55310,0.312012,-0.905273,0.204102,0
55330,0.344238,-0.905273,0.205566,0
55350,0.364258,-0.899902,0.201172,0
55370,0.374512,-0.867188,0.21875,0
55390,0.365723,-0.859375,0.210449,0
55410,0.36377,-0.883789,0.209961,0
55430,0.370117,-0.883789,0.208008,0
55450,0.378418,-0.898926,0.212402,0
55470,0.379395,-0.881348,0.217285,0
55490,0.373047,-0.835938,0.239746,0
55510,0.376953,-0.821289,0.24707,0
55530,0.394043,-0.812988,0.231934,0
55550,0.388672,-0.829102,0.195312,0
55570,0.397461,-0.836914,0.180664,0
55590,0.413086,-0.825684,0.193359,0
55610,0.425293,-0.815918,0.219727,0
55630,0.449707,-0.835938,0.226074,0
55650,0.476562,-0.851074,0.226074,0
55670,0.506348,-0.830566,0.191895,0
55690,0.51709,-0.811035,0.187988,0
55720,0.540527,-0.791016,0.174805,0
55740,0.553711,-0.809082,0.182129,0
55750,0.563477,-0.780762,0.164551,0
55770,0.600098,-0.775879,0.160156,0
55790,0.620605,-0.76416,0.164551,0
55800,0.619629,-0.741699,0.189941,0
55820,0.623535,-0.75293,0.165527,0
55840,0.644043,-0.747559,0.143066,0
55860,0.647461,-0.72168,0.179199,0
55880,0.638184,-0.714844,0.172363,0
55900,0.621582,-0.709961,0.187988,0
55920,0.624512,-0.701172,0.206055,0
55940,0.634766,-0.695801,0.211426,0
55960,0.649414,-0.707031,0.228027,0
55980,0.687988,-0.713379,0.209473,0
56000,0.70166,-0.698242,0.222656,0
56020,0.657715,-0.706055,0.230957,0
56040,0.64209,-0.695312,0.21875,0
56060,0.634277,-0.719727,0.268066,0
56080,0.602051,-0.713379,0.294434,0
56090,0.599121,-0.700195,0.294922,0
56110,0.591797,-0.715332,0.299316,0
56130,0.592285,-0.705078,0.269531,0
56150,0.63623,-0.711426,0.256348,0
56170,0.649902,-0.715332,0.277344,0
56190,0.574707,-0.742676,0.266113,0
56210,0.524414,-0.749023,0.290039,0
56230,0.508301,-0.762695,0.34082,0
56250,0.51709,-0.794922,0.336914,0
56270,0.515625,-0.821289,0.304688,0
56290,0.520996,-0.782227,0.30957,0
56310,0.514648,-0.710938,0.323242,0
56330,0.520996,-0.691895,0.32666,0
56350,0.519043,-0.724609,0.325684,0
56370,0.480469,-0.763672,0.349121,0
56390,0.441895,-0.784668,0.338867,0
56410,0.448242,-0.787598,0.351074,0
56430,0.492188,-0.81543,0.361816,0
56450,0.510742,-0.787598,0.329102,0
56470,0.46582,-0.756348,0.307129,0
56490,0.426758,-0.768555,0.317871,0
56510,0.391602,-0.784668,0.36377,0
56530,0.405762,-0.808594,0.353027,0
56550,0.462891,-0.839355,0.322266,0
56570,0.464844,-0.810059,0.316406,0
56590,0.398438,-0.766113,0.352051,0
56610,0.371582,-0.803711,0.35791,0
56630,0.42627,-0.80957,0.338379,0
56650,0.438477,-0.78125,0.310547,0
56670,0.416016,-0.785645,0.327148,0
56690,0.368652,-0.796387,0.371094,0
56710,0.317383,-0.839844,0.351074,0
56730,0.311035,-0.824219,0.325195,0
56750,0.32373,-0.763184,0.299805,0
56770,0.325195,-0.773926,0.313965,0
56790,0.328125,-0.842285,0.328125,0
56810,0.333984,-0.875488,0.316895,0
56830,0.344727,-0.867676,0.316406,0
56850,0.363281,-0.86084,0.345703,0
56870,0.350098,-0.862305,0.347656,0
56890,0.346191,-0.866699,0.344727,0
56910,0.36084,-0.856934,0.34668,0
56930,0.333008,-0.838867,0.344238,0
56950,0.317383,-0.851562,0.336914,0
56970,0.328125,-0.849609,0.327148,0
56990,0.338867,-0.837402,0.336426,0
57010,0.32959,-0.85791,0.319824,0
57030,0.315918,-0.874512,0.32373,0
57050,0.293457,-0.878418,0.321289,0
57070,0.29541,-0.853027,0.329102,0
57090,0.305664,-0.836914,0.33252,0
57110,0.275879,-0.845215,0.313477,0
57130,0.253418,-0.852539,0.295898,0
57150,0.282227,-0.847168,0.3125,0
57170,0.294434,-0.864746,0.324707,0
57190,0.261719,-0.850098,0.294922,0
57210,0.24707,-0.864258,0.270996,0
57230,0.266602,-0.879395,0.271484,0
57250,0.290527,-0.858887,0.304688,0
57270,0.286133,-0.865234,0.299316,0
57290,0.261719,-0.876953,0.258301,0
57310,0.245605,-0.87793,0.25293,0
57330,0.252441,-0.879883,0.269531,0
57350,0.265625,-0.866699,0.304199,0
57370,0.242676,-0.864746,0.283691,0
57390,0.203613,-0.893555,0.239746,0
57410,0.220703,-0.925293,0.227051,0
57430,0.272461,-0.935059,0.256836,0
57450,0.257812,-0.937988,0.227539,0
57470,0.26123,-0.930664,0.202637,0
57490,0.30127,-0.94043,0.241211,0
57510,0.286133,-0.938477,0.235352,0
57530,0.242188,-0.938477,0.195312,0
57550,0.262695,-0.956055,0.216797,0
57570,0.270996,-0.952637,0.229004,0
57590,0.24707,-0.921387,0.208496,0
57610,0.254395,-0.927246,0.205566,0
57630,0.286133,-0.901855,0.192871,0
57650,0.270508,-0.882812,0.177734,0
57670,0.236816,-0.890625,0.177734,0
57690,0.25293,-0.902344,0.199219,0
57710,0.295898,-0.926758,0.184082,0
57730,0.263184,-0.938477,0.163574,0
57750,0.204102,-0.930176,0.125977,0
57770,0.185059,-0.906738,0.0917969,0
57790,0.195801,-0.907227,0.0952148,0
57810,0.214844,-0.925781,0.106934,0
57830,0.225098,-0.947754,0.0791016,0
57850,0.25293,-0.946289,0.0810547,0
57870,0.283691,-0.947266,0.0991211,0
57890,0.269531,-0.943848,0.078125,0
57910,0.251953,-0.946289,0.0507812,0
57930,0.273926,-0.949219,0.0712891,0
57950,0.292969,-0.921875,0.0585938,0
57970,0.257812,-0.896484,0.0380859,0
57990,0.242676,-0.918457,0.0444336,0
58010,0.294434,-0.941895,0.0424805,0
58030,0.339844,-0.92334,0.0664062,0
58050,0.325684,-0.915039,0.0249023,0
58070,0.312988,-0.916504,0.00292969,0
58080,0.345703,-0.938477,0.00683594,0
58100,0.38916,-0.926758,0.0478516,0
58120,0.39209,-0.911133,0.0366211,0
58140,0.394043,-0.910645,0.0131836,0
58160,0.39209,-0.905273,0.0117188,0
58180,0.369629,-0.893066,0.0209961,0
58200,0.35498,-0.900879,0.0166016,0
58220,0.406738,-0.914551,-0.0146484,0
58240,0.474609,-0.92041,-0.0234375,0
58260,0.466309,-0.897461,0.00976562,0
58280,0.405762,-0.854492,0.00146484,0
58300,0.392578,-0.850098,-0.0239258,0
58320,0.43457,-0.867676,-0.0214844,0
58340,0.460938,-0.870605,0.00927734,0
58360,0.46582,-0.85791,-0.0214844,0
58380,0.499512,-0.872559,-0.0737305,0
58400,0.560547,-0.864258,-0.0415039,0
58420,0.561523,-0.825195,0.0078125,0
58440,0.533691,-0.813965,-0.0175781,0
58460,0.513184,-0.828613,-0.0263672,0
58480,0.510254,-0.824219,-0.0219727,0
58500,0.553223,-0.822754,-0.0117188,0
58520,0.596191,-0.816406,-0.0356445,0
58540,0.580078,-0.789062,-0.0219727,0
58560,0.556641,-0.770508,-0.0317383,0
58580,0.609375,-0.793457,-0.0439453,0
58600,0.639648,-0.816406,-0.0297852,0
58620,0.622559,-0.791016,-0.0141602,0
58640,0.603516,-0.772461,-0.0209961,0
58660,0.628906,-0.763184,-0.0473633,0
58680,0.648926,-0.766113,-0.0400391,0
58700,0.645508,-0.74707,-0.0234375,0
58720,0.629883,-0.708984,-0.0102539,0
58740,0.674805,-0.714355,-0.00927734,0
58760,0.697266,-0.742188,-0.0297852,0
58780,0.680664,-0.723633,-0.012207,0
58800,0.649414,-0.694824,0.019043,0
58820,0.65625,-0.680664,0.0205078,0
58840,0.675293,-0.686035,0.00341797,0
58860,0.692383,-0.693359,0.0161133,0
58880,0.718262,-0.670898,0.0297852,0
58900,0.708496,-0.675293,0.0288086,0
58920,0.708984,-0.66748,0.0380859,0
58940,0.73584,-0.667969,0.0478516,0
58960,0.771973,-0.679688,0.043457,0
58980,0.777344,-0.654297,0.059082,0
59000,0.768066,-0.633301,0.0639648,0
59020,0.757812,-0.641113,0.0620117,0
59040,0.762695,-0.643555,0.0561523,0
59060,0.750977,-0.638184,0.0751953,0
59080,0.741699,-0.616699,0.102539,0
59100,0.746094,-0.618652,0.109863,0
59120,0.768555,-0.616699,0.100098,0
59140,0.774414,-0.61377,0.117188,0
59160,0.75,-0.627441,0.111328,0
59180,0.734375,-0.650879,0.122559,0
59200,0.73877,-0.621582,0.155273,0
59220,0.738281,-0.629395,0.161133,0
59240,0.768066,-0.652832,0.132812,0
59260,0.765137,-0.650391,0.149902,0
59280,0.729004,-0.630371,0.186523,0
59300,0.70166,-0.631836,0.216797,0
59320,0.710449,-0.646484,0.196289,0
59340,0.73584,-0.666016,0.192871,0
59360,0.729004,-0.666504,0.208496,0
59380,0.712891,-0.64502,0.207031,0
59400,0.70459,-0.658691,0.247559,0
59420,0.709473,-0.665039,0.250977,0
59440,0.691895,-0.679199,0.222656,0
59460,0.658203,-0.669922,0.271973,0
59480,0.660156,-0.645996,0.310547,0
59500,0.66748,-0.679688,0.345215,0
59520,0.653809,-0.687988,0.322754,0
59540,0.57959,-0.60498,0.27002,0
59560,0.564453,-0.599609,0.192871,0
59580,0.625977,-0.62793,0.243652,0
59600,0.625488,-0.657227,0.271484,0
59620,0.609375,-0.699219,0.286133,0
59640,0.604492,-0.724609,0.286621,0
59660,0.600098,-0.745605,0.283691,0
59680,0.585449,-0.737305,0.321289,0
59700,0.550781,-0.710938,0.306641,0
59720,0.551758,-0.719727,0.289062,0
59740,0.558105,-0.71875,0.282227,0
59760,0.539551,-0.727539,0.299805,0
59780,0.539062,-0.754395,0.301758,0
59800,0.542969,-0.749512,0.297363,0
59820,0.555176,-0.749512,0.273926,0
59840,0.553223,-0.72998,0.291016,0
59860,0.517578,-0.743652,0.297852,0
59880,0.510742,-0.78125,0.287109,0
59900,0.521973,-0.75293,0.296875,0
59920,0.510254,-0.753418,0.269043,0
59940,0.504395,-0.754883,0.300781,0
59960,0.493652,-0.75,0.321289,0
59980,0.471191,-0.748047,0.282227,0
60000,0.476562,-0.76123,0.260742,0
60020,0.49707,-0.758789,0.30957,0
60040,0.480469,-0.759277,0.327148,0
60060,0.433594,-0.775879,0.268066,0
60080,0.424316,-0.80957,0.260742,0
60100,0.445312,-0.79248,0.302734,0
60120,0.466309,-0.762695,0.293457,0
60140,0.467285,-0.758301,0.273438,0
60160,0.463867,-0.779785,0.260742,0
60180,0.45166,-0.804688,0.28418,0
60200,0.447266,-0.823242,0.274414,0
60220,0.46582,-0.819336,0.25293,0
60240,0.473145,-0.803711,0.228027,0
60260,0.447266,-0.77832,0.240723,0
60280,0.371094,-0.798828,0.265137,0
60300,0.341309,-0.811523,0.245117,0
60320,0.408691,-0.820312,0.238281,0
60340,0.494141,-0.809082,0.205078,0
60360,0.504883,-0.79541,0.198242,0
60380,0.489258,-0.802246,0.224609,0
60400,0.474609,-0.80957,0.237305,0
60420,0.472656,-0.839844,0.208496,0
60440,0.509277,-0.866699,0.194336,0
60460,0.515625,-0.843262,0.195312,0
60480,0.477051,-0.816895,0.197266,0
60500,0.45459,-0.816895,0.186523,0
60520,0.468262,-0.820312,0.202637,0
60540,0.47998,-0.849609,0.171875,0
60560,0.447754,-0.869629,0.15625,0
60580,0.444336,-0.856934,0.166016,0
60600,0.466797,-0.84668,0.191895,0
60620,0.436035,-0.835449,0.174805,0
60640,0.406738,-0.836914,0.155762,0
60660,0.438965,-0.86377,0.147461,0
60680,0.458496,-0.87207,0.137207,0
60700,0.436035,-0.866699,0.135742,0
60720,0.442383,-0.85498,0.142578,0
60740,0.453613,-0.863281,0.137207,0
60760,0.452148,-0.854004,0.108398,0
60780,0.440918,-0.862305,0.112793,0
60800,0.426758,-0.850098,0.124512,0
60820,0.402344,-0.842773,0.0893555,0
60840,0.389648,-0.859863,0.0263672,0
60860,0.411133,-0.867676,0.0390625,0
60880,0.425781,-0.87207,0.0991211,0
60900,0.427734,-0.888184,0.065918,0
60920,0.442383,-0.891602,0.00146484,0
60940,0.438965,-0.875488,0.0244141,0
60960,0.461426,-0.86084,0.0400391,0
60980,0.472656,-0.866211,-0.00927734,0
61000,0.455566,-0.857422,-0.0351562,0
61020,0.459961,-0.852051,-0.00878906,0
61040,0.510254,-0.848145,0.00634766,0
61060,0.535645,-0.848633,-0.0395508,0
61080,0.503906,-0.834961,-0.0507812,0
61100,0.487305,-0.824219,-0.0581055,0
61120,0.520508,-0.805176,-0.043457,0
61140,0.548828,-0.805176,-0.046875,0
61160,0.541504,-0.814453,-0.0898438,0
61180,0.53418,-0.824707,-0.103027,0
61200,0.554688,-0.821289,-0.0771484,0
61220,0.569824,-0.794434,-0.0615234,0
61240,0.560059,-0.773926,-0.0991211,0
61260,0.544434,-0.77002,-0.126953,0
61280,0.577637,-0.750488,-0.0957031,0
61300,0.633301,-0.743164,-0.100098,0
61320,0.646973,-0.753418,-0.149902,0
61340,0.631348,-0.728516,-0.151367,0
61360,0.622559,-0.724121,-0.166992,0
61380,0.643555,-0.730469,-0.162598,0
61400,0.689941,-0.721191,-0.136719,0
61420,0.694336,-0.702637,-0.129883,0
61440,0.663086,-0.712402,-0.150879,0
61460,0.649414,-0.685547,-0.175781,0
61480,0.697266,-0.669922,-0.186035,0
61500,0.745605,-0.629395,-0.161621,0
61520,0.743164,-0.625488,-0.149902,0
61540,0.743652,-0.644043,-0.209961,0
61550,0.755859,-0.644531,-0.183105,0
61570,0.753906,-0.616211,-0.127441,0
61590,0.772949,-0.566406,-0.117188,0
61610,0.814453,-0.573242,-0.185547,0
61630,0.837402,-0.57666,-0.195312,0
61650,0.781738,-0.561035,-0.147461,0
61670,0.757812,-0.534668,-0.142578,0
61690,0.810547,-0.544434,-0.148438,0
61710,0.810547,-0.555664,-0.131836,0
61730,0.778809,-0.539551,-0.131836,0
61750,0.811523,-0.530762,-0.123047,0
61770,0.837891,-0.52002,-0.100098,0
61790,0.834961,-0.499023,-0.103516,0
61810,0.869629,-0.501953,-0.12207,0
61830,0.87793,-0.50293,-0.0751953,0
61850,0.859375,-0.489746,-0.0439453,0
61870,0.865234,-0.479004,-0.0507812,0
61890,0.882324,-0.480957,-0.0698242,0
61910,0.902344,-0.474609,-0.0429688,0
61930,0.884277,-0.488281,-0.0273438,0
61950,0.893066,-0.467285,-0.0253906,0
61970,0.90332,-0.445801,-0.0141602,0
61990,0.885742,-0.45166,0.00683594,0
62010,0.856445,-0.474609,0.0449219,0
62030,0.853027,-0.47998,0.00585938,0
62050,0.881836,-0.462402,0.0566406,0
62070,0.887207,-0.454102,0.0722656,0
62090,0.880859,-0.494629,0.0541992,0
62110,0.861328,-0.474121,0.119629,0
62130,0.86084,-0.504883,0.125488,0
62150,0.886719,-0.543457,0.115234,0
62170,0.908691,-0.547852,0.12207,0
62190,0.888672,-0.51123,0.18457,0
62210,0.839844,-0.498535,0.192383,0
62230,0.821289,-0.504883,0.172852,0
62250,0.839844,-0.506348,0.185547,0
62270,0.836426,-0.527832,0.187988,0
62290,0.79248,-0.544922,0.205566,0
62310,0.759277,-0.585938,0.26709,0
62330,0.755371,-0.569824,0.265137,0
62350,0.775879,-0.57666,0.219238,0
62370,0.813477,-0.583008,0.172363,0
62390,0.791016,-0.574707,0.230469,0
62410,0.683105,-0.561035,0.308105,0
62430,0.618164,-0.579102,0.291016,0
62450,0.670898,-0.597168,0.228516,0
62470,0.744629,-0.583008,0.220703,0
62490,0.758301,-0.623535,0.207031,0
62510,0.648438,-0.625977,0.291504,0
62530,0.570312,-0.649902,0.286133,0
62550,0.65918,-0.707031,0.23291,0
62570,0.710449,-0.651855,0.268555,0
62590,0.655762,-0.589844,0.259277,0
62610,0.594238,-0.615234,0.226562,0
62630,0.602051,-0.679688,0.274902,0
62650,0.617188,-0.677734,0.275391,0
62670,0.587891,-0.674805,0.26123,0
62690,0.556152,-0.684082,0.234375,0
62710,0.597656,-0.691406,0.269043,0
62730,0.587402,-0.693359,0.284668,0
62750,0.549805,-0.683594,0.259277,0
62770,0.580566,-0.690918,0.241699,0
62790,0.585938,-0.699707,0.28125,0
62810,0.568359,-0.714844,0.228027,0
62830,0.576172,-0.745605,0.217285,0
62850,0.551758,-0.751465,0.241211,0
62870,0.562012,-0.769043,0.246094,0
62890,0.566895,-0.787598,0.239258,0
62910,0.583008,-0.768555,0.225586,0
62930,0.55127,-0.733887,0.242676,0
62950,0.51709,-0.737305,0.223633,0
62970,0.505371,-0.788086,0.216797,0
62990,0.515137,-0.779785,0.216797,0
63010,0.535645,-0.774902,0.21875,0
63030,0.554688,-0.788574,0.205078,0
63050,0.492188,-0.76709,0.217285,0
63070,0.437012,-0.759766,0.183105,0
63090,0.470215,-0.78418,0.212891,0
63110,0.5,-0.808105,0.199219,0
63130,0.488281,-0.78418,0.147461,0
63150,0.443848,-0.758789,0.178711,0
63170,0.456055,-0.791504,0.170898,0
63190,0.48877,-0.831543,0.143555,0
63210,0.448242,-0.828613,0.132812,0
63230,0.409668,-0.810547,0.152344,0
63250,0.46875,-0.846191,0.131348,0
63270,0.473633,-0.872559,0.121582,0
63290,0.446289,-0.841309,0.113281,0
63310,0.432617,-0.81543,0.134277,0
63330,0.47998,-0.851562,0.10791,0
63350,0.498535,-0.866211,0.112305,0
63370,0.438477,-0.853027,0.0810547,0
63390,0.464844,-0.861328,0.0742188,0
63410,0.479492,-0.870605,0.0737305,0
63430,0.425781,-0.84375,0.0595703,0
63450,0.444336,-0.861328,0.0507812,0
63470,0.495117,-0.880371,0.0380859,0
63490,0.472168,-0.86377,0.0112305,0
63510,0.455078,-0.86084,0.00585938,0
63530,0.455078,-0.854492,0.0151367,0
63540,0.463867,-0.877441,-0.0185547,0
63560,0.490234,-0.910156,-0.0332031,0
63580,0.486816,-0.894531,-0.0180664,0
63600,0.460449,-0.868164,-0.0244141,0
63620,0.468262,-0.857422,-0.0649414,0
63640,0.500488,-0.874512,-0.0727539,0
63660,0.499023,-0.863281,-0.0654297,0
63680,0.475098,-0.850586,-0.0961914,0
63700,0.499023,-0.850586,-0.111328,0
63720,0.513672,-0.868652,-0.102539,0
63740,0.46582,-0.867676,-0.105957,0
63760,0.443359,-0.860352,-0.121094,0
63780,0.493652,-0.859375,-0.12793,0
63800,0.530273,-0.84082,-0.106934,0
63820,0.522461,-0.796387,-0.121094,0
63840,0.548828,-0.78125,-0.161621,0
63860,0.568359,-0.799316,-0.160645,0
63880,0.538086,-0.799805,-0.133789,0
63900,0.518066,-0.802734,-0.109375,0
63920,0.583496,-0.804688,-0.129883,0
63940,0.615723,-0.786133,-0.184082,0
63960,0.566406,-0.742188,-0.185059,0
63980,0.528809,-0.719238,-0.154297,0
64000,0.557129,-0.705566,-0.157227,0
64020,0.620605,-0.70752,-0.210449,0
64040,0.618652,-0.67627,-0.213379,0
64060,0.619629,-0.681152,-0.234863,0
64080,0.666992,-0.73877,-0.208008,0
64100,0.695801,-0.727539,-0.148438,0
64120,0.695801,-0.681641,-0.162598,0
64140,0.777832,-0.629395,-0.209961,2001
64160,0.849609,-0.611816,-0.213379,0
64180,0.80127,-0.588379,-0.204102,0
64200,0.748535,-0.587402,-0.194336,0
64220,0.783203,-0.611816,-0.181152,0
64240,0.847168,-0.629883,-0.191895,0
64260,0.815918,-0.591797,-0.21582,0
64280,0.757812,-0.547852,-0.245117,0
64300,0.757812,-0.564941,-0.251465,0
64320,0.777344,-0.577148,-0.207031,0
64340,0.745605,-0.565918,-0.202637,0
64360,0.69873,-0.542969,-0.209961,0
64380,0.681152,-0.538086,-0.224121,0
64400,0.651367,-0.550293,-0.215332,0
64420,0.62793,-0.539062,-0.20752,0
64440,0.618164,-0.533203,-0.168457,0
64460,0.64209,-0.551758,-0.171387,0
64480,0.652344,-0.567383,-0.174805,0
64500,0.620605,-0.536621,-0.155273,0
64520,0.559082,-0.51123,-0.140625,0
64540,0.566895,-0.54541,-0.121582,0
64560,0.637207,-0.572266,-0.0810547,0
64580,0.639648,-0.570312,-0.0361328,0
64600,0.570312,-0.574707,-0.0297852,0
64620,0.598145,-0.62793,-0.0517578,0
64640,0.705078,-0.685547,-0.00341797,0
64660,0.709473,-0.741699,0.112793,0
64680,0.590332,-0.764648,0.108887,0
64700,0.555664,-0.812988,0.0595703,0
64720,0.640625,-0.857422,0.129395,0
64740,0.607422,-0.844727,0.239258,0
64760,0.461426,-0.869629,0.251465,0
64780,0.420898,-0.980469,0.168457,0
64800,0.502441,-1.02686,0.183594,0
64820,0.482422,-0.974121,0.280273,0
64840,0.336914,-1.02393,0.291992,0
64860,0.304199,-1.07471,0.238281,0
64880,0.369629,-1.10791,0.268066,0
64900,0.356445,-1.1123,0.313965,0
64920,0.293457,-1.10107,0.305664,0
64940,0.272461,-1.08252,0.266602,0
64960,0.306641,-1.04932,0.282715,0
64980,0.313965,-1.01465,0.317871,0
65000,0.281738,-0.977051,0.3125,0
65020,0.24707,-0.944824,0.259277,0
65040,0.219727,-0.953125,0.254395,0
65060,0.213867,-0.984375,0.287598,0
65080,0.217285,-0.969238,0.247559,0
65100,0.231445,-0.937012,0.255859,0
65120,0.20166,-0.916504,0.299805,0
65140,0.149414,-0.871094,0.347656,0
65160,0.134277,-0.898926,0.283691,0
65180,0.138184,-0.932617,0.276855,0
65200,0.155273,-0.928711,0.289062,0
65220,0.160645,-0.893066,0.325195,2000
65240,0.122559,-0.872559,0.310059,0
65260,0.135254,-0.896973,0.269043,0
65280,0.180176,-0.92334,0.268555,0
65300,0.190918,-0.870605,0.256836,0
65320,0.155762,-0.842773,0.236328,0
65340,0.120117,-0.889648,0.226074,0
65360,0.12207,-0.933105,0.237305,0
65380,0.137207,-0.931152,0.26416,0
65400,0.145508,-0.932617,0.245117,0
65420,0.157227,-0.938477,0.243652,0
65440,0.164551,-0.947754,0.250977,0
65460,0.155273,-0.945801,0.23877,0
65480,0.167969,-0.939941,0.249023,0
65500,0.198242,-0.941406,0.245605,0
65520,0.202637,-0.955566,0.230957,0
65540,0.17041,-0.955566,0.244629,0
65560,0.179199,-0.921875,0.27832,0
65580,0.239258,-0.908203,0.274902,0
65600,0.257324,-0.9375,0.211914,0
65620,0.251465,-0.927734,0.224121,0
65640,0.237793,-0.898438,0.236328,0
65660,0.266602,-0.901367,0.221191,0
65680,0.321777,-0.882324,0.188477,0
65700,0.362305,-0.891602,0.182129,0
65720,0.324219,-0.85498,0.212402,0
65740,0.254883,-0.834473,0.250977,0
65760,0.275879,-0.856445,0.234375,0
65780,0.320312,-0.883301,0.186035,0
65800,0.338379,-0.897949,0.199707,0
65820,0.344727,-0.885742,0.230469,0
65840,0.383789,-0.851562,0.25293,0
65860,0.411621,-0.848633,0.228516,0
65880,0.387695,-0.86084,0.218262,0
65900,0.364746,-0.847656,0.23291,0
65920,0.405273,-0.86084,0.195312,0
65940,0.427246,-0.87793,0.16748,0
65960,0.416016,-0.851074,0.179688,0
65980,0.406738,-0.833496,0.204102,0
66000,0.464355,-0.822266,0.255859,0
66020,0.472168,-0.82959,0.225586,0
66040,0.458984,-0.850098,0.186035,0
66060,0.41748,-0.808594,0.194336,0
66080,0.480469,-0.794434,0.234375,0
66100,0.519531,-0.814453,0.224609,0
66120,0.509277,-0.807617,0.240723,0
66140,0.515625,-0.805664,0.234863,0
66160,0.595703,-0.781738,0.292969,0
66180,0.654785,-0.777344,0.30127,0
66190,0.617188,-0.763184,0.251953,0
66210,0.570801,-0.744629,0.21582,0
66230,0.572266,-0.728516,0.208008,0
66250,0.613281,-0.736328,0.200684,0
66270,0.642578,-0.709961,0.193359,0
66290,0.652344,-0.679688,0.195312,0
66310,0.652832,-0.657227,0.205078,0
66330,0.683105,-0.692871,0.246094,0
66350,0.670898,-0.692871,0.248535,0
66370,0.647461,-0.678223,0.240723,0
66390,0.646973,-0.67041,0.229492,0
66410,0.649414,-0.649902,0.230957,0
66430,0.693359,-0.652832,0.250488,0
