Timestamp, Acceleration x, Acceleration y, Acceleration z, Marker
40,-0.0390625,-0.936523,-0.00537109,0
60,-0.0668945,-0.880371,0.0136719,0
80,-0.0893555,-0.927246,0.0952148,0
100,-0.0883789,-1.02734,0.189453,0
120,-0.104492,-1.22803,0.164551,0
120,-0.0751953,-1.21045,0.0991211,0
170,0.00634766,-1.03809,0.108887,0
170,0.0957031,-0.956543,0.131836,0
190,0.0996094,-1.00098,0.124512,0
210,-0.0166016,-1.09375,0.12207,0
230,-0.0463867,-1.11279,0.128418,0
250,0.0439453,-1.01904,0.175781,0
270,0.0517578,-0.892578,0.158203,0
290,-0.10498,-0.881836,0.121094,0
310,-0.216309,-0.941406,0.15625,0
330,-0.182617,-1.00439,0.262207,0
350,-0.116211,-0.955078,0.217773,0
370,-0.0952148,-0.853516,0.161133,0
390,-0.152832,-0.664551,0.183105,0
410,-0.310547,-0.689941,0.203125,0
430,-0.823242,-1.00342,0.660645,0
450,-0.662598,-1.22998,-0.0478516,0
470,-0.155273,-1.23145,0.0131836,0
490,-0.0327148,-1.30566,0.124023,0
510,-0.182129,-1.03174,-0.0229492,0
530,-0.290527,-0.829102,0.0214844,0
550,-0.316895,-0.841309,0.0761719,0
570,-0.299805,-0.90918,0.0854492,0
590,-0.260254,-0.92334,0.0683594,0
610,-0.220215,-0.955078,0.0639648,0
630,-0.197754,-0.974121,0.0380859,0
650,-0.20166,-1.01123,0.0205078,0
670,-0.238281,-1.04395,0.03125,0
690,-0.238281,-1.08594,0.0571289,0
710,-0.20752,-1.11768,0.0654297,0
730,-0.216309,-1.04639,0.0776367,0
750,-0.224121,-0.947266,0.100586,0
770,-0.288574,-0.912598,0.0976562,0
790,-0.312988,-0.961426,0.0507812,0
810,-0.305664,-0.958496,0.0527344,0
830,-0.287109,-0.966309,0.0844727,0
850,-0.253418,-1.00049,0.0927734,0
870,-0.24707,-1.00342,0.0825195,0
890,-0.258789,-0.989746,0.0961914,0
910,-0.259277,-1.00244,0.0737305,0
930,-0.257324,-1.00537,0.0629883,0
950,-0.264648,-1.00488,0.0444336,0
970,-0.274902,-0.983398,0.0214844,0
990,-0.273926,-0.964844,0.012207,0
1010,-0.271973,-0.958984,-0.00390625,0
1030,-0.27832,-0.975586,0.00976562,0
1050,-0.196777,-0.993652,0.119629,0
1070,0.645996,-0.848145,0.369141,0
1090,-0.5625,-1.13379,-0.019043,0
1110,0.262207,-0.779297,0.855469,0
1130,0.0703125,-0.781738,0.128906,0
1150,-0.552246,-1.02344,-0.729004,0
1170,-0.865723,-1.22559,-0.696777,0
1190,-0.456055,-1.12012,0.23291,0
1210,-0.043457,-1.021,0.366699,0
1230,-0.127441,-1.01025,0.0205078,0
1250,-0.287109,-0.985352,0.00683594,0
1270,-0.32373,-0.966309,-0.00439453,0
1290,-0.290527,-0.963867,0.000976562,0
1310,-0.277344,-0.963379,0.00488281,0
1330,-0.212402,-1.00586,0.183105,0
1350,-0.614746,-1.08057,0.0761719,0
1370,-0.661133,-0.937988,-0.395996,0
1380,-0.327637,-0.933594,-0.246582,0
1400,-0.320312,-0.975586,-0.000488281,0
1420,-0.297852,-0.947754,-0.00878906,0
1440,-0.290039,-0.965332,-0.00488281,0
1460,-0.285156,-0.976562,-0.00390625,0
1480,-0.300781,-0.985352,-0.00585938,0
1500,-0.311035,-0.996094,-0.0151367,0
1520,-0.302246,-0.990234,-0.0131836,0
1540,-0.30127,-0.979492,-0.0166016,0
1560,-0.293945,-0.97168,-0.0205078,0
1580,-0.294922,-0.977051,-0.0161133,0
1600,-0.303223,-1.02002,-0.0214844,0
1620,-0.309082,-1.06543,-0.0234375,0
1640,-0.297852,-1.09326,-0.0356445,0
1660,-0.290527,-1.08105,0.0107422,0
1680,-0.30957,-1.0752,0.00341797,0
1700,-0.287598,-0.969727,0.122559,0
1720,-0.319336,-0.89209,0.146973,0
1740,-0.285645,-0.849121,0.19043,0
1760,-0.195312,-0.869141,0.217773,0
1780,-0.126465,-0.937012,0.266602,0
1800,-0.100098,-0.951172,0.279297,0
1820,-0.123535,-0.919922,0.228516,0
1840,-0.150879,-0.890137,0.225586,0
1860,-0.169922,-0.855469,0.294922,0
1880,-0.186035,-0.8125,0.313477,0
1900,-0.174805,-0.82373,0.296387,0
1920,-0.180176,-0.822754,0.307129,0
1940,-0.208496,-0.84668,0.32959,0
1960,-0.212402,-0.880859,0.350098,0
1980,-0.189453,-0.862305,0.338379,0
2000,-0.186523,-0.820312,0.354004,0
2020,-0.20166,-0.857422,0.339844,0
2040,-0.185547,-0.933594,0.352539,0
2060,-0.180664,-0.966309,0.341797,0
2080,-0.178711,-0.937012,0.378906,0
2100,-0.1875,-0.898926,0.362305,0
2120,-0.214844,-0.869629,0.353027,0
2140,-0.240723,-0.910156,0.35791,0
2160,-0.235352,-0.946289,0.353516,0
2180,-0.240723,-0.979492,0.320312,0
2200,-0.224121,-0.958008,0.315918,0
2220,-0.227539,-0.952148,0.313477,0
2240,-0.223633,-0.952148,0.316895,0
2260,-0.205078,-0.960938,0.301758,0
2280,-0.206055,-0.951172,0.311035,0
2300,-0.207031,-0.955566,0.295898,0
2320,-0.218262,-0.94873,0.293945,0
2340,-0.212402,-0.932617,0.291504,0
2360,-0.222656,-0.91748,0.297852,0
2380,-0.229004,-0.904785,0.300293,0
2400,-0.228516,-0.916504,0.290527,0
2420,-0.228516,-0.919434,0.288574,0
2440,-0.227539,-0.913086,0.281738,0
2460,-0.233887,-0.916016,0.290039,0
2480,-0.241699,-0.910645,0.284668,0
2500,-0.220215,-0.91748,0.259766,0
2520,-0.19873,-0.910156,0.230957,0
2540,-0.204102,-0.942871,0.201172,0
2560,-0.248535,-0.975586,0.222168,0
2580,-0.252441,-0.973145,0.259277,0
2600,-0.236328,-0.95166,0.269531,0
2620,-0.208008,-0.91748,0.276855,0
2640,-0.200684,-0.901367,0.297852,0
2660,-0.202637,-0.892578,0.310547,0
2680,-0.203125,-0.921387,0.312988,0
2700,-0.200195,-0.946289,0.302734,0
2720,-0.202637,-0.945312,0.292969,0
2740,-0.191406,-0.942383,0.274902,0
2760,-0.183594,-0.93457,0.272949,0
2780,-0.187988,-0.935059,0.257812,0
2800,-0.196777,-0.947754,0.250977,0
2820,-0.198242,-0.956055,0.259766,0
2840,-0.208008,-0.977051,0.255859,0
2860,-0.199219,-0.980957,0.269043,0
2880,-0.185059,-0.956543,0.291992,0
2900,-0.169922,-0.928711,0.268555,0
2920,-0.160645,-0.950195,0.300293,0
2940,-0.160156,-0.969238,0.275391,0
2960,-0.218262,-0.897949,0.292969,0
2980,-0.254395,-0.796875,0.365234,0
3000,-0.209961,-0.80957,0.369141,0
3020,-0.161621,-0.849121,0.390625,0
3040,-0.137207,-0.885742,0.416992,0
3060,-0.124023,-0.864258,0.40918,0
3080,-0.111816,-0.823242,0.391602,0
3100,-0.164062,-0.899902,0.427246,0
3120,0.463379,-0.789062,0.154785,0
3140,0.445312,-0.884766,0.138672,0
3160,0.677246,-0.958008,0.695312,0
3180,-0.883301,-1.0835,0.0771484,0
3200,0.566406,-0.786133,0.493652,0
3220,-0.858398,-0.966309,0.209473,0
3240,0.494629,-0.750977,0.399902,0
3260,-0.932129,-1.1084,0.0908203,0
3280,0.407227,-0.943848,0.333008,0
3300,-0.992188,-1.11963,0.0205078,0
3320,0.477051,-0.791992,0.382812,0
3340,-0.945801,-0.979004,0.0166016,0
3360,0.493652,-0.760254,0.425293,0
3380,-0.910645,-0.986816,0.103027,0
3400,-0.233887,-0.878906,0.265137,0
3420,-0.241211,-0.865234,0.197754,0
3440,-0.241211,-0.895996,0.163086,0
3460,-0.239258,-0.927246,0.177246,0
3480,-0.225098,-0.931641,0.179199,0
3500,-0.194336,-0.934082,0.199707,0
3520,-0.205566,-0.935059,0.220703,0
3540,-0.213379,-0.936035,0.200195,0
3560,-0.196289,-0.973145,0.215332,0
3580,-0.192871,-0.978516,0.216309,0
3600,-0.197266,-0.976074,0.217773,0
3620,-0.216797,-0.975586,0.22998,0
3640,-0.225586,-0.983398,0.235352,0
3660,-0.220703,-0.998047,0.252441,0
3680,-0.214355,-0.999512,0.234863,0
3700,-0.209961,-0.982422,0.254883,0
3720,-0.183105,-0.971191,0.286621,0
3740,-0.188477,-0.950195,0.279297,0
3760,-0.182129,-0.949219,0.258301,0
3780,-0.188965,-0.959961,0.253418,0
3800,-0.184082,-0.914062,0.219238,0
3820,-0.170898,-0.918457,0.174316,0
3840,-0.157715,-0.941406,0.155762,0
3860,-0.165039,-0.954102,0.140625,0
3880,-0.203125,-0.972656,0.176758,0
3900,-0.240234,-0.975098,0.231445,0
3920,-0.255371,-0.938965,0.193848,0
3940,-0.25,-0.935547,0.19873,0
3960,-0.249512,-0.972656,0.233398,0
3980,-0.256348,-0.995117,0.241699,0
4000,-0.241699,-0.961426,0.225586,0
4020,-0.228027,-0.934082,0.228027,0
4040,-0.214844,-0.932617,0.230469,0
4050,-0.204102,-0.974121,0.209961,0
4070,-0.200195,-0.968262,0.189941,0
4090,-0.199219,-0.947754,0.199707,0
4110,-0.218262,-0.912109,0.196289,0
4130,-0.231445,-0.88623,0.200195,0
4150,-0.235352,-0.880371,0.179688,0
4170,-0.248047,-0.893066,0.184082,0
4190,-0.251465,-0.919922,0.205078,0
4210,-0.245117,-0.899414,0.194336,0
4230,-0.234863,-0.898438,0.185059,0
4250,-0.219238,-0.890137,0.170898,0
4270,-0.192871,-0.892578,0.166992,0
4290,-0.21875,-0.85498,0.227539,0
4310,-0.245117,-0.833008,0.226562,0
4330,-0.20166,-0.929199,0.243652,0
4350,-0.196777,-1.08252,0.249512,0
4370,-0.215332,-1.08154,0.220215,0
4390,-0.249023,-1.01123,0.175781,0
4410,-0.283691,-0.980957,0.179199,0
4430,-0.276367,-1.08105,0.177734,0
4450,-0.293457,-1.12939,0.121582,0
4470,-0.314941,-1.02588,0.116699,0
4490,-0.247559,-0.972656,0.151367,0
4510,-0.237305,-0.946289,0.182617,0
4530,-0.264648,-0.922363,0.164062,0
4550,-0.307129,-0.928223,0.164062,0
4570,-0.322754,-0.939453,0.198242,0
4590,-0.327637,-0.913086,0.177734,0
4610,-0.3125,-0.921387,0.150879,0
4630,-0.287109,-0.957031,0.175293,0
4650,-0.262207,-0.979004,0.194824,0
4670,-0.272461,-0.973145,0.21875,0
4690,-0.293457,-0.946289,0.252441,0
4710,-0.257812,-0.869141,0.249512,0
4730,-0.186035,-0.849609,0.303711,0
4750,-0.120117,-0.90918,0.282227,0
4770,-0.0834961,-0.992676,0.358887,0
4790,-0.0170898,-1.02588,0.373047,0
4810,0.00146484,-1.07764,0.376953,0
4830,0.00195312,-1.06299,0.339355,0
4850,-0.0805664,-0.998047,0.344238,0
4870,-0.137207,-0.951172,0.30957,0
4890,-0.15625,-0.974121,0.286621,0
4910,-0.172852,-1.04883,0.286133,0
4930,-0.19043,-1.01953,0.310059,0
4950,-0.203125,-0.944336,0.300781,0
4970,-0.181641,-0.87793,0.292969,0
4990,-0.161133,-0.886719,0.282715,0
5010,-0.16748,-0.860352,0.297852,0
5030,-0.146973,-0.896484,0.271973,0
5050,-0.112305,-0.946289,0.291992,0
5070,-0.0932617,-0.922363,0.269043,0
5090,-0.0976562,-0.84375,0.242188,0
5110,-0.0654297,-0.782227,0.287109,0
5130,-0.0366211,-0.644531,0.345703,0
5150,-0.0400391,-0.609375,0.297363,0
5170,-0.0390625,-0.647461,0.282715,0
5190,-0.0166016,-0.686523,0.263184,0
5210,0.000488281,-0.749023,0.306641,0
5230,-0.0161133,-0.745605,0.327637,0
5250,-0.0537109,-0.712402,0.32959,0
5270,-0.157227,-0.695801,0.319336,0
5290,-0.319824,-0.606445,0.131348,0
5310,-0.228516,-0.655273,0.376953,0
5330,-0.869629,-2.30957,-0.118164,0
5350,-0.583008,-1.90576,-0.19043,0
5370,0.239258,-1.79004,-0.0234375,0
5390,-0.0180664,-0.759766,0.114258,0
5410,-0.46582,-0.525391,0.163574,0
5430,-0.328613,-0.773438,0.175293,0
5450,-0.0463867,-0.874023,0.287598,0
5470,-0.0844727,-0.89209,0.296875,0
5490,-0.185547,-0.910156,0.288086,0
5510,-0.135254,-0.945312,0.247559,0
5530,-0.090332,-0.958984,0.230957,0
5550,-0.161621,-0.971191,0.210449,0
5570,-0.222168,-0.976562,0.194336,0
5590,-0.220703,-0.972656,0.192383,0
5610,-0.216797,-0.935059,0.194824,0
5630,-0.215332,-0.926758,0.200195,0
5650,-0.204102,-0.958008,0.217285,0
5670,-0.196777,-1.00195,0.217773,0
5690,-0.171387,-1.00586,0.192383,0
5710,-0.160156,-0.980957,0.18457,0
5730,-0.166504,-0.966309,0.17627,0
5750,-0.202148,-0.964844,0.174316,0
5770,-0.226074,-0.954102,0.170898,0
5790,-0.229004,-0.946289,0.177734,0
5810,-0.220215,-0.952637,0.168945,0
5830,-0.215332,-0.964355,0.169434,0
5850,-0.208496,-0.976562,0.15625,0
5870,-0.215332,-1.01953,0.169922,0
5890,-0.20752,-1.07227,0.172852,0
5910,-0.194336,-1.10742,0.146973,0
5930,-0.15918,-1.1377,0.18457,0
5950,-0.149902,-1.08594,0.216309,0
5970,-0.187012,-1.02979,0.163086,0
5990,-0.173828,-1.00488,0.150879,0
6000,-0.166992,-0.958008,0.256348,0
6030,-0.172363,-0.861816,0.297852,0
6040,-0.224121,-0.799316,0.233398,0
6060,-0.282715,-0.819824,0.168457,0
6080,-0.227539,-0.944336,0.137695,0
6100,-0.169434,-0.979004,0.162109,0
6120,-0.212891,-0.915039,0.15918,0
6140,-0.228027,-0.910645,0.16748,0
6160,-0.1875,-0.941406,0.177246,0
6180,-0.17627,-0.95166,0.179199,0
6200,-0.182617,-0.944336,0.1875,0
6220,-0.175293,-0.958496,0.165527,0
6240,-0.151855,-0.978027,0.151855,0
6260,-0.151367,-0.970215,0.166016,0
6280,-0.190918,-0.900879,0.181152,0
6300,-0.203125,-0.896484,0.162598,0
6320,-0.188965,-0.933105,0.156738,0
6340,-0.1875,-0.981934,0.125488,0
6360,-0.197754,-0.981934,0.140137,0
6380,-0.206055,-0.946777,0.152344,0
6400,-0.210449,-0.885742,0.157227,0
6420,-0.200195,-0.938477,0.169922,0
6440,-0.176758,-1.00146,0.159668,0
6460,-0.168945,-0.996582,0.124023,0
6480,-0.120605,-1.04102,0.149414,0
6500,-0.112305,-0.998047,0.179199,0
6520,-0.205566,-0.939941,0.138184,0
6540,-0.223633,-0.725098,-0.0395508,0
6560,-0.0981445,-0.961426,0.0380859,0
6580,-0.225098,-1.09033,0.19043,0
6600,-0.301758,-1.12256,-0.015625,0
6620,-0.21875,-1.07715,0.147949,0
6640,-0.187012,-1.01904,0.0839844,0
6670,-0.268555,-0.919922,0.0454102,0
6690,-0.176758,-1.02637,0.0429688,0
6710,-0.177734,-0.995117,0.126953,0
6720,-0.0932617,-0.960449,0.0771484,0
6740,-0.115723,-0.919434,0.0380859,0
6760,-0.181152,-0.87793,0.0698242,0
6780,-0.144043,-0.962891,0.09375,0
6800,-0.171387,-0.976074,0.0795898,0
6820,-0.15332,-0.90918,0.0756836,0
6840,-0.150391,-0.889648,0.100586,0
6860,-0.24707,-1.01465,0.105469,0
6880,-0.283203,-1.09033,0.174805,0
6900,-0.196289,-1.20996,0.124023,0
6920,-0.0947266,-1.21484,0.0600586,0
6940,-0.15918,-0.921387,0.144043,0
6960,-0.249512,-0.999023,0.0976562,0
6980,-0.25,-1.1416,0.00927734,0
7000,-0.285645,-0.916504,0.102539,0
7020,-0.416016,-0.792969,0.148926,0
7040,-0.345703,-0.809082,0.29248,0
7060,-0.103516,-0.893555,0.134766,0
7080,-0.129395,-0.729492,0.239258,0
7100,-0.141602,-0.958496,0.201172,0
7120,-0.145508,-1.03711,0.181152,0
7140,-0.15625,-1.01709,0.164551,0
7160,-0.170898,-0.966797,0.22168,0
7180,-0.15332,-0.985352,0.231445,0
7200,-0.134766,-0.982422,0.207031,0
7220,-0.165527,-0.962402,0.177734,0
7240,-0.17627,-0.97998,0.168457,0
7260,-0.173828,-1.02246,0.173828,0
7280,-0.194824,-1.00049,0.168457,0
7300,-0.177246,-1.00146,0.192871,0
7320,-0.162109,-0.987793,0.175781,0
7340,-0.164062,-0.960938,0.13916,0
7360,-0.182617,-0.944824,0.190918,0
7380,-0.189453,-0.941895,0.206543,0
7400,-0.198242,-0.905273,0.211914,0
7420,-0.17627,-0.897949,0.242188,0
7440,-0.16748,-0.929199,0.252441,0
7460,-0.150391,-0.940918,0.259766,0
7480,-0.142578,-0.944336,0.222656,0
7500,-0.152344,-0.929688,0.214355,0
7520,-0.159668,-0.949707,0.205566,0
7540,-0.162598,-0.96582,0.195312,0
7560,-0.161133,-0.983887,0.185547,0
7580,-0.174316,-1.02002,0.182617,0
7600,-0.17334,-1.02832,0.187988,0
7620,-0.188477,-1.04541,0.219238,0
7640,-0.201172,-1.0376,0.222168,0
7660,-0.172363,-0.99707,0.19873,0
7680,-0.139648,-0.96582,0.18457,0
7700,-0.141602,-0.936035,0.188965,0
7720,-0.17627,-0.929688,0.181641,0
7740,-0.193848,-0.955078,0.195312,0
7760,-0.186035,-0.973145,0.212891,0
7780,-0.181641,-0.967285,0.225586,0
7800,-0.18457,-0.950195,0.217285,0
7820,-0.17627,-0.94873,0.200195,0
7840,-0.176758,-0.942383,0.205078,0
7860,-0.177734,-0.955078,0.205078,0
7880,-0.166992,-0.962891,0.192383,0
7900,-0.152832,-0.959473,0.196777,0
7920,-0.155762,-0.970215,0.196777,0
7940,-0.15918,-0.975586,0.1875,0
7960,-0.174316,-0.981445,0.182129,0
7980,-0.19043,-0.990234,0.183594,0
8000,-0.196777,-0.981445,0.173828,0
8020,-0.191406,-0.962891,0.157227,0
8040,-0.209961,-0.941895,0.146973,0
8060,-0.219727,-0.936523,0.125977,0
8080,-0.237793,-0.939941,0.123535,0
8100,-0.224609,-0.966309,0.124512,0
8120,-0.216797,-0.977539,0.121094,0
8140,-0.214355,-0.98291,0.129883,0
8160,-0.195801,-0.97168,0.11084,0
8180,-0.187988,-0.966309,0.111328,0
8200,-0.196777,-0.94043,0.111328,0
8220,-0.203125,-0.931641,0.115723,0
8240,-0.209473,-0.947266,0.12207,0
8260,-0.221191,-0.961426,0.147949,0
8280,-0.233887,-0.955078,0.157227,0
8300,-0.224121,-0.969238,0.160645,0
8320,-0.20166,-0.987305,0.16748,0
8340,-0.202148,-0.984375,0.169922,0
8360,-0.208984,-0.976562,0.179688,0
8380,-0.191406,-0.976562,0.184082,0
8400,-0.190918,-0.964844,0.166504,0
8420,-0.189941,-0.926758,0.13623,0
8440,-0.188477,-0.930176,0.118164,0
8460,-0.181152,-0.94043,0.126953,0
8480,-0.19043,-0.953613,0.146484,0
8500,-0.181152,-0.968262,0.151855,0
8520,-0.165039,-0.987793,0.174805,0
8540,-0.169434,-1.00342,0.193359,0
8560,-0.160156,-1.00049,0.189453,0
8580,-0.158691,-0.995605,0.202148,0
8600,-0.17627,-0.989258,0.208496,0
8620,-0.181641,-0.960938,0.208008,0
8640,-0.187988,-0.939941,0.209961,0
8660,-0.1875,-0.931641,0.187988,0
8680,-0.185059,-0.955078,0.199219,0
8700,-0.184082,-0.969238,0.210449,0
8720,-0.169434,-0.959473,0.219727,0
8740,-0.152832,-0.954102,0.209473,0
8760,-0.150391,-0.943359,0.202637,0
8780,-0.154297,-0.943359,0.206543,0
8800,-0.165527,-0.962891,0.21582,0
8820,-0.165527,-0.978516,0.205078,0
8840,-0.15918,-0.972168,0.216797,0
8860,-0.152832,-0.958984,0.225098,0
8880,-0.15918,-0.963867,0.229492,0
8900,-0.156738,-0.993164,0.224121,0
8920,-0.149902,-1.01367,0.237793,0
8940,-0.16748,-1.00244,0.231934,0
8960,-0.172852,-0.98291,0.200684,0
8980,-0.164062,-0.967285,0.191895,0
9000,-0.173828,-0.95166,0.194824,0
9020,-0.194336,-0.962402,0.210449,0
9040,-0.200684,-0.972168,0.202637,0
9060,-0.197754,-0.951172,0.189453,0
9080,-0.195312,-0.911621,0.175781,0
9100,-0.195801,-0.89502,0.181152,0
9120,-0.199219,-0.914551,0.177246,0
9140,-0.1875,-0.928223,0.180176,0
9160,-0.185547,-0.948242,0.179199,0
9180,-0.170898,-0.958008,0.185547,0
9200,-0.172852,-0.961914,0.189453,0
9220,-0.16748,-0.95752,0.186035,0
9240,-0.148926,-0.974609,0.19043,0
9260,-0.160645,-1.0166,0.201172,0
9280,-0.181641,-1.03271,0.192871,0
9300,-0.175293,-1.01758,0.19043,0
9320,-0.174805,-0.991699,0.179199,0
9340,-0.190918,-0.98584,0.164551,0
9360,-0.206543,-0.973145,0.165039,0
9380,-0.198242,-0.966309,0.180664,0
9400,-0.19043,-0.965332,0.169922,0
9420,-0.180664,-0.951172,0.164551,0
9440,-0.164551,-0.943359,0.159668,0
9450,-0.146973,-0.949219,0.165039,0
9470,-0.148926,-0.961426,0.178711,0
9490,-0.178223,-0.971191,0.193359,0
9510,-0.203125,-0.966797,0.186523,0
9530,-0.202637,-0.958496,0.179688,0
9550,-0.201172,-0.956055,0.172852,0
9570,-0.216309,-0.950195,0.163086,0
9590,-0.229004,-0.948242,0.162109,0
9610,-0.221191,-0.948242,0.155273,0
9630,-0.214355,-0.946289,0.142578,0
9650,-0.216797,-0.952148,0.139648,0
9670,-0.209961,-0.95166,0.12793,0
9690,-0.20166,-0.969727,0.138184,0
9710,-0.205566,-0.993652,0.15332,0
9730,-0.211914,-1.00195,0.140137,0
9750,-0.196777,-0.995605,0.138184,0
9770,-0.203125,-0.993164,0.150879,0
9790,-0.221191,-0.986328,0.148926,0
9810,-0.207031,-0.972656,0.146973,0
9830,-0.193848,-0.962402,0.144531,0
9850,-0.19873,-0.96875,0.155762,0
9870,-0.204102,-0.977051,0.162598,0
9890,-0.196777,-0.970703,0.164551,0
9910,-0.194824,-0.955566,0.152832,0
9930,-0.194336,-0.943359,0.148438,0
9950,-0.19873,-0.942871,0.155273,0
9970,-0.213379,-0.957031,0.164551,0
9990,-0.225098,-0.978516,0.174316,0
10010,-0.216309,-0.976562,0.166504,0
10030,-0.210449,-0.973145,0.166992,0
10050,-0.203125,-0.968262,0.155762,0
10070,-0.204102,-0.968262,0.155762,0
10090,-0.212402,-0.950684,0.145508,0
10110,-0.214355,-0.946289,0.14502,0
10130,-0.211914,-0.955566,0.129883,0
10150,-0.207031,-0.96582,0.130859,0
10170,-0.209961,-0.960449,0.125,0
10190,-0.215332,-0.96875,0.139648,0
10210,-0.225098,-0.983398,0.139648,0
10230,-0.208496,-0.983887,0.138672,0
10250,-0.193848,-0.974121,0.152344,0
10270,-0.202148,-0.966309,0.166504,0
10290,-0.226562,-0.96875,0.175781,0
10310,-0.22998,-0.980469,0.177246,0
10330,-0.231445,-0.958008,0.161133,0
10350,-0.217285,-0.933105,0.149414,0
10370,-0.219727,-0.9375,0.144043,0
10390,-0.223633,-0.946777,0.136719,0
10410,-0.211426,-0.966309,0.139648,0
10430,-0.200684,-0.980469,0.151855,0
10450,-0.197754,-1.00391,0.165527,0
10470,-0.203613,-1.00293,0.160156,0
10490,-0.208008,-1.02441,0.164062,0
10510,-0.228027,-1.07422,0.127441,0
10530,-0.272461,-1.17725,0.0668945,0
10550,-0.288086,-1.13965,0.0664062,0
10570,-0.342285,-1.02246,0.0957031,0
10590,-0.489258,-0.809082,0.0805664,0
10610,-0.654297,-0.681641,0.0742188,0
10630,-0.736816,-0.666504,0.245117,0
10650,-0.604004,-0.836914,0.379883,0
10670,-0.370117,-1.07715,0.475586,0
10690,-0.27002,-1.21875,0.552246,0
10710,-0.0961914,-1.25195,0.51123,0
10730,0.12207,-1.19482,0.475098,0
10750,0.314453,-1.06299,0.445801,0
10770,0.488281,-0.955078,0.381348,0
10790,0.646484,-0.878418,0.26709,0
10810,0.780762,-0.848633,0.162109,0
10830,0.743164,-0.812012,0.121094,0
10850,0.639648,-0.718262,0.0810547,0
10860,0.675293,-0.634277,0.0175781,0
10880,0.695801,-0.655762,-0.0341797,0
10900,0.748047,-0.562012,-0.143066,0
10920,0.73877,-0.560059,-0.110352,0
10940,0.793945,-0.5625,-0.134766,0
10960,0.734863,-0.540527,-0.165527,0
10980,0.678223,-0.418945,-0.205566,0
11000,0.717773,-0.395996,-0.259766,0
11020,0.709473,-0.388184,-0.268555,0
11040,0.736328,-0.364746,-0.290039,0
11060,0.725586,-0.374512,-0.297363,0
11080,0.73877,-0.387207,-0.317383,0
11100,0.750488,-0.414062,-0.319824,0
11120,0.654297,-0.402344,-0.302734,0
11140,0.630859,-0.374512,-0.306641,0
11160,0.692383,-0.40332,-0.333496,0
11180,0.747559,-0.418457,-0.337402,0
11200,0.776367,-0.439941,-0.354492,0
11220,0.805664,-0.458496,-0.342285,0
11240,0.797363,-0.48877,-0.358398,0
11260,0.82373,-0.508301,-0.358887,0
11280,0.835449,-0.512207,-0.33252,0
11300,0.782227,-0.496582,-0.335938,0
11320,0.770996,-0.51709,-0.374023,0
11340,0.803711,-0.503906,-0.366211,0
11350,0.815918,-0.498535,-0.360352,0
11380,0.802734,-0.519043,-0.366211,0
11390,0.735352,-0.509277,-0.369629,0
11410,0.753418,-0.523926,-0.392578,0
11430,0.766113,-0.498047,-0.36377,0
11450,0.772949,-0.484375,-0.365723,0
11470,0.780273,-0.471191,-0.389648,0
11490,0.775879,-0.461426,-0.390625,0
11510,0.789551,-0.467773,-0.385742,0
11530,0.79834,-0.471191,-0.365723,0
11550,0.809082,-0.470703,-0.358887,0
11570,0.773438,-0.451172,-0.371582,0
11590,0.786133,-0.449219,-0.382324,0
11610,0.783691,-0.453613,-0.374023,0
11630,0.774414,-0.444336,-0.370117,0
11650,0.779785,-0.444336,-0.381836,0
11670,0.820801,-0.458496,-0.37793,0
11690,0.817383,-0.461426,-0.370605,0
11710,0.814453,-0.443848,-0.383301,0
11730,0.832031,-0.45166,-0.37793,0
11750,0.835938,-0.477051,-0.380371,0
11770,0.815918,-0.484375,-0.374023,0
11790,0.792969,-0.482422,-0.383301,0
11810,0.791992,-0.47998,-0.380859,0
11830,0.781738,-0.48584,-0.378906,0
11850,0.768066,-0.509766,-0.382812,0
11870,0.733887,-0.523438,-0.381348,0
11890,0.735352,-0.520508,-0.365234,0
11910,0.741699,-0.54248,-0.365723,0
11930,0.758789,-0.542969,-0.353516,0
11950,0.773438,-0.539062,-0.365723,0
11970,0.76123,-0.532715,-0.373047,0
11990,0.77832,-0.520996,-0.359863,0
12010,0.791992,-0.525879,-0.358887,0
12030,0.820312,-0.523926,-0.346191,0
12050,0.84082,-0.524414,-0.360352,0
12070,0.840332,-0.499512,-0.365723,0
12090,0.855469,-0.481445,-0.357422,0
12110,0.844727,-0.491699,-0.366699,0
12130,0.847168,-0.471191,-0.349121,0
12150,0.82959,-0.461426,-0.357422,0
12170,0.819336,-0.457031,-0.356934,0
12190,0.797852,-0.457031,-0.344727,0
12210,0.782715,-0.445312,-0.339844,0
12230,0.775391,-0.435059,-0.337891,0
12250,0.774414,-0.429199,-0.34375,0
12270,0.805664,-0.439941,-0.328613,0
12290,0.839844,-0.446777,-0.306152,0
12310,0.892578,-0.44043,-0.320312,0
12330,0.90918,-0.424316,-0.322754,0
12350,0.930664,-0.406738,-0.321289,0
12370,0.93457,-0.390625,-0.342773,0
12390,0.933105,-0.394531,-0.363281,0
12410,0.91748,-0.385742,-0.354004,0
12430,0.90625,-0.382812,-0.348633,0
12450,0.895996,-0.393555,-0.367676,0
12470,0.879395,-0.378418,-0.379883,0
12490,0.864258,-0.379883,-0.380859,0
12510,0.876465,-0.393066,-0.38623,0
12530,0.851074,-0.373047,-0.405762,0
12550,0.847656,-0.382812,-0.420898,0
12570,0.830566,-0.373047,-0.410156,0
12590,0.824707,-0.374023,-0.422363,0
12610,0.817871,-0.385254,-0.436035,0
12630,0.789062,-0.393555,-0.455566,0
12650,0.82959,-0.419434,-0.446289,0
12670,0.800293,-0.430176,-0.419434,0
12690,0.755371,-0.387695,-0.450684,0
12710,0.782715,-0.401367,-0.421875,0
12730,0.791992,-0.401367,-0.44043,0
12750,0.780762,-0.39502,-0.433594,0
12770,0.76123,-0.385254,-0.421875,0
12790,0.771484,-0.399902,-0.411133,0
12810,0.809082,-0.388184,-0.40918,0
12830,0.79248,-0.37793,-0.400879,0
12850,0.826172,-0.389648,-0.405762,0
12870,0.845703,-0.421875,-0.352539,0
12890,0.823242,-0.405273,-0.377441,0
12910,0.852051,-0.375488,-0.40625,0
12930,0.864258,-0.360352,-0.481934,0
12950,0.812012,-0.365723,-0.471191,0
12970,0.81543,-0.453125,-0.418945,0
12990,0.823242,-0.505371,-0.359863,0
13010,0.758301,-0.436035,-0.422852,0
13030,0.713867,-0.427734,-0.423828,0
13050,0.749512,-0.468262,-0.398926,0
13070,0.750488,-0.515625,-0.428711,0
13090,0.902344,-0.467285,-0.400879,0
13110,0.776855,-0.465332,-0.46875,0
13130,0.818359,-0.47998,-0.455566,0
13150,0.776367,-0.501465,-0.503906,0
13170,0.728516,-0.473633,-0.425781,0
13190,0.805664,-0.502441,-0.462891,0
13210,0.793457,-0.476074,-0.409668,0
13230,0.813965,-0.396973,-0.332031,0
13250,0.819824,-0.463867,-0.381836,0
13270,0.833008,-0.430176,-0.345703,0
13290,0.802734,-0.433594,-0.352051,0
13310,0.800781,-0.4375,-0.381348,0
13330,0.847656,-0.42041,-0.378906,0
13350,0.78125,-0.398926,-0.336426,0
13370,0.757324,-0.438477,-0.345215,0
13390,0.787598,-0.478027,-0.36084,0
13410,0.788086,-0.469727,-0.353027,0
13430,0.802246,-0.427246,-0.357422,0
13450,0.799316,-0.410156,-0.358887,0
13470,0.825684,-0.401855,-0.361328,0
13490,0.867676,-0.402344,-0.37207,0
13510,0.837891,-0.366699,-0.354492,0
13530,0.821777,-0.352051,-0.339355,0
13550,0.875488,-0.371094,-0.338867,0
13570,0.853516,-0.362793,-0.34668,0
13590,0.854492,-0.367188,-0.370605,0
13610,0.893066,-0.399414,-0.383789,0
13630,0.917969,-0.368164,-0.397461,0
13660,0.913574,-0.473145,-0.299805,0
13680,0.917969,-0.43457,-0.367676,0
13700,0.864258,-0.392578,-0.385254,0
13720,0.842773,-0.422852,-0.381348,0
13740,0.841797,-0.46582,-0.353027,0
13760,0.824219,-0.455566,-0.355469,0
13780,0.836426,-0.450684,-0.358398,0
13800,0.844238,-0.410156,-0.395508,0
13820,0.851074,-0.406738,-0.351562,0
13840,0.771484,-0.410156,-0.251465,0
13860,0.78418,-0.407227,-0.249023,0
13880,0.779785,-0.384277,-0.256836,0
13900,0.755859,-0.377441,-0.280273,0
13920,0.728027,-0.367676,-0.246094,0
13940,0.779785,-0.366211,-0.218262,0
13960,0.84375,-0.437988,-0.217285,0
13980,0.820801,-0.335449,-0.203125,0
14000,0.804688,-0.266602,-0.142578,0
14020,0.859863,-0.216797,-0.20166,0
14040,0.788574,-0.184082,-0.3125,0
14060,0.878418,-0.379395,-0.5,0
14090,0.928223,-0.474609,-0.336426,0
14110,0.85791,-0.375488,-0.239746,0
14130,0.661621,-0.583008,-0.211426,0
14150,0.742188,-0.664062,-0.251953,0
14170,0.84082,-0.651855,-0.275391,0
14190,0.879883,-0.686035,-0.288574,0
14210,0.905273,-0.747559,-0.303223,0
14230,0.945312,-0.69873,-0.503906,0
14250,0.900391,-0.655273,-0.496582,0
14270,0.794434,-0.775879,-0.284668,0
14290,0.806152,-0.692383,-0.338379,0
14310,0.814453,-0.547363,-0.239258,0
14330,0.868164,-0.487793,-0.247559,0
14350,0.815918,-0.379395,-0.304688,0
14370,0.779785,-0.378418,-0.318848,0
14390,0.949707,-0.528809,-0.269043,0
14410,0.819336,-0.477539,-0.209473,0
14430,0.791504,-0.441406,-0.30127,0
14450,0.805176,-0.456055,-0.388184,0
14470,0.813477,-0.521973,-0.381836,0
14490,0.818359,-0.563477,-0.350586,0
14510,0.832031,-0.530762,-0.39209,0
14530,0.82959,-0.526367,-0.39502,0
14550,0.791992,-0.489746,-0.374512,0
14570,0.80127,-0.533203,-0.333496,0
14590,0.807617,-0.503418,-0.342773,0
14610,0.831055,-0.435059,-0.363281,0
14630,0.80127,-0.398438,-0.372559,0
14650,0.813965,-0.408203,-0.369629,0
14670,0.84082,-0.489258,-0.365234,0
14690,0.644043,-0.347168,-0.392578,0
14710,0.65625,-0.461914,-0.28418,0
14730,0.648926,-0.456055,-0.283691,0
14730,0.886719,-0.51123,-0.266113,0
14770,0.906738,-0.476562,-0.330078,0
14790,0.898926,-0.480469,-0.32959,0
14810,0.848145,-0.481934,-0.308105,0
14830,0.833008,-0.550293,-0.319824,0
14850,0.819336,-0.572266,-0.332031,0
14870,0.828125,-0.58252,-0.362793,0
14890,0.852539,-0.586914,-0.359863,0
14910,0.838379,-0.537598,-0.306152,0
14930,0.878418,-0.555176,-0.291992,0
14950,0.844238,-0.520508,-0.286621,0
14970,0.859863,-0.460449,-0.305664,0
14990,0.860352,-0.453613,-0.260742,0
15010,0.828613,-0.491699,-0.290039,0
15030,0.800781,-0.505859,-0.337891,0
15050,0.759277,-0.475098,-0.366211,0
15070,0.786621,-0.450684,-0.359863,0
15090,0.800781,-0.366699,-0.282715,0
15110,0.787109,-0.395996,-0.259766,0
15130,0.809082,-0.530273,-0.279297,0
15150,0.70166,-0.510742,-0.32959,0
15170,0.634277,-0.472656,-0.333984,0
15190,0.642578,-0.516602,-0.32373,0
15210,0.598145,-0.558594,-0.304688,0
15230,0.601074,-0.572266,-0.273438,0
15250,0.640625,-0.557129,-0.305664,0
15270,0.66748,-0.550293,-0.317871,0
15290,0.737793,-0.499023,-0.287598,0
15310,0.902344,-0.498535,-0.207031,0
15330,0.885254,-0.497559,-0.239746,0
15350,0.870117,-0.529297,-0.272949,0
15370,0.942871,-0.600098,-0.232422,0
15390,1.01562,-0.601562,-0.270996,0
15410,1.07324,-0.64502,-0.282715,0
15430,1.06348,-0.622559,-0.210449,0
15450,1.00586,-0.552734,-0.149902,0
15470,0.960938,-0.512207,-0.216797,0
15490,0.888672,-0.441406,-0.164062,0
15510,0.813965,-0.401855,-0.200684,0
15530,0.730957,-0.394043,-0.0898438,0
15550,0.714355,-0.370605,-0.0693359,0
15570,0.751953,-0.407715,-0.115723,0
15590,0.798828,-0.456543,-0.0332031,0
15610,0.784668,-0.470703,-0.134277,0
15630,0.773438,-0.452148,-0.145508,0
15650,0.845703,-0.425293,-0.161621,0
15670,0.828613,-0.419922,-0.202148,0
15690,0.794434,-0.413574,-0.25293,0
15710,0.805664,-0.452637,-0.23584,0
15730,0.861816,-0.519531,-0.204102,0
15750,0.882324,-0.492188,-0.211914,0
15770,0.908691,-0.408691,-0.217285,0
15790,0.89502,-0.388184,-0.279785,0
15810,0.853027,-0.379395,-0.273438,0
15830,0.818848,-0.398438,-0.250488,0
15850,0.84082,-0.464844,-0.235352,0
15870,0.81543,-0.506348,-0.191895,0
15890,0.833496,-0.498047,-0.181152,0
15910,0.850586,-0.474609,-0.171387,0
15930,0.851074,-0.493164,-0.169434,0
15950,0.899902,-0.508301,-0.208984,0
15970,0.900879,-0.472656,-0.201172,0
15990,0.904297,-0.48291,-0.179199,0
16010,0.918457,-0.472168,-0.121582,0
16030,0.900879,-0.489746,-0.133789,0
16050,0.831055,-0.479492,-0.179199,0
16070,0.787598,-0.443848,-0.229492,0
16090,0.826172,-0.415527,-0.206543,0
16110,0.867188,-0.421875,-0.208984,0
16130,0.901855,-0.42041,-0.256348,0
16150,0.927734,-0.370117,-0.269531,0
16170,0.940918,-0.352539,-0.229004,0
16190,0.964355,-0.377441,-0.199707,0
16210,0.987305,-0.379883,-0.208008,0
16230,0.943359,-0.380859,-0.207031,0
16250,0.904785,-0.35498,-0.207031,0
16270,0.902344,-0.359863,-0.20752,0
16290,0.89502,-0.356445,-0.190918,0
16310,0.862305,-0.34082,-0.179688,0
16330,0.822266,-0.365723,-0.223145,0
16350,0.806152,-0.364258,-0.230469,0
16370,0.817871,-0.376465,-0.207031,0
16390,0.839844,-0.379395,-0.198242,0
16410,0.851074,-0.360352,-0.212891,0
16430,0.846191,-0.39502,-0.251465,0
16450,0.878906,-0.393555,-0.27002,0
16470,0.942383,-0.427734,-0.280762,0
16490,0.891113,-0.391113,-0.303223,0
16510,0.890137,-0.374512,-0.294434,0
16530,0.895996,-0.382812,-0.278809,0
16550,0.896973,-0.376953,-0.277344,0
16570,0.915527,-0.381836,-0.274414,0
16590,0.926758,-0.374023,-0.26123,0
16610,0.943359,-0.387207,-0.249023,0
16630,0.882324,-0.335449,-0.199219,0
16650,0.924805,-0.363281,-0.23584,0
16670,0.796875,-0.325684,-0.226074,0
16680,0.786133,-0.345215,-0.252441,0
16700,0.820312,-0.375977,-0.228516,0
16720,0.847168,-0.411133,-0.216309,0
16740,0.816895,-0.39502,-0.254883,0
16760,0.810547,-0.376465,-0.214844,0
16780,0.85791,-0.383301,-0.237793,0
16800,0.868652,-0.383301,-0.222168,0
16820,0.897461,-0.365723,-0.24707,0
16840,0.922852,-0.379883,-0.222656,0
16860,0.937988,-0.404785,-0.237793,0
16880,0.927246,-0.410156,-0.245605,0
16900,0.921387,-0.430176,-0.23584,0
16920,0.899414,-0.430664,-0.254883,0
16940,0.87793,-0.427734,-0.245117,0
16960,0.869141,-0.439941,-0.229492,0
16980,0.851074,-0.449707,-0.196777,0
17000,0.853027,-0.429199,-0.204102,0
17020,0.864746,-0.420898,-0.192871,0
17040,0.854492,-0.421875,-0.191406,0
17060,0.82666,-0.414551,-0.19873,0
17080,0.850586,-0.393066,-0.228516,0
17100,0.864746,-0.376465,-0.253906,0
17120,0.874023,-0.356934,-0.269531,0
17140,0.862305,-0.333008,-0.272949,0
17160,0.884766,-0.336426,-0.249023,0
17180,0.870117,-0.341797,-0.254395,0
17200,0.87793,-0.339355,-0.28125,0
17220,0.876465,-0.337891,-0.27002,0
17240,0.873535,-0.34668,-0.274902,0
17260,0.869629,-0.36377,-0.267578,0
17280,0.888184,-0.391113,-0.286621,0
17300,0.854492,-0.383301,-0.289062,0
17320,0.833984,-0.380859,-0.281738,0
17340,0.851074,-0.387695,-0.277832,0
17360,0.868164,-0.375977,-0.273926,0
17380,0.876465,-0.379395,-0.276855,0
17400,0.867676,-0.385742,-0.257324,0
17420,0.874023,-0.402344,-0.27832,0
17440,0.867676,-0.388184,-0.274902,0
17460,0.864258,-0.386719,-0.254883,0
17480,0.856934,-0.393555,-0.244629,0
17500,0.827637,-0.380859,-0.238281,0
17520,0.811035,-0.369141,-0.228027,0
17540,0.80957,-0.371094,-0.210938,0
17560,0.764648,-0.362305,-0.192871,0
17580,0.750488,-0.350586,-0.169922,0
17600,0.783203,-0.351562,-0.186523,0
17620,0.820801,-0.365723,-0.201172,0
17640,0.86084,-0.376953,-0.175293,0
17660,0.936035,-0.421875,-0.191406,0
17680,0.917969,-0.454102,-0.17627,0
17700,0.920898,-0.47168,-0.158203,0
17720,0.900391,-0.493652,-0.140625,0
17740,0.915527,-0.486816,-0.111816,0
17760,0.908203,-0.479492,-0.0917969,0
17780,0.890625,-0.483398,-0.0644531,0
17800,0.849121,-0.466309,-0.0419922,0
17820,0.797852,-0.438477,-0.00927734,0
17840,0.741211,-0.418945,0.00634766,0
17860,0.679688,-0.391602,0.00244141,0
17880,0.614746,-0.393066,-0.0419922,0
17900,0.552734,-0.376465,-0.0620117,0
17920,0.505371,-0.379883,-0.0175781,0
17940,0.538086,-0.399902,0.0493164,0
17960,0.645508,-0.422363,0.114746,0
17980,0.718262,-0.482422,0.119141,0
18000,0.736328,-0.550781,0.078125,0
18020,0.664551,-0.599609,0.126465,0
18040,0.657715,-0.682617,0.209961,0
18060,0.719238,-0.808105,0.28418,0
18080,0.70459,-0.922852,0.290039,0
18100,0.594727,-0.939941,0.355957,0
18120,0.436035,-0.950195,0.414551,0
18140,0.400391,-1.01709,0.46875,0
18160,0.435059,-1.00537,0.526855,0
18180,0.397461,-0.941895,0.413086,0
18200,0.294922,-0.926758,0.484375,0
18220,0.0795898,-0.777344,0.530273,0
18240,-0.0771484,-0.877441,0.495117,0
18260,-0.078125,-0.961426,0.532715,0
18280,0.0297852,-0.89209,0.539062,0
18300,-0.000488281,-0.807617,0.524902,0
18320,-0.127441,-0.851074,0.501953,0
18340,-0.192383,-1.05762,0.480957,0
18360,-0.22168,-1.08301,0.481934,0
18380,-0.258789,-1.00586,0.456543,0
18400,-0.194336,-0.902344,0.368652,0
18420,-0.117676,-0.862793,0.36377,0
18440,-0.0712891,-0.879395,0.331055,0
18460,-0.0366211,-0.993164,0.350586,0
18480,-0.0571289,-1.0293,0.358398,0
18500,-0.131348,-0.969727,0.365723,0
18520,-0.161621,-0.870605,0.382324,0
18540,-0.122559,-0.88916,0.384766,0
18560,-0.0830078,-0.938477,0.381348,0
18580,-0.0610352,-0.965332,0.402832,0
18600,-0.0527344,-0.928223,0.416504,0
18620,-0.0620117,-0.876465,0.414551,0
18640,-0.0810547,-0.859375,0.380371,0
18660,-0.119141,-0.856445,0.389648,0
18680,-0.14209,-0.866211,0.388672,0
18700,-0.12207,-0.864746,0.402344,0
18720,-0.0776367,-0.858887,0.396973,0
18740,-0.0566406,-0.875,0.396484,0
18760,-0.0458984,-0.893066,0.396973,0
18780,-0.0634766,-0.874512,0.435059,0
18800,-0.0854492,-0.855957,0.43457,0
18820,-0.0673828,-0.871582,0.423828,0
18840,-0.0742188,-0.875,0.410156,0
18860,-0.104004,-0.873535,0.429199,0
18880,-0.111328,-0.862305,0.415039,0
18900,-0.0932617,-0.846191,0.389648,0
18920,-0.0805664,-0.852539,0.38916,0
18940,-0.0766602,-0.878906,0.388184,0
18960,-0.0830078,-0.901855,0.362305,0
18980,-0.0908203,-0.924316,0.369141,0
19000,-0.0751953,-0.91748,0.348145,0
19020,-0.108887,-0.878906,0.311035,0
19040,-0.137695,-0.897461,0.289551,0
19060,-0.0703125,-0.882324,0.283203,0
19080,-0.0737305,-0.863281,0.335938,0
19100,-0.183105,-0.916504,0.395996,0
19120,-0.188965,-0.934082,0.386719,0
19140,-0.150391,-0.895508,0.397461,0
19160,-0.139648,-0.871582,0.446777,0
19180,-0.145508,-0.895996,0.459473,0
19200,-0.171875,-0.974609,0.425293,0
19220,-0.1875,-1.02002,0.38623,0
19240,-0.160645,-0.928223,0.380371,0
19260,-0.129883,-0.835938,0.371094,0
19280,-0.119629,-0.864746,0.356445,0
19300,-0.129395,-0.906738,0.373535,0
19320,-0.163086,-0.922363,0.399414,0
19340,-0.171875,-0.900879,0.379883,0
19360,-0.169922,-0.882324,0.37207,0
19380,-0.168457,-0.878906,0.380371,0
19400,-0.162598,-0.888184,0.380371,0
19420,-0.151855,-0.894043,0.381348,0
19440,-0.128906,-0.885254,0.389648,0
19460,-0.12207,-0.875488,0.390137,0
19480,-0.109863,-0.875488,0.385254,0
19500,-0.12207,-0.874512,0.387695,0
19520,-0.134766,-0.874023,0.396973,0
19540,-0.138672,-0.879395,0.40332,0
19560,-0.138672,-0.890625,0.391602,0
19580,-0.150391,-0.880371,0.384766,0
19600,-0.154785,-0.872559,0.387207,0
19620,-0.152344,-0.881348,0.370117,0
19640,-0.145996,-0.887207,0.35791,0
19660,-0.152344,-0.898438,0.369629,0
19680,-0.163086,-0.906738,0.368164,0
19700,-0.166992,-0.900879,0.370605,0
19720,-0.167969,-0.894531,0.36377,0
19740,-0.164551,-0.897949,0.363281,0
19760,-0.166992,-0.909668,0.383301,0
19780,-0.166504,-0.903809,0.377441,0
19800,-0.166016,-0.881348,0.365234,0
19820,-0.165039,-0.862305,0.360352,0
19840,-0.177734,-0.876953,0.361816,0
19860,-0.185547,-0.88916,0.364258,0
19880,-0.188965,-0.886719,0.36084,0
19900,-0.188477,-0.907227,0.34668,0
19920,-0.193359,-0.947266,0.306152,0
19940,-0.204102,-0.967285,0.337402,0
19960,-0.243164,-0.929688,0.389648,0
19980,-0.256348,-0.893066,0.381348,0
20000,-0.23291,-0.913086,0.31543,0
20020,-0.200684,-0.908691,0.39209,0
20040,-0.226074,-0.924805,0.412109,0
20060,-0.209961,-0.959961,0.402832,0
20080,-0.148926,-0.947266,0.428223,0
20100,-0.117676,-0.93457,0.437012,0
20110,-0.10791,-0.914551,0.436035,0
20130,-0.11084,-0.911133,0.481934,0
20150,-0.0546875,-0.93457,0.489258,0
20170,0.00439453,-0.910645,0.455566,0
20190,0.0249023,-0.845215,0.472656,0
20210,0.0273438,-0.775391,0.477051,0
20230,0.0288086,-0.728516,0.454102,0
20250,0.0517578,-0.71582,0.442871,0
20270,0.0849609,-0.743164,0.438477,0
20290,0.0732422,-0.756836,0.44043,0
20310,0.0419922,-0.77002,0.457031,0
20330,0.0307617,-0.757324,0.430664,0
20350,0.034668,-0.763184,0.399902,0
20370,0.0522461,-0.82666,0.32666,0
20390,0.00195312,-0.835449,0.374023,0
20410,-0.00976562,-0.88916,0.428223,0
20430,0.00488281,-0.896973,0.370117,0
20450,0.0302734,-0.925293,0.37793,0
20470,0.0249023,-0.90625,0.398926,0
20490,0.00927734,-0.875488,0.412109,0
20510,0.0170898,-0.847656,0.388672,0
20530,0.0395508,-0.845215,0.408691,0
20550,0.0332031,-0.915039,0.409668,0
20570,-0.0234375,-1.00098,0.465332,0
20590,0.00195312,-1.01221,0.427246,0
20610,0.00488281,-0.883789,0.394043,0
20630,-0.0292969,-0.79541,0.43457,0
20650,0.00732422,-0.822754,0.38916,0
20670,0.0307617,-0.867676,0.40332,0
20690,0.0107422,-0.922363,0.42041,0
20710,-0.0244141,-0.873047,0.419434,0
20730,-0.0102539,-0.875,0.426758,0
20750,0.00927734,-0.904785,0.422363,0
20770,0.00146484,-0.89502,0.404297,0
20790,0.0102539,-0.864258,0.416504,0
20810,0.0229492,-0.852051,0.418945,0
20830,0.0126953,-0.860352,0.424805,0
20850,-0.00488281,-0.881836,0.416992,0
20870,-0.00537109,-0.895508,0.397949,0
20890,-0.00390625,-0.873535,0.404785,0
20910,0.00976562,-0.866699,0.422363,0
20930,0.0273438,-0.858398,0.395508,0
20950,0.0249023,-0.887695,0.416992,0
20970,0.0258789,-0.887695,0.409668,0
20990,0.0380859,-0.857422,0.400879,0
21010,0.0292969,-0.772461,0.425781,0
21030,0.0175781,-0.757324,0.42627,0
21050,0.00634766,-0.757324,0.441406,0
21070,-0.0180664,-0.776855,0.45459,0
21090,-0.0620117,-0.828125,0.453125,0
21110,-0.0849609,-0.869629,0.439453,0
21130,-0.097168,-0.835938,0.420898,0
21150,-0.0839844,-0.834961,0.409668,0
21170,-0.123535,-0.850098,0.412598,0
21190,-0.172363,-0.883789,0.412598,0
21210,-0.20752,-0.932617,0.411621,0
21230,-0.198242,-0.942383,0.391602,0
21250,-0.148438,-0.932129,0.376953,0
21270,-0.135742,-0.922852,0.390625,0
21290,-0.137207,-0.936523,0.393555,0
21310,-0.152832,-0.955566,0.375977,0
21330,-0.17334,-0.966309,0.373535,0
21350,-0.189941,-0.969238,0.380859,0
21370,-0.209961,-0.970703,0.388184,0
21390,-0.216309,-0.972168,0.396973,0
21410,-0.209473,-0.947754,0.414062,0
21430,-0.20752,-0.92041,0.411133,0
21450,-0.192383,-0.909668,0.40918,0
21470,-0.189453,-0.90918,0.423828,0
21490,-0.181152,-0.891602,0.417969,0
21510,-0.163086,-0.875488,0.40625,0
21530,-0.15625,-0.885742,0.39502,0
21550,-0.150391,-0.903809,0.382812,0
21570,-0.149414,-0.894531,0.367188,0
21590,-0.168457,-0.871582,0.375488,0
21610,-0.148926,-0.894043,0.347656,0
21630,-0.133301,-0.921387,0.293457,0
21650,-0.109863,-0.950684,0.285156,0
21670,-0.13623,-0.98877,0.240234,0
21690,-0.140137,-1.05859,0.270996,0
21710,-0.0991211,-1.10352,0.331055,0
21730,-0.0327148,-1.01611,0.27832,0
21750,-0.0361328,-1.00537,0.288086,0
21770,-0.0512695,-1.04248,0.256348,0
21790,-0.0351562,-1.04102,0.1875,0
21810,-0.0268555,-1.04736,0.203613,0
21830,-0.0908203,-1.11914,0.0986328,0
21850,-0.0810547,-1.19775,-0.0371094,0
21870,-0.050293,-1.13379,0.0649414,0
21890,-0.131348,-1.0332,0.0361328,0
21910,-0.253418,-1.04883,0.0151367,0
21930,-0.267578,-1.06445,0.110352,0
21950,-0.286621,-0.988281,0.106934,0
21970,-0.320312,-0.904297,0.0878906,0
21990,-0.326172,-0.834961,0.154297,0
22010,-0.280273,-0.820312,0.164551,0
22030,-0.291016,-0.711426,0.0585938,0
22050,-0.276367,-0.703125,0.0913086,0
22060,-0.258789,-0.689453,0.141113,0
22070,-0.234375,-0.740723,0.0703125,0
22090,-0.21875,-0.747559,-0.0317383,0
22110,-0.210449,-0.740723,-0.0351562,0
22130,-0.193359,-0.769531,-0.0566406,0
22150,-0.197266,-0.870605,-0.0874023,0
22160,-0.206055,-0.982422,-0.0927734,0
22180,-0.149902,-1.07422,-0.0585938,0
22200,-0.113281,-1.13379,-0.0512695,0
22220,-0.124023,-1.15332,-0.127441,0
22240,-0.121094,-1.14697,-0.0839844,0
22260,-0.0849609,-1.08301,-0.0112305,0
22280,-0.105957,-1.03516,-0.0322266,0
22300,-0.128418,-1.04785,-0.0375977,0
22320,-0.137207,-1.06738,0.0161133,0
22340,-0.154785,-1.05908,0.0410156,0
22360,-0.174805,-1.04248,0.0415039,0
22380,-0.199219,-1.00586,0.0537109,0
22400,-0.223145,-0.977539,0.0410156,0
22420,-0.22998,-0.97998,0.012207,0
22440,-0.219727,-0.977051,0.0483398,0
22460,-0.23584,-0.956543,0.0556641,0
22480,-0.258301,-0.925293,0.0385742,0
22500,-0.259766,-0.937988,0.0664062,0
22520,-0.221191,-0.954102,0.0737305,0
22540,-0.218262,-0.980957,0.0585938,0
22560,-0.214844,-0.981934,0.00732422,0
22580,-0.215332,-0.939941,0.043457,0
22600,-0.15625,-0.87207,0.0493164,0
22620,-0.217285,-0.876465,0.0107422,0
22640,-0.370605,-1.1001,0.0693359,0
22660,-0.432129,-1.41211,0.174316,0
22680,-0.3125,-1.40137,0.059082,0
22700,-0.204102,-1.0415,0.0327148,0
22720,-0.230469,-0.900391,0.0327148,0
22740,-0.246582,-0.890625,-0.00390625,0
22760,-0.226562,-0.936523,0.0288086,0
22780,-0.240723,-0.995605,0.0942383,0
22800,-0.23291,-0.996582,0.127441,0
22810,-0.202637,-0.944824,0.117188,0
22830,-0.184082,-0.907227,0.128418,0
22850,-0.195312,-0.916992,0.12793,0
22870,-0.194336,-0.949219,0.109375,0
22890,-0.186523,-0.96875,0.0874023,0
22910,-0.195312,-0.955566,0.074707,0
22930,-0.204102,-0.941895,0.0708008,0
22950,-0.215332,-0.952637,0.0795898,0
22970,-0.219727,-0.977051,0.0986328,0
22990,-0.229004,-0.99707,0.0913086,0
23010,-0.228027,-1.00537,0.100098,0
23030,-0.232422,-1.00488,0.100098,0
23050,-0.248047,-1.00195,0.0908203,0
23070,-0.240723,-1.00439,0.0854492,0
23090,-0.234375,-0.995605,0.0908203,0
23110,-0.219238,-0.972656,0.0986328,0
23130,-0.222656,-0.974609,0.114746,0
23150,-0.225098,-0.973633,0.121582,0
23170,-0.214844,-0.980957,0.126465,0
23190,-0.20752,-0.983398,0.112305,0
23210,-0.211426,-0.983398,0.11084,0
23230,-0.218262,-0.973633,0.113281,0
23250,-0.215332,-0.962891,0.102539,0
23270,-0.213379,-0.972168,0.118652,0
23290,-0.213867,-0.981445,0.12207,0
23310,-0.220215,-0.984863,0.118652,0
23330,-0.219238,-0.983398,0.112305,0
23350,-0.224609,-0.986816,0.113281,0
23370,-0.228516,-0.987305,0.113281,0
23390,-0.223633,-0.981934,0.110352,0
23410,-0.219727,-0.980469,0.125977,0
23430,-0.228516,-0.983398,0.123535,0
23450,-0.229004,-0.978516,0.115723,0
23470,-0.225586,-0.970703,0.112305,0
23490,-0.21582,-0.963379,0.103516,0
23510,-0.219727,-0.972168,0.103027,0
23530,-0.225098,-0.97168,0.10791,0
23550,-0.224121,-0.977539,0.111816,0
23570,-0.225098,-0.980957,0.101074,0
23590,-0.221191,-0.973145,0.104492,0
23610,-0.224121,-0.961426,0.106445,0
23630,-0.223633,-0.960938,0.101074,0
23650,-0.225098,-0.97168,0.100586,0
23670,-0.223633,-0.976074,0.0981445,0
23690,-0.226562,-0.978516,0.112305,0
23710,-0.237793,-0.979492,0.114258,0
23730,-0.229004,-0.982422,0.107422,0
23750,-0.226074,-0.980469,0.110352,0
23770,-0.224609,-0.96875,0.112793,0
23790,-0.22998,-0.971191,0.101562,0
23810,-0.230469,-0.978516,0.100586,0
23830,-0.230469,-0.981934,0.110352,0
23850,-0.226562,-0.97168,0.10791,0
23870,-0.229004,-0.967773,0.109375,0
23890,-0.230957,-0.974121,0.108887,0
23910,-0.230469,-0.97168,0.107422,0
23930,-0.228516,-0.966797,0.0976562,0
23950,-0.225586,-0.974121,0.100098,0
23970,-0.232422,-0.974121,0.106934,0
23990,-0.239258,-0.98291,0.102539,0
24010,-0.237793,-0.994141,0.102539,0
24030,-0.241699,-0.994629,0.103516,0
24050,-0.240723,-0.993164,0.104004,0
24070,-0.236816,-0.986328,0.0917969,0
24090,-0.231445,-0.972168,0.0810547,0
24110,-0.223633,-0.955566,0.0854492,0
24130,-0.222168,-0.939453,0.101074,0
24150,-0.223633,-0.936523,0.0976562,0
24170,-0.225586,-0.948242,0.0952148,0
24190,-0.23291,-0.955078,0.100586,0
24210,-0.234863,-0.956543,0.100098,0
24230,-0.243164,-0.962402,0.100098,0
24250,-0.242188,-0.974609,0.102051,0
24270,-0.233887,-0.986328,0.0898438,0
24290,-0.229492,-0.995117,0.0927734,0
24310,-0.236328,-1.00732,0.0913086,0
24330,-0.23877,-1.00342,0.0874023,0
24350,-0.240234,-0.979492,0.0913086,0
24370,-0.23877,-0.963379,0.100098,0
24390,-0.236816,-0.964844,0.122559,0
24410,-0.234863,-0.966309,0.119141,0
24430,-0.226562,-0.965332,0.116211,0
24450,-0.225098,-0.962891,0.118164,0
24470,-0.228027,-0.967285,0.121582,0
24490,-0.230957,-0.98291,0.108887,0
24510,-0.216797,-0.97998,0.0991211,0
24530,-0.214355,-0.979492,0.103027,0
24550,-0.225098,-0.990234,0.0981445,0
24570,-0.230957,-0.987305,0.101074,0
24590,-0.229004,-0.987793,0.0996094,0
24610,-0.231934,-0.977051,0.103516,0
24630,-0.228516,-0.974609,0.112305,0
24650,-0.22998,-0.96875,0.118164,0
24670,-0.22998,-0.974121,0.119141,0
24690,-0.226074,-0.969727,0.103027,0
24710,-0.222656,-0.964844,0.101562,0
24730,-0.22998,-0.959961,0.105957,0
24750,-0.237305,-0.971191,0.112793,0
24770,-0.230469,-0.984863,0.103516,0
24790,-0.226562,-0.98291,0.10791,0
24810,-0.230469,-0.973633,0.10498,0
24830,-0.228516,-0.974121,0.101562,0
24850,-0.227539,-0.972656,0.097168,0
24870,-0.227539,-0.967285,0.101074,0
24890,-0.228027,-0.961426,0.0991211,0
24910,-0.222656,-0.966797,0.105957,0
24930,-0.22168,-0.973633,0.0986328,0
24950,-0.228027,-0.969238,0.11084,0
24970,-0.233887,-0.972656,0.111328,0
24990,-0.22998,-0.98291,0.113281,0
25010,-0.233398,-0.978516,0.10791,0
25030,-0.230957,-0.974609,0.0947266,0
25050,-0.236816,-0.973145,0.104004,0
25070,-0.240723,-0.975586,0.104492,0
25090,-0.241211,-0.978516,0.109863,0
25110,-0.229004,-0.970215,0.101074,0
25130,-0.226074,-0.968262,0.108887,0
25150,-0.220703,-0.966309,0.116211,0
25170,-0.230469,-0.973145,0.11084,0
25190,-0.22168,-0.975098,0.0996094,0
25210,-0.21875,-0.974609,0.100586,0
25230,-0.223633,-0.969727,0.103516,0
25250,-0.231934,-0.974609,0.111328,0
25270,-0.237305,-0.981445,0.12207,0
25290,-0.231445,-0.98584,0.111328,0
25310,-0.228027,-0.970703,0.111328,0
25330,-0.230957,-0.960938,0.108398,0
25350,-0.227051,-0.964844,0.0961914,0
25370,-0.222656,-0.973633,0.11084,0
25390,-0.228516,-0.976562,0.114258,0
25410,-0.237305,-0.987793,0.109863,0
25430,-0.232422,-0.992676,0.108887,0
25450,-0.232422,-0.983398,0.11084,0
25470,-0.227539,-0.973633,0.113281,0
25480,-0.233398,-0.970215,0.106934,0
25500,-0.233398,-0.969238,0.108887,0
25520,-0.233398,-0.968262,0.101562,0
25540,-0.223633,-0.971191,0.0952148,0
25560,-0.231934,-0.970703,0.112305,0
25580,-0.239746,-0.967285,0.113281,0
25600,-0.230469,-0.971191,0.108887,0
25620,-0.22168,-0.97168,0.113281,0
25640,-0.224609,-0.976562,0.109375,0
25660,-0.230957,-0.980957,0.106445,0
25680,-0.229004,-0.975098,0.107422,0
25700,-0.229004,-0.966309,0.103516,0
25720,-0.229492,-0.977051,0.109863,0
25740,-0.230957,-0.976074,0.112305,0
25760,-0.23584,-0.977539,0.11377,0
25780,-0.237793,-0.975586,0.111816,0
25800,-0.233887,-0.974609,0.106445,0
25820,-0.235352,-0.97168,0.106934,0
25840,-0.231934,-0.971191,0.112793,0
25860,-0.239258,-0.974609,0.106445,0
25880,-0.231934,-0.974609,0.108887,0
25900,-0.229004,-0.97168,0.106934,0
25920,-0.230957,-0.974121,0.112305,0
25940,-0.233398,-0.973633,0.11377,0
25960,-0.231934,-0.981445,0.11084,0
25980,-0.228516,-0.973145,0.108887,0
26000,-0.231934,-0.972168,0.110352,0
26020,-0.231934,-0.969238,0.104492,0
26040,-0.230469,-0.975586,0.10791,0
26060,-0.228516,-0.970215,0.105957,0
26080,-0.233398,-0.975098,0.100586,0
26100,-0.241699,-0.981934,0.106934,0
26120,-0.251465,-0.992676,0.0908203,0
26140,-0.311523,-1.08643,0.0673828,0
26160,-0.344238,-1.20752,0.0146484,0
26180,-0.336426,-1.17334,0.0463867,0
26200,-0.416992,-0.940918,0.119141,0
26220,-0.555176,-0.70166,0.097168,0
26240,-0.668457,-0.80957,0.298828,0
26260,-0.602051,-1.06201,0.450195,0
26280,-0.380371,-1.24707,0.549805,0
26300,-0.119629,-1.32959,0.534668,0
26320,0.124512,-1.21436,0.500488,0
26340,0.239746,-1.09766,0.552734,0
26360,0.571777,-1.02979,0.492188,0
26380,0.848633,-1.0083,0.259277,0
26400,0.780762,-0.944824,0.103027,0
26420,0.847656,-0.759766,-0.101074,0
26440,0.775391,-0.825684,-0.0395508,0
26460,0.73877,-0.791016,-0.10498,0
26480,0.762207,-0.725098,-0.129395,0
26500,0.82959,-0.574219,-0.237305,0
26520,0.656738,-0.484863,-0.182617,0
26540,0.61377,-0.416016,-0.223145,0
26580,0.632324,-0.322754,-0.265137,0
26600,0.565918,-0.293457,-0.287598,0
26620,0.62207,-0.280762,-0.282227,0
26640,0.632812,-0.279785,-0.283691,0
26660,0.600098,-0.272461,-0.293457,0
26680,0.58252,-0.302734,-0.303711,0
26700,0.619141,-0.302246,-0.274414,0
26720,0.677246,-0.327148,-0.276367,0
26740,0.755859,-0.321289,-0.273438,0
26760,0.82373,-0.296387,-0.32373,0
26780,0.870117,-0.312988,-0.344727,0
26800,0.885254,-0.336426,-0.375977,0
26820,0.907715,-0.317871,-0.399902,0
26840,0.898926,-0.370605,-0.425781,0
26860,0.859375,-0.340332,-0.432617,0
26880,0.864258,-0.33252,-0.448242,0
26900,0.875488,-0.34082,-0.459961,0
26920,0.867676,-0.358887,-0.472656,0
26940,0.845703,-0.338867,-0.449219,0
26960,0.84375,-0.340332,-0.467285,0
26980,0.834961,-0.324707,-0.428711,0
27000,0.827637,-0.310059,-0.440918,0
27020,0.919434,-0.330078,-0.445801,0
27040,0.903809,-0.425781,-0.373535,0
27060,0.886719,-0.345703,-0.38623,0
27080,0.761719,-0.230957,-0.476562,0
27100,0.734863,-0.256836,-0.5,0
27120,0.824707,-0.342773,-0.436035,0
27140,0.842773,-0.351562,-0.425293,0
27160,0.911621,-0.370605,-0.443848,0
27180,0.810547,-0.350098,-0.411621,0
27200,0.77832,-0.268066,-0.442383,0
27220,0.8125,-0.254883,-0.454102,0
27240,0.841309,-0.248047,-0.444336,0
27260,0.86377,-0.301758,-0.481934,0
27280,0.873047,-0.331055,-0.459473,0
27300,0.862793,-0.33252,-0.4375,0
27320,0.837891,-0.337402,-0.446777,0
27340,0.779297,-0.318848,-0.432129,0
27360,0.748535,-0.305176,-0.440918,0
27380,0.758301,-0.339355,-0.438477,0
27400,0.79248,-0.348145,-0.438477,0
27420,0.794434,-0.380859,-0.443848,0
27430,0.804199,-0.381836,-0.408203,0
27450,0.821289,-0.35791,-0.399902,0
27470,0.82373,-0.349609,-0.401367,0
27490,0.820312,-0.337891,-0.418945,0
27510,0.821777,-0.358398,-0.40625,0
27530,0.839355,-0.391602,-0.416016,0
27550,0.868164,-0.385742,-0.430176,0
27570,0.885742,-0.373047,-0.427246,0
27590,0.883301,-0.378418,-0.445312,0
27610,0.895996,-0.387207,-0.439453,0
27630,0.882324,-0.356934,-0.45166,0
27650,0.855957,-0.338867,-0.432129,0
27670,0.850098,-0.339355,-0.439453,0
27690,0.845215,-0.339844,-0.4375,0
27710,0.866699,-0.354492,-0.431152,0
27730,0.812012,-0.34375,-0.395508,0
27750,0.787109,-0.32373,-0.418457,0
27770,0.774414,-0.320312,-0.399414,0
27790,0.770996,-0.322266,-0.379883,0
27810,0.750488,-0.327637,-0.354492,0
27830,0.768555,-0.344727,-0.375488,0
27850,0.772461,-0.319336,-0.352051,0
27870,0.773438,-0.297852,-0.308105,0
27890,0.763184,-0.306152,-0.317871,0
27910,0.766602,-0.330566,-0.332031,0
27930,0.772949,-0.338379,-0.279297,0
27950,0.750977,-0.32666,-0.220215,0
27970,0.729492,-0.319824,-0.228027,0
27990,0.719238,-0.336914,-0.25293,0
28010,0.67627,-0.348145,-0.232422,0
28030,0.648438,-0.360352,-0.1875,0
28050,0.646973,-0.387207,-0.22168,0
28070,0.717285,-0.419922,-0.218262,0
28090,0.788574,-0.431152,-0.0947266,0
28110,0.824707,-0.503418,-0.0415039,0
28130,0.833984,-0.570312,-0.103027,0
28150,0.794922,-0.618652,-0.0678711,0
28170,0.762695,-0.634277,0.046875,0
28190,0.880859,-0.747559,0.078125,0
28210,0.873047,-0.931152,0.145996,0
28230,0.685059,-0.916504,0.23584,0
28250,0.481445,-0.854492,0.425293,0
28270,0.646484,-0.986816,0.439941,0
28290,0.826172,-1.0918,0.466309,0
28310,0.922363,-1.06396,0.368164,0
28330,0.944824,-1.04102,0.260254,0
28350,0.936035,-1.07666,0.227051,0
28370,0.864258,-1.04346,0.29834,0
28390,0.864746,-0.983887,0.255371,0
28410,0.894531,-0.928711,0.183594,0
28430,0.891602,-0.810547,0.155762,0
28450,0.865723,-0.743652,0.116211,0
28470,0.840332,-0.744141,0.0595703,0
28490,0.842773,-0.708008,0.0610352,0
28510,0.796387,-0.628906,0.0522461,0
28530,0.747559,-0.570801,0.00292969,0
28540,0.695312,-0.501953,-0.0195312,0
28560,0.67334,-0.450195,-0.0488281,0
28580,0.654297,-0.406738,-0.108398,0
28600,0.644043,-0.367188,-0.179688,0
28620,0.665039,-0.367188,-0.200684,0
28640,0.660645,-0.359863,-0.257324,0
28660,0.663086,-0.32666,-0.303223,0
28680,0.67627,-0.304199,-0.309082,0
28700,0.73877,-0.313965,-0.321777,0
28720,0.715332,-0.318848,-0.347168,0
28740,0.692383,-0.279297,-0.34082,0
28760,0.705078,-0.297363,-0.361328,0
28780,0.686035,-0.305664,-0.367188,0
28800,0.727539,-0.331055,-0.370605,0
28820,0.766602,-0.329102,-0.378418,0
28840,0.82373,-0.306641,-0.425293,0
28860,0.867676,-0.324219,-0.442871,0
28880,0.875977,-0.329102,-0.429199,0
28900,0.885254,-0.325684,-0.421387,0
28920,0.881836,-0.315918,-0.42627,0
28940,0.882812,-0.311035,-0.430664,0
28960,0.853516,-0.318848,-0.431641,0
28980,0.842285,-0.314941,-0.432129,0
29000,0.871094,-0.324219,-0.400879,0
29020,0.874512,-0.343262,-0.407227,0
29040,0.833984,-0.359375,-0.407227,0
29060,0.832031,-0.354492,-0.399902,0
29080,0.834473,-0.35498,-0.407227,0
29100,0.837891,-0.364746,-0.40918,0
29120,0.834961,-0.360352,-0.433105,0
29140,0.833496,-0.369629,-0.423828,0
29160,0.819336,-0.367676,-0.416504,0
29180,0.850098,-0.375488,-0.419434,0
29200,0.849609,-0.370117,-0.425293,0
29230,0.881836,-0.371094,-0.433594,0
29250,0.86377,-0.383789,-0.432129,0
29270,0.839844,-0.381348,-0.428711,0
29290,0.827637,-0.37793,-0.431152,0
29310,0.819824,-0.369141,-0.441406,0
29330,0.807129,-0.348633,-0.429199,0
29350,0.799316,-0.338379,-0.408203,0
29370,0.803711,-0.32959,-0.401367,0
29390,0.79248,-0.333496,-0.38623,0
29410,0.765137,-0.311523,-0.375488,0
29430,0.729492,-0.311523,-0.382324,0
29440,0.688477,-0.294922,-0.345215,0
29470,0.733398,-0.259766,-0.286133,0
29490,0.751465,-0.269531,-0.266602,0
29510,0.769531,-0.328613,-0.27832,0
29520,0.765625,-0.387695,-0.27002,0
29540,0.748535,-0.407715,-0.166992,0
29560,0.824707,-0.411133,-0.0917969,0
29580,0.887695,-0.447754,-0.11084,0
29600,0.875488,-0.465332,-0.150391,0
29620,0.853516,-0.432129,-0.0532227,0
29640,0.913574,-0.473633,0.0317383,0
29660,0.962891,-0.491699,0.0581055,0
29680,0.910645,-0.493164,0.00976562,0
29700,0.843262,-0.475586,0.0371094,0
29720,0.84375,-0.520508,0.156738,0
29740,0.847656,-0.544434,0.276367,0
29760,0.80957,-0.592285,0.274902,0
29780,0.806152,-0.611816,0.20166,0
29800,0.777832,-0.605957,0.270508,0
29820,0.794922,-0.626465,0.349121,0
29840,0.743652,-0.626465,0.43457,0
29860,0.671875,-0.666016,0.401855,0
29880,0.700195,-0.686035,0.376465,0
29900,0.806152,-0.700195,0.47998,0
29920,0.814453,-0.650391,0.355957,0
29940,0.654785,-0.442383,0.248047,0
29960,0.606445,-0.367188,0.368652,0
29980,0.620605,-0.491699,0.521484,0
30000,0.621094,-0.680664,0.547852,0
30020,0.614746,-0.741211,0.52002,0
30040,0.651367,-0.631348,0.43457,0
30060,0.685059,-0.535156,0.358398,0
30080,0.66748,-0.532715,0.431152,0
30100,0.628418,-0.571777,0.453613,0
30120,0.606445,-0.63916,0.442383,0
30140,0.581543,-0.635254,0.442383,0
30160,0.579102,-0.635742,0.397461,0
30180,0.595703,-0.571289,0.387207,0
30200,0.585938,-0.540039,0.354004,0
30220,0.592285,-0.50293,0.311035,0
30240,0.604492,-0.459473,0.392578,0
30260,0.511719,-0.584473,0.39502,0
30280,0.235352,-1.09863,0.435547,0
30300,0.13916,-1.3999,0.603027,0
30320,0.305176,-1.08984,0.547363,0
30340,0.455566,-0.663086,0.436523,0
30360,0.481934,-0.444336,0.391602,0
30380,0.39209,-0.507812,0.379395,0
30400,0.330566,-0.779785,0.446777,0
30420,0.322266,-0.97168,0.469727,0
30440,0.342773,-0.946777,0.470215,0
30460,0.395508,-0.771484,0.443359,0
30480,0.432129,-0.672852,0.410156,0
30500,0.438477,-0.675293,0.403809,0
30520,0.414551,-0.752441,0.408203,0
30540,0.414551,-0.79248,0.42334,0
30560,0.426758,-0.776367,0.426758,0
30580,0.43457,-0.73877,0.42334,0
30600,0.41748,-0.736816,0.419434,0
30620,0.416016,-0.759766,0.444336,0
30640,0.420898,-0.760742,0.458496,0
30660,0.430176,-0.758789,0.444824,0
30680,0.397949,-0.741699,0.457031,0
30700,0.392578,-0.765625,0.440918,0
30710,0.402344,-0.741699,0.421875,0
30730,0.407715,-0.723633,0.404297,0
30750,0.415039,-0.731934,0.405273,0
30770,0.403809,-0.746094,0.40918,0
30790,0.402344,-0.747559,0.412109,0
30810,0.420898,-0.73877,0.41748,0
30830,0.435547,-0.733398,0.405762,0
30850,0.429199,-0.727051,0.41748,0
30870,0.407715,-0.741211,0.407227,0
30890,0.414062,-0.756348,0.399902,0
30910,0.438965,-0.753906,0.410645,0
30930,0.444824,-0.736816,0.408691,0
30950,0.427734,-0.750977,0.386719,0
30970,0.413574,-0.748535,0.38916,0
30990,0.395996,-0.742676,0.399414,0
31010,0.398926,-0.741211,0.396973,0
31030,0.390625,-0.736328,0.383301,0
31050,0.386719,-0.735352,0.388184,0
31070,0.381348,-0.72998,0.387207,0
31090,0.380371,-0.737305,0.371094,0
31110,0.383789,-0.745605,0.375977,0
31130,0.384277,-0.746094,0.370605,0
31150,0.40332,-0.750488,0.378418,0
31170,0.39502,-0.764648,0.377441,0
31190,0.412598,-0.777832,0.367676,0
31210,0.43457,-0.750488,0.407715,0
31230,0.432617,-0.739258,0.394043,0
31250,0.4375,-0.767578,0.424805,0
31270,0.436523,-0.821289,0.460449,0
31290,0.405273,-0.862305,0.458008,0
31310,0.419434,-0.833496,0.463867,0
31330,0.457031,-0.786621,0.45166,0
31350,0.469238,-0.768066,0.425781,0
31370,0.439453,-0.745605,0.414551,0
31390,0.431641,-0.710449,0.441406,0
31410,0.431152,-0.680176,0.467285,0
31430,0.44043,-0.682617,0.440918,0
31450,0.453613,-0.671387,0.444824,0
31470,0.422363,-0.640625,0.447266,0
31490,0.395508,-0.62207,0.494141,0
31510,0.422852,-0.644531,0.478027,0
31530,0.421875,-0.647461,0.460938,0
31550,0.412598,-0.649902,0.475098,0
31570,0.421875,-0.649414,0.487793,0
31590,0.4375,-0.663574,0.481934,0
31610,0.440918,-0.666504,0.481934,0
31630,0.443848,-0.670898,0.469727,0
31650,0.447754,-0.665039,0.476074,0
31670,0.443359,-0.664551,0.468262,0
31690,0.440918,-0.674805,0.472656,0
31710,0.448242,-0.675293,0.472168,0
31730,0.440918,-0.673828,0.477539,0
31750,0.447266,-0.676758,0.487305,0
31770,0.450684,-0.685059,0.494629,0
31790,0.432617,-0.699219,0.496582,0
31810,0.444336,-0.699707,0.507812,0
31830,0.449707,-0.702148,0.509766,0
31850,0.440918,-0.696777,0.513672,0
31870,0.429688,-0.690918,0.518066,0
31890,0.441406,-0.691895,0.509766,0
31910,0.435547,-0.6875,0.506348,0
31930,0.429688,-0.684082,0.518555,0
31950,0.44873,-0.685059,0.511719,0
31970,0.442871,-0.679199,0.49707,0
31990,0.447266,-0.678711,0.483887,0
32010,0.453613,-0.682617,0.475098,0
32030,0.456543,-0.67334,0.476074,0
32050,0.445312,-0.668457,0.484863,0
32070,0.446289,-0.666016,0.48291,0
32090,0.437988,-0.662109,0.482422,0
32110,0.423828,-0.650879,0.491211,0
32130,0.429199,-0.65332,0.492188,0
32150,0.422363,-0.65625,0.480957,0
32170,0.418945,-0.652832,0.48584,0
32190,0.418457,-0.647949,0.496094,0
32210,0.417969,-0.654297,0.48877,0
32230,0.421387,-0.660156,0.493164,0
32250,0.41748,-0.661133,0.493164,0
32270,0.42041,-0.661133,0.496094,0
32290,0.413574,-0.663574,0.480469,0
32310,0.426758,-0.684082,0.462402,0
32330,0.419922,-0.680176,0.471191,0
32350,0.39209,-0.665039,0.504395,0
32370,0.398438,-0.663086,0.493652,0
32390,0.416504,-0.69873,0.475586,0
32410,0.432129,-0.70752,0.479492,0
32430,0.412109,-0.713867,0.5,0
32450,0.385742,-0.699219,0.507324,0
32470,0.386719,-0.71875,0.506836,0
32490,0.39502,-0.737793,0.494141,0
32510,0.387695,-0.724609,0.507812,0
32530,0.361328,-0.716309,0.477051,0
32550,0.370117,-0.737305,0.48584,0
32570,0.390625,-0.730469,0.481445,0
32590,0.383301,-0.71582,0.509277,0
32610,0.378418,-0.717285,0.481934,0
32630,0.394531,-0.732422,0.477051,0
32650,0.398438,-0.728027,0.484863,0
32670,0.393066,-0.734375,0.493164,0
32690,0.388672,-0.741211,0.486816,0
32700,0.395508,-0.75,0.478027,0
32720,0.411621,-0.742676,0.495117,0
32740,0.400391,-0.749023,0.496582,0
32760,0.404785,-0.768066,0.482422,0
32780,0.414551,-0.76709,0.487305,0
32800,0.416504,-0.783203,0.500488,0
32820,0.405273,-0.783691,0.489746,0
32840,0.415527,-0.766113,0.499023,0
32860,0.407227,-0.743652,0.503418,0
32880,0.406738,-0.74707,0.510742,0
32900,0.385254,-0.737305,0.498535,0
32920,0.375,-0.735352,0.494629,0
32950,0.448242,-0.714355,0.466797,0
32960,0.455078,-0.687988,0.465332,0
32980,0.463379,-0.697754,0.449707,0
33000,0.496094,-0.733887,0.445801,0
33020,0.525879,-0.763184,0.422852,0
33040,0.517578,-0.759277,0.367188,0
33060,0.469727,-0.753906,0.366699,0
33080,0.585938,-0.819824,0.23584,0
33100,0.524902,-0.797363,0.273438,0
33120,0.450195,-0.819336,0.34082,0
33140,0.437012,-0.859863,0.327148,0
33160,0.445801,-0.84375,0.29541,0
33180,0.426758,-0.812012,0.286621,0
33200,0.399414,-0.794922,0.29541,0
33220,0.377441,-0.78418,0.290527,0
33240,0.360352,-0.763672,0.27832,0
33260,0.382324,-0.773438,0.288574,0
33280,0.383301,-0.731445,0.254395,0
33300,0.358398,-0.695801,0.257324,0
33320,0.380371,-0.724609,0.267578,0
33340,0.400391,-0.703613,0.243164,0
33360,0.380859,-0.688965,0.201172,0
33380,0.393066,-0.718262,0.19043,0
33400,0.418945,-0.799316,0.224609,0
33420,0.406738,-0.8125,0.227051,0
33440,0.454102,-0.785156,0.214844,0
33460,0.541504,-0.734375,0.270508,0
33480,0.593262,-0.71875,0.284668,0
33500,0.562988,-0.730957,0.257812,0
33520,0.578613,-0.776855,0.255371,0
33540,0.480469,-0.744141,0.299316,0
33560,0.56543,-0.787598,0.259766,0
33580,0.650391,-0.77002,0.185059,0
33600,0.557129,-0.708984,0.303223,0
33620,0.509277,-0.733398,0.390625,0
33640,0.62207,-0.753418,0.277344,0
33660,0.653809,-0.765137,0.331543,0
33680,0.571289,-0.721191,0.369629,0
33700,0.567383,-0.731445,0.314941,0
33720,0.594727,-0.732422,0.26709,0
33740,0.625977,-0.663086,0.270996,0
33760,0.666504,-0.578125,0.309082,0
33780,0.669922,-0.654297,0.314453,0
33800,0.53125,-0.746582,0.344238,0
33820,0.477051,-0.787109,0.477051,0
33840,0.491699,-0.70459,0.467285,0
33860,0.375,-0.600098,0.467773,0
33880,0.351562,-0.677734,0.428223,0
33900,0.499023,-0.704102,0.375977,0
33920,0.492676,-0.672363,0.42334,0
33940,0.468262,-0.62207,0.404785,0
33960,0.533203,-0.70752,0.311035,0
33980,0.558105,-0.713867,0.369141,0
34000,0.52002,-0.662598,0.416504,0
34020,0.478027,-0.66748,0.317383,0
34040,0.393066,-0.766602,0.451172,0
34060,0.375,-0.757812,0.385254,0
34080,0.387207,-0.756836,0.461914,0
34100,0.433594,-0.739746,0.455078,0
34120,0.461426,-0.688965,0.463867,0
34140,0.513184,-0.67334,0.472168,0
34160,0.456055,-0.65625,0.461426,0
34180,0.481445,-0.673828,0.461426,0
34200,0.540527,-0.71875,0.394043,0
34220,0.477539,-0.716797,0.477051,0
34240,0.446289,-0.705566,0.472656,0
34260,0.47998,-0.712891,0.415039,0
34280,0.498535,-0.714355,0.383789,0
34300,0.476074,-0.733887,0.377441,0
34320,0.510742,-0.746094,0.413574,0
34340,0.534668,-0.693848,0.351074,0
34360,0.483398,-0.638184,0.333008,0
34380,0.462402,-0.648926,0.379883,0
34400,0.477051,-0.732422,0.375488,0
34420,0.384766,-0.746582,0.444824,0
34440,0.377441,-0.74707,0.416016,0
34460,0.479004,-0.652344,0.345703,0
34480,0.490234,-0.584473,0.356934,0
34500,0.5,-0.592773,0.375,0
34520,0.416016,-0.666992,0.36377,0
34540,0.404785,-0.621094,0.396484,0
34560,0.483887,-0.603516,0.408691,0
34580,0.40332,-0.601074,0.437012,0
34600,0.385742,-0.65332,0.339844,0
34620,0.436035,-0.665527,0.386719,0
34640,0.506348,-0.718262,0.479492,0
34660,0.502441,-0.673828,0.452637,0
34680,0.429688,-0.628418,0.391602,0
34700,0.439941,-0.64209,0.532227,0
34720,0.530273,-0.620605,0.657715,0
34740,0.633789,-0.732422,0.479492,0
34760,0.553223,-0.714355,0.535645,0
34780,0.493164,-0.756836,0.527344,0
34800,0.594727,-0.796387,0.539551,0
34820,0.633789,-0.784668,0.54834,0
34840,0.589355,-0.672363,0.438965,0
34860,0.595703,-0.696289,0.381348,0
34890,0.484863,-0.709961,0.44043,0
34920,0.51123,-0.728516,0.490234,0
34940,0.501953,-0.676758,0.452637,0
34960,0.501465,-0.686035,0.401855,0
34980,0.518066,-0.736816,0.376465,0
35000,0.513184,-0.761719,0.418457,0
35020,0.54541,-0.820312,0.470215,0
35040,0.458984,-0.76709,0.492676,0
35060,0.373047,-0.740723,0.479492,0
35080,0.256836,-0.594238,0.529785,0
35100,0.231934,-0.52832,0.557129,0
35120,0.265137,-0.536133,0.540039,0
35140,0.344238,-0.562012,0.502441,0
35160,0.371094,-0.58252,0.407715,0
35180,0.388184,-0.649902,0.469238,0
35200,0.431152,-0.655762,0.470215,0
35220,0.461426,-0.611328,0.424805,0
35240,0.487305,-0.638184,0.462402,0
35260,0.535645,-0.745117,0.477051,0
35280,0.569336,-0.833984,0.442871,0
35300,0.585449,-0.74707,0.353027,0
35320,0.608887,-0.685059,0.322266,0
35340,0.638672,-0.727539,0.283203,0
35360,0.601074,-0.764648,0.272461,0
35380,0.575195,-0.771484,0.189453,0
35400,0.554199,-0.749023,0.103516,0
35420,0.565918,-0.831543,0.155273,0
35440,0.44043,-0.92334,0.260254,0
35460,0.280762,-0.970215,0.259766,0
35480,0.232422,-0.934082,0.307617,0
35500,0.260254,-0.845703,0.319824,0
35520,0.275879,-0.777832,0.375,0
35540,0.356934,-0.701172,0.325195,0
35560,0.391602,-0.73584,0.291992,0
35580,0.40332,-0.814453,0.280273,0
35600,0.345703,-0.86084,0.287598,0
35620,0.389648,-0.833496,0.293457,0
35640,0.42627,-0.709961,0.289551,0
35660,0.390137,-0.695312,0.209473,0
35680,0.364258,-0.833496,0.220215,0
35700,0.391113,-0.938477,0.283203,0
35720,0.45166,-0.93457,0.299805,0
35740,0.466309,-0.869629,0.302734,0
35760,0.447266,-0.806152,0.287109,0
35780,0.466309,-0.765137,0.242188,0
35800,0.466797,-0.81543,0.227051,0
35820,0.430176,-0.902344,0.234863,0
35840,0.393555,-0.922363,0.263184,0
35860,0.385742,-0.867676,0.304688,0
35880,0.431641,-0.789062,0.264648,0
35890,0.40918,-0.802734,0.276855,0
35910,0.373535,-0.779785,0.321777,0
35930,0.378906,-0.802246,0.304199,0
35950,0.410645,-0.759277,0.305664,0
35970,0.418945,-0.78418,0.291016,0
35990,0.375488,-0.82373,0.312988,0
36010,0.374512,-0.859375,0.333984,0
36030,0.405762,-0.822754,0.307617,0
36050,0.392578,-0.784668,0.279785,0
36070,0.369141,-0.805664,0.298828,0
36090,0.375488,-0.833008,0.313477,0
36110,0.399902,-0.821777,0.294922,0
36130,0.421875,-0.824219,0.293457,0
36150,0.418457,-0.831055,0.311035,0
36170,0.427734,-0.819824,0.293457,0
36190,0.431152,-0.801758,0.290039,0
36210,0.421387,-0.803711,0.297363,0
36230,0.40332,-0.808594,0.305176,0
36250,0.381836,-0.805176,0.316895,0
36270,0.384277,-0.792969,0.317383,0
36290,0.400879,-0.800781,0.316406,0
36310,0.403809,-0.800293,0.330078,0
36330,0.410156,-0.810059,0.332031,0
36350,0.414551,-0.820312,0.323242,0
36370,0.410156,-0.835938,0.303223,0
36390,0.432129,-0.841797,0.292969,0
36410,0.428223,-0.828125,0.300781,0
36430,0.412598,-0.818359,0.306152,0
36450,0.415527,-0.832031,0.289551,0
36470,0.438965,-0.816406,0.29541,0
36490,0.424316,-0.786621,0.30957,0
36510,0.400391,-0.762207,0.316406,0
36530,0.411133,-0.779297,0.298828,0
36550,0.409668,-0.794434,0.317871,0
36570,0.409668,-0.819824,0.334961,0
36590,0.385254,-0.795898,0.316895,0
36610,0.387695,-0.793945,0.308105,0
36630,0.401367,-0.819336,0.325195,0
36650,0.38916,-0.827637,0.328613,0
36670,0.403809,-0.818359,0.3125,0
36690,0.418457,-0.822754,0.320801,0
36710,0.404297,-0.825195,0.331543,0
36730,0.414062,-0.82373,0.316406,0
36750,0.441406,-0.823242,0.311523,0
36770,0.43457,-0.817871,0.304688,0
36790,0.394043,-0.813477,0.31543,0
36810,0.402832,-0.812012,0.312012,0
36830,0.401367,-0.814941,0.307129,0
36850,0.365723,-0.81543,0.322266,0
36870,0.329102,-0.810059,0.311035,0
36890,0.306152,-0.805664,0.324707,0
36910,0.293945,-0.804199,0.34668,0
36930,0.305176,-0.799805,0.340332,0
36950,0.32959,-0.800781,0.336426,0
36970,0.330078,-0.806641,0.346191,0
36990,0.337891,-0.798828,0.35791,0
37010,0.379395,-0.791016,0.370117,0
37030,0.451172,-0.803223,0.338867,0
37050,0.480469,-0.810547,0.310547,0
37070,0.458984,-0.797852,0.331543,0
37090,0.459961,-0.80127,0.313965,0
37110,0.492188,-0.805664,0.293457,0
37130,0.495605,-0.793457,0.297363,0
37150,0.500977,-0.78125,0.307129,0
37170,0.536133,-0.787109,0.287598,0
37190,0.540039,-0.777832,0.278809,0
37210,0.527344,-0.776367,0.283691,0
37230,0.555176,-0.76709,0.286621,0
37250,0.552734,-0.76416,0.271973,0
37270,0.535156,-0.765137,0.277344,0
37290,0.52002,-0.768066,0.272461,0
37310,0.521484,-0.764648,0.264648,0
37330,0.534668,-0.773438,0.254883,0
37350,0.504395,-0.791504,0.279785,0
37370,0.41748,-0.761719,0.296875,0
37390,0.388184,-0.754883,0.317871,0
37410,0.42627,-0.79834,0.30957,0
37430,0.441895,-0.804688,0.303223,0
37450,0.463867,-0.79541,0.32373,0
37470,0.454102,-0.786133,0.310059,0
37490,0.468262,-0.780762,0.262207,0
37510,0.496582,-0.803711,0.287109,0
37530,0.515625,-0.821289,0.297852,0
37550,0.48877,-0.813965,0.291016,0
37570,0.460449,-0.824707,0.288086,0
37590,0.469238,-0.819824,0.31543,0
37610,0.486328,-0.832031,0.330566,0
37630,0.473633,-0.843262,0.298828,0
37650,0.425781,-0.794922,0.326172,0
37670,0.397461,-0.737793,0.316895,0
37690,0.371582,-0.765625,0.299316,0
37710,0.37207,-0.828613,0.304199,0
37730,0.381836,-0.844727,0.319824,0
37750,0.356445,-0.832031,0.32373,0
37770,0.354004,-0.755859,0.327637,0
37780,0.374023,-0.758789,0.31543,0
37830,0.367188,-0.863281,0.325195,0
37850,0.369141,-0.842285,0.320801,0
37860,0.393066,-0.79541,0.303223,0
37880,0.416504,-0.808594,0.286133,0
37900,0.432617,-0.851074,0.296387,0
37920,0.467773,-0.84375,0.282715,0
37940,0.471191,-0.845215,0.264648,0
37960,0.44873,-0.805176,0.255859,0
37980,0.433594,-0.804199,0.248535,0
38000,0.388184,-0.772949,0.291016,0
38020,0.376953,-0.786621,0.300781,0
38040,0.392578,-0.836426,0.291016,0
38060,0.40918,-0.862305,0.290039,0
38080,0.396484,-0.845215,0.299805,0
38100,0.402344,-0.835449,0.291504,0
38120,0.415527,-0.833008,0.289062,0
38140,0.384766,-0.828125,0.284668,0
38160,0.366699,-0.817871,0.297363,0
38180,0.393555,-0.82373,0.285645,0
38200,0.407715,-0.839844,0.288086,0
38220,0.399414,-0.848633,0.28418,0
38240,0.418945,-0.848145,0.278809,0
38260,0.4375,-0.835938,0.280762,0
38280,0.43457,-0.824219,0.268555,0
38300,0.40625,-0.828613,0.253418,0
38320,0.376953,-0.846191,0.260254,0
38340,0.35791,-0.797852,0.274902,0
38360,0.350586,-0.788086,0.293457,0
38380,0.338379,-0.779785,0.287598,0
38400,0.328613,-0.800781,0.31543,0
38420,0.354492,-0.83252,0.30957,0
38440,0.376465,-0.845703,0.306641,0
38460,0.390137,-0.83252,0.310059,0
38480,0.389648,-0.835449,0.312988,0
38500,0.392578,-0.848145,0.315918,0
38520,0.399414,-0.863281,0.297852,0
38540,0.395996,-0.849609,0.308594,0
38560,0.404297,-0.842773,0.296387,0
38580,0.403809,-0.846191,0.301758,0
38600,0.403809,-0.856934,0.311035,0
38620,0.394531,-0.836914,0.289062,0
38640,0.392578,-0.836426,0.304688,0
38660,0.396484,-0.823242,0.3125,0
38680,0.386719,-0.810547,0.294434,0
38700,0.380859,-0.81543,0.29541,0
38720,0.376953,-0.832031,0.297363,0
38740,0.383301,-0.834473,0.302246,0
38760,0.38623,-0.8125,0.299316,0
38780,0.376465,-0.803223,0.302246,0
38800,0.381836,-0.808594,0.301758,0
38820,0.398926,-0.823242,0.29541,2000
38840,0.388184,-0.831543,0.296875,0
38860,0.37793,-0.832031,0.292969,0
38880,0.393066,-0.839355,0.310547,0
38900,0.362305,-0.825684,0.303223,0
38920,0.378906,-0.80957,0.30957,0
38940,0.37207,-0.821289,0.315918,0
38960,0.390625,-0.824219,0.321777,0
38980,0.393066,-0.82959,0.317871,0
39000,0.37793,-0.830566,0.294922,0
39020,0.379395,-0.82373,0.316406,0
39040,0.394043,-0.8125,0.330078,0
39060,0.401855,-0.812012,0.30957,0
39080,0.385742,-0.836426,0.307129,0
39100,0.395996,-0.843262,0.316406,0
39120,0.419922,-0.834473,0.313965,0
39140,0.404785,-0.815918,0.304688,0
39160,0.384277,-0.80957,0.305176,0
39180,0.394043,-0.828125,0.308594,0
39200,0.395996,-0.830566,0.303711,0
39220,0.375977,-0.80957,0.324219,0
39240,0.36377,-0.804688,0.310059,0
39260,0.359863,-0.828125,0.311523,0
39280,0.360352,-0.829102,0.325684,0
39300,0.366211,-0.803223,0.315918,0
39320,0.361328,-0.792969,0.321289,0
39340,0.381348,-0.808105,0.324707,0
39360,0.395996,-0.8125,0.312012,0
39380,0.388672,-0.817383,0.307617,0
39400,0.374023,-0.81543,0.307129,0
39420,0.395508,-0.811035,0.323242,0
39440,0.425781,-0.808105,0.322266,0
39460,0.412598,-0.806152,0.302734,0
39480,0.395508,-0.816406,0.29834,0
39500,0.427246,-0.806152,0.318359,0
39520,0.457031,-0.797852,0.305176,0
39540,0.453125,-0.791992,0.305664,0
39560,0.420898,-0.79834,0.299805,0
39580,0.426758,-0.807617,0.31543,0
39600,0.465332,-0.793457,0.320801,0
39620,0.461426,-0.784668,0.29541,0
39640,0.442383,-0.77832,0.269043,0
39660,0.450195,-0.793457,0.295898,0
39680,0.458008,-0.810059,0.309082,0
39700,0.450684,-0.800293,0.302734,0
39720,0.433594,-0.775391,0.300781,0
39740,0.461914,-0.775879,0.302246,0
39760,0.486816,-0.775879,0.311035,0
39780,0.470703,-0.783691,0.291016,0
39800,0.442383,-0.773926,0.300293,0
39820,0.46582,-0.782715,0.311523,0
39840,0.492676,-0.777832,0.318848,0
39860,0.475098,-0.774902,0.30127,0
39880,0.428711,-0.760254,0.296387,0
39900,0.444336,-0.788574,0.299316,0
39920,0.485352,-0.787598,0.304688,0
39940,0.499023,-0.77832,0.291504,0
39960,0.470703,-0.770996,0.297852,0
39980,0.458496,-0.768066,0.316406,0
40000,0.494141,-0.773926,0.320312,0
40010,0.513672,-0.759277,0.309082,0
40030,0.509766,-0.73877,0.292969,0
40050,0.494141,-0.73291,0.290039,0
40080,0.550781,-0.788574,0.287109,0
40110,0.533691,-0.783691,0.271973,0
40160,0.573242,-0.737793,0.331543,0
40180,0.595215,-0.740723,0.289551,0
40200,0.554199,-0.728516,0.261719,0
40220,0.522949,-0.708496,0.285156,0
40240,0.54834,-0.72168,0.291504,0
40250,0.569336,-0.723633,0.279785,0
40270,0.550293,-0.714355,0.272949,0
40290,0.54248,-0.708984,0.270996,0
40310,0.582031,-0.713379,0.300293,0
40320,0.641113,-0.70752,0.280762,0
40330,0.621094,-0.67627,0.256836,0
40350,0.585449,-0.683594,0.257812,0
40370,0.571289,-0.710938,0.249512,0
40390,0.583496,-0.709961,0.259766,0
40410,0.611328,-0.691895,0.259277,0
40430,0.613281,-0.689453,0.241699,0
40450,0.59668,-0.695312,0.229004,0
40470,0.605957,-0.699707,0.22998,0
40490,0.599609,-0.696777,0.243652,0
40510,0.651855,-0.693848,0.268555,0
40520,0.646973,-0.683105,0.249023,0
40540,0.646484,-0.664062,0.228516,0
40560,0.655762,-0.662598,0.237305,0
40570,0.679199,-0.666504,0.261719,0
40590,0.678711,-0.657227,0.248047,0
40610,0.673828,-0.644531,0.230957,0
40630,0.666016,-0.649414,0.23584,0
40660,0.67627,-0.636719,0.261719,0
40710,0.688477,-0.632812,0.277344,0
40730,0.691895,-0.626465,0.294434,0
40740,0.694824,-0.623535,0.292969,0
40760,0.70166,-0.610352,0.272461,0
40780,0.693848,-0.610352,0.27002,0
40800,0.694336,-0.618164,0.277344,0
40820,0.702148,-0.618164,0.260254,0
40840,0.717773,-0.606934,0.268066,0
40860,0.722656,-0.617188,0.273438,0
40880,0.709961,-0.615723,0.271484,0
40900,0.687988,-0.608887,0.274902,0
40920,0.67627,-0.603516,0.279785,0
40940,0.688477,-0.606445,0.29541,0
40960,0.710938,-0.61377,0.301758,0
40980,0.682617,-0.614746,0.302246,0
41000,0.652344,-0.614746,0.293945,0
41020,0.658691,-0.610352,0.307129,0
41030,0.662109,-0.628418,0.318848,0
41050,0.636719,-0.635742,0.325684,0
41070,0.643555,-0.637695,0.320801,0
41090,0.65625,-0.621582,0.304688,0
41110,0.655273,-0.632812,0.322266,0
41130,0.65918,-0.638184,0.329102,0
41150,0.629883,-0.626953,0.341797,0
41170,0.587891,-0.622559,0.321777,0
41190,0.61377,-0.635254,0.342285,0
41210,0.645996,-0.67334,0.344238,0
41230,0.63916,-0.687988,0.361328,0
41250,0.580566,-0.664062,0.367188,0
41270,0.598145,-0.620117,0.341309,0
41290,0.613281,-0.621582,0.365234,0
41310,0.612305,-0.652344,0.387207,0
41330,0.619141,-0.64209,0.374512,0
41350,0.644043,-0.604004,0.364258,0
41370,0.652344,-0.593262,0.373535,0
41390,0.644531,-0.613281,0.37793,0
41410,0.630371,-0.637695,0.361328,0
41430,0.60791,-0.645508,0.347656,0
41450,0.587891,-0.650391,0.352539,0
41470,0.591797,-0.662109,0.353027,0
41490,0.602051,-0.658203,0.354004,0
41510,0.576172,-0.637695,0.32666,0
41530,0.571777,-0.629395,0.324219,0
41550,0.570312,-0.663086,0.333496,0
41570,0.562012,-0.682617,0.341309,0
41590,0.536621,-0.680664,0.331055,0
41610,0.538574,-0.663086,0.318359,0
41630,0.570312,-0.654785,0.355957,0
41650,0.583984,-0.70752,0.320801,0
41670,0.569824,-0.734863,0.313965,0
41690,0.546875,-0.73291,0.339355,0
41710,0.537598,-0.711426,0.328125,0
41730,0.546387,-0.713867,0.302246,0
41750,0.550781,-0.713867,0.307129,0
41770,0.55957,-0.709961,0.299316,0
41790,0.556641,-0.705566,0.329102,0
41810,0.541016,-0.70459,0.293457,0
41830,0.567383,-0.692383,0.306641,0
41850,0.570312,-0.677734,0.317871,0
41870,0.538086,-0.685547,0.280273,0
41890,0.544922,-0.693848,0.291504,0
41910,0.546387,-0.689453,0.30957,0
41930,0.526855,-0.702637,0.279297,0
41950,0.546875,-0.706055,0.295898,0
41970,0.547363,-0.691895,0.299316,0
41990,0.512207,-0.692871,0.290039,0
42010,0.539551,-0.714355,0.286621,0
42030,0.584961,-0.740234,0.302734,0
42050,0.555176,-0.745117,0.298828,0
42070,0.526855,-0.737793,0.283691,0
42090,0.548828,-0.740234,0.293457,0
42110,0.554688,-0.732422,0.303223,0
42130,0.531738,-0.739746,0.279297,0
42150,0.544434,-0.73877,0.280762,0
42170,0.54834,-0.736328,0.309082,0
42190,0.53418,-0.734863,0.287109,0
42210,0.536133,-0.745605,0.253418,0
42230,0.56543,-0.750488,0.278809,0
42250,0.563965,-0.74707,0.290039,0
42270,0.52832,-0.730469,0.256836,0
42290,0.534668,-0.744629,0.243652,0
42310,0.555176,-0.754395,0.266602,0
42330,0.530762,-0.748047,0.254883,0
42350,0.522949,-0.731445,0.245117,0
42370,0.541504,-0.728027,0.256348,0
42390,0.523438,-0.742188,0.251953,0
42410,0.510742,-0.744629,0.237793,0
42430,0.554688,-0.751465,0.226562,0
42450,0.550781,-0.74707,0.243164,0
42470,0.513672,-0.73877,0.23291,0
42490,0.516113,-0.751953,0.210449,0
42510,0.548828,-0.753418,0.231445,0
42530,0.525879,-0.740723,0.215332,0
42550,0.51416,-0.749023,0.208984,0
42570,0.574219,-0.756836,0.222168,0
42590,0.578613,-0.765625,0.221191,0
42610,0.525391,-0.77002,0.195801,0
42630,0.52832,-0.765137,0.194336,0
42650,0.547852,-0.773438,0.189453,0
42670,0.53125,-0.78418,0.193848,0
42690,0.533203,-0.787598,0.18457,0
42710,0.541504,-0.785645,0.186035,0
42730,0.530762,-0.784668,0.177246,0
42750,0.52002,-0.778809,0.180176,0
42770,0.539062,-0.791992,0.163574,0
42790,0.567383,-0.79834,0.173828,0
42810,0.553223,-0.791992,0.163086,0
42830,0.526855,-0.779785,0.135254,0
42850,0.535645,-0.779785,0.137695,0
42870,0.553223,-0.786133,0.131348,0
42890,0.533203,-0.777344,0.132812,0
42910,0.515625,-0.769043,0.145508,0
42930,0.530762,-0.774902,0.117676,0
42950,0.544434,-0.768555,0.128418,0
42970,0.552734,-0.770508,0.163086,0
42990,0.554688,-0.779297,0.117188,0
43000,0.571777,-0.766602,0.108398,0
43020,0.580078,-0.749512,0.128418,0
43040,0.563477,-0.738281,0.12207,0
43060,0.595703,-0.747559,0.104492,0
43080,0.621582,-0.762207,0.108398,0
43100,0.625488,-0.749512,0.132324,0
43120,0.588867,-0.748047,0.100586,0
43140,0.603516,-0.744141,0.0737305,0
43160,0.656738,-0.722656,0.114258,0
43180,0.64502,-0.741211,0.114258,0
43200,0.612305,-0.72998,0.0893555,0
43220,0.602051,-0.729004,0.081543,0
43240,0.612305,-0.710938,0.111816,0
43260,0.616211,-0.711914,0.0986328,0
43280,0.604492,-0.73291,0.0424805,0
43300,0.630371,-0.731934,0.0439453,0
43320,0.657715,-0.71875,0.0786133,0
43340,0.659668,-0.711426,0.129883,0
43360,0.642578,-0.696777,0.148438,0
43380,0.704102,-0.700195,0.090332,0
43400,0.745605,-0.67627,0.0825195,0
43420,0.745117,-0.668945,0.104004,0
43440,0.726074,-0.671387,0.0922852,0
43460,0.730957,-0.671387,0.0888672,0
43480,0.758301,-0.653809,0.103516,0
43500,0.781738,-0.645996,0.108887,0
43520,0.747559,-0.627441,0.105469,0
43540,0.752441,-0.640625,0.0576172,0
43560,0.76416,-0.637207,0.0922852,0
43580,0.74707,-0.624512,0.118652,0
43600,0.76123,-0.613281,0.105957,0
43620,0.775879,-0.599609,0.106445,0
43640,0.783691,-0.596191,0.109375,0
43660,0.754883,-0.580078,0.12793,0
43680,0.757324,-0.577637,0.118164,0
43700,0.787109,-0.558594,0.112305,0
43720,0.777832,-0.542969,0.112305,0
43740,0.777344,-0.54248,0.108398,0
43760,0.785645,-0.524414,0.129883,0
43780,0.810547,-0.520996,0.13623,0
43800,0.795898,-0.504395,0.133789,0
43820,0.790039,-0.478516,0.126465,0
43840,0.791504,-0.471191,0.138672,0
43860,0.804688,-0.489258,0.126953,0
43880,0.802734,-0.49707,0.140625,0
43900,0.81543,-0.486328,0.14209,0
43920,0.817383,-0.479004,0.138184,0
43950,0.831055,-0.496582,0.154297,0
43970,0.812012,-0.473633,0.176758,0
43990,0.84082,-0.462402,0.166504,0
44010,0.851562,-0.466309,0.166016,0
44030,0.839355,-0.466309,0.181641,0
44050,0.844238,-0.479492,0.18457,0
44070,0.853516,-0.457031,0.18457,0
44090,0.858398,-0.447754,0.182129,0
44110,0.864258,-0.446777,0.191895,0
44130,0.851074,-0.453613,0.19043,0
44150,0.841797,-0.440918,0.180664,0
44170,0.852051,-0.435059,0.180664,0
44190,0.84668,-0.42041,0.183105,0
44210,0.854492,-0.413574,0.19043,0
44230,0.875977,-0.417969,0.209473,0
44250,0.872559,-0.40625,0.21582,0
44270,0.825684,-0.396484,0.237793,0
44290,0.812988,-0.394043,0.263184,0
44310,0.801758,-0.398926,0.259766,0
44330,0.810547,-0.406738,0.264648,0
44350,0.825195,-0.39502,0.274902,0
44370,0.838867,-0.397461,0.254395,0
44390,0.808105,-0.417969,0.27832,0
44410,0.793457,-0.42334,0.284668,0
44430,0.809082,-0.393555,0.258789,0
44450,0.824707,-0.37207,0.289062,0
44470,0.827637,-0.366211,0.281738,0
44490,0.79541,-0.404297,0.271484,0
44510,0.821289,-0.40625,0.284668,0
44530,0.82373,-0.39209,0.304199,0
44550,0.82666,-0.385254,0.28418,0
44570,0.820312,-0.385742,0.27832,0
44590,0.815918,-0.398438,0.273926,0
44610,0.807617,-0.406738,0.286133,0
44630,0.806152,-0.427246,0.299805,0
44650,0.804688,-0.422852,0.280762,0
44670,0.810547,-0.410645,0.302246,0
44690,0.809082,-0.416016,0.292969,0
44710,0.806641,-0.438477,0.262207,0
44730,0.811035,-0.458984,0.280762,0
44750,0.790039,-0.489258,0.290039,0
44770,0.771484,-0.468262,0.295898,0
44790,0.776367,-0.461426,0.29834,0
44810,0.787598,-0.500488,0.270996,0
44830,0.762207,-0.530762,0.269043,0
44850,0.75,-0.505859,0.291504,0
44870,0.749023,-0.474609,0.28125,0
44890,0.728027,-0.513672,0.262695,0
44910,0.717773,-0.553711,0.280273,0
44930,0.712402,-0.561523,0.298828,0
44950,0.686035,-0.556152,0.274414,0
44970,0.690918,-0.549805,0.266113,0
44990,0.692383,-0.546875,0.261719,0
45010,0.679199,-0.550293,0.26709,0
45030,0.66748,-0.563477,0.251953,0
45050,0.677734,-0.541016,0.265137,0
45070,0.700684,-0.556152,0.27832,0
45090,0.713379,-0.610352,0.281738,0
45110,0.703125,-0.604492,0.27002,0
45130,0.678223,-0.594727,0.278809,0
45150,0.661133,-0.578125,0.275879,0
45170,0.692871,-0.577148,0.274902,0
45190,0.704102,-0.594238,0.284668,0
45210,0.681641,-0.605469,0.27002,0
45230,0.65625,-0.620117,0.282227,0
45250,0.664062,-0.586914,0.288086,0
45270,0.681152,-0.584473,0.27832,0
45290,0.691895,-0.602539,0.287109,0
45310,0.687012,-0.624512,0.288574,0
45330,0.669922,-0.63916,0.277832,0
45350,0.676758,-0.629395,0.276367,0
45370,0.666504,-0.626953,0.283691,0
45390,0.663574,-0.616699,0.277832,0
45410,0.654297,-0.626953,0.292969,0
45430,0.617676,-0.626465,0.277832,0
45450,0.617676,-0.639648,0.262695,0
45470,0.648438,-0.644531,0.301758,0
45490,0.627441,-0.643066,0.286133,0
45510,0.605469,-0.639648,0.275879,0
45530,0.617188,-0.627441,0.281738,0
45550,0.615234,-0.629883,0.285156,0
45570,0.585449,-0.67627,0.273438,0
45590,0.609863,-0.699219,0.273438,0
45610,0.604492,-0.659668,0.267578,0
45630,0.582031,-0.666992,0.255859,0
45650,0.62207,-0.674805,0.26416,0
45670,0.642578,-0.691895,0.250977,0
45690,0.60791,-0.696777,0.249023,0
45710,0.596191,-0.690918,0.225586,0
45730,0.654297,-0.702148,0.216309,0
45750,0.642578,-0.69873,0.236816,0
45770,0.59668,-0.681152,0.206543,0
45790,0.62207,-0.69873,0.178223,0
45810,0.663574,-0.723633,0.187988,0
45830,0.598633,-0.714355,0.187988,0
45850,0.548828,-0.693848,0.168457,0
45870,0.622559,-0.702637,0.145996,0
45890,0.651367,-0.707031,0.165527,0
45910,0.591309,-0.711426,0.150391,0
45930,0.603516,-0.728027,0.134766,0
45950,0.65332,-0.731445,0.138184,0
45970,0.624023,-0.720703,0.130371,0
45990,0.587402,-0.737305,0.0976562,0
46010,0.651367,-0.745605,0.109863,0
46030,0.640137,-0.764648,0.101562,0
46050,0.618652,-0.768555,0.0820312,0
46070,0.638672,-0.755859,0.0800781,0
46090,0.64209,-0.751465,0.0976562,0
46110,0.597656,-0.741211,0.0791016,0
46130,0.604492,-0.744141,0.0649414,0
46150,0.62207,-0.747559,0.0615234,0
46170,0.605957,-0.748535,0.0673828,0
46190,0.591309,-0.745117,0.0522461,0
46210,0.616211,-0.733398,0.034668,0
46230,0.620605,-0.739258,0.0483398,0
46250,0.609863,-0.744629,0.0395508,0
46270,0.612305,-0.739258,0.0322266,0
46290,0.625977,-0.71875,0.0385742,0
46310,0.623535,-0.728027,0.0244141,0
46330,0.639648,-0.727539,0.00927734,0
46350,0.677734,-0.719727,0.0078125,0
46370,0.677246,-0.720215,0.0219727,0
46390,0.669922,-0.685059,0.0131836,0
46410,0.678711,-0.685547,-0.00634766,0
46420,0.706055,-0.678223,-0.00976562,0
46440,0.696289,-0.678223,-0.00146484,0
46460,0.684082,-0.672852,-0.0268555,0
46480,0.693359,-0.677734,-0.0166016,0
46500,0.712402,-0.647949,-0.0336914,0
46520,0.710938,-0.634277,-0.0454102,0
46540,0.705078,-0.638672,-0.0375977,0
46560,0.70752,-0.645996,-0.0449219,0
46580,0.720215,-0.629395,-0.0322266,0
46600,0.732422,-0.612305,-0.03125,0
46620,0.719727,-0.601562,-0.0683594,0
46640,0.75293,-0.574707,-0.0551758,0
46660,0.79834,-0.564941,-0.0620117,0
46680,0.79834,-0.575195,-0.0917969,0
46700,0.791504,-0.581055,-0.102051,0
46720,0.809082,-0.569336,-0.0942383,0
46740,0.805176,-0.544922,-0.0927734,0
46760,0.812012,-0.518066,-0.118652,0
46780,0.84082,-0.48877,-0.111328,0
46800,0.853516,-0.495605,-0.104492,0
46820,0.833984,-0.513672,-0.115234,0
46840,0.867188,-0.509766,-0.128418,0
46860,0.89502,-0.487793,-0.130859,0
46880,0.901855,-0.477051,-0.119141,0
46900,0.892578,-0.447754,-0.124512,0
46920,0.898926,-0.429199,-0.144531,0
46940,0.909668,-0.421387,-0.139648,0
46960,0.902832,-0.421387,-0.110352,0
46980,0.884277,-0.422363,-0.103027,0
47000,0.900391,-0.403809,-0.0908203,0
47020,0.887207,-0.377441,-0.0864258,0
47040,0.88916,-0.338379,-0.0913086,0
47060,0.911133,-0.332031,-0.0854492,0
47080,0.938477,-0.344238,-0.0625,0
47100,0.912598,-0.34375,-0.0463867,0
47120,0.904297,-0.334961,-0.0571289,0
47140,0.925781,-0.320312,-0.0410156,0
47160,0.925781,-0.306641,-0.0419922,0
47180,0.92041,-0.320312,-0.0209961,0
47200,0.908691,-0.307617,-0.00585938,0
47220,0.940918,-0.290039,0.00195312,0
47240,0.952148,-0.259766,0.00439453,0
47260,0.947754,-0.264648,0.00732422,0
47280,0.943848,-0.286133,0.0214844,0
47300,0.941895,-0.283691,0.0307617,0
47320,0.933105,-0.263672,0.0478516,0
47340,0.943848,-0.259277,0.0473633,0
47360,0.946777,-0.24707,0.0512695,0
47380,0.935547,-0.237305,0.0722656,0
47400,0.935547,-0.225098,0.0849609,0
47420,0.939941,-0.227051,0.0888672,0
47440,0.927734,-0.226562,0.0991211,0
47460,0.920898,-0.203125,0.104004,0
47480,0.918457,-0.21582,0.10791,0
47500,0.925293,-0.212402,0.133301,0
47520,0.925781,-0.214355,0.147949,0
47540,0.91748,-0.220215,0.144043,0
47560,0.907715,-0.208496,0.156738,0
47580,0.894043,-0.213379,0.142578,0
47600,0.906738,-0.210938,0.168945,0
47620,0.919922,-0.217285,0.166016,0
47640,0.914551,-0.225098,0.179199,0
47660,0.907715,-0.225586,0.181152,0
47680,0.911621,-0.223145,0.189453,0
47700,0.91748,-0.226562,0.19873,0
47720,0.912109,-0.226562,0.189453,0
47740,0.918945,-0.23877,0.183105,0
47760,0.925293,-0.251953,0.21582,0
47780,0.893066,-0.255371,0.229004,0
47800,0.891602,-0.25,0.242676,0
47820,0.909668,-0.234375,0.231934,0
47840,0.913086,-0.253906,0.237305,0
47860,0.878418,-0.317383,0.245605,0
47880,0.861328,-0.317383,0.250488,0
47900,0.906738,-0.308105,0.241211,0
47920,0.937988,-0.310547,0.229004,0
47940,0.907227,-0.333984,0.227539,0
47960,0.865723,-0.397461,0.221191,0
47980,0.87207,-0.406738,0.22998,0
48000,0.85791,-0.400391,0.256348,0
48020,0.839355,-0.412109,0.224121,0
48040,0.848145,-0.442871,0.206055,0
48060,0.841309,-0.477539,0.241211,0
48080,0.78125,-0.476074,0.266602,0
48100,0.757324,-0.462402,0.236328,0
48120,0.807129,-0.48877,0.244141,0
48140,0.776367,-0.536621,0.219727,0
48160,0.740723,-0.54541,0.206543,0
48180,0.748535,-0.503418,0.247559,0
48200,0.737305,-0.511719,0.247559,0
48220,0.718262,-0.562012,0.222168,0
48240,0.732422,-0.557617,0.239746,0
48260,0.736816,-0.543945,0.243652,0
48280,0.697754,-0.506836,0.208496,0
48300,0.719238,-0.500977,0.236328,0
48320,0.73291,-0.526367,0.23877,0
48340,0.701172,-0.561035,0.225586,0
48360,0.693359,-0.548828,0.229492,0
48370,0.719238,-0.548828,0.208008,0
48390,0.716309,-0.561523,0.222656,0
48410,0.694336,-0.540527,0.229492,0
48430,0.69873,-0.554688,0.205566,0
48450,0.717285,-0.587891,0.202637,0
48470,0.695801,-0.59375,0.211914,0
48490,0.677246,-0.566895,0.194824,0
48510,0.708496,-0.57666,0.197754,0
48530,0.696777,-0.594238,0.198242,0
48550,0.656738,-0.614258,0.162109,0
48570,0.716797,-0.599121,0.155273,0
48590,0.74707,-0.612793,0.182617,0
48610,0.67627,-0.626465,0.172852,0
48630,0.649902,-0.662598,0.146973,0
48650,0.751953,-0.683594,0.140137,0
48670,0.769043,-0.680176,0.166504,0
48690,0.676758,-0.651855,0.144043,0
48710,0.638672,-0.650879,0.144531,0
48730,0.707031,-0.660156,0.130859,0
48750,0.702637,-0.681641,0.141113,0
48770,0.630371,-0.69043,0.125,0
48790,0.682129,-0.689941,0.104004,0
48810,0.736816,-0.69043,0.102539,0
48830,0.707031,-0.705078,0.0947266,0
48850,0.652832,-0.700195,0.0869141,0
48870,0.680664,-0.708984,0.0610352,0
48890,0.716309,-0.70752,0.0581055,0
48910,0.648438,-0.684082,0.050293,0
48930,0.63916,-0.679688,0.0126953,0
48950,0.708984,-0.709473,0.00390625,0
48970,0.695801,-0.737305,-0.012207,0
48990,0.649414,-0.72168,-0.0214844,0
49010,0.674805,-0.684082,-0.0126953,0
49030,0.691895,-0.68457,-0.0209961,0
49050,0.652344,-0.693848,-0.0356445,0
49070,0.639648,-0.705566,-0.0644531,0
49090,0.678711,-0.709961,-0.0849609,0
49110,0.692383,-0.708008,-0.0898438,0
49130,0.645508,-0.705078,-0.103516,0
49150,0.622559,-0.699219,-0.13916,0
49170,0.663086,-0.712891,-0.16748,0
49190,0.694336,-0.728516,-0.127441,0
49210,0.649902,-0.703125,-0.104004,0
49230,0.634277,-0.680176,-0.104004,0
49250,0.696289,-0.681152,-0.140625,0
49270,0.70459,-0.674316,-0.150391,0
49290,0.664551,-0.671875,-0.162598,0
49310,0.689453,-0.645996,-0.183594,0
49330,0.751465,-0.644043,-0.207031,0
49350,0.735352,-0.665527,-0.187988,0
49370,0.706543,-0.680176,-0.187988,0
49390,0.724121,-0.658691,-0.206543,0
49410,0.744141,-0.62207,-0.199707,0
49430,0.731445,-0.594727,-0.206543,0
49450,0.719727,-0.610352,-0.229004,0
49470,0.740234,-0.628906,-0.238281,0
49490,0.731934,-0.619629,-0.23584,0
49510,0.71582,-0.609863,-0.266602,0
49530,0.740234,-0.593262,-0.243164,0
49550,0.731445,-0.592285,-0.239746,0
49570,0.729492,-0.610352,-0.294922,0
49590,0.791016,-0.59375,-0.294922,0
49610,0.79834,-0.577148,-0.265625,0
49630,0.763672,-0.564453,-0.269043,0
49650,0.759766,-0.532715,-0.27832,0
49670,0.785645,-0.522949,-0.274902,0
49690,0.800293,-0.532715,-0.282715,0
49710,0.810547,-0.542969,-0.286133,0
49730,0.815918,-0.541504,-0.265625,0
49750,0.813477,-0.514648,-0.266602,0
49770,0.807617,-0.492676,-0.268555,0
49790,0.82959,-0.481934,-0.280273,0
49810,0.840332,-0.47168,-0.278809,0
49830,0.815918,-0.46582,-0.276367,0
49850,0.812012,-0.458984,-0.287109,0
49870,0.841309,-0.449219,-0.270996,2001
49890,0.845703,-0.436523,-0.274414,0
49910,0.852539,-0.439941,-0.297852,0
49930,0.85791,-0.446289,-0.296875,0
49950,0.859863,-0.416504,-0.291016,0
49970,0.84375,-0.36084,-0.307617,0
49990,0.874023,-0.359863,-0.28125,0
50010,0.887207,-0.416504,-0.269531,0
50030,0.850586,-0.436035,-0.245605,0
50050,0.857422,-0.396973,-0.246582,0
50070,0.852051,-0.357422,-0.236328,0
50090,0.821777,-0.36377,-0.203613,0
50110,0.802246,-0.388672,-0.213379,0
50130,0.805176,-0.432129,-0.280273,0
50150,0.733887,-0.405273,-0.175781,0
50170,0.713379,-0.315918,-0.152344,0
50190,0.65918,-0.31543,-0.144531,0
50210,0.664062,-0.351562,-0.199219,0
50230,0.714355,-0.389648,-0.169434,0
50250,0.702637,-0.40625,-0.0717773,0
50270,0.654785,-0.408203,-0.0688477,0
50290,0.635742,-0.380859,-0.115234,0
50310,0.740234,-0.373535,-0.116699,0
50330,0.753906,-0.342285,0.0385742,0
50350,0.666504,-0.373535,0.0366211,0
50370,0.697754,-0.437988,-0.158203,0
50390,0.87793,-0.465332,-0.046875,0
50410,0.88623,-0.430664,0.127441,0
50430,0.79248,-0.491211,0.131836,0
50450,0.866211,-0.575684,0.0078125,0
50470,0.989258,-0.491211,0.17627,0
50490,0.88916,-0.426758,0.248535,0
50510,0.813965,-0.541992,0.0625,0
50530,0.999512,-0.650391,0.0302734,0
50550,1.04395,-0.608887,0.220215,0
50570,0.921875,-0.661621,0.212402,0
50590,0.934082,-0.741211,0.146973,0
50610,0.967773,-0.72998,0.216309,0
50630,0.908691,-0.710449,0.190918,0
50650,0.960938,-0.729492,0.0473633,0
50670,1.02197,-0.727539,0.157227,0
50690,0.941406,-0.731445,0.216797,0
50710,0.842773,-0.765625,0.226074,0
50730,0.789551,-0.771484,0.225586,0
50750,0.720215,-0.725586,0.222168,0
50770,0.677734,-0.662109,0.223145,0
50790,0.612305,-0.694824,0.218262,0
50810,0.499023,-0.742188,0.246582,0
50830,0.461914,-0.713867,0.258789,0
50850,0.498047,-0.707031,0.228027,0
50870,0.565918,-0.729004,0.272949,0
50890,0.54834,-0.736328,0.311523,0
50910,0.504395,-0.741699,0.289551,0
50930,0.521484,-0.77832,0.277344,0
50950,0.546387,-0.782227,0.269043,0
50970,0.505371,-0.790527,0.271973,0
50990,0.476562,-0.790527,0.271484,0
51010,0.47168,-0.811035,0.244141,0
51030,0.496582,-0.803711,0.246094,0
51050,0.49707,-0.80127,0.25293,0
51070,0.479492,-0.804688,0.257324,0
51090,0.48877,-0.837891,0.243652,0
51110,0.453613,-0.836914,0.270996,0
51130,0.425781,-0.802734,0.272949,0
51150,0.422363,-0.780762,0.258301,0
51170,0.432617,-0.786621,0.250977,0
51190,0.446289,-0.818359,0.267578,0
51210,0.425781,-0.836426,0.250977,0
51230,0.421875,-0.840332,0.231934,0
51250,0.452637,-0.81543,0.241699,0
51270,0.429199,-0.793457,0.265137,0
51290,0.422852,-0.793945,0.260254,0
51310,0.454102,-0.80957,0.241211,0
51330,0.461426,-0.824707,0.245117,0
51350,0.449219,-0.819336,0.254395,0
51370,0.461426,-0.811523,0.224609,0
51390,0.462891,-0.791016,0.241211,2000
51410,0.455078,-0.804688,0.233887,0
51430,0.459961,-0.805176,0.227051,0
51450,0.487793,-0.81543,0.229004,0
51470,0.45166,-0.812988,0.240234,0
51490,0.435547,-0.827637,0.246094,0
51510,0.430664,-0.799805,0.251953,0
51530,0.458496,-0.790527,0.23291,0
51550,0.45166,-0.808594,0.240723,0
51570,0.428223,-0.837402,0.236328,0
51590,0.432129,-0.82666,0.252441,0
51610,0.453613,-0.800293,0.265137,0
51630,0.454102,-0.804688,0.24707,0
51650,0.449219,-0.824707,0.242188,0
51670,0.468262,-0.827637,0.249023,0
51690,0.469238,-0.804688,0.239258,0
51710,0.473145,-0.804688,0.231934,0
51730,0.484863,-0.810547,0.243164,0
51750,0.493164,-0.802246,0.23877,0
51770,0.48877,-0.811523,0.228516,0
51790,0.495117,-0.813477,0.206543,0
51800,0.499512,-0.809082,0.226074,0
51820,0.484863,-0.787598,0.227051,0
51840,0.472656,-0.791992,0.212402,0
51860,0.48877,-0.80127,0.20166,0
51880,0.504883,-0.797852,0.228516,0
51900,0.499512,-0.795898,0.226074,0
51920,0.466309,-0.806641,0.226562,0
51940,0.461914,-0.783691,0.231445,0
51960,0.477051,-0.759766,0.229004,0
51980,0.486816,-0.770996,0.227051,0
52000,0.482422,-0.786621,0.220703,0
52020,0.480957,-0.813477,0.23291,0
52040,0.491699,-0.808105,0.227051,0
52060,0.494629,-0.794434,0.222656,0
52080,0.497559,-0.792969,0.222656,0
52100,0.504395,-0.807617,0.213379,0
52120,0.532715,-0.810547,0.200684,0
52140,0.532715,-0.80127,0.197266,0
52160,0.526367,-0.799316,0.204102,0
52180,0.514648,-0.796875,0.210449,0
52200,0.521973,-0.792969,0.191406,0
52220,0.522949,-0.776855,0.201172,0
52240,0.522949,-0.788086,0.210938,0
52260,0.518066,-0.776367,0.202637,0
52280,0.517578,-0.772949,0.189941,0
52300,0.519531,-0.773438,0.200684,0
52320,0.541504,-0.769531,0.184082,0
52340,0.540527,-0.762695,0.186035,0
52360,0.516602,-0.763184,0.199219,0
52380,0.499512,-0.763672,0.187988,0
52400,0.512207,-0.760254,0.192383,0
52420,0.530762,-0.773438,0.184082,0
52440,0.537598,-0.77002,0.177734,0
52460,0.536133,-0.76709,0.17627,0
52480,0.542969,-0.770508,0.17627,0
52500,0.553711,-0.775879,0.186523,0
52520,0.583496,-0.770996,0.175293,0
52540,0.587891,-0.759766,0.158691,0
52560,0.601074,-0.758789,0.15332,0
52610,0.592773,-0.737793,0.168457,0
52630,0.630859,-0.729004,0.15625,0
52650,0.615723,-0.723633,0.178223,0
52720,0.720703,-0.627441,0.159668,0
52740,0.723633,-0.626953,0.154297,0
52760,0.729004,-0.618164,0.165527,0
52780,0.730957,-0.609375,0.172363,0
52800,0.719727,-0.60791,0.170898,0
52820,0.735352,-0.602539,0.158203,0
52830,0.742188,-0.599609,0.166504,0
52850,0.759766,-0.596191,0.165039,0
52870,0.747559,-0.600098,0.164062,0
52890,0.775391,-0.586426,0.149902,0
52930,0.795898,-0.568848,0.165527,0
52950,0.782227,-0.558105,0.176758,0
52970,0.791992,-0.549316,0.17627,0
52990,0.747559,-0.557617,0.19043,0
53010,0.742676,-0.560547,0.182617,0
53030,0.771973,-0.5625,0.199707,0
53050,0.811035,-0.556641,0.192871,0
53070,0.743164,-0.551758,0.210938,0
53090,0.729004,-0.553711,0.221191,0
53110,0.730957,-0.555664,0.227539,0
53130,0.810059,-0.557617,0.22168,0
53150,0.760254,-0.547852,0.24707,0
53150,0.684082,-0.548828,0.250977,0
53170,0.708496,-0.563965,0.25,0
53180,0.729492,-0.564941,0.245117,0
53200,0.741211,-0.569336,0.233887,0
53220,0.777832,-0.560547,0.22998,0
53240,0.778809,-0.55127,0.238281,0
53260,0.744141,-0.55127,0.244629,0
53280,0.724121,-0.552246,0.249023,0
53300,0.709961,-0.544434,0.259277,0
53320,0.733887,-0.563477,0.248047,0
53340,0.741699,-0.560547,0.257324,0
53360,0.743164,-0.543945,0.269043,0
53380,0.750488,-0.55127,0.23877,0
53400,0.783691,-0.555176,0.24707,0
53420,0.748535,-0.560059,0.28418,0
53440,0.697266,-0.542969,0.294434,0
53460,0.695801,-0.54248,0.291504,0
53480,0.70752,-0.549805,0.296875,0
53500,0.714355,-0.558594,0.292969,0
53520,0.725098,-0.562012,0.274902,0
53540,0.716797,-0.559082,0.294434,0
53560,0.700684,-0.55127,0.306641,0
53580,0.707031,-0.556641,0.281738,0
53600,0.72168,-0.572754,0.294434,0
53620,0.69043,-0.572754,0.299805,0
53640,0.672852,-0.587402,0.275391,0
53660,0.692871,-0.596191,0.275879,0
53680,0.696289,-0.591309,0.288574,0
53700,0.655762,-0.587891,0.310059,0
53720,0.658691,-0.589355,0.258301,0
53740,0.678711,-0.586426,0.273438,0
53760,0.681152,-0.609863,0.297852,0
53780,0.669922,-0.631348,0.263672,0
53800,0.649414,-0.624512,0.265625,0
53820,0.64502,-0.588379,0.287598,0
53840,0.63916,-0.606934,0.268555,0
53860,0.642578,-0.641602,0.224121,0
53880,0.67334,-0.650391,0.235352,0
53900,0.692383,-0.647949,0.312012,0
53920,0.660645,-0.655273,0.328125,0
53940,0.630859,-0.650391,0.275391,0
53960,0.63916,-0.639648,0.266113,0
53980,0.647949,-0.632812,0.294922,0
54000,0.632812,-0.64502,0.283691,0
54020,0.630859,-0.658691,0.246582,0
54040,0.644531,-0.66748,0.269531,0
54060,0.623047,-0.665039,0.290527,0
54080,0.599609,-0.666016,0.249512,0
54100,0.613281,-0.651367,0.264648,0
54120,0.634766,-0.658203,0.278809,0
54140,0.613281,-0.667969,0.266602,0
54160,0.61084,-0.668945,0.235352,0
54180,0.648438,-0.660645,0.23877,0
54200,0.655762,-0.67334,0.267578,0
54220,0.622559,-0.695312,0.255371,0
54240,0.603516,-0.685547,0.230469,0
54260,0.612305,-0.674316,0.241699,0
54280,0.616699,-0.677246,0.258301,0
54300,0.612305,-0.688477,0.262207,0
54320,0.600098,-0.708008,0.260742,0
54340,0.60498,-0.716797,0.256348,0
54360,0.605957,-0.694824,0.259766,0
54380,0.574219,-0.6875,0.252441,0
54400,0.548828,-0.708496,0.224609,0
54420,0.567871,-0.708008,0.251953,0
54440,0.58252,-0.684082,0.27832,0
54460,0.578125,-0.702148,0.258301,0
54480,0.582031,-0.715332,0.233887,0
54500,0.583496,-0.719238,0.255371,0
54520,0.580566,-0.710938,0.258789,0
54540,0.567383,-0.717285,0.229004,0
54560,0.586426,-0.725098,0.234375,0
54580,0.606934,-0.716797,0.261719,0
54600,0.582031,-0.722168,0.24707,0
54620,0.585449,-0.724609,0.233398,0
54640,0.61084,-0.718262,0.248535,0
54660,0.60791,-0.716797,0.251465,0
54680,0.595215,-0.720703,0.249512,0
54700,0.594238,-0.728027,0.230957,0
54720,0.606934,-0.738281,0.252441,0
54740,0.599121,-0.733887,0.247559,0
54760,0.575684,-0.73584,0.233398,0
54780,0.597656,-0.735352,0.25,0
54800,0.607422,-0.737305,0.247559,0
54820,0.589355,-0.723145,0.23291,0
54840,0.575684,-0.734863,0.241699,0
54860,0.591797,-0.730957,0.23584,0
54880,0.585938,-0.71875,0.241211,0
54900,0.57373,-0.716797,0.216309,0
54920,0.597168,-0.720215,0.213867,0
54940,0.605957,-0.728027,0.222168,0
54960,0.585938,-0.716309,0.217773,0
54980,0.567383,-0.720215,0.203125,0
55000,0.599121,-0.71875,0.211426,0
55020,0.629395,-0.717285,0.218262,0
55040,0.624512,-0.716797,0.219727,0
55060,0.598633,-0.722656,0.205078,0
55080,0.597168,-0.730469,0.210938,0
55100,0.603027,-0.724121,0.225586,0
55120,0.574219,-0.724609,0.214844,0
55140,0.589844,-0.723633,0.206543,0
55160,0.610352,-0.727539,0.195312,0
55180,0.602051,-0.746094,0.199219,0
55200,0.57666,-0.74707,0.200195,0
55220,0.566895,-0.73877,0.191406,0
55240,0.57666,-0.750977,0.175293,0
55260,0.600098,-0.745605,0.188965,0
55280,0.588379,-0.744141,0.194336,0
55300,0.558105,-0.751953,0.17627,0
55320,0.570312,-0.751465,0.186035,0
55340,0.568848,-0.748535,0.188477,0
55360,0.557617,-0.748047,0.160156,0
55380,0.552734,-0.749023,0.161133,0
55400,0.554688,-0.745117,0.158691,0
55420,0.548828,-0.750977,0.162598,0
55440,0.541016,-0.757812,0.147949,0
55460,0.534668,-0.758789,0.147461,0
55480,0.549316,-0.757812,0.14502,0
55500,0.584961,-0.763184,0.111816,0
55520,0.579102,-0.76709,0.134766,0
55540,0.548828,-0.766113,0.145996,0
55560,0.543457,-0.780273,0.108887,0
55580,0.57959,-0.793457,0.104492,0
55600,0.568359,-0.785645,0.120117,0
55620,0.522949,-0.774902,0.116699,0
55640,0.527832,-0.793457,0.108398,0
55660,0.55127,-0.793945,0.11084,0
55680,0.558105,-0.783691,0.0932617,0
55700,0.567871,-0.790039,0.097168,0
55720,0.561523,-0.80957,0.104004,0
55740,0.557617,-0.827148,0.0966797,0
55760,0.566406,-0.799316,0.103516,0
55780,0.575195,-0.787598,0.100098,0
55800,0.561035,-0.806641,0.0834961,0
55820,0.557129,-0.820312,0.0737305,0
55840,0.572754,-0.811035,0.0776367,0
55860,0.59082,-0.799805,0.0673828,0
55880,0.582031,-0.787109,0.0839844,0
55900,0.569824,-0.780273,0.0722656,0
55920,0.587891,-0.787109,0.0556641,0
55940,0.592773,-0.791016,0.0571289,0
55960,0.59668,-0.782715,0.0615234,0
55980,0.611816,-0.776367,0.050293,0
56000,0.598633,-0.788086,0.0356445,0
56020,0.584473,-0.792969,0.027832,0
56040,0.599121,-0.783203,0.043457,0
56060,0.60498,-0.76123,0.0302734,0
56080,0.591309,-0.762695,0.00683594,0
56100,0.583008,-0.768555,0.0107422,0
56120,0.595215,-0.770996,0.00927734,0
56140,0.580566,-0.762695,0.00634766,0
56160,0.5625,-0.754883,-0.00439453,0
56180,0.575684,-0.750977,0.0107422,0
56200,0.598145,-0.742676,0.00585938,0
56220,0.590332,-0.73291,0.00439453,0
56240,0.593262,-0.720703,0.0395508,0
56260,0.585938,-0.742676,-0.00244141,0
56280,0.60498,-0.745117,-0.0151367,0
56300,0.62207,-0.733398,-0.00488281,0
56320,0.630371,-0.740723,0.0263672,0
56340,0.644043,-0.74707,0.0131836,0
56360,0.644043,-0.734863,-0.0180664,0
56380,0.663574,-0.707031,-0.015625,0
56400,0.667969,-0.730469,0.000976562,0
56420,0.672363,-0.742676,-0.0195312,0
56440,0.703613,-0.742188,-0.0366211,0
56460,0.690918,-0.723145,-0.0244141,0
56480,0.699219,-0.708008,-0.0219727,0
56500,0.69873,-0.709961,-0.0458984,0
56520,0.70752,-0.688965,-0.0493164,0
56540,0.73877,-0.686035,-0.0415039,0
56550,0.71582,-0.667969,-0.0332031,0
56570,0.684082,-0.642578,-0.0439453,0
56590,0.72168,-0.650879,-0.0639648,0
56610,0.705566,-0.640625,-0.034668,0
56630,0.687012,-0.635742,-0.0371094,0
56650,0.699219,-0.632812,-0.0639648,0
56670,0.719727,-0.634766,-0.059082,0
56690,0.738281,-0.624512,-0.0556641,0
56710,0.729492,-0.628906,-0.0595703,0
56730,0.743164,-0.621094,-0.0722656,0
56750,0.758789,-0.604004,-0.0688477,0
56770,0.800293,-0.602051,-0.0708008,0
56790,0.791992,-0.597168,-0.0786133,0
56810,0.769531,-0.592285,-0.0908203,0
56830,0.805176,-0.602051,-0.106934,0
56850,0.84375,-0.591797,-0.09375,0
56870,0.794922,-0.574219,-0.0869141,0
56890,0.810547,-0.580078,-0.0869141,0
56910,0.862793,-0.568359,-0.0761719,0
56930,0.833496,-0.563477,-0.0791016,0
56950,0.820312,-0.55127,-0.0737305,0
56970,0.848633,-0.52832,-0.0722656,0
56990,0.852051,-0.510742,-0.0786133,0
57010,0.867676,-0.490723,-0.0644531,0
57030,0.849121,-0.500977,-0.0571289,0
57050,0.853516,-0.495605,-0.0522461,0
57070,0.844238,-0.482422,-0.0615234,0
57090,0.845215,-0.464355,-0.0527344,0
57110,0.878906,-0.454102,-0.0424805,0
57130,0.866699,-0.445312,-0.0444336,0
57150,0.871582,-0.430664,-0.0473633,0
57170,0.881836,-0.420898,-0.0415039,0
57190,0.87207,-0.410156,-0.0292969,0
57210,0.870117,-0.397461,-0.0405273,0
57230,0.886719,-0.384766,-0.0249023,0
57250,0.894531,-0.383301,-0.0336914,0
57270,0.89209,-0.375977,-0.043457,0
57290,0.903809,-0.35791,-0.0390625,0
57310,0.915527,-0.355469,-0.0258789,0
57330,0.91748,-0.348145,-0.0234375,0
57350,0.914551,-0.341797,-0.0336914,0
57370,0.922363,-0.339355,-0.0249023,0
57390,0.921387,-0.327148,-0.0185547,0
57410,0.92041,-0.327148,-0.00537109,0
57430,0.908203,-0.32666,-0.00634766,0
57450,0.924316,-0.321777,0,0
57470,0.925781,-0.316406,0.012207,0
57490,0.906738,-0.321289,0.00976562,0
57510,0.910156,-0.308105,0.0195312,0
57530,0.933105,-0.299805,0.0253906,0
57550,0.928223,-0.311035,0.0375977,0
57570,0.906738,-0.313477,0.0380859,0
57590,0.909668,-0.320801,0.0439453,0
57610,0.917969,-0.319824,0.0722656,0
57630,0.898926,-0.316406,0.0556641,0
57650,0.918945,-0.306152,0.0678711,0
57670,0.919434,-0.311523,0.0883789,0
57690,0.898438,-0.321289,0.0849609,0
57710,0.882812,-0.33252,0.108887,0
57730,0.886719,-0.32373,0.123047,0
57750,0.87793,-0.316895,0.114258,0
57770,0.882324,-0.32666,0.114258,0
57790,0.883789,-0.359863,0.13623,0
57810,0.875488,-0.356934,0.138672,0
57830,0.868652,-0.351562,0.131836,0
57850,0.874023,-0.34668,0.143066,0
57870,0.881836,-0.357422,0.157227,0
57890,0.896973,-0.365234,0.156738,0
57910,0.890137,-0.371582,0.155273,0
57930,0.890625,-0.388184,0.164062,0
57950,0.866211,-0.387207,0.157715,0
57970,0.854004,-0.37793,0.17334,0
57990,0.861328,-0.380859,0.188477,0
58010,0.85498,-0.387207,0.193359,0
58030,0.844238,-0.414062,0.201172,0
58050,0.846191,-0.439941,0.22168,0
58070,0.819824,-0.422852,0.220703,0
58090,0.8125,-0.399414,0.203613,0
58110,0.825684,-0.386719,0.220703,0
58130,0.803711,-0.416016,0.244629,0
58150,0.789551,-0.432617,0.260254,0
58170,0.812988,-0.427734,0.219727,0
58190,0.827148,-0.416504,0.234375,0
58210,0.811035,-0.43457,0.260254,0
58230,0.791504,-0.460449,0.250488,0
58250,0.793457,-0.435059,0.244629,0
58270,0.796875,-0.43457,0.266602,0
58290,0.796387,-0.456543,0.258301,0
58310,0.776367,-0.474609,0.253906,0
58330,0.776367,-0.469238,0.268066,0
58350,0.800781,-0.46582,0.259766,0
58370,0.799316,-0.472656,0.270508,0
58390,0.796875,-0.482422,0.290039,0
58410,0.799805,-0.472656,0.290527,0
58430,0.773926,-0.485352,0.274902,0
58450,0.76709,-0.480957,0.287109,0
58470,0.762695,-0.480469,0.296875,0
58490,0.744629,-0.490723,0.290527,0
58510,0.713867,-0.487305,0.299805,0
58520,0.730469,-0.487305,0.29834,0
58540,0.742188,-0.510254,0.287109,0
58560,0.723633,-0.497559,0.292969,0
58580,0.727539,-0.492188,0.279297,0
58600,0.758789,-0.51416,0.264648,0
58620,0.753418,-0.506348,0.273926,0
58640,0.732422,-0.512207,0.260742,0
58660,0.755371,-0.513184,0.247559,0
58680,0.774414,-0.498535,0.275391,0
58700,0.762207,-0.492188,0.259277,0
58720,0.755371,-0.503906,0.237793,0
58740,0.76416,-0.512695,0.259766,0
58760,0.75,-0.520996,0.262207,0
58780,0.726074,-0.542969,0.248047,0
58800,0.737305,-0.552246,0.252441,0
58820,0.747559,-0.535156,0.246582,0
58840,0.73584,-0.546387,0.241211,0
58860,0.743652,-0.564941,0.243652,0
58880,0.737793,-0.57666,0.251465,0
58900,0.737305,-0.562988,0.241699,0
58920,0.728027,-0.553711,0.233398,0
58940,0.734863,-0.541992,0.253418,0
58960,0.737305,-0.563965,0.259766,0
58980,0.720703,-0.56543,0.244141,0
59000,0.719727,-0.5625,0.231934,0
59020,0.731445,-0.541992,0.243652,0
59040,0.708984,-0.553223,0.240234,0
59060,0.713867,-0.564941,0.206543,0
59080,0.75293,-0.5625,0.225098,0
59100,0.743652,-0.584473,0.23877,0
59120,0.709961,-0.592285,0.244141,0
59140,0.708008,-0.580566,0.219727,0
59160,0.735352,-0.557617,0.243164,0
59180,0.712402,-0.577637,0.238281,0
59200,0.705078,-0.611816,0.23291,0
59220,0.713379,-0.60791,0.227051,0
59240,0.707031,-0.594238,0.234863,0
59260,0.713379,-0.597656,0.20752,0
59280,0.732422,-0.601074,0.198242,0
59300,0.719238,-0.619629,0.202637,0
59320,0.703125,-0.639648,0.206055,0
59340,0.698242,-0.625488,0.200195,0
59360,0.70459,-0.603516,0.190918,0
59380,0.702148,-0.618652,0.196289,0
59400,0.68457,-0.647949,0.195801,0
59420,0.648926,-0.620605,0.152832,0
59440,0.64502,-0.608398,0.148438,0
59460,0.679199,-0.646484,0.158691,0
59480,0.693359,-0.668945,0.174805,0
59500,0.685059,-0.647461,0.164062,0
59520,0.708984,-0.64502,0.155762,0
59540,0.709961,-0.65332,0.137207,0
59560,0.702148,-0.663086,0.13916,0
59580,0.70752,-0.668945,0.133789,0
59600,0.69873,-0.662109,0.120605,0
59620,0.696289,-0.65332,0.109863,0
59640,0.706055,-0.655273,0.121094,0
59660,0.720215,-0.683594,0.112305,0
59680,0.72998,-0.695312,0.0986328,0
59700,0.705566,-0.679688,0.101562,0
59720,0.698242,-0.640137,0.103027,0
59740,0.699707,-0.623047,0.101562,0
59760,0.691895,-0.666504,0.09375,0
59780,0.681152,-0.712891,0.103516,0
59800,0.67627,-0.709961,0.0947266,0
59820,0.685059,-0.673828,0.103516,0
59840,0.657715,-0.637695,0.106445,0
59860,0.645996,-0.632812,0.0820312,0
59880,0.692871,-0.65332,0.081543,0
59900,0.688477,-0.688477,0.0917969,0
59920,0.657227,-0.696777,0.0878906,0
59940,0.686035,-0.660156,0.0688477,0
59960,0.721191,-0.64502,0.0693359,0
59980,0.693359,-0.645996,0.0708008,0
60000,0.671387,-0.675293,0.0546875,0
60020,0.679688,-0.709961,0.0546875,0
60040,0.704102,-0.691406,0.050293,0
60060,0.679688,-0.660156,0.0493164,0
60080,0.661621,-0.673828,0.0366211,0
60100,0.688965,-0.66748,0.0366211,0
60120,0.703613,-0.674805,0.0366211,0
60140,0.66748,-0.671387,0.0375977,0
60160,0.659668,-0.68457,0.0166016,0
60180,0.691406,-0.69043,0.00537109,0
60200,0.702148,-0.695801,0.0170898,0
60220,0.695801,-0.681152,0.00683594,0
60240,0.699707,-0.66748,0.000976562,0
60260,0.721191,-0.677734,-0.0126953,0
60280,0.731445,-0.707031,-0.0200195,0
60300,0.726074,-0.70459,-0.00439453,0
60320,0.707031,-0.682617,-0.0126953,0
60340,0.712891,-0.664062,-0.0292969,0
60360,0.731445,-0.65918,-0.0429688,0
60380,0.724609,-0.67334,-0.0249023,0
60400,0.706055,-0.694824,-0.0283203,0
60420,0.705078,-0.692383,-0.0600586,0
60440,0.704102,-0.658691,-0.0620117,0
60460,0.70459,-0.650879,-0.0498047,0
60480,0.699707,-0.649902,-0.0708008,0
60500,0.699219,-0.673828,-0.081543,0
60520,0.700195,-0.686523,-0.081543,0
60540,0.70752,-0.678711,-0.0742188,0
60560,0.708496,-0.660645,-0.0864258,0
60580,0.712891,-0.646973,-0.103027,0
60600,0.714355,-0.642578,-0.114258,0
60620,0.712402,-0.649414,-0.112305,0
60640,0.720215,-0.663574,-0.108887,0
60660,0.736816,-0.657715,-0.109863,0
60680,0.745117,-0.62793,-0.124023,0
60700,0.745117,-0.612305,-0.138672,0
60720,0.749512,-0.626953,-0.136719,0
60740,0.765625,-0.630371,-0.140137,0
60760,0.770508,-0.629395,-0.146484,0
60780,0.762207,-0.61377,-0.151367,0
60800,0.751465,-0.608398,-0.165527,0
60820,0.756348,-0.606934,-0.169434,0
60840,0.776367,-0.57666,-0.165527,0
60860,0.790527,-0.598145,-0.180176,0
60880,0.780273,-0.613281,-0.183594,0
60900,0.775879,-0.600098,-0.171875,0
60920,0.789551,-0.55957,-0.179688,0
60940,0.791992,-0.538086,-0.188477,0
60960,0.79248,-0.554199,-0.19873,0
60980,0.788574,-0.556152,-0.163574,0
61000,0.797363,-0.549316,-0.17627,0
61020,0.804688,-0.522461,-0.213867,0
61040,0.824707,-0.486328,-0.192871,0
61060,0.828613,-0.491211,-0.178223,0
61080,0.837891,-0.512207,-0.192871,0
61100,0.837891,-0.514648,-0.207031,0
61120,0.84375,-0.478516,-0.176758,0
61140,0.853516,-0.447266,-0.199219,0
61160,0.87207,-0.429199,-0.20166,0
61180,0.885254,-0.432617,-0.17627,0
61200,0.873535,-0.449707,-0.174805,0
61220,0.851562,-0.439453,-0.201172,0
61240,0.876465,-0.410156,-0.179199,0
61260,0.884766,-0.390137,-0.178223,0
61280,0.879883,-0.408203,-0.192871,0
61300,0.868164,-0.391113,-0.169434,0
61320,0.869141,-0.379883,-0.166016,0
61330,0.895508,-0.320801,-0.151855,0
61350,0.935059,-0.327148,-0.155273,0
61370,0.926758,-0.336914,-0.141602,0
61390,0.913086,-0.31543,-0.140137,0
61410,0.921875,-0.297852,-0.13623,0
61430,0.940918,-0.274414,-0.145508,0
61450,0.922363,-0.256836,-0.124512,0
61470,0.939941,-0.238281,-0.134766,0
61490,0.952148,-0.225586,-0.123047,0
61510,0.92627,-0.217285,-0.113281,0
61530,0.949219,-0.208984,-0.10498,0
61550,0.970703,-0.20459,-0.104004,0
61570,0.961426,-0.196289,-0.0913086,0
61590,0.958496,-0.184082,-0.0864258,0
61610,0.950195,-0.177734,-0.0830078,0
61630,0.936523,-0.157227,-0.0761719,0
61650,0.927734,-0.141602,-0.0849609,0
61670,0.931152,-0.161133,-0.0634766,0
61690,0.960938,-0.140625,-0.0458984,0
61710,0.960938,-0.133789,-0.0405273,0
61730,0.95752,-0.137695,-0.0483398,0
61750,0.949707,-0.121582,-0.0292969,0
61770,0.949219,-0.121094,-0.0107422,0
61790,0.963379,-0.130371,-0.0195312,0
61800,0.975586,-0.129883,-0.00390625,0
61820,0.98291,-0.157715,0.0102539,0
61830,0.98291,-0.180176,0.0180664,0
61850,0.986816,-0.166992,0.050293,0
61870,0.977051,-0.145996,0.0405273,0
61890,0.958496,-0.147461,0.0498047,0
61900,0.967773,-0.162109,0.0688477,0
61920,0.941406,-0.205078,0.0874023,0
61940,0.94043,-0.205566,0.0952148,0
61960,0.941895,-0.186035,0.0957031,0
61980,0.942383,-0.199219,0.128418,0
62000,0.92334,-0.21875,0.123535,0
62020,0.936035,-0.222656,0.106934,0
62040,0.937988,-0.209961,0.145996,0
62060,0.899902,-0.23291,0.170898,0
62080,0.897461,-0.244629,0.171387,0
62100,0.918945,-0.231934,0.157227,0
62120,0.913086,-0.241699,0.151855,0
62140,0.88916,-0.243164,0.161133,0
62160,0.884766,-0.259277,0.1875,0
62180,0.901367,-0.266602,0.221191,0
62200,0.888672,-0.276855,0.205078,0
62220,0.883789,-0.333984,0.176758,0
62240,0.865723,-0.358398,0.179199,0
62260,0.865723,-0.311035,0.207031,0
62280,0.881348,-0.303711,0.185547,0
62300,0.895508,-0.333984,0.190918,0
62320,0.880859,-0.379883,0.203125,0
62340,0.855469,-0.382324,0.202148,0
62360,0.862305,-0.349609,0.196777,0
62380,0.875488,-0.377441,0.207031,0
62400,0.869141,-0.42334,0.192383,0
62420,0.831055,-0.411133,0.226562,0
62440,0.828613,-0.370605,0.22168,0
62460,0.858398,-0.364258,0.200684,0
62480,0.843262,-0.415039,0.214355,0
62500,0.80957,-0.450684,0.209473,0
62520,0.803223,-0.45459,0.208984,0
62540,0.816895,-0.424805,0.216797,0
62560,0.805664,-0.430664,0.205078,0
62580,0.79834,-0.477051,0.210938,0
62600,0.784668,-0.499023,0.204102,0
62620,0.79541,-0.487793,0.202637,0
62640,0.800293,-0.493652,0.205566,0
62660,0.789551,-0.523926,0.202637,0
62680,0.77832,-0.527832,0.214844,0
62700,0.773438,-0.528809,0.21582,0
62720,0.776855,-0.515137,0.208984,0
62740,0.789062,-0.526855,0.211914,0
62760,0.758301,-0.527832,0.214355,0
62780,0.721191,-0.521484,0.21582,0
62800,0.717285,-0.516602,0.203125,0
62820,0.748535,-0.525879,0.181641,0
62840,0.771484,-0.531738,0.195312,0
62860,0.746582,-0.539551,0.205078,0
62880,0.738281,-0.554688,0.186523,0
62900,0.749023,-0.556641,0.175293,0
62920,0.746094,-0.55957,0.186523,0
62940,0.735352,-0.544922,0.191895,0
62960,0.729492,-0.542969,0.187012,0
62980,0.715332,-0.565918,0.182129,0
63000,0.729492,-0.569336,0.18457,0
63020,0.727539,-0.568848,0.188965,0
63040,0.6875,-0.570801,0.180664,0
63060,0.704102,-0.583008,0.144531,0
63080,0.711914,-0.601074,0.160645,0
63100,0.688965,-0.59082,0.142578,0
63120,0.709473,-0.567871,0.140137,0
63140,0.74707,-0.589355,0.15332,0
63160,0.727051,-0.620605,0.128418,0
63180,0.743652,-0.622559,0.124512,0
63200,0.765625,-0.617188,0.115234,0
63220,0.761719,-0.606934,0.109863,0
63240,0.745117,-0.605469,0.103027,0
63260,0.746094,-0.61377,0.117188,0
63280,0.742676,-0.62793,0.116211,0
63300,0.730957,-0.613281,0.113281,0
63320,0.742676,-0.591309,0.128906,0
63340,0.75293,-0.591797,0.0966797,0
63360,0.755859,-0.612793,0.065918,0
63380,0.759766,-0.623535,0.0585938,0
63400,0.754395,-0.640625,0.0727539,0
63420,0.751953,-0.650391,0.0527344,0
63440,0.781738,-0.632812,0.0395508,0
63460,0.782715,-0.645508,0.0561523,0
63480,0.753418,-0.676758,0.0478516,0
63500,0.76709,-0.659668,0.0498047,0
63520,0.745605,-0.630371,0.0444336,0
63540,0.724609,-0.641113,0.0449219,0
63560,0.729492,-0.645996,0.0419922,0
63580,0.724121,-0.641602,0.0380859,0
63600,0.712891,-0.645508,0.0268555,0
63620,0.722656,-0.645508,0.0253906,0
63640,0.718262,-0.649414,0.0263672,0
63660,0.725586,-0.646973,0.0209961,0
63680,0.72998,-0.637695,0.0283203,0
63700,0.720703,-0.637207,-0.00244141,0
63720,0.714355,-0.652344,0.00585938,0
63730,0.723145,-0.647461,0.00390625,0
63760,0.715332,-0.647949,0.000976562,0
63780,0.722656,-0.64502,-0.0141602,0
63800,0.744141,-0.631348,-0.0170898,0
63820,0.746582,-0.644043,-0.0180664,0
63840,0.748535,-0.672363,-0.0317383,0
63850,0.763672,-0.662598,-0.0229492,0
63870,0.730957,-0.65332,-0.0273438,0
63890,0.717285,-0.643555,-0.0571289,0
63910,0.729004,-0.644043,-0.0546875,0
63930,0.727051,-0.65332,-0.0351562,0
63950,0.712891,-0.663086,-0.03125,0
63970,0.71582,-0.628418,-0.0341797,0
63990,0.730469,-0.619141,-0.0708008,0
64010,0.734375,-0.641113,-0.0532227,0
64030,0.705078,-0.666016,-0.074707,0
64050,0.725098,-0.665527,-0.0820312,0
64070,0.724609,-0.652344,-0.0874023,0
64090,0.713379,-0.643555,-0.0878906,0
64110,0.741699,-0.645996,-0.0839844,0
64130,0.743652,-0.658691,-0.0849609,0
64150,0.733398,-0.652832,-0.0908203,0
64170,0.71582,-0.646973,-0.117188,0
64190,0.730469,-0.640137,-0.125,0
64210,0.741699,-0.635254,-0.124512,0
64230,0.736328,-0.635742,-0.121094,0
64250,0.734863,-0.643066,-0.14209,0
64270,0.742676,-0.650879,-0.131836,0
64290,0.735352,-0.64209,-0.150879,0
64310,0.745605,-0.621582,-0.157227,0
64330,0.74707,-0.609375,-0.15332,0
64350,0.745605,-0.634766,-0.15625,0
64370,0.731934,-0.629883,-0.157715,0
64390,0.740234,-0.612793,-0.160645,0
64410,0.757812,-0.612793,-0.197266,0
64430,0.762695,-0.61377,-0.20166,0
64450,0.763672,-0.601562,-0.195801,0
64470,0.759277,-0.59668,-0.20166,0
64490,0.737793,-0.591797,-0.195801,0
64510,0.731934,-0.580566,-0.210938,0
64530,0.751465,-0.570801,-0.210449,0
64550,0.768555,-0.570801,-0.222168,0
64570,0.764648,-0.553223,-0.222168,0
64590,0.766113,-0.557617,-0.209473,0
64610,0.817383,-0.556641,-0.219238,0
64630,0.837891,-0.552246,-0.21582,0
64650,0.812012,-0.545898,-0.20752,0
64670,0.803711,-0.550293,-0.219727,0
64690,0.788086,-0.52832,-0.219727,0
64710,0.823242,-0.507324,-0.250488,0
64730,0.840332,-0.48877,-0.240723,0
64750,0.82959,-0.483887,-0.258301,0
64770,0.82666,-0.508301,-0.270508,0
64790,0.835449,-0.498047,-0.253906,0
64810,0.836426,-0.46582,-0.260254,0
64830,0.847168,-0.459961,-0.294434,0
64850,0.851074,-0.45752,-0.267578,2001
64870,0.850586,-0.452637,-0.264648,0
64890,0.874023,-0.436523,-0.274902,0
64910,0.875488,-0.397461,-0.272461,0
64930,0.841797,-0.399902,-0.27002,0
64950,0.843262,-0.405762,-0.269531,0
64970,0.868164,-0.402832,-0.289062,0
64990,0.858398,-0.396484,-0.268555,0
65010,0.831543,-0.376953,-0.272461,0
65030,0.813965,-0.34668,-0.284668,0
65050,0.802246,-0.350098,-0.287598,0
65070,0.793457,-0.381836,-0.274902,0
65090,0.720703,-0.376953,-0.262207,0
65110,0.619629,-0.342285,-0.241211,0
65130,0.600098,-0.328613,-0.228516,0
65150,0.602051,-0.311523,-0.220703,0
65170,0.623047,-0.31543,-0.176758,0
65190,0.584961,-0.330078,-0.168945,0
65210,0.569824,-0.37793,-0.16748,0
65230,0.637695,-0.370605,-0.0942383,0
65250,0.682129,-0.350586,-0.0410156,0
65270,0.686035,-0.344238,-0.00439453,0
65290,0.70166,-0.36084,-0.0234375,0
65310,0.755859,-0.391602,0.0219727,0
65330,0.79541,-0.40625,0.090332,0
65350,0.820801,-0.458984,0.00634766,0
65370,0.943848,-0.527832,0.0195312,0
65390,0.999023,-0.54248,0.165039,0
65410,0.932129,-0.522461,0.257324,0
65430,0.923828,-0.54834,0.12793,0
65450,1.01465,-0.584473,0.0761719,0
65470,0.983398,-0.556641,0.259277,0
65490,0.901855,-0.599609,0.260742,0
65510,0.929199,-0.674805,0.0522461,0
65530,1.00391,-0.666016,0.176758,0
65550,0.913574,-0.63916,0.242188,0
65570,0.845215,-0.73584,0.131348,0
65590,0.953613,-0.85791,0.0722656,0
65610,0.972168,-0.765137,0.213379,0
65630,0.889648,-0.747559,0.202637,0
65650,0.871582,-0.748535,0.157715,0
65670,0.80957,-0.742676,0.25293,0
65690,0.699219,-0.748047,0.257324,0
65710,0.63916,-0.775879,0.243164,0
65730,0.606445,-0.748535,0.22998,0
65750,0.566895,-0.652832,0.357422,0
65770,0.523926,-0.671387,0.342285,0
65790,0.52832,-0.740723,0.344727,0
65810,0.532227,-0.776367,0.404297,0
65830,0.505859,-0.753418,0.384766,0
65850,0.487793,-0.733887,0.364746,0
65870,0.471191,-0.730957,0.361328,0
65890,0.461914,-0.777832,0.343262,0
65910,0.473145,-0.819336,0.369629,0
65930,0.458496,-0.821777,0.385742,0
65950,0.461914,-0.778809,0.358887,0
65970,0.466797,-0.750488,0.352539,0
65990,0.478516,-0.736816,0.378418,0
66010,0.470703,-0.745605,0.362793,0
66030,0.450195,-0.749023,0.333984,0
66050,0.465332,-0.780273,0.351562,0
66070,0.470703,-0.780762,0.354492,0
66090,0.469238,-0.751953,0.313965,0
66110,0.447754,-0.727539,0.309082,0
66130,0.458008,-0.731445,0.305664,0
66150,0.455078,-0.754883,0.32959,0
66170,0.442383,-0.762695,0.335938,0
66190,0.450195,-0.724609,0.325684,0
