Timestamp, Acceleration x, Acceleration y, Acceleration z, Marker
30,0.0756836,-0.751953,-0.851074,0
50,0.0488281,-0.74707,-0.845703,0
70,0.0522461,-0.714844,-0.845703,0
90,0.0976562,-0.700684,-0.82959,0
110,0.0776367,-0.67041,-0.833984,0
130,0.0947266,-0.658691,-0.833008,0
150,0.0844727,-0.668457,-0.839355,0
150,0.0727539,-0.663574,-0.86377,0
190,0.0649414,-0.644043,-0.852539,0
210,0.081543,-0.643066,-0.878906,0
230,0.0522461,-0.67041,-0.880371,0
250,0.0224609,-0.674316,-0.889648,0
270,0.0117188,-0.661133,-0.93457,0
290,0.0161133,-0.660156,-0.976562,0
310,0.268066,-0.610352,-0.913086,0
330,0.140137,-0.657227,-0.900391,0
350,0.11377,-0.668457,-0.939941,0
370,0.254395,-0.588867,-0.892578,0
390,0.311035,-0.511719,-0.936035,0
410,0.322266,-0.509277,-0.976562,0
430,0.356445,-0.459473,-0.938477,0
450,0.35498,-0.461914,-0.921387,0
470,0.356934,-0.462891,-0.889648,0
490,0.375488,-0.439941,-0.864746,0
510,0.375,-0.353027,-0.868164,0
530,0.371094,-0.291016,-0.874512,0
550,0.338867,-0.264648,-0.890625,0
570,0.3125,-0.26416,-0.877441,0
590,0.356445,-0.287109,-0.876465,0
610,0.23291,-0.392578,-0.84082,0
630,0.217285,-0.349121,-0.883789,0
650,0.263672,-0.283691,-0.899414,0
670,0.255859,-0.271973,-0.887207,0
690,0.260742,-0.320801,-0.887207,0
710,0.280273,-0.352539,-0.896973,0
730,0.285645,-0.32373,-0.909668,0
750,0.304688,-0.288086,-0.920898,0
770,0.288574,-0.317871,-0.980957,0
780,0.362305,-0.38623,-0.937012,0
800,0.335449,-0.374023,-0.977539,0
820,0.261719,-0.323242,-0.985352,0
840,0.273438,-0.319824,-1.02881,0
860,0.282715,-0.32959,-1.03809,0
880,0.268555,-0.338867,-1.01172,0
900,0.237305,-0.338867,-1.01074,0
910,0.244629,-0.36377,-0.993652,0
930,0.239258,-0.406738,-1.01904,0
950,0.197754,-0.427734,-1.00342,0
970,0.167969,-0.431641,-0.978027,0
990,0.18457,-0.404297,-0.97998,0
1010,0.187988,-0.384766,-0.970703,0
1030,0.220215,-0.400879,-0.958496,0
1050,0.285156,-0.390137,-0.977051,0
1070,0.238281,-0.408203,-1.04395,0
1090,0.288574,-0.33252,-1.01123,0
1110,0.306152,-0.34375,-0.967773,0
1130,0.291992,-0.433594,-1.02588,0
1150,0.342773,-0.666016,-1.22705,0
1170,0.336426,-0.647949,-1.02783,0
1190,0.368164,-0.36377,-0.959961,0
1210,0.421875,-0.249512,-0.955566,0
1230,0.479492,-0.239746,-0.949219,0
1250,0.487305,-0.270508,-0.939453,0
1270,0.530762,-0.297363,-0.884277,0
1290,0.541504,-0.32373,-0.875488,0
1310,0.556152,-0.342773,-0.883301,0
1330,0.571289,-0.326172,-0.871094,0
1350,0.591797,-0.260254,-0.853027,0
1370,0.618652,-0.201172,-0.832031,0
1390,0.634277,-0.15625,-0.791016,0
1410,0.625488,-0.138184,-0.771973,0
1430,0.614258,-0.129395,-0.738281,0
1450,0.619629,-0.108398,-0.69043,0
1470,0.614746,-0.0952148,-0.697266,0
1490,0.585449,-0.0258789,-0.73877,0
1510,0.616699,0.0380859,-0.755859,0
1530,0.705078,0.0219727,-0.737305,0
1550,0.757812,-0.0532227,-0.712891,0
1570,0.718262,-0.0341797,-0.678223,0
1590,0.678711,0.00439453,-0.660645,0
1610,0.687988,0.0458984,-0.684082,0
1630,0.706055,0.0751953,-0.682129,0
1650,0.691406,0.0854492,-0.70166,0
1670,0.67334,0.0961914,-0.689453,0
1690,0.672852,0.0927734,-0.70166,0
1710,0.731445,0.0839844,-0.726562,0
1730,0.776367,0.0986328,-0.74707,0
1750,0.788574,0.111328,-0.738281,0
1770,0.760254,0.106934,-0.775391,0
1790,0.725098,0.0820312,-0.822266,0
1810,0.705566,0.0483398,-0.82959,0
1830,0.636719,0.0488281,-0.857422,0
1850,0.547852,0.0957031,-0.852539,0
1870,0.518066,0.115234,-0.830078,0
1890,0.630859,-0.00390625,-0.86377,0
1910,0.687012,-0.0820312,-0.863281,0
1930,0.697754,-0.0219727,-0.87207,0
1950,0.726074,-0.012207,-0.837402,0
1970,0.595215,0.0585938,-0.827148,0
1990,0.646973,0.0532227,-0.771484,0
2010,0.510742,0.173828,-0.850098,0
2030,0.486328,0.182129,-0.870605,0
2050,0.531738,0.108398,-0.815918,0
2070,0.571777,0.0786133,-0.820312,0
2090,0.609375,0.0268555,-0.835449,0
2110,0.62793,-0.0117188,-0.942383,0
2130,0.791504,-0.44043,-1.05078,0
2150,0.652832,-0.478027,-0.89502,0
2170,0.569824,-0.0180664,-0.836914,0
2190,0.614746,0.0751953,-0.776855,0
2210,0.593262,0.161621,-0.76709,0
2230,0.60791,0.143555,-0.84375,0
2250,0.586914,0.0478516,-0.850098,0
2270,0.590332,-0.0756836,-0.867676,0
2290,0.583496,-0.160645,-0.856934,0
2310,0.562988,-0.0996094,-0.84082,0
2330,0.644531,0.00341797,-0.825684,0
2350,0.687012,0.0546875,-0.828613,0
2370,0.616699,0.0859375,-0.858887,0
2390,0.59375,0.0634766,-0.852051,0
2410,0.61084,0.0830078,-0.85791,0
2430,0.618164,0.114258,-0.83252,0
2450,0.592285,0.119629,-0.785156,0
2470,0.592773,0.0957031,-0.799805,0
2490,0.61084,0.00537109,-0.813477,0
2510,0.593262,-0.0112305,-0.803711,0
2530,0.581055,0.0336914,-0.806641,0
2550,0.657715,0.0644531,-0.897949,0
2570,0.652344,0.0791016,-0.928711,0
2590,0.663086,0.0703125,-0.92627,0
2610,0.656738,0.0161133,-0.916016,0
2630,0.626465,-0.065918,-0.945312,0
2650,0.586426,-0.0356445,-0.884277,0
2670,0.588379,-0.00488281,-0.837891,0
2690,0.59375,0.00195312,-0.876953,0
2710,0.590332,0.00585938,-0.893555,0
2730,0.550293,0.0107422,-0.889648,0
2750,0.594238,-0.0253906,-0.885742,0
2760,0.581543,-0.0717773,-0.845215,0
2780,0.557617,-0.034668,-0.858887,0
2800,0.557617,0.0654297,-0.865234,0
2820,0.569336,0.10498,-0.85498,0
2840,0.573242,0.101562,-0.835449,0
2860,0.569336,0.050293,-0.849121,0
2880,0.563477,0.0566406,-0.870117,0
2900,0.589355,0.10498,-0.918945,0
2920,0.608887,0.166016,-0.927246,0
2940,0.600586,0.152344,-0.927734,0
2960,0.58252,0.132812,-0.924805,0
2980,0.566406,0.115723,-0.931641,0
3000,0.578125,0.108887,-0.924805,0
3020,0.579102,0.125977,-0.901367,0
3040,0.583008,0.155762,-0.898438,0
3060,0.57666,0.168457,-0.895508,0
3080,0.55957,0.144531,-0.84375,0
3100,0.572266,0.134766,-0.81543,0
3120,0.58252,0.113281,-0.848633,0
3140,0.586914,0.117676,-0.86377,0
3160,0.602539,0.138184,-0.847656,0
3180,0.601074,0.136719,-0.842285,0
3200,0.594727,0.113281,-0.830566,0
3220,0.594727,0.10498,-0.833008,0
3240,0.605469,0.122559,-0.851562,0
3260,0.606445,0.128906,-0.842773,0
3280,0.611328,0.128418,-0.850586,0
3300,0.61084,0.127441,-0.854004,0
3320,0.611816,0.145508,-0.845215,0
3340,0.609863,0.148438,-0.837402,0
3360,0.60498,0.152344,-0.833984,0
3380,0.593262,0.153809,-0.827148,0
3400,0.598633,0.174805,-0.837891,0
3420,0.606445,0.19043,-0.837891,0
3440,0.609863,0.179199,-0.848145,0
3460,0.608398,0.20459,-0.802734,0
3480,0.591309,0.226562,-0.791016,0
3500,0.602539,0.212402,-0.817383,0
3520,0.614746,0.186035,-0.838867,0
3540,0.61084,0.190918,-0.840332,0
3560,0.604492,0.202148,-0.814453,0
3580,0.606445,0.208496,-0.822266,0
3600,0.619141,0.208984,-0.83252,0
3620,0.622559,0.21582,-0.837891,0
3640,0.616699,0.226562,-0.824219,0
3660,0.608398,0.208008,-0.837402,0
3680,0.615723,0.205566,-0.830078,0
3700,0.620605,0.18457,-0.843262,0
3720,0.616699,0.200684,-0.829102,0
3740,0.630371,0.214844,-0.829102,0
3760,0.634766,0.22168,-0.823242,0
3780,0.646484,0.230957,-0.842285,0
3800,0.628418,0.223633,-0.821777,0
3820,0.619141,0.238281,-0.777344,0
3840,0.625,0.23584,-0.81543,0
3860,0.676758,0.223145,-0.880859,0
3880,0.709473,0.20459,-0.865723,0
3900,0.687988,0.191895,-0.795898,0
3920,0.660156,0.149414,-0.74707,0
3940,0.639648,0.0942383,-0.716309,0
3960,0.635254,0.0688477,-0.706543,0
3980,0.634766,0.0541992,-0.712402,0
4000,0.666992,0.043457,-0.713867,0
4020,0.67334,-0.00732422,-0.720703,0
4040,0.670898,-0.0205078,-0.736328,0
4060,0.662109,-0.0385742,-0.73584,0
4080,0.646484,-0.0712891,-0.722168,0
4100,0.623535,-0.0869141,-0.720703,0
4120,0.614258,-0.0883789,-0.754395,0
4140,0.641113,-0.09375,-0.797852,0
4160,0.640625,-0.0932617,-0.870605,0
4180,0.587891,-0.154297,-0.900391,0
4200,0.539551,-0.206055,-0.893066,0
4220,0.508301,-0.245117,-0.94873,0
4240,0.485352,-0.296387,-0.992188,0
4260,0.465332,-0.318848,-0.980957,0
4280,0.496094,-0.32373,-0.963867,0
4300,0.532715,-0.356934,-0.965332,0
4320,0.600586,-0.329102,-0.981934,0
4340,0.699219,-0.337891,-0.938965,0
4360,0.55957,-0.313477,-0.949707,0
4380,0.47168,-0.251465,-0.916504,0
4400,0.547363,-0.245605,-0.890137,0
4420,0.576172,-0.28418,-0.89209,0
4440,0.533203,-0.276855,-0.837402,0
4460,0.535156,-0.233398,-0.783203,0
4480,0.547363,-0.223145,-0.79248,0
4500,0.577637,-0.259766,-0.820801,0
4520,0.585938,-0.278809,-0.789551,0
4540,0.580078,-0.240234,-0.78125,0
4560,0.590332,-0.20752,-0.754395,0
4580,0.61377,-0.156738,-0.754395,0
4600,0.629395,-0.131836,-0.777344,0
4620,0.654297,-0.149414,-0.799316,0
4640,0.675293,-0.166992,-0.792969,0
4660,0.678711,-0.14209,-0.797363,0
4680,0.660645,-0.0664062,-0.783691,0
4700,0.697266,-0.0625,-0.807617,0
4720,0.711914,-0.0600586,-0.832031,0
4740,0.687988,-0.0678711,-0.80127,0
4760,0.675781,-0.046875,-0.773926,0
4780,0.662598,-0.0449219,-0.765137,0
4800,0.673828,-0.0239258,-0.767578,0
4820,0.68457,-0.0361328,-0.786133,0
4840,0.676758,-0.043457,-0.777344,0
4860,0.662598,-0.0395508,-0.765625,0
4880,0.668457,-0.0424805,-0.788574,0
4900,0.683594,-0.0249023,-0.800781,0
4920,0.681152,-0.0112305,-0.794434,0
4940,0.677246,-0.00195312,-0.794922,0
4960,0.674805,-0.0102539,-0.809082,0
4980,0.672852,-0.00488281,-0.804199,0
5000,0.672363,0.00488281,-0.805176,0
5020,0.665039,0.00732422,-0.805664,0
5040,0.675781,0.0112305,-0.791992,0
5060,0.675293,0.0151367,-0.787109,0
5080,0.689941,0.0170898,-0.817383,0
5100,0.691895,0.0161133,-0.82373,0
5120,0.683105,0.0297852,-0.800293,0
5140,0.689453,0.0141602,-0.805664,0
5160,0.675781,-0.00390625,-0.790039,0
5180,0.677246,0.00195312,-0.791992,0
5200,0.683105,0.0166016,-0.789551,0
5220,0.671875,0.0366211,-0.789551,0
5240,0.67627,0.03125,-0.780762,0
5260,0.661621,0.0444336,-0.764648,0
5280,0.654297,0.0527344,-0.746094,0
5300,0.65918,0.0698242,-0.750977,0
5320,0.668457,0.0263672,-0.799805,0
5340,0.66748,0.0424805,-0.79834,0
5360,0.710449,0.0961914,-0.859863,0
5380,0.661621,0.128418,-0.816406,0
5400,0.647949,0.0800781,-0.757812,0
5420,0.657227,-0.0688477,-0.850098,0
5440,0.692871,-0.0581055,-0.899902,0
5460,0.682617,0.0463867,-0.909668,0
5480,0.637695,0.0874023,-0.753906,0
5500,0.591797,0.0302734,-0.68457,0
5520,0.640625,-0.0341797,-0.811035,0
5540,0.676758,0.0561523,-0.912598,0
5560,0.67334,0.158691,-0.838379,0
5580,0.669434,0.150391,-0.810547,0
5600,0.647461,0.110352,-0.802246,0
5620,0.634766,0.108398,-0.807129,0
5640,0.632324,0.145508,-0.779297,0
5660,0.622559,0.161621,-0.764648,0
5680,0.629883,0.128418,-0.768555,0
5700,0.624023,0.130371,-0.774902,0
5720,0.64209,0.135742,-0.8125,0
5740,0.650391,0.153809,-0.839844,0
5760,0.648926,0.138184,-0.808105,0
5780,0.608398,0.115234,-0.796875,0
5800,0.612793,0.104492,-0.830566,0
5820,0.636719,0.121582,-0.856445,0
5840,0.638184,0.140137,-0.856445,0
5860,0.632324,0.133789,-0.870117,0
5880,0.629395,0.147461,-0.864746,0
5900,0.623535,0.150879,-0.864258,0
5920,0.621582,0.14502,-0.850098,0
5940,0.612305,0.158203,-0.835449,0
5960,0.598633,0.154297,-0.841309,0
5980,0.603027,0.159668,-0.819336,0
6000,0.604492,0.151367,-0.820801,0
6020,0.59375,0.145996,-0.830078,0
6040,0.592773,0.149902,-0.843262,0
6060,0.601074,0.150879,-0.837891,0
6080,0.59668,0.142578,-0.853516,0
6100,0.599609,0.137207,-0.868652,0
6120,0.609863,0.143555,-0.88623,0
6140,0.599609,0.143066,-0.864258,0
6160,0.594238,0.148926,-0.850586,0
6180,0.580566,0.138184,-0.841797,0
6190,0.59668,0.165039,-0.853516,0
6210,0.601074,0.157715,-0.862305,0
6230,0.592285,0.155762,-0.858398,0
6250,0.592285,0.150391,-0.865723,0
6270,0.595215,0.152832,-0.855469,0
6290,0.597168,0.160645,-0.852539,0
6310,0.585449,0.155762,-0.848633,0
6330,0.591797,0.13623,-0.840332,0
6350,0.588867,0.145508,-0.853516,0
6370,0.592773,0.155273,-0.853516,0
6390,0.588379,0.163574,-0.84375,0
6410,0.588379,0.161133,-0.852539,0
6430,0.592285,0.158691,-0.854004,0
6450,0.593262,0.15918,-0.863281,0
6470,0.589355,0.169922,-0.855957,0
6490,0.593262,0.165527,-0.856934,0
6510,0.597168,0.17041,-0.860352,0
6530,0.595703,0.17041,-0.854492,0
6550,0.596191,0.182129,-0.853516,0
6570,0.594238,0.179199,-0.850098,0
6590,0.584961,0.177734,-0.833984,0
6610,0.584473,0.1875,-0.813965,0
6630,0.580078,0.208984,-0.815918,0
6650,0.592285,0.23291,-0.830078,0
6670,0.591797,0.247559,-0.831543,0
6690,0.580566,0.266602,-0.821777,0
6710,0.583008,0.265137,-0.826172,0
6730,0.587402,0.268555,-0.837402,0
6750,0.590332,0.26416,-0.839355,0
6770,0.581543,0.265137,-0.833984,0
6790,0.584961,0.253906,-0.830078,0
6810,0.585449,0.249023,-0.833008,0
6830,0.589844,0.256348,-0.820312,0
6850,0.58252,0.256836,-0.82959,0
6870,0.587891,0.265137,-0.822266,0
6890,0.590332,0.269531,-0.82666,0
6910,0.596191,0.266602,-0.833984,0
6930,0.596191,0.256836,-0.831055,0
6950,0.59668,0.258301,-0.824219,0
6970,0.59668,0.236328,-0.833008,0
6990,0.601074,0.235352,-0.825684,0
7010,0.603516,0.249512,-0.824219,0
7030,0.605957,0.233398,-0.822266,0
7050,0.605469,0.245117,-0.80957,0
7070,0.609863,0.23877,-0.806641,0
7090,0.614258,0.249023,-0.807617,0
7110,0.608887,0.249023,-0.806641,0
7130,0.616211,0.246094,-0.804199,0
7150,0.619141,0.246582,-0.79541,0
7170,0.617188,0.246094,-0.79541,0
7190,0.625977,0.25293,-0.804688,0
7210,0.625488,0.245605,-0.799805,0
7230,0.625977,0.251465,-0.796875,0
7250,0.625488,0.250488,-0.787109,0
7270,0.62207,0.250488,-0.783203,0
7290,0.62793,0.251465,-0.786133,0
7310,0.636719,0.251465,-0.793945,0
7330,0.627441,0.26416,-0.78125,0
7350,0.635254,0.260742,-0.78418,0
7370,0.63623,0.256348,-0.787598,0
7390,0.63916,0.251953,-0.790039,0
7410,0.641113,0.258789,-0.778809,0
7430,0.639648,0.25293,-0.789062,0
7450,0.64209,0.249023,-0.782715,0
7470,0.650391,0.253418,-0.786133,0
7490,0.641602,0.251465,-0.779297,0
7510,0.636719,0.261719,-0.77002,0
7530,0.640625,0.249512,-0.771484,0
7550,0.643066,0.242188,-0.770508,0
7570,0.63916,0.237305,-0.761719,0
7590,0.649414,0.23877,-0.775879,0
7610,0.646973,0.241699,-0.776367,0
7630,0.654785,0.236816,-0.78125,0
7650,0.647461,0.233887,-0.769043,0
7670,0.645508,0.248047,-0.765137,0
7690,0.644531,0.236328,-0.779297,0
7710,0.644043,0.237793,-0.770996,0
7730,0.635742,0.242676,-0.765137,0
7750,0.638184,0.243652,-0.782715,0
7770,0.650879,0.259277,-0.780273,0
7790,0.638184,0.25293,-0.783203,0
7810,0.638672,0.251953,-0.786133,0
7830,0.640137,0.254883,-0.787598,0
7850,0.650879,0.257324,-0.797852,0
7870,0.660156,0.257324,-0.805176,0
7890,0.643066,0.249023,-0.787109,0
7910,0.638672,0.241699,-0.787598,0
7930,0.641113,0.237305,-0.786621,0
7950,0.65332,0.247559,-0.776855,0
7970,0.63916,0.248047,-0.78125,0
7990,0.645508,0.241211,-0.779785,0
8010,0.637695,0.233398,-0.783203,0
8030,0.642578,0.250488,-0.779785,0
8050,0.649902,0.237305,-0.785645,0
8070,0.646484,0.236816,-0.794434,0
8090,0.650391,0.240234,-0.786621,0
8110,0.633301,0.209961,-0.778809,0
8130,0.634766,0.216797,-0.775879,0
8150,0.652344,0.226562,-0.79248,0
8170,0.655762,0.237793,-0.795898,0
8180,0.650879,0.228027,-0.782227,0
8200,0.641602,0.222656,-0.777832,0
8220,0.643066,0.224609,-0.777344,0
8240,0.646484,0.235352,-0.771973,0
8260,0.650879,0.231934,-0.78418,0
8280,0.651367,0.223145,-0.782227,0
8300,0.647949,0.225098,-0.780762,0
8320,0.652344,0.226074,-0.779297,0
8340,0.650879,0.231445,-0.781738,0
8360,0.65332,0.222168,-0.784668,0
8380,0.650879,0.22998,-0.780762,0
8400,0.653809,0.225586,-0.776855,0
8420,0.649902,0.227051,-0.779297,0
8440,0.656738,0.226074,-0.769043,0
8460,0.652832,0.227051,-0.783691,0
8480,0.657715,0.228516,-0.78418,0
8500,0.660156,0.226074,-0.780273,0
8520,0.657227,0.220215,-0.77832,0
8540,0.65332,0.213379,-0.769043,0
8560,0.661133,0.224121,-0.77002,0
8580,0.662598,0.22168,-0.769043,0
8600,0.663574,0.219727,-0.766602,0
8620,0.663086,0.220703,-0.768066,0
8640,0.67041,0.222656,-0.760254,0
8660,0.67334,0.224609,-0.761719,0
8680,0.662598,0.219238,-0.76709,0
8700,0.670898,0.229004,-0.766113,0
8720,0.664062,0.22998,-0.760254,0
8740,0.679688,0.22998,-0.765137,0
8760,0.676758,0.219727,-0.753906,0
8780,0.672363,0.217773,-0.75293,0
8800,0.672852,0.224609,-0.752441,0
8820,0.66748,0.230957,-0.756348,0
8840,0.681152,0.239258,-0.755371,0
8860,0.690918,0.228516,-0.74707,0
8880,0.670898,0.225098,-0.747559,0
8900,0.672852,0.209961,-0.741211,0
8920,0.667969,0.231445,-0.745605,0
8940,0.687012,0.226074,-0.762207,0
8960,0.691895,0.225098,-0.760254,0
8980,0.668457,0.226562,-0.73291,0
9000,0.665527,0.22168,-0.73291,0
9020,0.681641,0.23291,-0.759277,0
9040,0.683594,0.223145,-0.770996,0
9060,0.689941,0.226562,-0.761719,0
9080,0.675781,0.21582,-0.753906,0
9100,0.676758,0.22168,-0.75293,0
9120,0.677734,0.217285,-0.763184,0
9140,0.688965,0.217285,-0.763672,0
9160,0.678223,0.21875,-0.759766,0
9180,0.678711,0.214355,-0.746582,0
9200,0.665039,0.210449,-0.746582,0
9220,0.672363,0.210449,-0.745117,0
9240,0.671387,0.220215,-0.745117,0
9260,0.669922,0.215332,-0.748535,0
9280,0.67627,0.226074,-0.748047,0
9300,0.680664,0.227051,-0.759277,0
9320,0.686523,0.217773,-0.773438,0
9340,0.686035,0.218262,-0.771484,0
9360,0.686035,0.219238,-0.767578,0
9380,0.683594,0.222168,-0.766113,0
9400,0.683105,0.212891,-0.760742,0
9420,0.681152,0.208496,-0.762207,0
9440,0.67627,0.186523,-0.760742,0
9460,0.672363,0.196777,-0.748047,0
9480,0.671387,0.205078,-0.737305,0
9500,0.67041,0.213379,-0.736816,0
9520,0.673828,0.21582,-0.733887,0
9540,0.687988,0.211426,-0.746094,0
9560,0.691895,0.217285,-0.754883,0
9580,0.703613,0.222656,-0.756836,0
9600,0.709473,0.216797,-0.769043,0
9620,0.717285,0.19873,-0.780273,0
9640,0.720215,0.178223,-0.799805,0
9660,0.726074,0.180664,-0.788086,0
9680,0.73877,0.201172,-0.771973,0
9700,0.72998,0.209961,-0.783691,0
9720,0.726562,0.205566,-0.779297,0
9740,0.746094,0.223633,-0.764648,0
9760,0.715332,0.220215,-0.745117,0
9780,0.689453,0.223145,-0.727539,0
9800,0.647949,0.20752,-0.67334,0
9820,0.626953,0.224121,-0.59668,0
9840,0.640137,0.222168,-0.628418,0
9860,0.706543,0.233887,-0.656738,0
9880,0.777344,0.26709,-0.648926,0
9900,0.785156,0.370117,-0.64209,0
9920,0.916016,0.432617,-0.615723,0
9940,1.01953,0.448242,-0.556641,0
9960,0.978516,0.487305,-0.571289,0
9980,0.941895,0.525879,-0.591797,0
10000,0.898926,0.561035,-0.624023,0
10020,0.837891,0.571777,-0.62793,0
10040,0.758789,0.554199,-0.603516,0
10060,0.655762,0.54248,-0.580078,0
10080,0.560547,0.526855,-0.566895,0
10100,0.523438,0.493164,-0.599121,0
10120,0.46875,0.477051,-0.64209,0
10140,0.41748,0.457031,-0.672852,0
10160,0.385742,0.402344,-0.654785,0
10180,0.322266,0.351074,-0.626465,0
10200,0.239746,0.300781,-0.59668,0
10220,0.179199,0.249512,-0.543945,0
10240,0.143066,0.197266,-0.481934,0
10260,0.117676,0.14209,-0.432129,0
10280,0.112793,0.0849609,-0.384277,0
10300,0.156738,-0.00195312,-0.396973,0
10320,0.248047,-0.102051,-0.418945,0
10340,0.336914,-0.220215,-0.396484,0
10360,0.386719,-0.400391,-0.395508,0
10380,0.398926,-0.569824,-0.405762,0
10400,0.388184,-0.676758,-0.314941,0
10420,0.359863,-0.717285,-0.230469,0
10440,0.367676,-0.75293,-0.234863,0
10460,0.411621,-0.769531,-0.221191,0
10480,0.406738,-0.817383,-0.112305,0
10500,0.404297,-0.941406,0.0405273,0
10520,0.372559,-1.03418,0.17334,0
10540,0.246582,-1.06006,0.194824,0
10560,0.043457,-1.10449,0.236816,0
10580,-0.154297,-1.09326,0.38623,0
10600,-0.217773,-1.0542,0.345215,0
10620,-0.151855,-1.04053,0.22168,0
10640,-0.241211,-1.01318,0.228516,0
10660,-0.393555,-1.03223,0.287598,0
10680,-0.46875,-1.08594,0.36084,0
10700,-0.630371,-1.10254,0.37207,0
10720,-0.640625,-1.01318,0.382812,0
10740,-0.742188,-1.05469,0.483398,0
10760,-0.725586,-0.946777,0.463867,0
10780,-0.72998,-0.877441,0.459473,0
10800,-0.77002,-0.853027,0.444336,0
10820,-0.858398,-0.845703,0.328613,0
10840,-0.906738,-0.870605,0.304199,0
10860,-1.04883,-0.896484,0.454102,0
10880,-1.16846,-0.856445,0.519531,0
10900,-1.22021,-0.794922,0.416504,0
10920,-1.25684,-0.737305,0.305664,0
10940,-1.30566,-0.731445,0.210938,0
10960,-1.28223,-0.76123,0.117188,0
10980,-1.2085,-0.69873,0.0244141,0
11000,-1.09473,-0.578125,-0.0571289,0
11020,-0.959961,-0.469727,-0.0742188,0
11040,-0.884277,-0.441406,0.0102539,0
11060,-0.848145,-0.414062,0.133301,0
11080,-0.851562,-0.410645,0.242676,0
11100,-0.882812,-0.399902,0.348633,0
11120,-0.926758,-0.414551,0.40625,0
11140,-0.978027,-0.458496,0.432129,0
11160,-0.997559,-0.505371,0.425293,0
11180,-1.00928,-0.501953,0.412598,0
11200,-1.02246,-0.462891,0.373047,0
11220,-1.02881,-0.431152,0.328125,0
11240,-1.02832,-0.407227,0.28418,0
11260,-1.02148,-0.371094,0.251953,0
11280,-1.00732,-0.332031,0.230469,0
11300,-0.979004,-0.305664,0.21875,0
11320,-0.954102,-0.285645,0.218262,0
11340,-0.941406,-0.288574,0.23584,0
11360,-0.921875,-0.291504,0.235352,0
11380,-0.913086,-0.325195,0.227051,0
11400,-0.901855,-0.349609,0.198242,0
11420,-0.912109,-0.397461,0.183594,0
11440,-0.963867,-0.44043,0.223145,0
11460,-1.02051,-0.455078,0.230957,0
11480,-1.03955,-0.466797,0.187012,0
11500,-1.021,-0.484863,0.138672,0
11520,-0.945312,-0.515137,0.0805664,0
11540,-0.869629,-0.53125,0.0708008,0
11560,-0.828125,-0.537109,0.102539,0
11580,-0.793457,-0.527344,0.128418,0
11600,-0.791504,-0.530273,0.148926,0
11610,-0.827637,-0.558105,0.18457,0
11630,-0.855469,-0.604492,0.17627,0
11650,-0.839355,-0.630859,0.14502,0
11670,-0.79248,-0.614258,0.0864258,0
11690,-0.754395,-0.569336,0.0371094,0
11710,-0.760254,-0.515137,0.0102539,0
11730,-0.802246,-0.493164,-0.0239258,0
11750,-0.837891,-0.492676,-0.0493164,0
11770,-0.880859,-0.540039,-0.027832,0
11790,-0.90332,-0.578125,0.0244141,0
11810,-0.88916,-0.598145,0.0292969,0
11830,-0.84375,-0.615234,0.0268555,0
11850,-0.799805,-0.605469,0.0424805,0
11870,-0.763184,-0.597168,0.059082,0
11890,-0.724609,-0.600586,0.0708008,0
11910,-0.701172,-0.598633,0.074707,0
11930,-0.669434,-0.59668,0.0864258,0
11950,-0.658691,-0.584961,0.123047,0
11970,-0.680176,-0.57959,0.134277,0
11990,-0.672852,-0.608887,0.115234,0
12010,-0.659668,-0.619141,0.101074,0
12030,-0.685059,-0.57666,0.0805664,0
12050,-0.728516,-0.541504,0.111328,0
12070,-0.763672,-0.530762,0.132812,0
12090,-0.81543,-0.525879,0.126465,0
12110,-0.88916,-0.495117,0.124512,0
12130,-0.940918,-0.479492,0.0727539,0
12150,-0.921387,-0.488281,-0.0253906,0
12170,-0.88623,-0.524414,-0.0454102,0
12190,-0.944824,-0.525879,0.0708008,0
12210,-1.0376,-0.487305,0.209961,0
12230,-1.15088,-0.510742,0.319336,0
12250,-1.19385,-0.543945,0.336426,0
12270,-1.13232,-0.556152,0.244141,0
12290,-1.04785,-0.522461,0.155273,0
12310,-0.954102,-0.457031,0.101562,0
12330,-0.89502,-0.379395,0.0947266,0
12350,-0.946289,-0.320312,0.155762,0
12370,-1.11475,-0.348145,0.246094,0
12390,-1.29932,-0.399902,0.263184,0
12410,-1.34717,-0.469727,0.220215,0
12430,-1.28516,-0.498535,0.166992,0
12450,-1.17432,-0.476562,0.0957031,0
12470,-1.07031,-0.401367,0.0522461,0
12490,-0.993652,-0.341797,0.0239258,0
12510,-0.92041,-0.299805,0.015625,0
12530,-0.866211,-0.304688,0.0410156,0
12550,-0.827637,-0.313477,0.0791016,0
12570,-0.783203,-0.317871,0.153809,0
12590,-0.745117,-0.32959,0.217285,0
12610,-0.691406,-0.352051,0.264648,0
12630,-0.657715,-0.387695,0.296875,0
12650,-0.651855,-0.401855,0.333496,0
12670,-0.666504,-0.416992,0.339355,0
12690,-0.680664,-0.419434,0.366699,0
12710,-0.700195,-0.427734,0.377441,0
12730,-0.724121,-0.445801,0.381348,0
12750,-0.773926,-0.466309,0.393555,0
12770,-0.822266,-0.497559,0.380859,0
12790,-0.869141,-0.499023,0.322266,0
12810,-0.905273,-0.505371,0.266602,0
12830,-0.981445,-0.512207,0.229004,0
12850,-1.00195,-0.519531,0.130859,0
12870,-1.03516,-0.561523,0.103516,0
12890,-1.125,-0.60498,0.129395,0
12910,-1.2041,-0.615723,0.131348,0
12930,-1.18604,-0.574219,0.0522461,0
12950,-1.10693,-0.520996,-0.0126953,0
12970,-1.01416,-0.478516,-0.0629883,0
12990,-0.9375,-0.456055,-0.0893555,0
13010,-0.87793,-0.45166,-0.0898438,0
13030,-0.847168,-0.435547,-0.0439453,0
13050,-0.833496,-0.416504,0.0239258,0
13070,-0.83252,-0.418457,0.0976562,0
13090,-0.836914,-0.435547,0.181152,0
13110,-0.845215,-0.466797,0.223145,0
13130,-0.838379,-0.506836,0.221191,0
13150,-0.820801,-0.520508,0.193359,0
13170,-0.789062,-0.533691,0.159668,0
13190,-0.74707,-0.549316,0.131348,0
13210,-0.704102,-0.552734,0.103516,0
13230,-0.674805,-0.553223,0.0834961,0
13250,-0.653809,-0.551758,0.09375,0
13270,-0.645996,-0.564941,0.0917969,0
13290,-0.66748,-0.58252,0.100586,0
13310,-0.700684,-0.597168,0.116699,0
13330,-0.736816,-0.581543,0.124023,0
13350,-0.730469,-0.587402,0.105469,0
13370,-0.708984,-0.57666,0.0693359,0
13390,-0.724609,-0.548828,0.0708008,0
13410,-0.759766,-0.524414,0.0742188,0
13430,-0.828613,-0.509766,0.0722656,0
13450,-0.838379,-0.492676,0.0507812,0
13470,-0.870117,-0.464844,0.0649414,0
13490,-0.942383,-0.43457,0.136719,0
13510,-1.00781,-0.44873,0.179688,0
13530,-1.03662,-0.521973,0.183105,0
13550,-1.06543,-0.586426,0.212891,0
13570,-1.1416,-0.581543,0.270508,0
13590,-1.18115,-0.532227,0.23877,0
13610,-1.10156,-0.46582,0.158691,0
13620,-0.999512,-0.400879,0.0961914,0
13640,-0.923828,-0.349121,0.0712891,0
13660,-0.911621,-0.335938,0.0610352,0
13680,-0.901855,-0.331055,0.0610352,0
13700,-0.911133,-0.324707,0.0830078,0
13720,-0.941406,-0.291504,0.14209,0
13740,-0.977539,-0.265625,0.197754,0
13760,-1.04297,-0.243652,0.259277,0
13780,-1.16943,-0.25293,0.320801,0
13800,-1.24268,-0.272949,0.305664,0
13820,-1.19531,-0.321289,0.213379,0
13840,-1.14062,-0.356934,0.138184,0
13860,-1.0791,-0.344238,0.0991211,0
13880,-1.021,-0.308594,0.0791016,0
13900,-0.981934,-0.265137,0.0834961,0
13920,-0.965332,-0.242676,0.126953,0
13940,-0.938477,-0.220215,0.166504,0
13960,-0.907227,-0.221191,0.194824,0
13980,-0.882324,-0.244629,0.22998,0
14000,-0.854492,-0.254883,0.254883,0
14020,-0.820312,-0.270996,0.286621,0
14040,-0.823242,-0.265625,0.329102,0
14060,-0.833984,-0.271484,0.358887,0
14080,-0.853027,-0.27002,0.370605,0
14100,-0.890625,-0.287598,0.374512,0
14120,-0.924316,-0.307129,0.350098,0
14140,-0.947754,-0.311523,0.309082,0
14160,-0.946777,-0.308105,0.244629,0
14180,-0.9375,-0.282227,0.188477,0
14200,-0.960938,-0.261719,0.166504,0
14220,-1.04199,-0.263184,0.183105,0
14240,-1.12451,-0.291504,0.174805,0
14260,-1.15283,-0.33252,0.146484,0
14280,-1.24805,-0.368164,0.149414,0
14300,-1.31738,-0.354492,0.14502,0
14320,-1.28369,-0.331543,0.0693359,0
14340,-1.16406,-0.312988,-0.00634766,0
14360,-1.0625,-0.302246,-0.0249023,0
14380,-1.00488,-0.291016,-0.00634766,0
14400,-0.965332,-0.293457,0.00439453,0
14420,-0.931152,-0.336426,0.0185547,0
14440,-0.912109,-0.372559,0.0415039,0
14460,-0.900391,-0.399902,0.0737305,0
14480,-0.890625,-0.402344,0.0776367,0
14500,-0.859863,-0.39209,0.0712891,0
14520,-0.835449,-0.387207,0.0576172,0
14540,-0.818359,-0.400391,0.0361328,0
14560,-0.829102,-0.431641,0.03125,0
14580,-0.850586,-0.449219,0.00488281,0
14600,-0.869629,-0.471191,-0.0273438,0
14620,-0.884766,-0.482422,-0.0629883,0
14640,-0.887695,-0.48584,-0.0908203,0
14660,-0.866211,-0.48291,-0.105957,0
14680,-0.827637,-0.483398,-0.0927734,0
14700,-0.791016,-0.495605,-0.0620117,0
14720,-0.769043,-0.51123,-0.0166016,0
14740,-0.75,-0.553223,0.0161133,0
14760,-0.733887,-0.573242,0.027832,0
14780,-0.714844,-0.587891,0.0297852,0
14800,-0.702148,-0.578125,0.0307617,0
14820,-0.713867,-0.577637,0.0229492,0
14840,-0.716309,-0.580078,-0.00634766,0
14860,-0.703125,-0.578613,0.00927734,0
14880,-0.740234,-0.599609,0.027832,0
14900,-0.815918,-0.618652,0.0288086,0
14920,-0.871582,-0.615234,0.015625,0
14940,-0.895508,-0.58252,-0.0307617,0
14960,-0.885742,-0.553711,-0.0532227,0
14980,-0.87793,-0.537109,-0.0327148,0
15000,-0.877441,-0.529297,-0.00634766,0
15020,-0.882324,-0.531738,0.0126953,0
15040,-0.891602,-0.532227,0.0322266,0
15060,-0.914062,-0.534668,0.0585938,0
15080,-0.979492,-0.498535,0.118164,0
15100,-1.01416,-0.444824,0.114258,0
15120,-0.998047,-0.405273,0.0786133,0
15140,-0.936523,-0.378418,0.0439453,0
15160,-0.87207,-0.349609,0.0419922,0
15180,-0.83252,-0.327637,0.0727539,0
15200,-0.819824,-0.305664,0.126465,0
15220,-0.817383,-0.296387,0.189453,0
15240,-0.800781,-0.318359,0.23584,0
15260,-0.811035,-0.328125,0.291504,0
15280,-0.831055,-0.308105,0.33252,0
15300,-0.864258,-0.299316,0.374512,0
15320,-0.913086,-0.286621,0.408691,0
15340,-0.94043,-0.282227,0.368652,0
15360,-0.959961,-0.29541,0.314941,0
15380,-0.986328,-0.293945,0.278809,0
15400,-1.02197,-0.287109,0.253906,0
15420,-1.06152,-0.267578,0.223633,0
15440,-1.08984,-0.242188,0.20752,0
15460,-1.10791,-0.227051,0.198242,0
15480,-1.11914,-0.199219,0.205566,0
15500,-1.13477,-0.185059,0.222168,0
15520,-1.14111,-0.17041,0.226562,0
15540,-1.13379,-0.176758,0.219238,0
15560,-1.12598,-0.174805,0.202637,0
15580,-1.104,-0.1875,0.192871,0
15600,-1.09668,-0.227539,0.21582,0
15620,-1.09424,-0.242676,0.257324,0
15640,-1.03223,-0.296875,0.322754,0
15660,-0.958496,-0.288086,0.375488,0
15680,-0.939941,-0.304199,0.365723,0
15700,-0.946777,-0.283203,0.34668,0
15720,-1.07666,-0.273926,0.359863,0
15740,-1.05176,-0.237305,0.310059,0
15760,-0.927734,-0.223633,0.270508,0
15780,-0.884766,-0.296875,0.264648,0
15800,-0.878906,-0.288574,0.251465,0
15820,-0.903809,-0.34375,0.280273,0
15840,-0.95459,-0.354492,0.284668,0
15860,-1.02783,-0.308105,0.249023,0
15880,-1.08105,-0.255371,0.208984,0
15900,-1.13623,-0.236328,0.210449,0
15920,-1.12793,-0.209473,0.216309,0
15940,-1.04395,-0.168945,0.212402,0
15960,-0.94043,-0.166992,0.25,0
15980,-0.847168,-0.183105,0.310547,0
16000,-0.762207,-0.224121,0.349609,0
16020,-0.705566,-0.283691,0.375977,0
16040,-0.709961,-0.336426,0.384277,0
16060,-0.773926,-0.293457,0.369629,0
16080,-0.855469,-0.294922,0.375977,0
16100,-0.974609,-0.317871,0.414551,0
16120,-1.06934,-0.294922,0.428711,0
16140,-1.12061,-0.227051,0.398926,0
16160,-1.06934,-0.157715,0.357422,0
16180,-0.963867,-0.112305,0.317871,0
16200,-0.89209,-0.125,0.29248,0
16220,-0.879883,-0.20752,0.244629,0
16240,-0.959473,-0.265625,0.214844,0
16260,-1.06738,-0.263184,0.173828,0
16280,-1.13525,-0.250977,0.17041,0
16300,-1.16455,-0.24707,0.182617,0
16320,-1.17383,-0.245605,0.180664,0
16340,-1.16211,-0.23291,0.225098,0
16360,-1.11035,-0.218262,0.282227,0
16380,-1.01172,-0.218262,0.325684,0
16400,-0.987793,-0.289062,0.416016,0
16420,-0.993164,-0.369141,0.478516,0
16440,-1.03125,-0.416504,0.481445,0
16460,-1.06104,-0.438965,0.45752,0
16480,-1.07959,-0.391113,0.381836,0
16500,-1.07227,-0.391602,0.217773,0
16520,-1.06689,-0.365723,0.103516,0
16540,-1.10693,-0.277344,0.0161133,0
16560,-1.06006,-0.196289,-0.0644531,0
16580,-0.991699,-0.131836,-0.0878906,0
16600,-0.925293,-0.130371,-0.0668945,0
16620,-0.87207,-0.192871,0.0102539,0
16640,-0.847168,-0.286621,0.0961914,0
16660,-0.834473,-0.359375,0.20752,0
16680,-0.837402,-0.422363,0.334473,0
16700,-0.84375,-0.453125,0.467285,0
16720,-0.873535,-0.460938,0.556641,0
16740,-0.901855,-0.45166,0.567383,0
16760,-0.846191,-0.43457,0.505859,0
16780,-0.766113,-0.441895,0.46875,0
16800,-0.828125,-0.413086,0.462402,0
16820,-0.819336,-0.313477,0.26416,0
16840,-0.684082,-0.324707,0.0327148,0
16860,-0.611328,-0.424805,-0.114746,0
16880,-0.580078,-0.544434,-0.160156,0
16900,-0.595215,-0.591797,-0.156738,0
16920,-0.681641,-0.492188,0.0234375,0
16940,-0.90625,-0.377441,0.29834,0
16960,-1.03809,-0.294922,0.44043,0
16980,-0.848145,-0.302246,0.368164,0
17000,-0.711914,-0.448242,0.250488,0
17020,-0.672363,-0.633301,0.255371,0
17030,-0.657227,-0.643555,0.196777,0
17050,-0.569824,-0.553711,0.101074,0
17070,-0.556152,-0.497559,0.0810547,0
17090,-0.669922,-0.433105,0.0888672,0
17110,-0.885742,-0.445312,0.121094,0
17130,-1.2002,-0.532715,0.188965,0
17150,-1.25537,-0.518555,0.138672,0
17170,-1.10107,-0.453125,0.0654297,0
17190,-0.966797,-0.503906,0.0454102,0
17210,-0.869629,-0.61084,0.0229492,0
17230,-0.754883,-0.630859,-0.0131836,0
17250,-0.705078,-0.605469,-0.0537109,0
17270,-0.714355,-0.541016,-0.0766602,0
17290,-0.783691,-0.454102,-0.0283203,0
17310,-0.868164,-0.414551,0.0463867,0
17330,-0.998535,-0.495605,0.14209,0
17350,-0.974609,-0.52832,0.243652,0
17370,-0.862793,-0.54834,0.23877,0
17390,-0.793457,-0.602051,0.14502,0
17410,-0.675781,-0.651855,0.0791016,0
17430,-0.647461,-0.702148,0.0722656,0
17450,-0.679688,-0.594727,0.0976562,0
17470,-0.702148,-0.472168,0.122559,0
17490,-0.712891,-0.44043,0.149902,0
17510,-0.769531,-0.450195,0.18457,0
17530,-0.811523,-0.484863,0.178711,0
17550,-0.774414,-0.545898,0.166016,0
17570,-0.756348,-0.601562,0.15332,0
17590,-0.791504,-0.59082,0.114258,0
17610,-0.786621,-0.57959,0.105957,0
17630,-0.766113,-0.570312,0.0883789,0
17650,-0.779785,-0.529297,0.113281,0
17670,-0.87793,-0.45166,0.208496,0
17690,-0.964844,-0.379883,0.270508,0
17710,-1.00049,-0.356445,0.261719,0
17730,-0.988281,-0.35791,0.247559,0
17750,-0.972168,-0.340332,0.242676,0
17770,-0.978027,-0.306152,0.262207,0
17790,-0.985352,-0.316406,0.282715,0
17810,-0.933105,-0.307129,0.272461,0
17830,-0.902832,-0.300781,0.259277,0
17850,-0.958984,-0.234375,0.291016,0
17870,-0.986816,-0.256836,0.262207,0
17890,-0.978516,-0.362305,0.245605,0
17910,-1.02588,-0.417969,0.272949,0
17930,-1.01221,-0.32373,0.29248,0
17950,-0.996582,-0.283691,0.333496,0
17970,-1.06006,-0.272461,0.343262,0
17990,-1.05908,-0.299316,0.35498,0
18010,-0.98584,-0.335938,0.324219,0
18030,-0.94873,-0.3125,0.327637,0
18050,-0.977051,-0.279297,0.313965,0
18070,-1.00781,-0.244629,0.277832,0
18090,-1.06982,-0.290039,0.260254,0
18110,-1.13672,-0.339844,0.246582,0
18130,-1.17969,-0.399414,0.201172,0
18150,-1.17676,-0.33252,0.131348,0
18170,-1.18457,-0.17334,0.0839844,0
18190,-1.18115,-0.19873,0.0131836,0
18210,-1.15332,-0.220703,0.012207,0
18230,-1.11475,-0.311035,0.0439453,0
18250,-1.0874,-0.287598,0.0917969,0
18270,-1.09082,-0.262695,0.121582,0
18290,-1.09863,-0.277832,0.172363,0
18310,-1.05078,-0.299316,0.219238,0
18330,-1.0249,-0.255371,0.219238,0
18350,-0.995117,-0.245117,0.174316,0
18370,-1.02441,-0.232422,0.12793,0
18390,-1.03369,-0.208496,0.123535,0
18410,-0.974609,-0.15918,0.0327148,0
18430,-1.02832,-0.237305,-0.00244141,0
18450,-1.02246,-0.22998,0.0727539,0
18470,-0.97168,-0.288574,0.164551,0
18490,-0.950684,-0.27002,0.210449,0
18510,-0.841797,-0.369141,0.278809,0
18530,-0.783691,-0.372559,0.315918,0
18550,-0.793457,-0.273438,0.331055,0
18570,-0.814941,-0.214844,0.316406,0
18590,-0.896484,-0.236816,0.296387,0
18610,-0.891602,-0.298828,0.248535,0
18630,-0.946289,-0.370605,0.17334,0
18650,-0.935059,-0.288086,0.155762,0
18670,-0.946289,-0.218262,0.149414,0
18690,-0.902344,-0.201172,0.148438,0
18710,-0.900391,-0.229492,0.109863,0
18730,-0.989258,-0.383301,0.161621,0
18750,-0.982422,-0.474121,0.157715,0
18770,-0.977051,-0.462402,0.065918,0
18790,-1.04004,-0.429688,0.0629883,0
18810,-1.07715,-0.435547,0.027832,0
18830,-1.08643,-0.377441,0.0708008,0
18850,-1.05322,-0.25,0.078125,0
18870,-1.05371,-0.27002,0.0859375,0
18890,-1.05615,-0.30127,0.103027,0
18910,-1.07715,-0.247559,0.074707,0
18930,-1.02734,-0.311523,0.0996094,0
18950,-0.981445,-0.473145,0.18457,0
18960,-0.881348,-0.518066,0.171875,0
18990,-0.897461,-0.410645,0.125488,0
19010,-0.919434,-0.412598,0.11377,0
19020,-0.901855,-0.45459,0.0966797,0
19040,-0.929199,-0.464844,0.0693359,0
19060,-0.972656,-0.435059,0.078125,0
19080,-0.960938,-0.371582,0.0620117,0
19100,-1.01758,-0.327148,0.0629883,0
19120,-1.04102,-0.352539,0.0913086,0
19140,-0.994141,-0.390625,0.155273,0
19160,-1,-0.366211,0.259766,0
19180,-0.900879,-0.319824,0.288086,0
19200,-0.847168,-0.330566,0.237793,0
19220,-0.861816,-0.390137,0.360352,0
19240,-0.808105,-0.464355,0.348145,0
19240,-0.803223,-0.462891,0.37793,0
19260,-0.850098,-0.366211,0.329102,0
19270,-0.853516,-0.37793,0.26123,0
19290,-0.87207,-0.452148,0.244629,0
19310,-0.862793,-0.447266,0.210938,0
19330,-0.862305,-0.452637,0.208496,0
19350,-0.911133,-0.383789,0.18457,0
19370,-0.899414,-0.458984,0.142578,0
19390,-0.895996,-0.483398,0.124512,0
19410,-0.895508,-0.449707,0.128418,0
19430,-0.905273,-0.391113,0.129883,0
19450,-0.918945,-0.385742,0.140625,0
19470,-0.92041,-0.42627,0.143066,0
19490,-0.92041,-0.46582,0.169434,0
19510,-0.92041,-0.497559,0.17334,0
19530,-0.911133,-0.508789,0.203613,0
19550,-0.882812,-0.510254,0.20752,0
19570,-0.896973,-0.501465,0.187012,0
19590,-0.898926,-0.546387,0.227539,0
19610,-0.860352,-0.577637,0.213867,0
19630,-0.856934,-0.551758,0.235352,0
19650,-0.849121,-0.574219,0.228516,0
19670,-0.802734,-0.614258,0.213867,0
19690,-0.775391,-0.674805,0.187012,0
19710,-0.778809,-0.69043,0.151855,0
19730,-0.789551,-0.685547,0.121582,0
19750,-0.794922,-0.654297,0.0551758,0
19770,-0.817383,-0.625,-0.00585938,0
19790,-0.773438,-0.621094,0,0
19810,-0.700195,-0.648926,0.0561523,0
19830,-0.680664,-0.677246,0.0917969,0
19850,-0.620117,-0.682129,0.162109,0
19870,-0.550781,-0.704102,0.153809,0
19890,-0.475586,-0.632324,0.176758,0
19910,-0.450684,-0.653809,0.132812,0
19930,-0.402344,-0.671875,0.128906,0
19950,-0.350098,-0.775391,0.0595703,0
19970,-0.341797,-0.813965,0.0864258,0
19990,-0.338867,-0.782227,0.152344,0
20010,-0.36377,-0.826172,0.144043,0
20030,-0.530273,-0.76709,0.210938,0
20050,-0.660645,-0.685059,0.173828,0
20070,-0.691406,-0.625977,0.12793,0
20090,-0.743164,-0.633301,0.103027,0
20110,-0.782715,-0.663574,0.0839844,0
20130,-0.777344,-0.720703,0.109863,0
20150,-0.781738,-0.722168,0.11084,0
20170,-0.812988,-0.665527,0.111328,0
20190,-0.77832,-0.693848,0.137695,0
20210,-0.713867,-0.726074,0.155762,0
20230,-0.721191,-0.739258,0.208008,0
20250,-0.705566,-0.741211,0.246094,0
20270,-0.672852,-0.771484,0.251953,0
20290,-0.633789,-0.747559,0.255371,0
20310,-0.619629,-0.708496,0.275879,0
20330,-0.611816,-0.710449,0.324219,0
20350,-0.602051,-0.710449,0.350098,0
20370,-0.594238,-0.706543,0.375977,0
20390,-0.605957,-0.682129,0.40332,0
20410,-0.617188,-0.71582,0.361328,0
20430,-0.558594,-0.722656,0.404785,0
20450,-0.54248,-0.619629,0.439941,0
20470,-0.588379,-0.54541,0.493652,0
20490,-0.641602,-0.598633,0.575684,0
20510,-0.712891,-0.662598,0.604004,0
20530,-0.760742,-0.652344,0.619141,0
20550,-0.791504,-0.598145,0.598145,0
20570,-0.806152,-0.541992,0.571777,0
20590,-0.791504,-0.536621,0.525879,0
20610,-0.74707,-0.553223,0.514648,0
20630,-0.706055,-0.545898,0.511719,0
20650,-0.649902,-0.525879,0.500488,0
20670,-0.604492,-0.539062,0.517578,0
20690,-0.561035,-0.571777,0.544434,0
20710,-0.540527,-0.586914,0.572754,0
20730,-0.536133,-0.572266,0.598145,0
20750,-0.540039,-0.558594,0.603516,0
20770,-0.539062,-0.557129,0.62793,0
20790,-0.535645,-0.540039,0.658691,0
20810,-0.533691,-0.530762,0.652832,0
20830,-0.563477,-0.510742,0.669434,0
20850,-0.569824,-0.526855,0.652344,0
20870,-0.556152,-0.532227,0.65332,0
20890,-0.53418,-0.502441,0.634277,0
20910,-0.516113,-0.501953,0.630371,0
20930,-0.552246,-0.524902,0.621094,0
20950,-0.57666,-0.540039,0.621094,0
20970,-0.584473,-0.512695,0.613281,0
20990,-0.575684,-0.565918,0.602539,0
21010,-0.614258,-0.587402,0.602051,0
21030,-0.629395,-0.589355,0.594238,0
21050,-0.630371,-0.58252,0.538574,0
21070,-0.631836,-0.567383,0.51709,0
21090,-0.657715,-0.5625,0.515625,0
21110,-0.65918,-0.562012,0.497559,0
21130,-0.638184,-0.563965,0.504395,0
21150,-0.633789,-0.535156,0.526367,0
21170,-0.633789,-0.524902,0.51123,0
21190,-0.625977,-0.511719,0.495117,0
21210,-0.608887,-0.476074,0.48584,0
21230,-0.606445,-0.476562,0.51123,0
21240,-0.621094,-0.475098,0.527832,0
21260,-0.640625,-0.494629,0.54834,0
21280,-0.630371,-0.474609,0.523438,0
21300,-0.617188,-0.450684,0.518066,0
21320,-0.602051,-0.449219,0.556641,0
21340,-0.633301,-0.511719,0.607422,0
21360,-0.666016,-0.555176,0.62793,0
21380,-0.676758,-0.530762,0.596191,0
21400,-0.628906,-0.505859,0.50293,0
21420,-0.580078,-0.487305,0.487793,0
21440,-0.622559,-0.483398,0.519043,0
21460,-0.649414,-0.510742,0.55127,0
21480,-0.679199,-0.50293,0.543945,0
21500,-0.708008,-0.486816,0.523926,0
21520,-0.734863,-0.46582,0.487305,0
21540,-0.783203,-0.427734,0.469727,0
21560,-0.809082,-0.381836,0.497559,0
21580,-0.850098,-0.366211,0.533691,0
21600,-0.884277,-0.362793,0.533203,0
21620,-0.82666,-0.323242,0.506348,0
21640,-0.780762,-0.249023,0.515137,0
21660,-0.77832,-0.23877,0.511719,0
21680,-0.77002,-0.28418,0.516113,0
21700,-0.750977,-0.319336,0.51416,0
21720,-0.719727,-0.346191,0.522949,0
21740,-0.672852,-0.349609,0.536133,0
21760,-0.657227,-0.365723,0.539062,0
21780,-0.666016,-0.379883,0.539062,0
21800,-0.672363,-0.406738,0.506348,0
21820,-0.663574,-0.405273,0.474609,0
21840,-0.682129,-0.45752,0.506836,0
21860,-0.686523,-0.482422,0.528809,0
21880,-0.729004,-0.429688,0.537109,0
21900,-0.77002,-0.373047,0.550781,0
21920,-0.801758,-0.381836,0.516113,0
21940,-0.799805,-0.34375,0.484863,0
21960,-0.782715,-0.258789,0.440918,0
21980,-0.750977,-0.247559,0.455566,0
22000,-0.68457,-0.297363,0.494629,0
22020,-0.637695,-0.317383,0.516113,0
22040,-0.606934,-0.423828,0.535156,0
22060,-0.616211,-0.526855,0.496582,0
22080,-0.556152,-0.466797,0.51416,0
22100,-0.549805,-0.398438,0.540527,0
22120,-0.533203,-0.436035,0.501465,0
22140,-0.48584,-0.426758,0.470703,0
22160,-0.446777,-0.475098,0.493652,0
22180,-0.404785,-0.522461,0.546387,0
22200,-0.405762,-0.527832,0.549805,0
22220,-0.367676,-0.491211,0.532227,0
22240,-0.300293,-0.490723,0.48584,0
22260,-0.227051,-0.515625,0.523926,0
22280,-0.182129,-0.536621,0.538086,0
22300,-0.144531,-0.542969,0.54541,0
22320,-0.112305,-0.54248,0.518066,0
22340,-0.065918,-0.602051,0.499512,0
22370,-0.42041,-0.63916,0.731445,0
22390,-0.272949,-0.675293,0.755371,0
22410,-0.109863,-0.682129,0.914551,0
22430,-0.0512695,-0.705078,1.02344,0
22450,-0.0229492,-0.851074,0.88916,0
22470,0.0400391,-0.949219,0.72168,0
22490,0.0107422,-0.874512,0.685547,0
22510,-0.0507812,-0.832031,0.693848,0
22530,-0.0141602,-0.944824,0.710449,0
22550,0.0703125,-1.06006,0.733887,0
22570,0.186523,-1.11133,0.827148,0
22590,0.183594,-1.14014,0.921387,0
22610,-0.0771484,-1.26953,0.813477,0
22630,-0.246582,-1.49512,0.429688,0
22650,-0.152344,-1.30615,0.160156,0
22670,-0.0126953,-1.07422,0.141113,0
22690,-0.03125,-1.07227,0.15918,0
22710,-0.046875,-1.2207,0.0854492,0
22730,-0.0390625,-1.13428,0.0166016,0
22750,-0.0419922,-0.80957,0.0078125,0
22770,-0.00439453,-0.774414,-0.0712891,0
22790,0.111816,-0.868652,0.0102539,0
22810,0.0893555,-0.985352,0.0893555,0
22830,0.144531,-0.988281,0.143555,0
22850,0.107422,-0.919922,0.0302734,0
22870,-0.0209961,-0.852051,-0.10791,0
22890,-0.0507812,-0.85791,-0.0932617,0
22910,0.0961914,-1.01514,-0.0522461,0
22930,0.0859375,-1.10059,-0.078125,0
22950,-0.0302734,-1.04199,-0.149902,0
22970,-0.0341797,-0.947754,-0.0908203,0
22990,0.0742188,-0.937012,-0.0825195,0
23010,0.193359,-0.94043,-0.0996094,0
23030,0.144043,-0.894531,-0.0332031,0
23050,-0.00244141,-0.890625,0.0170898,0
23070,-0.034668,-0.968262,-0.0571289,0
23090,-0.078125,-1.03809,-0.15332,0
23110,-0.050293,-1.03418,-0.251465,0
23130,-0.0605469,-1.03223,-0.275879,0
23150,-0.105469,-1.02588,-0.243164,0
23170,-0.0180664,-1.07129,-0.181152,0
23190,-0.0170898,-1.04736,-0.160156,0
23210,-0.0644531,-0.937012,-0.19873,0
23230,-0.0512695,-0.861816,-0.193848,0
23250,-0.00244141,-0.887207,-0.158691,0
23270,0.027832,-0.939453,-0.110352,0
23290,0.00976562,-0.963867,-0.13916,0
23310,0.0288086,-0.976074,-0.180176,0
23330,0.065918,-0.974121,-0.186523,0
23350,0.0751953,-1,-0.191406,0
23370,0.0712891,-1.01807,-0.208496,0
23390,0.0947266,-1.03125,-0.17627,0
23410,0.19043,-0.997559,-0.143555,0
23430,0.249023,-1.02783,-0.158691,0
23450,0.233887,-1.06396,-0.13916,0
23470,0.21582,-1.02002,-0.130859,0
23490,0.203613,-1.00879,-0.154297,0
23510,0.182129,-0.98877,-0.151367,0
23530,0.160156,-0.965332,-0.146484,0
23550,0.132324,-0.95459,-0.170898,0
23570,0.134766,-0.98877,-0.178711,0
23590,0.146973,-0.997559,-0.165527,0
23610,0.186523,-0.960449,-0.137207,0
23630,0.225098,-0.955078,-0.178711,0
23650,0.26416,-0.950684,-0.201172,0
23670,0.276367,-0.950195,-0.203125,0
23690,0.291504,-0.945801,-0.21875,0
23710,0.290527,-0.933594,-0.204102,0
23730,0.289551,-0.896484,-0.191406,0
23750,0.30127,-0.888672,-0.196289,0
23770,0.303223,-0.877441,-0.181641,0
23790,0.300781,-0.874023,-0.14502,0
23810,0.320801,-0.899414,-0.150879,0
23830,0.326172,-0.90625,-0.158691,0
23850,0.337891,-0.908691,-0.155273,0
23870,0.348633,-0.921387,-0.134766,0
23890,0.362793,-0.9375,-0.102539,0
23910,0.410645,-0.926758,-0.0732422,0
23930,0.431152,-0.918945,-0.0878906,0
23950,0.397949,-0.931641,-0.0932617,0
23970,0.394531,-0.987793,-0.106445,0
23990,0.359375,-1.00439,-0.124512,0
24010,0.344727,-0.947754,-0.133301,0
24030,0.350586,-0.956543,-0.13916,0
24050,0.359863,-0.993164,-0.132812,0
24070,0.359375,-1.00879,-0.133789,0
24090,0.36084,-0.967773,-0.133789,0
24110,0.39502,-0.941406,-0.117676,0
24130,0.400879,-0.913574,-0.106445,0
24150,0.408203,-0.901367,-0.102051,0
24170,0.39502,-0.887695,-0.102051,0
24190,0.382324,-0.850098,-0.116699,0
24210,0.363281,-0.895508,-0.130371,0
24230,0.362793,-0.958496,-0.0581055,0
24250,0.320801,-0.958496,-0.0473633,0
24270,0.306152,-0.990723,-0.110352,0
24280,0.336914,-0.980469,-0.154785,0
24300,0.325684,-0.933105,-0.174805,0
24320,0.335449,-0.981445,-0.197754,0
24340,0.369629,-1.04248,-0.202148,0
24360,0.38916,-1.04785,-0.213867,0
24380,0.409668,-1.02441,-0.243164,0
24400,0.378418,-0.998047,-0.236328,0
24420,0.346191,-1.01123,-0.23877,0
24440,0.349609,-1.01172,-0.237793,0
24460,0.318848,-0.974121,-0.228516,0
24480,0.307129,-0.930664,-0.221191,0
24500,0.327637,-0.931641,-0.209473,0
24520,0.344238,-0.955078,-0.208496,0
24540,0.338379,-0.909668,-0.243652,0
24560,0.344238,-0.876953,-0.250488,0
24580,0.353027,-0.882812,-0.26709,0
24600,0.381836,-0.887207,-0.269531,0
24620,0.403809,-0.89209,-0.285645,0
24640,0.396484,-0.86377,-0.279297,0
24660,0.412109,-0.863281,-0.294922,0
24680,0.431641,-0.862305,-0.282715,0
24700,0.440918,-0.871582,-0.296387,0
24720,0.457031,-0.86377,-0.314941,0
24740,0.467773,-0.859375,-0.300293,0
24760,0.474609,-0.907227,-0.265625,0
24780,0.47998,-0.908691,-0.356445,0
24800,0.40625,-0.783691,-0.321777,0
24820,0.334961,-0.757324,-0.313477,0
24840,0.297852,-0.861816,-0.269043,0
24860,0.3125,-0.902344,-0.266602,0
24880,0.364258,-0.85498,-0.297852,0
24900,0.417969,-0.799316,-0.301758,0
24920,0.447754,-0.78418,-0.238281,0
24940,0.46875,-0.822266,-0.22168,0
24960,0.499023,-0.882324,-0.312988,0
24980,0.504395,-0.855957,-0.376953,0
25000,0.491699,-0.833984,-0.373047,0
25020,0.439941,-0.82959,-0.366699,0
25040,0.350586,-0.810547,-0.227051,0
25060,0.260742,-0.914551,-0.196777,0
25080,0.227051,-1.09961,-0.186523,0
25100,0.174316,-1.12598,-0.151367,0
25120,0.15918,-0.994141,-0.214844,0
25140,0.181641,-0.921875,-0.286621,0
25160,0.285645,-0.932617,-0.314453,0
25180,0.398438,-0.952637,-0.327148,0
25200,0.491211,-0.922363,-0.310059,0
25220,0.584473,-0.882324,-0.261719,0
25250,0.600586,-0.826172,-0.370605,0
25280,0.612793,-0.797363,-0.431152,0
25300,0.593262,-0.792969,-0.460938,0
25320,0.608887,-0.703613,-0.430664,0
25340,0.605469,-0.706543,-0.426758,0
25360,0.572754,-0.76709,-0.444824,0
25380,0.535156,-0.766602,-0.422852,0
25400,0.487305,-0.675781,-0.384277,0
25420,0.481445,-0.622559,-0.353027,0
25440,0.469727,-0.717285,-0.361816,0
25460,0.53418,-0.846191,-0.41748,0
25480,0.586426,-0.879395,-0.450684,0
25500,0.562988,-0.790527,-0.472168,0
25520,0.547363,-0.776855,-0.483887,0
25540,0.560547,-0.841797,-0.495117,0
25560,0.526855,-0.776855,-0.48291,0
25580,0.54248,-0.75293,-0.496582,0
25600,0.561523,-0.782227,-0.499512,0
25620,0.533691,-0.820801,-0.479492,0
25640,0.502441,-0.779297,-0.467285,0
25660,0.435547,-0.705078,-0.506836,0
25680,0.419922,-0.620605,-0.562988,0
25700,0.405273,-0.525391,-0.58252,0
25720,0.394531,-0.448242,-0.620605,0
25740,0.416992,-0.372559,-0.654785,0
25760,0.414062,-0.344727,-0.622559,0
25780,0.439453,-0.354004,-0.60791,0
25800,0.462891,-0.43457,-0.615234,0
25820,0.469727,-0.474121,-0.624023,0
25850,0.544922,-0.515137,-0.63916,0
25870,0.578125,-0.572754,-0.608398,0
25890,0.591797,-0.637207,-0.579102,0
25910,0.574707,-0.683594,-0.51709,0
25930,0.538086,-0.661621,-0.444336,0
25950,0.457031,-0.617676,-0.370605,0
25970,0.370117,-0.543457,-0.289062,0
25990,0.345215,-0.474609,-0.296875,0
26010,0.337402,-0.446289,-0.282227,0
26030,0.412598,-0.504883,-0.240234,0
26050,0.448242,-0.605469,-0.166992,0
26070,0.526855,-0.628418,-0.135254,0
26090,0.69873,-0.736328,-0.176758,0
26110,0.746094,-0.927246,-0.1875,0
26130,0.732422,-1.04932,-0.226074,0
26150,0.711914,-1.1499,-0.174316,0
26170,0.67334,-1.08447,-0.138672,0
26190,0.638672,-0.927246,-0.0825195,0
26210,0.554199,-0.856934,-0.0395508,0
26230,0.46582,-0.797363,-0.0126953,0
26250,0.417969,-0.77832,0.019043,0
26270,0.414551,-0.851074,0.0102539,0
26290,0.388184,-0.811035,0.0581055,0
26310,0.450684,-0.808105,0.184082,0
26330,0.569824,-0.830566,0.244141,0
26350,0.585449,-0.745605,0.217773,0
26370,0.60498,-0.750977,0.264648,0
26390,0.601074,-0.775391,0.322266,0
26410,0.529785,-0.816895,0.29248,0
26430,0.505859,-0.849609,0.274414,0
26450,0.507324,-0.86377,0.375977,0
26470,0.447266,-0.905762,0.445312,0
26490,0.453125,-0.875,0.469238,0
26510,0.462402,-0.882812,0.581055,0
26530,0.446777,-0.797852,0.579102,0
26550,0.357422,-0.791016,0.50293,0
26570,0.314941,-0.904297,0.527344,0
26590,0.271973,-0.957031,0.611816,0
26610,0.264648,-0.871094,0.612305,0
26630,0.187988,-0.810547,0.616699,0
26650,0.157227,-0.812988,0.59082,0
26670,0.111816,-0.806641,0.572266,0
26690,0.0712891,-0.833008,0.563965,0
26710,0.0380859,-0.811523,0.574219,0
26730,0.000488281,-0.757324,0.616699,0
26750,0.0146484,-0.743164,0.607422,0
26770,0.00585938,-0.751465,0.621094,0
26790,0.00292969,-0.708984,0.640625,0
26810,-0.00244141,-0.72168,0.617676,0
26830,-0.0297852,-0.72998,0.621094,0
26850,-0.0390625,-0.741699,0.609863,0
26870,-0.0493164,-0.733398,0.61084,0
26890,-0.0634766,-0.75,0.603027,0
26910,-0.0537109,-0.732422,0.60791,0
26930,-0.0649414,-0.743164,0.622559,0
26950,-0.0463867,-0.754395,0.623047,0
26970,-0.065918,-0.73584,0.644531,0
26990,-0.065918,-0.729004,0.634277,0
27010,-0.0551758,-0.730957,0.640625,0
27030,-0.0327148,-0.711914,0.621582,0
27050,-0.0605469,-0.695801,0.617676,0
27070,-0.0854492,-0.705078,0.64209,0
27090,-0.101562,-0.726562,0.641113,0
27110,-0.101074,-0.708496,0.605957,0
27130,-0.109863,-0.700684,0.62793,0
27150,-0.0981445,-0.714844,0.620117,0
27170,-0.124023,-0.697754,0.638672,0
27190,-0.108398,-0.702637,0.666992,0
27210,-0.123535,-0.711914,0.655273,0
27230,-0.106934,-0.720215,0.634277,0
27250,-0.113281,-0.695312,0.63623,0
27270,-0.109375,-0.696777,0.643066,0
27290,-0.105957,-0.698242,0.645996,0
27310,-0.0957031,-0.682129,0.640137,0
27330,-0.105957,-0.671875,0.65332,0
27350,-0.103027,-0.666992,0.649414,0
27370,-0.09375,-0.660645,0.660645,0
27390,-0.0913086,-0.664062,0.658203,0
27410,-0.0927734,-0.663574,0.654297,0
27430,-0.0942383,-0.650879,0.648926,0
27450,-0.0913086,-0.681152,0.661621,0
27470,-0.0908203,-0.666504,0.671387,0
27490,-0.0917969,-0.677246,0.674805,0
27510,-0.100586,-0.689453,0.67627,0
27520,-0.0991211,-0.701172,0.659668,0
27540,-0.10498,-0.701172,0.654297,0
27560,-0.10498,-0.687012,0.650391,0
27580,-0.0976562,-0.687012,0.659668,0
27600,-0.102051,-0.689453,0.669434,0
27620,-0.100098,-0.694824,0.674805,0
27640,-0.104492,-0.677734,0.661133,0
27660,-0.101074,-0.675781,0.657227,0
27680,-0.109375,-0.677246,0.663086,0
27700,-0.0942383,-0.67041,0.662109,0
27720,-0.113281,-0.67041,0.662109,0
27740,-0.113281,-0.671875,0.659668,0
27760,-0.114258,-0.669434,0.657227,0
27780,-0.115234,-0.658203,0.661621,0
27800,-0.117188,-0.678223,0.66748,0
27820,-0.108398,-0.668457,0.657715,0
27840,-0.108887,-0.669922,0.655762,0
27860,-0.101562,-0.673828,0.663086,0
27880,-0.103516,-0.675293,0.668457,0
27900,-0.103516,-0.672363,0.665039,0
27920,-0.0942383,-0.678711,0.655273,0
27940,-0.0942383,-0.679688,0.66748,0
27960,-0.0854492,-0.670898,0.664062,0
27980,-0.0859375,-0.673828,0.662598,0
28000,-0.081543,-0.673828,0.660645,0
28020,-0.0859375,-0.682617,0.665039,0
28040,-0.0834961,-0.67334,0.665039,0
28060,-0.0883789,-0.679688,0.665527,0
28080,-0.0893555,-0.678711,0.656738,0
28100,-0.0849609,-0.686035,0.66748,0
28120,-0.0849609,-0.67627,0.664062,0
28140,-0.0878906,-0.677246,0.662109,0
28160,-0.0844727,-0.681641,0.662109,0
28180,-0.0864258,-0.678711,0.666016,0
28200,-0.0825195,-0.680664,0.655273,0
28220,-0.0810547,-0.686523,0.657227,0
28240,-0.0839844,-0.681641,0.666992,0
28260,-0.0756836,-0.672852,0.648438,0
28280,-0.074707,-0.67041,0.648926,0
28300,-0.074707,-0.684082,0.660156,0
28320,-0.0766602,-0.675781,0.662109,0
28340,-0.0820312,-0.674805,0.663086,0
28360,-0.0722656,-0.68457,0.652832,0
28380,-0.0703125,-0.691406,0.65918,0
28400,-0.074707,-0.675781,0.650391,0
28420,-0.0703125,-0.671387,0.657715,0
28440,-0.065918,-0.678223,0.664062,0
28460,-0.0771484,-0.678711,0.666992,0
28480,-0.0703125,-0.679199,0.666016,0
28500,-0.0576172,-0.688965,0.668457,0
28520,-0.0537109,-0.693848,0.65918,0
28540,-0.0488281,-0.693359,0.646484,0
28560,-0.0483398,-0.701172,0.647461,0
28580,-0.0419922,-0.694336,0.652344,0
28600,-0.0419922,-0.685059,0.658203,0
28620,-0.0332031,-0.693848,0.647949,0
28640,-0.034668,-0.67627,0.637207,0
28660,-0.027832,-0.67041,0.63623,0
28680,-0.027832,-0.678223,0.617676,0
28700,-0.0224609,-0.681152,0.625488,0
28720,-0.0419922,-0.710449,0.65625,0
28740,-0.0380859,-0.75293,0.630371,0
28760,-0.0327148,-0.734375,0.624023,0
28780,-0.0268555,-0.742676,0.632812,0
28800,-0.0209961,-0.760254,0.635742,0
28820,-0.0200195,-0.758301,0.632324,0
28840,-0.0268555,-0.768066,0.62207,0
28860,-0.00195312,-0.765625,0.606934,0
28880,0.012207,-0.756348,0.590332,0
28900,0.0209961,-0.742188,0.59082,0
28920,0.0390625,-0.765625,0.588379,0
28940,0.046875,-0.748047,0.541016,0
28960,-0.00292969,-0.726074,0.595703,0
28980,-0.0078125,-0.739746,0.593262,0
29000,-0.00634766,-0.703613,0.57959,0
29020,0.000976562,-0.712891,0.583496,0
29040,-0.00585938,-0.722168,0.574707,0
29060,-0.00390625,-0.737305,0.570312,0
29080,0.00634766,-0.727051,0.584473,0
29100,0.0268555,-0.741699,0.603027,0
29120,0.0400391,-0.745117,0.606934,0
29140,0.0380859,-0.756836,0.59375,0
29160,0.0493164,-0.741699,0.584961,0
29180,0.0688477,-0.747559,0.592285,0
29200,0.0595703,-0.727539,0.598145,0
29220,0.0581055,-0.734863,0.600586,0
29240,0.0620117,-0.711914,0.577148,0
29260,0.078125,-0.697754,0.564453,0
29280,0.0800781,-0.695312,0.5625,0
29300,0.074707,-0.708984,0.605957,0
29320,0.0410156,-0.683594,0.62793,0
29340,0.03125,-0.705078,0.633301,0
29360,0.0332031,-0.735352,0.620117,0
29380,0.0234375,-0.727539,0.624512,0
29400,0.0234375,-0.73584,0.619629,0
29420,0.0112305,-0.73584,0.627441,0
29440,0.00927734,-0.738281,0.626953,0
29460,0.00146484,-0.736816,0.623535,0
29480,0.0126953,-0.724609,0.63623,0
29500,0.00634766,-0.722656,0.63916,0
29510,0.0107422,-0.725586,0.645996,0
29530,0.0205078,-0.712891,0.631348,0
29550,0.0224609,-0.713867,0.63623,0
29570,0.0263672,-0.710449,0.621094,0
29590,0.0195312,-0.716309,0.632324,0
29610,0.0175781,-0.705078,0.636719,0
29630,0.0395508,-0.713379,0.619141,0
29650,0.0327148,-0.711426,0.611816,0
29670,0.0317383,-0.702148,0.614746,0
29690,0.0307617,-0.708984,0.612793,0
29710,0.0395508,-0.703125,0.595703,0
29730,0.0292969,-0.697754,0.62207,0
29750,0.0322266,-0.73291,0.600098,0
29770,0.0180664,-0.741699,0.614746,0
29790,-0.00244141,-0.726074,0.615234,0
29810,0.00537109,-0.754395,0.617676,0
29830,0.0107422,-0.745605,0.615234,0
29850,0.0253906,-0.754883,0.609375,0
29870,0.0292969,-0.75,0.609863,0
29890,0.0292969,-0.764648,0.612305,0
29910,0.0141602,-0.766602,0.609863,0
29930,0.0136719,-0.755371,0.587402,0
29950,-0.00634766,-0.756836,0.59375,0
29970,0.0126953,-0.761719,0.59375,0
29990,0.0126953,-0.724609,0.597656,0
30010,0.0253906,-0.739746,0.584961,0
30030,0.0107422,-0.740723,0.593262,0
30050,0.0273438,-0.747559,0.576172,0
30070,0.0253906,-0.746582,0.561035,0
30090,0.0297852,-0.76123,0.570312,0
30120,0.034668,-0.736816,0.606445,0
30140,0.0556641,-0.743164,0.57959,0
30160,0.0356445,-0.731934,0.581543,0
30180,0.059082,-0.775391,0.556152,0
30200,0.0141602,-0.785156,0.581055,0
30220,0.0668945,-0.827637,0.576172,0
30240,0.0908203,-0.817871,0.592285,0
30260,0.141602,-0.827637,0.583008,0
30280,0.14209,-0.840332,0.587402,0
30300,0.173828,-0.877441,0.568359,0
30320,0.249023,-0.89209,0.518555,0
30340,0.26709,-0.878906,0.531738,0
30360,0.28418,-0.887695,0.51709,0
30380,0.303223,-0.904785,0.480957,0
30400,0.348145,-0.925781,0.500488,0
30420,0.375977,-0.973145,0.483398,0
30440,0.384766,-0.973145,0.43457,0
30460,0.446289,-0.991699,0.427246,0
30480,0.405762,-1.05273,0.423828,0
30500,0.362305,-1.10303,0.37207,0
30520,0.36084,-1.05469,0.346191,0
30540,0.351562,-0.908691,0.366211,0
30560,0.289062,-0.854004,0.382812,0
30580,0.306641,-0.748047,0.30127,0
30600,0.313477,-0.814453,0.25,0
30620,0.333008,-0.904297,0.225098,0
30640,0.254395,-0.805664,0.245117,0
30660,0.337891,-0.851562,0.0566406,0
30680,0.408203,-0.8125,-0.0161133,0
30700,0.40918,-0.874512,-0.0717773,0
30720,0.429688,-1.01025,-0.0268555,0
30740,0.430664,-0.964355,-0.107422,0
30760,0.398438,-0.856934,-0.078125,0
30780,0.384277,-0.84082,-0.0449219,0
30800,0.401855,-0.901367,-0.12207,0
30820,0.405273,-0.919434,-0.179199,0
30840,0.409668,-0.864258,-0.20166,0
30860,0.38916,-0.933105,-0.237793,0
30880,0.379883,-1.09766,-0.360352,0
30900,0.47168,-1.16309,-0.456543,0
30920,0.51123,-0.986816,-0.361328,0
30940,0.396973,-0.853516,-0.254883,0
30960,0.365723,-0.813477,-0.278809,0
30980,0.371094,-0.775879,-0.339355,0
31000,0.308105,-0.703613,-0.370605,0
31020,0.220215,-0.748535,-0.353027,0
31040,0.177734,-0.75293,-0.367676,0
31060,0.109375,-0.723633,-0.463867,0
31080,0.0883789,-0.675293,-0.547852,0
31100,0.0761719,-0.734863,-0.556152,0
31120,0.0195312,-0.684082,-0.562988,0
31140,-0.0234375,-0.660645,-0.653809,0
31160,-0.0371094,-0.706055,-0.743164,0
31180,-0.00537109,-0.710449,-0.752441,0
31200,0.0649414,-0.716309,-0.77002,0
31220,0.0273438,-0.708984,-0.756836,0
31240,0.0854492,-0.687988,-0.703613,0
31260,0.137207,-0.69873,-0.683105,0
31280,0.15918,-0.744141,-0.685547,0
31300,0.183105,-0.749023,-0.658203,0
31320,0.197754,-0.757324,-0.631836,0
31340,0.182617,-0.789551,-0.624023,0
31360,0.155273,-0.808105,-0.611816,0
31380,0.147949,-0.792969,-0.582031,0
31400,0.107422,-0.787109,-0.564453,0
31420,0.0385742,-0.784668,-0.584961,0
31440,0.00488281,-0.797363,-0.649414,0
31460,0.0253906,-0.834473,-0.731445,0
31480,-0.0283203,-0.859863,-0.740723,0
31500,-0.0341797,-0.84375,-0.741699,0
31520,-0.0429688,-0.84082,-0.768066,0
31540,-0.0205078,-0.849609,-0.790039,0
31560,0.0131836,-0.844727,-0.803223,0
31580,0.0610352,-0.849609,-0.796387,0
31600,0.117676,-0.842285,-0.749023,0
31620,0.097168,-0.854004,-0.717285,0
31640,0.0839844,-0.762207,-0.632324,0
31660,0.0454102,-0.69043,-0.617188,0
31680,0.0205078,-0.739258,-0.698242,0
31700,0.0996094,-0.824707,-0.733887,0
31720,0.115723,-0.775879,-0.713379,0
31740,0.0947266,-0.786133,-0.744629,0
31760,0.114258,-0.879395,-0.759766,0
31780,0.137207,-0.926758,-0.726562,0
31800,0.155273,-0.880859,-0.756836,0
31820,0.160645,-0.851562,-0.804688,0
31840,0.189941,-0.864746,-0.813477,0
31850,0.200195,-0.885254,-0.793457,0
31870,0.164062,-0.848633,-0.776855,0
31890,0.150391,-0.78418,-0.750977,0
31910,0.152344,-0.707031,-0.716309,0
31930,0.123535,-0.620117,-0.67627,0
31960,0.177246,-0.656738,-0.754883,0
31980,0.179688,-0.642578,-0.737793,0
32000,0.165527,-0.676758,-0.737305,0
32010,0.149414,-0.682617,-0.739746,0
32030,0.13916,-0.659668,-0.79248,0
32050,0.145996,-0.651367,-0.835938,0
32070,0.143555,-0.648926,-0.859375,0
32090,0.154785,-0.594727,-0.909668,0
32110,0.223633,-0.53125,-0.953125,0
32130,0.226074,-0.532227,-0.858887,0
32150,0.119141,-0.628906,-0.82666,0
32170,0.0102539,-0.669922,-0.890625,0
32190,-0.065918,-0.600586,-0.84668,0
32210,-0.0268555,-0.583984,-0.853027,0
32230,0.0888672,-0.580078,-0.891602,0
32250,0.0766602,-0.570312,-0.865723,0
32270,0.0483398,-0.584961,-0.857422,0
32290,0.0898438,-0.624023,-0.895508,0
32310,0.168945,-0.59082,-0.881836,0
32330,0.174316,-0.594238,-0.904297,0
32350,0.120117,-0.651367,-0.937012,0
32370,0.104492,-0.655273,-0.932129,0
32390,0.187012,-0.631836,-0.963379,0
32410,0.214355,-0.59375,-0.929199,0
32430,0.211426,-0.599121,-0.957031,0
32450,0.216797,-0.533691,-0.935059,0
32470,0.25293,-0.515625,-0.901367,0
32490,0.241211,-0.501953,-0.905762,0
32510,0.185059,-0.478516,-0.940918,0
32530,0.190918,-0.447754,-0.927246,0
32550,0.219727,-0.407227,-0.914551,0
32570,0.228516,-0.44043,-0.923828,0
32590,0.200684,-0.493164,-0.913086,0
32610,0.17334,-0.474121,-0.9375,0
32630,0.19873,-0.425781,-0.984863,0
32650,0.219238,-0.439453,-0.963379,0
32670,0.21875,-0.474609,-0.97168,0
32690,0.225586,-0.449707,-0.931641,0
32710,0.289551,-0.411621,-0.945801,0
32730,0.347656,-0.401367,-0.996582,0
32750,0.282715,-0.347168,-0.939453,0
32770,0.317871,-0.395508,-1.00977,0
32790,0.29834,-0.384766,-1.00977,0
32810,0.311035,-0.323242,-0.993652,0
32830,0.307129,-0.308105,-1.00635,0
32850,0.289062,-0.319824,-0.91748,0
32870,0.322266,-0.365723,-0.951172,0
32880,0.349609,-0.327148,-0.98584,0
32900,0.318359,-0.3125,-0.949219,0
32920,0.275879,-0.241699,-0.911133,0
32940,0.356934,-0.270508,-0.942871,0
32960,0.364258,-0.275391,-0.95752,0
32980,0.352051,-0.253906,-0.940918,0
33000,0.358398,-0.260254,-0.95166,0
33020,0.370117,-0.246582,-0.942871,0
33040,0.393066,-0.23291,-0.967773,0
33060,0.402832,-0.270996,-0.981445,0
33080,0.379395,-0.271484,-0.959473,0
33100,0.353516,-0.25,-0.946777,0
33120,0.395996,-0.248535,-0.950684,0
33140,0.406738,-0.268066,-0.972168,0
33160,0.368652,-0.282227,-0.975586,0
33180,0.36377,-0.304688,-0.999023,0
33200,0.354004,-0.27832,-0.988281,0
33220,0.359863,-0.259277,-0.957031,0
33240,0.379395,-0.279785,-0.957031,0
33260,0.362305,-0.265625,-0.952637,0
33280,0.356445,-0.268066,-0.965332,0
33300,0.335449,-0.294922,-0.936035,0
33320,0.334961,-0.270996,-0.899902,0
33340,0.384277,-0.25,-0.942871,0
33360,0.378418,-0.251465,-0.967285,0
33380,0.378906,-0.275879,-0.963379,0
33400,0.383301,-0.290527,-0.946777,0
33420,0.422363,-0.29248,-0.984863,0
33440,0.425781,-0.279297,-0.983887,0
33460,0.413086,-0.26709,-0.960938,0
33480,0.433105,-0.256836,-0.958008,0
33500,0.430664,-0.251465,-0.952637,0
33520,0.402832,-0.256348,-0.941406,0
33540,0.384766,-0.262207,-0.963379,0
33560,0.406738,-0.252441,-0.953613,0
33580,0.401855,-0.25,-0.931641,0
33600,0.397461,-0.251953,-0.927246,0
33620,0.402832,-0.260742,-0.946777,0
33640,0.401367,-0.266113,-0.956543,0
33660,0.406738,-0.272949,-0.95752,0
33680,0.402832,-0.280273,-0.956055,0
33700,0.38623,-0.27002,-0.958496,0
33720,0.397949,-0.283691,-0.963379,0
33740,0.382812,-0.305664,-0.972656,0
33760,0.37207,-0.301758,-0.977539,0
33780,0.397461,-0.286621,-0.991699,0
33800,0.385742,-0.289062,-0.977539,0
33820,0.359375,-0.289551,-0.960938,0
33840,0.373535,-0.28125,-0.947266,0
33860,0.405273,-0.274902,-0.955566,0
33880,0.418457,-0.274414,-0.960449,0
33900,0.39502,-0.28418,-0.933105,0
33920,0.401367,-0.253906,-0.919922,0
33940,0.410645,-0.237793,-0.88916,0
33960,0.424316,-0.249023,-0.901367,0
33980,0.476562,-0.272949,-0.959961,0
34000,0.507324,-0.264648,-0.981445,0
34020,0.510254,-0.219727,-0.989258,0
34040,0.516113,-0.177246,-0.976562,0
34060,0.537109,-0.145996,-0.98584,0
34080,0.531738,-0.17041,-0.969727,0
34100,0.481445,-0.130371,-0.964844,0
34120,0.448242,-0.0830078,-0.918945,0
34140,0.446777,0.0166016,-0.913086,0
34160,0.466309,0.0927734,-0.908691,0
34180,0.481934,0.097168,-0.900391,0
34200,0.461914,0.114258,-0.905762,0
34220,0.458008,0.15918,-0.887207,0
34240,0.513184,0.187988,-0.904785,0
34260,0.516602,0.206055,-0.876953,0
34280,0.513184,0.212402,-0.86377,0
34300,0.521973,0.222168,-0.847656,0
34320,0.563965,0.272461,-0.881348,0
34340,0.563477,0.28418,-0.869141,0
34360,0.514648,0.288086,-0.830566,0
34380,0.520996,0.265137,-0.844727,0
34400,0.512695,0.294434,-0.850586,0
34420,0.509766,0.333496,-0.848145,0
34440,0.519531,0.32959,-0.845215,0
34460,0.507324,0.305664,-0.841309,0
34470,0.50293,0.337891,-0.850098,0
34490,0.520996,0.324219,-0.844727,0
34510,0.526855,0.337891,-0.803223,0
34530,0.507812,0.384277,-0.810059,0
34550,0.509277,0.38916,-0.898438,0
34570,0.54248,0.370117,-0.904297,0
34590,0.575195,0.355469,-0.87207,0
34610,0.556641,0.327637,-0.904297,0
34630,0.512207,0.312988,-0.915039,0
34650,0.487793,0.329102,-0.898926,0
34670,0.493164,0.330566,-0.896484,0
34690,0.482422,0.335449,-0.888184,0
34710,0.463379,0.324707,-0.87207,0
34730,0.439941,0.323242,-0.855957,0
34750,0.434082,0.321777,-0.84668,0
34770,0.427734,0.320801,-0.848145,0
34790,0.449707,0.334961,-0.870605,0
34810,0.446289,0.32666,-0.867676,0
34830,0.432129,0.323242,-0.87207,0
34840,0.424805,0.331543,-0.879883,0
34860,0.429688,0.333008,-0.867676,0
34880,0.425781,0.339355,-0.870117,0
34900,0.426758,0.34668,-0.875,0
34920,0.457031,0.347168,-0.852051,0
34940,0.478516,0.374512,-0.830078,0
34960,0.503418,0.383301,-0.829102,0
34980,0.506348,0.383789,-0.845703,0
35000,0.515137,0.405762,-0.847656,0
35020,0.521484,0.397949,-0.857422,0
35040,0.503906,0.379395,-0.861816,0
35060,0.505859,0.383789,-0.877441,0
35080,0.51123,0.371582,-0.885742,0
35100,0.483398,0.368164,-0.884766,0
35120,0.443848,0.379395,-0.878418,0
35140,0.419922,0.385254,-0.873535,0
35160,0.419922,0.383301,-0.865234,0
35180,0.391113,0.385254,-0.873535,0
35200,0.359375,0.396484,-0.859375,0
35220,0.383789,0.38916,-0.849121,0
35240,0.401855,0.406738,-0.844727,0
35260,0.417969,0.390137,-0.836914,0
35280,0.38623,0.375488,-0.820801,0
35300,0.405762,0.435059,-0.822754,0
35320,0.427734,0.455566,-0.854004,0
35340,0.479004,0.433594,-0.855957,0
35360,0.442383,0.414062,-0.856934,0
35380,0.439941,0.462402,-0.892578,0
35400,0.414062,0.467285,-0.901367,0
35420,0.45752,0.464844,-0.897949,0
35440,0.398438,0.429199,-0.853516,0
35460,0.410645,0.443359,-0.832031,0
35480,0.478516,0.399902,-0.841797,0
35500,0.429688,0.405762,-0.826172,0
35520,0.455566,0.385742,-0.830566,0
35540,0.545898,0.359863,-0.844727,0
35560,0.571289,0.388672,-0.869629,0
35580,0.586914,0.373047,-0.871582,0
35600,0.562012,0.331055,-0.875,0
35620,0.504883,0.355957,-0.799805,0
35640,0.513184,0.332031,-0.746094,0
35660,0.553711,0.34082,-0.748535,0
35680,0.569336,0.348633,-0.805664,0
35700,0.589355,0.354492,-0.829102,0
35720,0.574219,0.361328,-0.807129,0
35740,0.622559,0.362793,-0.817383,0
35760,0.599121,0.377441,-0.783203,0
35780,0.617188,0.353027,-0.844727,0
35800,0.577637,0.364258,-0.811523,0
35820,0.598145,0.353027,-0.813477,0
35840,0.566895,0.344238,-0.848145,0
35860,0.561035,0.355469,-0.854004,0
35880,0.588379,0.293457,-0.821289,0
35900,0.593262,0.313477,-0.809082,0
35920,0.647461,0.301758,-0.804199,0
35940,0.650879,0.266113,-0.817871,0
35960,0.614746,0.203613,-0.769531,0
35980,0.615234,0.258301,-0.793945,0
36000,0.637695,0.242676,-0.800293,0
36020,0.63623,0.22998,-0.755371,0
36040,0.638672,0.286621,-0.770508,0
36060,0.68457,0.32373,-0.797852,0
36080,0.701172,0.333496,-0.769531,0
36100,0.648926,0.303223,-0.717285,0
36120,0.647949,0.31543,-0.714355,0
36140,0.648438,0.353516,-0.722656,0
36160,0.621094,0.340332,-0.700195,0
36180,0.626953,0.331055,-0.706055,0
36200,0.640137,0.308594,-0.696289,0
36220,0.64209,0.289062,-0.728027,0
36240,0.648926,0.227051,-0.755859,0
36260,0.63623,0.222656,-0.776367,0
36280,0.601074,0.193359,-0.764648,0
36300,0.567383,0.136719,-0.789062,0
36320,0.614258,0.14502,-0.863281,0
36340,0.59375,0.162109,-0.916016,0
36360,0.574219,0.17627,-0.923828,0
36380,0.521484,0.159668,-0.939453,0
36400,0.520508,0.14502,-0.929688,0
36420,0.577637,0.144531,-0.940918,0
36440,0.611816,0.141602,-0.943359,0
36460,0.667969,0.177734,-0.89502,0
36480,0.65625,0.152344,-0.870605,0
36500,0.648438,0.142578,-0.830078,0
36520,0.666992,0.125,-0.817871,0
36540,0.67334,0.13916,-0.82373,0
36560,0.655762,0.142578,-0.844727,0
36580,0.638672,0.166016,-0.817871,0
36600,0.615234,0.181641,-0.832031,0
36620,0.59082,0.253906,-0.759277,0
36640,0.498047,0.333008,-0.659668,0
36660,0.506836,0.362305,-0.724121,0
36680,0.604004,0.23584,-0.850098,0
36700,0.616699,0.213379,-0.897461,0
36720,0.582031,0.254395,-0.800293,0
36740,0.597168,0.175293,-0.773438,0
36760,0.677246,0.131348,-0.824707,0
36780,0.665527,0.14209,-0.858398,0
36800,0.694824,0.199707,-0.85498,0
36820,0.731445,0.179199,-0.858887,0
36840,0.708496,0.112793,-0.873047,0
36860,0.703613,0.108398,-0.887695,0
36880,0.708008,0.148438,-0.818848,0
36900,0.724609,0.220215,-0.802246,0
36920,0.78418,0.236816,-0.827637,0
36940,0.817383,0.276855,-0.796875,0
36960,0.752441,0.211426,-0.802734,0
36980,0.587891,0.243164,-0.786133,0
37000,0.487793,0.318359,-0.655273,0
37020,0.416504,0.210938,-0.602539,0
37040,0.463867,0.20459,-0.666016,0
37060,0.586426,0.174316,-0.734863,0
37080,0.720215,0.206055,-0.862305,0
37100,0.779297,0.333008,-0.918945,0
37120,0.801758,0.359375,-0.726074,0
37140,0.75,0.341797,-0.668457,0
37160,0.833496,0.53125,-0.505859,0
37180,0.816406,0.528809,-0.482422,0
37200,0.79248,0.40918,-0.654297,0
37220,0.515625,0.09375,-0.811035,0
37240,0.382812,-0.260742,-0.90625,0
37260,0.522949,-0.408691,-1.04395,0
37280,0.390137,-0.213379,-1.06104,0
37300,0.442383,-0.180664,-0.953613,0
37320,0.455078,-0.369141,-1.10449,0
37340,0.545898,-0.271484,-1.0498,0
37360,0.577148,-0.0698242,-0.960449,0
37380,0.581543,-0.0541992,-0.911621,0
37400,0.583496,-0.0820312,-0.831055,0
37420,0.580566,-0.0317383,-0.775391,0
37440,0.623535,-0.0234375,-0.777832,0
37460,0.616699,-0.107422,-0.830078,0
37480,0.583984,-0.0283203,-0.855957,0
37500,0.610352,-0.0180664,-0.907227,0
37520,0.619629,-0.0498047,-0.852539,0
37540,0.636719,-0.0483398,-0.882324,0
37560,0.605957,-0.0756836,-0.854004,0
37580,0.615234,-0.0820312,-0.912598,0
37600,0.584961,-0.0756836,-0.907715,0
37620,0.573242,-0.0966797,-0.932617,0
37640,0.579102,-0.120605,-0.973145,0
37660,0.543457,-0.0302734,-0.964355,0
37680,0.529297,0.0380859,-0.965332,0
37700,0.510254,0.0307617,-0.964355,0
37720,0.45752,0.18457,-0.853027,0
37740,0.401855,0.151855,-0.811035,0
37760,0.461914,0.0952148,-0.956055,0
37780,0.490723,0.0561523,-0.919922,0
37800,0.477051,-0.0239258,-0.861328,0
37820,0.496582,-0.0224609,-0.90332,0
37840,0.476074,-0.0356445,-0.934082,0
37860,0.430664,-0.0234375,-0.928711,0
37880,0.477051,-0.059082,-0.932617,0
37900,0.520508,-0.108398,-0.920898,0
37920,0.564941,-0.118652,-0.93457,0
37940,0.594238,-0.0463867,-0.918945,0
37960,0.603516,0.0366211,-0.899902,0
37980,0.672852,0.0336914,-0.905762,0
38000,0.613281,-0.0639648,-0.932129,0
38020,0.644531,-0.0708008,-0.92334,0
38040,0.668457,-0.0585938,-0.904297,0
38060,0.612793,-0.046875,-0.899902,0
38080,0.660645,-0.0292969,-0.878418,0
38100,0.681641,-0.0478516,-0.818848,0
38120,0.657715,0.0463867,-0.769043,0
38140,0.612305,0.0375977,-0.814453,0
38160,0.55957,0.0258789,-0.772461,0
38180,0.54834,0.0185547,-0.794434,0
38190,0.594727,0.0400391,-0.814453,0
38210,0.619629,0.03125,-0.774414,0
38230,0.600586,-0.0107422,-0.753418,0
38250,0.614746,-0.0483398,-0.801758,0
38270,0.596191,-0.112305,-0.758789,0
38290,0.608398,-0.13623,-0.770508,0
38310,0.599121,-0.150879,-0.774902,0
38330,0.606934,-0.20752,-0.808105,0
38350,0.627441,-0.291016,-0.834961,0
38370,0.621582,-0.307617,-0.870605,0
38390,0.62207,-0.293457,-0.879395,0
38410,0.586914,-0.296387,-0.869141,0
38430,0.536133,-0.277344,-0.866211,0
38450,0.48291,-0.268555,-0.842773,0
38470,0.46582,-0.299316,-0.896973,0
38490,0.470215,-0.321777,-0.925781,0
38510,0.480469,-0.289062,-0.878906,0
38530,0.503906,-0.26709,-0.862305,0
38550,0.52002,-0.367188,-0.878906,0
38570,0.541504,-0.437012,-0.886719,0
38590,0.478516,-0.355957,-0.807617,0
38610,0.556152,-0.334961,-0.825195,0
38630,0.576172,-0.333984,-0.894043,0
38650,0.51416,-0.401855,-0.90625,0
38670,0.615234,-0.456055,-0.915527,0
38690,0.512695,-0.323242,-0.916992,0
38710,0.567871,-0.376465,-0.868652,0
38730,0.58252,-0.395508,-0.881348,0
38750,0.496094,-0.314941,-0.756348,0
38770,0.536621,-0.287109,-0.749023,0
38790,0.57373,-0.286133,-0.781738,0
38810,0.543457,-0.220215,-0.774414,0
38830,0.509766,-0.244141,-0.820312,0
38850,0.525879,-0.340332,-0.855469,0
38870,0.518555,-0.387695,-0.890137,0
38890,0.40918,-0.13623,-0.944336,0
38910,0.516113,-0.459473,-0.935059,0
38930,0.424316,-0.43457,-0.895508,0
38950,0.508789,-0.415527,-0.994141,0
38970,0.491699,-0.462402,-0.942871,0
38990,0.52002,-0.461914,-0.811523,0
39010,0.649414,-0.614258,-0.878906,0
39030,0.622559,-0.479492,-0.98584,0
39050,0.639648,-0.392578,-0.810059,0
39070,0.608887,-0.493652,-0.725586,0
39090,0.784668,-0.602051,-0.929199,0
39110,0.57959,-0.325195,-0.856445,0
39130,0.63623,-0.0336914,-0.727051,0
39150,0.669922,-0.260254,-0.759277,0
39170,0.543945,-0.191406,-0.685547,0
39190,0.568359,-0.0625,-0.557129,0
39210,0.676758,-0.0541992,-0.65625,0
39230,0.607422,0.194336,-0.751953,0
39250,0.612793,0.26416,-0.643555,0
39270,0.599121,0.0224609,-0.532715,0
39290,0.583984,0.0532227,-0.593262,0
39310,0.623047,0.271484,-0.567383,0
39330,0.628906,0.333984,-0.565918,0
39350,0.632812,0.322266,-0.582031,0
39370,0.706055,0.224609,-0.647949,0
39390,0.729004,0.169922,-0.696777,0
39410,0.770996,0.239258,-0.797363,0
39430,0.71875,0.220215,-0.842285,0
39450,0.737305,0.191406,-0.879883,0
39470,0.655273,0.143555,-0.936035,0
39490,0.680176,0.123535,-0.896973,0
39510,0.741211,0.0219727,-0.90918,0
39530,0.86377,-0.143066,-1.13184,0
39550,0.750977,-0.000976562,-1.21191,0
39570,0.512207,0.172852,-0.884277,0
39590,0.357422,-0.124023,-0.634766,0
39610,0.570801,-0.248535,-0.797852,0
39630,0.594727,0.0356445,-0.842285,0
39650,0.472656,0.223145,-0.804199,0
39670,0.510742,-0.0366211,-1.00928,0
39690,0.535156,-0.194336,-0.978516,0
39710,0.489258,-0.168945,-0.905273,0
39730,0.47168,-0.0200195,-0.900391,0
39750,0.500977,-0.0205078,-0.93457,0
39770,0.496094,-0.0830078,-0.905762,0
39790,0.504883,-0.0444336,-0.89209,0
39810,0.588867,-0.0185547,-0.891113,0
39830,0.566406,-0.0185547,-0.938477,0
39850,0.565918,0.00146484,-0.959473,0
39870,0.576172,0.0195312,-0.936035,0
39890,0.549805,0.0380859,-0.928711,0
39910,0.516602,0.019043,-0.926758,0
39930,0.523926,0.0117188,-0.915039,0
39950,0.529785,0.0185547,-0.977051,0
39970,0.526855,0.0380859,-0.999023,0
39990,0.489258,0.00732422,-1.00342,0
40010,0.512695,-0.0141602,-0.978516,0
40030,0.526855,-0.0571289,-0.952148,0
40050,0.519531,-0.0722656,-0.945312,0
40070,0.637207,-0.027832,-0.919434,0
40090,0.57959,0.00390625,-0.901855,0
40110,0.543945,0.0639648,-0.92627,0
40130,0.522461,0.074707,-0.903809,0
40150,0.509766,0.074707,-0.885254,0
40160,0.518066,0.130371,-0.887207,0
40180,0.492676,0.169922,-0.864746,0
40200,0.483887,0.166016,-0.910156,0
40220,0.448242,0.166992,-0.925781,0
40250,0.417969,0.194824,-0.965332,0
40270,0.435547,0.246094,-0.939941,0
40290,0.46875,0.24707,-0.908203,0
40310,0.507812,0.227539,-0.884766,0
40330,0.636719,0.21875,-0.897461,0
40350,0.666992,0.251465,-0.947266,0
40370,0.705566,0.107422,-0.96582,0
40390,0.598633,0.00488281,-0.846191,0
40410,0.585938,0.0615234,-0.805664,0
40430,0.619629,0.139648,-0.772461,0
40450,0.615723,0.144043,-0.816406,0
40470,0.640137,0.111816,-0.838379,0
40490,0.644043,0.134277,-0.9375,0
40510,0.614746,0.163086,-0.866699,0
40530,0.552246,0.0649414,-0.866211,0
40550,0.57959,0.0361328,-0.875,0
40570,0.54248,0.0107422,-0.790527,0
40590,0.578125,0.0126953,-0.847656,0
40610,0.571777,0.0371094,-0.789551,0
40630,0.620117,0.00195312,-0.729492,0
40650,0.636719,-0.0986328,-0.901367,0
40670,0.642578,-0.0415039,-0.976562,0
40690,0.61084,-0.0512695,-0.830078,0
40710,0.632812,-0.0166016,-0.752441,0
40730,0.62207,0.0249023,-0.787109,0
40750,0.512695,-0.0756836,-0.90332,0
40770,0.555664,-0.0478516,-0.915039,0
40790,0.580078,0.0478516,-0.844727,0
40810,0.57666,0.000488281,-0.844727,0
40830,0.546875,-0.0571289,-0.937988,0
40850,0.504883,0.0561523,-0.904785,0
40870,0.52832,0.23877,-0.944336,0
40890,0.52002,0.0947266,-1.02979,0
40910,0.492188,0.050293,-0.99707,0
40930,0.39209,0.15625,-0.874023,0
40950,0.557129,0.0683594,-0.88623,0
40970,0.49707,0.0581055,-0.911133,0
40990,0.449219,0.139648,-0.864258,0
41010,0.559082,0.0668945,-0.874512,0
41030,0.574219,0.0263672,-0.904785,0
41050,0.551758,-0.00683594,-0.837402,0
41070,0.564453,-0.0483398,-0.895996,0
41090,0.55127,-0.128418,-0.959473,0
41110,0.530762,-0.0234375,-1.00635,0
41130,0.540039,0.0175781,-1,0
41150,0.48877,0.00146484,-0.91748,0
41170,0.489258,-0.0493164,-0.955566,0
41190,0.522461,-0.0419922,-0.935059,0
41210,0.516113,0.012207,-0.901855,0
41230,0.467285,0.0151367,-0.909668,0
41250,0.550293,0.0166016,-0.897949,0
41270,0.543945,-0.0288086,-0.924805,0
41290,0.595703,-0.0458984,-0.987305,0
41310,0.54541,-0.0302734,-0.939941,0
41330,0.555664,-0.114258,-0.89502,0
41350,0.560059,-0.211426,-0.851562,0
41370,0.522461,-0.0512695,-0.88916,0
41390,0.597168,-0.0825195,-0.893555,0
41410,0.573242,-0.00292969,-0.909668,0
41430,0.584961,-0.0864258,-0.853027,0
41450,0.539551,-0.0551758,-0.872559,0
41470,0.538574,0.00585938,-0.951172,0
41490,0.500488,0.0224609,-0.864746,0
41510,0.525879,-0.0766602,-0.941895,0
41530,0.504883,-0.121582,-0.940918,0
41550,0.547852,-0.0302734,-0.914062,0
41570,0.518555,0.0449219,-0.818848,0
41590,0.535645,-0.046875,-0.875488,0
41610,0.561523,-0.097168,-0.900879,0
41630,0.592285,0.0527344,-0.929199,0
41650,0.591309,0.0371094,-0.926758,0
41670,0.616699,-0.0375977,-0.910645,0
41690,0.561523,-0.0263672,-0.915039,0
41710,0.576172,0.0395508,-0.862305,0
41730,0.581055,0.0224609,-0.855957,0
41750,0.534668,0.0249023,-0.885742,0
41770,0.577637,0.0722656,-0.871094,0
41790,0.580566,0.00244141,-0.921875,0
41810,0.508789,0.157715,-0.827148,0
41830,0.544922,0.141602,-0.839844,0
41850,0.560547,-0.0239258,-0.912598,0
41870,0.520508,0.137695,-0.848633,0
41890,0.631836,0.125488,-0.92627,0
41910,0.529297,0.21875,-1.03076,0
41930,0.467285,0.196289,-0.893066,0
41950,0.453613,0.108398,-0.805664,0
41970,0.476074,0.17627,-0.866211,0
41990,0.535645,0.22168,-0.887695,0
42010,0.495117,0.207031,-0.959473,0
42030,0.494141,0.23291,-0.955566,0
42050,0.538574,0.23584,-0.953125,0
42070,0.45752,0.351074,-0.925781,0
42090,0.677246,0.317871,-1.00586,0
42110,0.696289,0.37207,-0.92627,0
42130,0.476562,0.617188,-0.871094,0
42150,0.354004,0.723145,-0.368164,0
42170,0.606934,0.442871,-0.368164,0
42190,0.91748,0.0488281,-0.568848,0
42210,0.867676,0.452637,-0.769043,0
42230,0.853027,0.766113,-0.902344,0
42250,0.833984,0.353516,-0.822754,0
42270,0.664062,-0.0107422,-0.687988,0
42290,0.656738,-0.0737305,-0.710449,0
42310,0.429688,-0.0283203,-0.664551,0
42330,0.623047,0.281738,-0.798828,0
42350,0.641602,-0.0698242,-0.765137,0
42370,0.54248,-0.140137,-0.781738,0
42390,0.40918,-0.0102539,-0.694336,0
42410,0.699219,0.0224609,-0.895508,0
42430,0.725098,-0.0268555,-0.934082,0
42450,0.593262,0.0976562,-0.890137,0
42470,0.615234,-0.166992,-0.869141,0
42490,0.602539,-0.140625,-0.837891,0
42510,0.665527,0.00439453,-0.933105,0
42530,0.641602,0.0751953,-0.86084,0
42550,0.609375,-0.101562,-0.851562,0
42570,0.517578,-0.14209,-0.818848,0
42590,0.53125,-0.0332031,-0.806641,0
42610,0.529297,0.00292969,-0.825195,0
42630,0.573242,-0.0419922,-0.871582,0
42650,0.536133,-0.0605469,-0.851074,0
42670,0.697266,-0.09375,-1.01855,0
42690,0.501465,-0.0209961,-1.00195,0
42710,0.367188,-0.0380859,-0.913086,0
42730,0.477051,-0.284668,-1.08594,0
42750,0.541504,-0.153809,-1.03564,0
42770,0.443359,-0.0371094,-0.869141,0
42790,0.522461,-0.0703125,-0.87207,0
42810,0.527832,-0.0673828,-0.857422,0
42830,0.572754,0.0268555,-0.857422,0
42850,0.588379,-0.117188,-0.87207,0
42870,0.421875,-0.151367,-0.825684,0
42890,0.572754,-0.124023,-0.82666,0
42910,0.573242,-0.0566406,-0.914062,0
42930,0.559082,-0.119141,-0.918945,0
42950,0.480469,-0.150879,-0.888672,0
42970,0.415527,-0.185547,-0.879883,0
42990,0.412598,-0.189453,-0.854004,0
43010,0.432129,-0.155762,-0.92041,0
43030,0.425781,-0.147461,-0.950195,0
43050,0.498535,-0.135742,-0.931641,0
43070,0.586426,-0.0991211,-0.942383,0
43090,0.599609,-0.25,-1.01367,0
43110,0.525391,-0.364258,-0.98584,0
43130,0.544434,-0.288574,-0.921875,0
43150,0.562988,-0.153809,-0.845215,0
43170,0.643066,-0.162598,-0.8125,0
43190,0.748535,-0.150391,-0.763672,0
43210,0.772949,-0.112793,-0.759277,0
43230,0.783691,-0.0561523,-0.753418,0
43250,0.703125,0.0249023,-0.713867,0
43270,0.67627,0.0380859,-0.682129,0
43290,0.779785,-0.03125,-0.618652,0
43310,0.530762,-0.119629,-0.515625,0
43330,0.500977,0.059082,-1.23047,0
43350,0.0463867,-0.00146484,-1.51123,0
43370,-0.0146484,0.00146484,-1.34619,0
43390,-0.0405273,0.074707,-1.11768,0
43410,0.109375,0.182617,-0.806641,0
43430,0.473145,0.217285,-0.524414,0
43450,0.418457,0.44873,-1.15674,0
43470,0.518555,0.431641,-0.921387,0
43490,0.591797,0.477051,-0.886719,0
43510,0.552246,0.507324,-0.945312,0
43530,0.538086,0.564453,-0.876465,0
43540,0.531738,0.448242,-0.804199,0
43560,0.286133,0.434082,-0.86084,0
43580,1.0249,0.458496,-0.637207,0
43600,0.330078,0.208496,-0.722168,0
43620,0.484375,0.435547,-0.873535,0
43640,0.524414,0.340332,-0.868164,0
43660,0.564941,0.350586,-0.850098,0
43680,0.541016,0.402344,-0.883301,0
43680,0.521973,0.398438,-0.892578,0
43700,0.513672,0.396484,-0.832031,0
43710,0.547852,0.348145,-0.830566,0
43730,0.543457,0.387695,-0.805176,0
43750,0.511719,0.363281,-0.80957,0
43760,0.47998,0.364746,-0.846191,0
43780,0.472656,0.328125,-0.825195,0
43800,0.299316,0.368652,-0.821289,0
43820,0.40332,0.294434,-0.816406,0
43840,0.388672,0.237305,-0.794434,0
43860,0.400391,0.382324,-0.822266,0
43880,0.426758,0.265625,-0.929199,0
43900,0.427246,0.356445,-0.88916,0
43920,0.444824,0.317871,-0.978027,0
43940,0.366211,0.3125,-0.928711,0
43960,0.326172,0.293945,-1.02588,0
43960,0.257324,0.382812,-1.05811,0
43960,0.17334,0.336426,-1.06055,0
43980,0.236816,0.387207,-0.912598,0
43980,0.473145,0.385254,-0.975586,0
43990,0.625977,0.26416,-0.938965,0
44010,0.59082,0.288574,-0.865723,0
44030,0.551758,0.239746,-0.85498,0
44050,0.568359,0.303711,-0.870117,0
44070,0.569336,0.317871,-0.897949,0
44090,0.543945,0.318848,-0.853027,0
44110,0.51416,0.264648,-0.859863,0
44130,0.483887,0.263184,-0.848145,0
44150,0.451172,0.325195,-0.799805,0
44170,0.420898,0.257812,-0.83252,0
44190,0.387695,0.291504,-0.862305,0
44210,0.401855,0.269531,-0.787598,0
44230,0.391113,0.226074,-0.793457,0
44250,0.365723,0.287109,-0.844727,0
44270,0.320312,0.336914,-0.905762,0
44290,0.433594,0.328125,-0.921875,0
44310,0.461426,0.304688,-0.98877,0
44340,0.496094,0.28125,-0.973633,0
44380,0.540039,0.219727,-0.870605,0
44440,0.452637,0.287109,-0.876465,0
44460,0.489746,0.270508,-0.856445,0
44480,0.530762,0.206543,-0.785156,0
44500,0.614746,0.25293,-0.772461,0
44510,0.555176,0.225586,-0.911621,0
44600,0.321777,0.00146484,-0.250977,0
44640,0.641602,-0.217285,-0.18457,0
44670,0.361816,-0.521484,-0.21875,0
44690,1.06689,-0.496094,-0.192383,0
44710,0.742188,-0.888184,0.318359,0
44730,0.989258,-0.848145,0.126465,0
44740,0.376465,-1.18408,0.384277,0
44770,1.30664,-0.993652,0.540039,0
44790,0.100098,-1.22363,-0.00732422,0
44810,0.832031,-1.11914,0.833496,0
44830,0.18457,-0.910156,0.229492,0
44850,-0.147461,-1.3125,0.407715,0
44870,0.671875,-1.15479,0.549316,0
44890,-0.66748,-1.20557,0.121582,0
44910,0.394531,-1.02881,0.859375,0
44930,-0.0439453,-1.0376,0.676758,0
44940,-0.496094,-1.0957,0.412598,0
44960,-0.621094,-0.969727,0.342773,0
44980,-0.92334,-0.875977,0.425293,0
45000,-0.824219,-1.07373,0.409668,0
45020,-0.727051,-1.25049,0.257324,0
45040,-0.804688,-1.42969,0.61084,0
45060,-0.624023,-1.37793,0.09375,0
45080,-0.421387,-0.765137,0.199707,0
45100,-0.45459,-0.561035,0.46582,0
45120,-0.35498,-0.524902,0.36084,0
45140,-0.38623,-0.53418,0.361328,0
45160,-0.557617,-0.802734,0.508789,0
45180,-0.526855,-0.979492,0.520996,0
45200,-0.410156,-0.94043,0.47998,0
45220,-0.394043,-0.751465,0.52002,0
45240,-0.413574,-0.646973,0.562988,0
45260,-0.432129,-0.714355,0.601562,0
45280,-0.478516,-0.827148,0.559082,0
45300,-0.497559,-0.87793,0.484863,0
45320,-0.48584,-0.849121,0.459473,0
45340,-0.494629,-0.733398,0.441895,0
45360,-0.510254,-0.665039,0.429199,0
45380,-0.490723,-0.705078,0.4375,0
45400,-0.459961,-0.787598,0.452148,0
45420,-0.422363,-0.855957,0.423828,0
45440,-0.376465,-0.850098,0.391113,0
45460,-0.388672,-0.803223,0.387695,0
45480,-0.408203,-0.817871,0.374512,0
45490,-0.41748,-0.818359,0.353516,0
45510,-0.460449,-0.811523,0.343262,0
45530,-0.46875,-0.741211,0.313477,0
45550,-0.462402,-0.686523,0.30127,0
45570,-0.456055,-0.655762,0.316895,0
45590,-0.442871,-0.650391,0.316406,0
45610,-0.494141,-0.638184,0.33252,0
45630,-0.53418,-0.625488,0.325684,0
45650,-0.521973,-0.621582,0.309082,0
45670,-0.59668,-0.582031,0.3125,0
45690,-0.643066,-0.602051,0.359375,0
45710,-0.682617,-0.655273,0.367676,0
45730,-0.734863,-0.706055,0.40625,0
45750,-0.714844,-0.722656,0.425293,0
45770,-0.58252,-0.708496,0.420898,0
45790,-0.518066,-0.710449,0.404297,0
45810,-0.481445,-0.723145,0.382812,0
45830,-0.442383,-0.751465,0.371094,0
45850,-0.429199,-0.793945,0.369141,0
45870,-0.468262,-0.825684,0.36377,0
45890,-0.535645,-0.824707,0.366699,0
45910,-0.581055,-0.814941,0.357422,0
45930,-0.555664,-0.785645,0.335938,0
45950,-0.536133,-0.725098,0.35791,0
45970,-0.533203,-0.707031,0.376953,0
45990,-0.539062,-0.709473,0.360352,0
46010,-0.540527,-0.753418,0.365234,0
46030,-0.556152,-0.777344,0.381348,0
46050,-0.576172,-0.785645,0.39502,0
46070,-0.592773,-0.789062,0.390137,0
46090,-0.61084,-0.810059,0.393555,0
46110,-0.602539,-0.826172,0.377441,0
46130,-0.569824,-0.817383,0.353027,0
46150,-0.536133,-0.808105,0.333496,0
46170,-0.511719,-0.797363,0.32666,0
46190,-0.498047,-0.79834,0.331543,0
46210,-0.488281,-0.804199,0.328613,0
46230,-0.484375,-0.812988,0.338867,0
46250,-0.481934,-0.811035,0.358398,0
46270,-0.490723,-0.81543,0.368164,0
46290,-0.484863,-0.808105,0.373047,0
46310,-0.48291,-0.793457,0.371094,0
46330,-0.486816,-0.789551,0.358887,0
46350,-0.493164,-0.780762,0.352539,0
46370,-0.502441,-0.789062,0.339355,0
46390,-0.507812,-0.780273,0.338867,0
46410,-0.520996,-0.790527,0.325684,0
46430,-0.513184,-0.784668,0.315918,0
46450,-0.512207,-0.78125,0.312012,0
46470,-0.51416,-0.774414,0.305176,0
46490,-0.526855,-0.778809,0.304199,0
46510,-0.536133,-0.773926,0.305176,0
46530,-0.528809,-0.753418,0.307617,0
46550,-0.515625,-0.769531,0.302246,0
46570,-0.506348,-0.774414,0.309082,0
46590,-0.516113,-0.791992,0.315918,0
46610,-0.512207,-0.792969,0.320312,0
46630,-0.507812,-0.817383,0.327637,0
46650,-0.495605,-0.84375,0.335938,0
46670,-0.479004,-0.860352,0.361816,0
46690,-0.438965,-0.853516,0.357422,0
46710,-0.40625,-0.841309,0.374023,0
46730,-0.402344,-0.826172,0.390625,0
46750,-0.396484,-0.817871,0.407715,0
46770,-0.399414,-0.81543,0.407715,0
46790,-0.411133,-0.799316,0.414062,0
46810,-0.425293,-0.788574,0.414551,0
46830,-0.437012,-0.777832,0.414062,0
46850,-0.445801,-0.780273,0.412109,0
46870,-0.467285,-0.776855,0.405273,0
46890,-0.479492,-0.772461,0.377441,0
46910,-0.489746,-0.771484,0.354004,0
46930,-0.500488,-0.764648,0.337891,0
46950,-0.519531,-0.782715,0.330078,0
46970,-0.525879,-0.785156,0.319336,0
46990,-0.526855,-0.789551,0.320801,0
47010,-0.519043,-0.791992,0.316406,0
47030,-0.513184,-0.788086,0.323242,0
47050,-0.512695,-0.788574,0.319824,0
47070,-0.501465,-0.795898,0.333008,0
47090,-0.500488,-0.79834,0.337402,0
47110,-0.504395,-0.780762,0.350098,0
47130,-0.503906,-0.783691,0.370605,0
47150,-0.49707,-0.759766,0.380859,0
47170,-0.486816,-0.765137,0.396484,0
47190,-0.477539,-0.775391,0.406738,0
47210,-0.450195,-0.787598,0.414551,0
47230,-0.425781,-0.78418,0.433594,0
47250,-0.387207,-0.786621,0.448242,0
47270,-0.370117,-0.81543,0.460938,0
47290,-0.339355,-0.811523,0.474121,0
47310,-0.314453,-0.801758,0.476074,0
47330,-0.305176,-0.790527,0.490234,0
47350,-0.30127,-0.786621,0.494141,0
47370,-0.29541,-0.799805,0.495605,0
47390,-0.296875,-0.808105,0.499023,0
47410,-0.302734,-0.80957,0.507324,0
47430,-0.391113,-0.787109,0.480957,0
47450,-0.467285,-0.778809,0.471191,0
47470,-0.498047,-0.780762,0.45752,0
47490,-0.503906,-0.776367,0.447266,0
47510,-0.495117,-0.760742,0.429199,0
47530,-0.487793,-0.757324,0.436523,0
47550,-0.476562,-0.755859,0.422852,0
47570,-0.477539,-0.751953,0.411621,0
47590,-0.489746,-0.739746,0.373535,0
47610,-0.481445,-0.738281,0.352539,0
47630,-0.508789,-0.76123,0.345703,0
47650,-0.540039,-0.772949,0.355469,0
47670,-0.566406,-0.780273,0.345703,0
47690,-0.575195,-0.743652,0.335938,0
47710,-0.588379,-0.745117,0.329102,0
47730,-0.560547,-0.791504,0.324219,0
47750,-0.513672,-0.788086,0.340332,0
47770,-0.496094,-0.74707,0.367676,0
47790,-0.455078,-0.784668,0.388672,0
47810,-0.400391,-0.83252,0.414062,0
47830,-0.329102,-0.853516,0.391113,0
47850,-0.260254,-0.871582,0.353516,0
47870,-0.168945,-0.925781,0.365234,0
47890,-0.206055,-0.956055,0.392578,0
47910,-0.266113,-0.921875,0.403809,0
47930,-0.270996,-0.887695,0.442383,0
47950,-0.276367,-0.78418,0.474121,0
47970,-0.316406,-0.739746,0.475586,0
47990,-0.339844,-0.763672,0.477051,0
48010,-0.318848,-0.75293,0.478027,0
48030,-0.342773,-0.713379,0.485352,0
48050,-0.35791,-0.706055,0.48877,0
48070,-0.365234,-0.746582,0.46875,0
48090,-0.408203,-0.79541,0.474609,0
48110,-0.455078,-0.791504,0.452637,0
48130,-0.491699,-0.786133,0.430176,0
48150,-0.513672,-0.79541,0.393555,0
48170,-0.54248,-0.806641,0.338379,0
48190,-0.547363,-0.799805,0.325195,0
48210,-0.543945,-0.809082,0.290527,0
48230,-0.525391,-0.808594,0.254395,0
48250,-0.534668,-0.796875,0.253418,0
48270,-0.54541,-0.786133,0.240234,0
48290,-0.539551,-0.798828,0.225098,0
48310,-0.453125,-0.846191,0.250977,0
48330,-0.436523,-0.819336,0.304688,0
48350,-0.450195,-0.814453,0.375,0
48360,-0.434082,-0.841309,0.379395,0
48380,-0.424316,-0.84375,0.382324,0
48400,-0.425293,-0.822266,0.381348,0
48420,-0.416992,-0.804199,0.377441,0
48440,-0.418945,-0.820312,0.373535,0
48460,-0.437988,-0.849609,0.379395,0
48480,-0.464844,-0.882812,0.37207,0
48500,-0.442871,-0.89209,0.356934,0
48520,-0.439941,-0.875488,0.356934,0
48540,-0.439941,-0.82666,0.353027,0
48560,-0.425293,-0.814941,0.362305,0
48580,-0.40625,-0.820312,0.373535,0
48600,-0.38916,-0.811035,0.387207,0
48620,-0.384766,-0.790527,0.386719,0
48640,-0.400879,-0.773926,0.407715,0
48660,-0.402344,-0.772461,0.412109,0
48680,-0.412109,-0.752441,0.424316,0
48700,-0.421387,-0.758789,0.433105,0
48720,-0.420898,-0.76123,0.421387,0
48740,-0.433105,-0.774902,0.400879,0
48760,-0.449219,-0.788574,0.391113,0
48780,-0.458496,-0.798828,0.395996,0
48800,-0.462402,-0.804688,0.380859,0
48820,-0.457031,-0.791992,0.367676,0
48840,-0.458008,-0.790527,0.361328,0
48860,-0.454102,-0.79541,0.353516,0
48880,-0.446777,-0.798828,0.350586,0
48900,-0.450195,-0.799316,0.367188,0
48920,-0.436523,-0.816406,0.367188,0
48940,-0.431152,-0.824707,0.367676,0
48960,-0.427734,-0.83252,0.37207,0
48980,-0.419434,-0.84668,0.383301,0
49000,-0.421387,-0.849121,0.383789,0
49020,-0.432617,-0.856445,0.383301,0
49040,-0.449707,-0.906738,0.405762,0
49060,-0.459473,-1.03076,0.433105,0
49080,-0.312012,-1.03076,0.509277,0
49100,-0.321777,-0.885254,0.454102,0
49120,-0.402344,-0.748047,0.385742,0
49140,-0.454102,-0.733398,0.337402,0
49160,-0.471191,-0.705078,0.311035,0
49180,-0.49707,-0.661621,0.280762,0
49200,-0.494629,-0.669434,0.275879,0
49220,-0.451172,-0.678223,0.293457,0
49240,-0.483398,-0.663086,0.293457,0
49260,-0.568359,-0.667969,0.274414,0
49280,-0.577148,-0.720703,0.28125,0
49300,-0.56543,-0.76416,0.3125,0
49320,-0.600586,-0.772949,0.335938,0
49340,-0.562988,-0.818848,0.318848,0
49360,-0.514648,-0.873047,0.287598,0
49380,-0.490234,-0.869141,0.297363,0
49400,-0.473633,-0.835938,0.310547,0
49420,-0.468262,-0.816895,0.325684,0
49440,-0.444336,-0.797852,0.348633,0
49460,-0.431152,-0.813477,0.391602,0
49480,-0.419922,-0.834961,0.399414,0
49500,-0.408691,-0.856445,0.380371,0
49520,-0.422363,-0.847656,0.379395,0
49540,-0.409668,-0.843262,0.408691,0
49560,-0.412109,-0.859863,0.412109,0
49580,-0.410156,-0.869141,0.40918,0
49600,-0.371582,-0.895996,0.445312,0
49620,-0.37793,-0.89209,0.438965,0
49640,-0.404785,-0.882324,0.386719,0
49660,-0.42627,-0.898926,0.359863,0
49680,-0.39502,-0.973145,0.393555,0
49700,-0.360352,-0.958984,0.319336,0
49720,-0.337891,-0.924316,0.283691,0
49740,-0.344238,-0.956543,0.330566,0
49760,-0.350098,-0.954102,0.357422,0
49780,-0.315918,-0.877441,0.335449,0
49800,-0.272461,-0.808594,0.349121,0
49820,-0.293945,-0.792969,0.383301,0
49840,-0.340332,-0.79834,0.365234,0
49860,-0.382324,-0.796875,0.336426,0
49880,-0.464355,-0.741699,0.316406,0
49900,-0.514648,-0.658691,0.275879,0
49920,-0.559082,-0.629883,0.222656,0
49940,-0.619141,-0.720215,0.169434,0
49960,-0.682617,-0.746094,0.114746,0
49990,-0.691406,-0.831055,0.0761719,0
50010,-0.664551,-0.883301,0.0512695,0
50030,-0.694824,-0.867676,-0.0102539,0
50050,-0.709961,-0.895996,-0.00683594,0
50070,-0.689453,-0.912598,-0.0219727,0
50090,-0.663086,-0.850586,-0.0581055,0
50110,-0.635742,-0.773926,-0.0180664,0
50130,-0.642578,-0.71875,-0.0175781,0
50150,-0.621582,-0.730469,-0.0126953,0
50170,-0.590332,-0.79834,-0.00390625,0
50190,-0.57666,-0.813477,0.0263672,0
50210,-0.603027,-0.844238,0.0385742,0
50230,-0.591797,-0.865234,0.0693359,0
50250,-0.623047,-0.855469,0.117676,0
50270,-0.65918,-0.859375,0.121582,0
50290,-0.687012,-0.840332,0.116211,0
50310,-0.651367,-0.827637,0.12207,0
50330,-0.601562,-0.780273,0.0888672,0
50340,-0.55957,-0.772949,0.0849609,0
50360,-0.558105,-0.776367,0.101074,0
50380,-0.550781,-0.804199,0.106445,0
50400,-0.553711,-0.86084,0.12793,0
50420,-0.589355,-0.878906,0.128906,0
50440,-0.615723,-0.865723,0.0966797,0
50460,-0.610352,-0.838379,0.065918,0
50480,-0.610352,-0.845703,0.065918,0
50500,-0.61084,-0.863281,0.0473633,0
50520,-0.604492,-0.919922,0.0239258,0
50540,-0.561523,-0.932617,-0.0175781,0
50560,-0.566895,-0.88623,-0.00634766,0
50580,-0.578125,-0.756348,0.0112305,0
50600,-0.615723,-0.672363,-0.00537109,0
50620,-0.614746,-0.645996,-0.019043,0
50640,-0.612793,-0.677734,-0.0375977,0
50660,-0.644531,-0.731445,-0.0576172,0
50680,-0.624512,-0.882812,-0.0351562,0
50700,-0.673828,-0.883789,-0.0400391,0
50720,-0.694336,-0.810059,-0.00830078,0
50740,-0.71582,-0.674316,0.0756836,0
50760,-0.652832,-0.717773,0.0683594,0
50780,-0.638184,-0.932617,0.0419922,0
50800,-0.645508,-0.937012,0.0864258,0
50820,-0.622559,-0.827637,0.0493164,0
50830,-0.634277,-0.786621,0.0356445,0
50850,-0.680176,-0.789551,-0.0234375,0
50860,-0.686035,-0.725098,-0.0458984,0
50880,-0.640625,-0.815918,0.0327148,0
50920,-0.469727,-0.554199,-0.0385742,0
50940,-0.618652,-1.09277,0.00683594,0
50940,-0.699219,-1.01172,-0.0117188,0
50950,-0.609863,-0.755371,0.00488281,0
50970,-0.643066,-0.829102,0.00146484,0
50990,-0.67627,-0.914062,0.0131836,0
51010,-0.678223,-0.795898,0.0146484,0
51030,-0.586426,-0.807129,0.050293,0
51050,-0.649414,-0.702148,0.0336914,0
51070,-0.654785,-0.706055,0.0117188,0
51090,-0.633789,-0.702148,0.0229492,0
51110,-0.641602,-0.790527,0.034668,0
51130,-0.64502,-0.866699,0.0258789,0
51150,-0.624512,-0.866699,0.0395508,0
51170,-0.608887,-0.822266,0.0585938,0
51200,-0.585938,-0.810059,0.114746,0
51220,-0.583496,-0.848633,0.0996094,0
51240,-0.58252,-0.827637,0.0996094,0
51260,-0.583496,-0.820312,0.106445,0
51290,-0.602539,-0.787598,0.145996,0
51310,-0.618652,-0.793945,0.144043,0
51330,-0.617676,-0.804688,0.14502,0
51350,-0.608398,-0.818359,0.146484,0
51370,-0.586426,-0.817871,0.133301,0
51390,-0.577637,-0.825195,0.126465,0
51410,-0.582031,-0.803223,0.108398,0
51430,-0.587891,-0.760742,0.10498,0
51450,-0.586426,-0.73291,0.125488,0
51470,-0.595215,-0.758789,0.146484,0
51490,-0.60498,-0.798828,0.155273,0
51510,-0.595703,-0.82666,0.15625,0
51530,-0.615723,-0.790527,0.114746,0
51550,-0.621582,-0.779297,0.0830078,0
51570,-0.621582,-0.812012,0.0605469,0
51590,-0.672363,-0.850098,0.0991211,0
51610,-0.650879,-0.85498,0.203613,0
51630,-0.638184,-0.821777,0.134766,0
51650,-0.557617,-0.878418,0.202148,0
51670,-0.51123,-0.888672,0.18457,0
51690,-0.490723,-0.848145,0.188965,0
51710,-0.50293,-0.867188,0.211426,0
51730,-0.496094,-0.85498,0.253418,0
51750,-0.498047,-0.82373,0.266602,0
51770,-0.484863,-0.793457,0.291992,0
51790,-0.494141,-0.794922,0.314453,0
51810,-0.488281,-0.810059,0.288086,0
51830,-0.475098,-0.800781,0.287109,0
51850,-0.460938,-0.810547,0.334961,0
51870,-0.476074,-0.848633,0.361816,0
51890,-0.484863,-0.881348,0.361328,0
51910,-0.443848,-0.856445,0.364258,0
51930,-0.44043,-0.84668,0.348145,0
51950,-0.493652,-0.848145,0.333008,0
51970,-0.484863,-0.963379,0.311035,0
51990,-0.43457,-0.935547,0.308105,0
52010,-0.442383,-0.847168,0.291992,0
52030,-0.399414,-0.827637,0.316406,0
52050,-0.364746,-0.801758,0.333496,0
52070,-0.348145,-0.785156,0.34082,0
52090,-0.352539,-0.791016,0.381348,0
52110,-0.338867,-0.808594,0.379395,0
52130,-0.318848,-0.805664,0.35791,0
52150,-0.317871,-0.802734,0.330078,0
52170,-0.318848,-0.799805,0.317871,0
52190,-0.393555,-0.811523,0.325684,0
52210,-0.474609,-0.857422,0.333984,0
52230,-0.484375,-0.890625,0.325195,0
52250,-0.476562,-0.877441,0.300781,0
52270,-0.481934,-0.834473,0.30127,0
52290,-0.469238,-0.793945,0.311523,0
52310,-0.454102,-0.777344,0.311523,0
52330,-0.439941,-0.784668,0.315918,0
52350,-0.4375,-0.802734,0.333496,0
52370,-0.426758,-0.80957,0.345215,0
52390,-0.422852,-0.835449,0.357422,0
52410,-0.421875,-0.847656,0.372559,0
52430,-0.430664,-0.852051,0.366699,0
52450,-0.448242,-0.806152,0.337402,0
52470,-0.451172,-0.764648,0.32666,0
52490,-0.4375,-0.772461,0.345703,0
52510,-0.442871,-0.799805,0.359375,0
52530,-0.432129,-0.81543,0.374512,0
52550,-0.380371,-0.815918,0.364746,0
52570,-0.335938,-0.806152,0.342773,0
52610,-0.342773,-0.868652,0.443848,0
52630,-0.356934,-0.915527,0.459961,0
52650,-0.379395,-0.914062,0.444824,0
52670,-0.406738,-0.867676,0.458008,0
52690,-0.418457,-0.818848,0.443848,0
52710,-0.415039,-0.805664,0.416504,0
52730,-0.384277,-0.803711,0.39209,0
52750,-0.375,-0.81543,0.386719,0
52770,-0.385254,-0.817871,0.407227,0
52790,-0.400391,-0.82666,0.428223,0
52810,-0.442871,-0.827148,0.429688,0
52830,-0.492188,-0.773438,0.433594,0
52850,-0.478516,-0.736816,0.455566,0
52870,-0.399414,-0.756348,0.453125,0
52890,-0.347168,-0.799805,0.434082,0
52910,-0.402344,-0.830566,0.421875,0
52930,-0.448242,-0.850586,0.434082,0
52950,-0.520508,-0.850098,0.451172,0
52970,-0.544922,-0.872559,0.481934,0
52990,-0.406738,-0.99707,0.48291,0
53010,-0.338867,-0.87207,0.416504,0
53030,-0.323242,-0.804688,0.396973,0
53050,-0.362305,-0.844727,0.425781,0
53070,-0.33252,-0.781738,0.478027,0
53090,-0.241211,-0.815918,0.600586,0
53110,-0.305176,-0.690918,0.723145,0
53130,-0.325195,-0.625488,0.755859,0
53150,-0.0913086,-0.786133,0.732422,0
53170,-0.0605469,-0.839844,0.648438,0
53190,-0.0556641,-0.895508,0.609863,0
53210,-0.0380859,-0.788086,0.628906,0
53230,-0.0634766,-0.664062,0.612793,0
53250,-0.0429688,-0.582031,0.594238,0
53270,-0.0678711,-0.559082,0.571777,0
53290,-0.0927734,-0.625,0.537109,0
53310,-0.111328,-0.649414,0.536133,0
53330,-0.14209,-0.643066,0.513672,0
53350,-0.131836,-0.622559,0.466797,0
53370,-0.136719,-0.626953,0.464355,0
53390,-0.140625,-0.57959,0.48291,0
53410,-0.157227,-0.640625,0.476074,0
53430,-0.134766,-0.558594,0.398926,0
53440,-0.0649414,-0.709961,0.495117,0
53460,-0.0795898,-0.698242,0.475098,0
53480,-0.0517578,-0.720215,0.498047,0
53500,-0.0463867,-0.843262,0.535156,0
53520,-0.111328,-0.70166,0.678711,0
53540,-0.0546875,-0.729004,0.615234,0
53560,-0.0478516,-0.822754,0.637695,0
53580,-0.272461,-0.875977,0.620605,0
53600,-0.28418,-0.648926,0.624512,0
53620,-0.368652,-0.647949,0.763184,0
53640,-0.270996,-0.830566,0.671875,0
53660,-0.184082,-0.862793,0.616211,0
53680,-0.253418,-0.824219,0.647461,0
53700,-0.17627,-0.71582,0.580566,0
53720,-0.147461,-0.684082,0.571777,0
53740,-0.171875,-0.695801,0.553711,0
53760,-0.183594,-0.638184,0.524414,0
53780,-0.204102,-0.629883,0.525391,0
53800,-0.227051,-0.627441,0.46875,0
53820,-0.295898,-0.591309,0.459473,0
53840,-0.366211,-0.575684,0.468262,0
53860,-0.391113,-0.529297,0.46582,0
53880,-0.37793,-0.571289,0.602539,0
53900,-0.456543,-0.874023,0.935547,0
53920,-0.993164,-1.18262,0.977051,0
53940,-0.477539,-1.3667,0.541504,0
53960,-0.157715,-0.957031,0.423828,0
53980,-0.184082,-0.61084,0.528809,0
53990,-0.265137,-0.384277,0.490234,0
54010,-0.24707,-0.394043,0.433594,0
54030,-0.336426,-0.621094,0.447266,0
54050,-0.447266,-0.768066,0.512695,0
54070,-0.472168,-0.900391,0.496582,0
54090,-0.42334,-1.0249,0.460449,0
54110,-0.391113,-1.0415,0.452148,0
54130,-0.406738,-0.971191,0.424316,0
54150,-0.432129,-0.867188,0.39209,0
54170,-0.438965,-0.784668,0.375,0
54190,-0.45166,-0.709961,0.374512,0
54210,-0.451172,-0.662598,0.407227,0
54230,-0.442871,-0.650391,0.411621,0
54250,-0.452148,-0.669434,0.421875,0
54270,-0.462402,-0.682617,0.434082,0
54290,-0.465332,-0.680176,0.450195,0
54310,-0.466309,-0.682129,0.463867,0
54330,-0.466797,-0.703613,0.477051,0
54350,-0.455566,-0.762207,0.491699,0
54370,-0.436035,-0.793945,0.494141,0
54390,-0.419922,-0.80957,0.482422,0
54410,-0.399902,-0.79541,0.469238,0
54430,-0.381348,-0.785645,0.452148,0
54450,-0.362793,-0.800781,0.445801,0
54470,-0.388184,-0.817383,0.461914,0
54490,-0.449707,-0.824707,0.466797,0
54510,-0.475098,-0.771973,0.452637,0
54530,-0.456055,-0.726074,0.456543,0
54550,-0.466797,-0.705078,0.466797,0
54570,-0.455566,-0.706055,0.440918,0
54590,-0.441895,-0.716309,0.447266,0
54610,-0.446289,-0.724609,0.451172,0
54630,-0.447266,-0.736328,0.458008,0
54650,-0.439941,-0.743164,0.461914,0
54670,-0.443359,-0.746582,0.447266,0
54690,-0.444824,-0.765137,0.443848,0
54710,-0.470703,-0.768555,0.447754,0
54730,-0.5,-0.728027,0.439453,0
54750,-0.487793,-0.709473,0.415039,0
54770,-0.48291,-0.728027,0.423828,0
54790,-0.519043,-0.760742,0.412109,0
54810,-0.521484,-0.787109,0.421875,0
54830,-0.555664,-0.781738,0.42627,0
54850,-0.5,-0.783203,0.409668,0
54870,-0.491699,-0.796387,0.409668,0
54890,-0.458984,-0.754395,0.411621,0
54910,-0.431152,-0.774414,0.410156,0
54930,-0.40625,-0.84668,0.458984,0
54950,-0.423828,-0.912109,0.477051,0
54970,-0.332031,-0.92334,0.49707,0
54990,-0.354004,-0.888184,0.498535,0
54990,-0.325684,-0.896484,0.450684,0
55010,-0.286621,-0.882324,0.439453,0
55030,-0.301758,-0.835938,0.455078,0
55050,-0.265625,-0.851074,0.390625,0
55070,-0.303711,-0.772949,0.397949,0
55090,-0.34375,-0.74707,0.435059,0
55110,-0.351562,-0.704102,0.427734,0
55130,-0.347168,-0.70459,0.390625,0
55150,-0.347168,-0.708496,0.42041,0
55170,-0.314453,-0.759766,0.361816,0
55190,-0.289062,-0.753418,0.358887,0
55210,-0.296387,-0.772949,0.350098,0
55230,-0.269043,-0.813965,0.333984,0
55250,-0.234863,-0.886719,0.342285,0
55270,-0.236816,-0.949219,0.342773,0
55290,-0.255859,-0.98877,0.313477,0
55310,-0.23877,-0.973633,0.310059,0
55330,-0.272949,-0.96582,0.340332,0
55350,-0.319824,-0.996582,0.336426,0
55360,-0.294922,-1.08447,0.371094,0
55380,-0.253418,-0.963379,0.456055,0
55400,-0.146973,-0.826172,0.439453,0
55420,-0.065918,-0.759766,0.432129,0
55440,-0.0517578,-0.767578,0.34082,0
55460,-0.0527344,-0.805664,0.385254,0
55480,-0.0541992,-0.786133,0.436035,0
55500,-0.102539,-0.700195,0.495117,0
55520,-0.210449,-0.625977,0.555176,0
55540,-0.250488,-0.760742,0.669922,0
55560,-0.147461,-0.844238,0.64209,0
55600,-0.116699,-0.78418,0.607422,0
55620,-0.11084,-0.644043,0.588379,0
55640,-0.180176,-0.560059,0.639648,0
55660,-0.236816,-0.566406,0.687012,0
55680,-0.212891,-0.574707,0.66748,0
55690,-0.0742188,-0.73291,0.628418,0
55710,-0.0717773,-0.751465,0.685547,0
55730,-0.0507812,-0.747559,0.708008,0
55750,-0.0112305,-0.682617,0.709961,0
55770,-0.000976562,-0.624512,0.718262,0
55790,-0.000976562,-0.600586,0.719238,0
55810,-0.0322266,-0.605957,0.724121,0
55830,-0.0561523,-0.632812,0.735352,0
55850,-0.0410156,-0.610352,0.723633,0
55870,-0.0263672,-0.604004,0.711426,0
55890,-0.00878906,-0.61377,0.696289,0
55910,-0.0224609,-0.64502,0.696289,0
55930,-0.0551758,-0.669434,0.685059,0
55950,-0.0478516,-0.650879,0.691406,0
55970,-0.0317383,-0.677246,0.692383,0
55990,-0.0175781,-0.722656,0.67041,0
56010,0.00634766,-0.796875,0.633789,0
56030,0.0366211,-0.885254,0.629883,0
56050,0.0825195,-1.06055,0.571289,0
56070,0.105469,-1.17725,0.581055,0
56090,0.0751953,-1.2207,0.65332,0
56110,0.0292969,-1.1748,0.666504,0
56130,0.0463867,-1.09521,0.605957,0
56150,0.0859375,-1.05176,0.550293,0
56170,0.0610352,-0.916504,0.519043,0
56190,0.00830078,-0.835938,0.489746,0
56210,-0.0302734,-0.797363,0.448242,0
56230,-0.0498047,-0.769531,0.393066,0
56250,-0.0444336,-0.743164,0.330566,0
56270,-0.0400391,-0.69873,0.303711,0
56290,-0.0522461,-0.66748,0.266602,0
56310,-0.0898438,-0.614746,0.250488,0
56330,-0.145508,-0.58252,0.268555,0
56350,-0.161133,-0.588867,0.259277,0
56370,-0.17041,-0.636719,0.22168,0
56390,-0.23877,-0.643066,0.14502,0
56410,-0.273926,-0.697754,0.0722656,0
56430,-0.256348,-0.735352,0.0405273,0
56450,-0.237305,-0.838379,0.0200195,0
56470,-0.271484,-0.969727,0.0400391,0
56490,-0.30957,-1.06982,0.0380859,0
56510,-0.304688,-1.17285,0.0424805,0
56530,-0.23877,-1.19629,0.0991211,0
56550,-0.214355,-1.125,0.0541992,0
56570,-0.206543,-1.07471,-0.0180664,0
56590,-0.183594,-1.08984,0.0268555,0
56610,-0.242676,-1.08691,0.0756836,0
56630,-0.265137,-1.1084,0.0976562,0
56650,-0.223633,-1.09082,0.0961914,0
56670,-0.21875,-1.02197,0.0825195,0
56690,-0.232422,-0.984863,0.119141,0
56710,-0.223633,-0.993164,0.103516,0
56730,-0.226562,-0.983887,0.0952148,0
56750,-0.22168,-0.97998,0.123047,0
56770,-0.228027,-0.958984,0.148438,0
56790,-0.225098,-0.95459,0.151855,0
56810,-0.221191,-0.959473,0.141113,0
56830,-0.254395,-0.970215,0.150391,0
56850,-0.275391,-0.977051,0.164062,0
56870,-0.30127,-0.958008,0.11377,0
56890,-0.282227,-0.952148,0.0927734,0
56910,-0.268555,-0.960938,0.121094,0
56930,-0.29541,-0.953125,0.150391,0
56950,-0.316895,-0.953125,0.162109,0
56970,-0.310059,-0.946289,0.168457,0
56990,-0.298828,-0.925781,0.191895,0
57010,-0.298828,-0.897461,0.224609,0
57030,-0.294434,-0.864746,0.22998,0
57050,-0.28418,-0.862793,0.248535,0
57070,-0.279297,-0.872559,0.271484,0
57090,-0.276855,-0.879395,0.3125,0
57110,-0.26123,-0.877441,0.339355,0
57130,-0.230957,-0.852051,0.373047,0
57150,-0.205566,-0.843262,0.395508,0
57170,-0.185059,-0.827637,0.404785,0
57190,-0.20752,-0.826172,0.464355,0
57210,-0.241699,-0.833008,0.51123,0
57230,-0.232422,-0.850586,0.506348,0
57250,-0.199219,-0.838867,0.512207,0
57270,-0.186035,-0.849121,0.574219,0
57290,-0.161621,-0.86377,0.566895,0
57310,-0.146973,-0.851074,0.486328,0
57330,-0.17334,-0.82373,0.568359,0
57350,-0.200195,-0.757324,0.583496,0
57370,-0.198242,-0.703125,0.598633,0
57390,-0.152832,-0.694824,0.608398,0
57410,-0.151855,-0.735352,0.650879,0
57430,-0.148926,-0.72998,0.689941,0
57450,-0.149902,-0.70459,0.702637,0
57470,-0.151367,-0.675293,0.706543,0
57490,-0.152832,-0.682129,0.683594,0
57510,-0.160156,-0.672852,0.679688,0
57530,-0.162598,-0.679199,0.666992,0
57550,-0.177734,-0.66748,0.668457,0
57570,-0.183105,-0.649414,0.650879,0
57590,-0.17041,-0.650879,0.665039,0
57610,-0.162598,-0.650391,0.66748,0
57630,-0.17041,-0.679199,0.658203,0
57650,-0.166504,-0.651855,0.660645,0
57670,-0.171875,-0.628906,0.659668,0
57690,-0.162598,-0.631836,0.65332,0
57710,-0.179199,-0.65332,0.640137,0
57730,-0.191895,-0.65918,0.646484,0
57750,-0.199707,-0.644531,0.651855,0
57770,-0.208008,-0.626953,0.670898,0
57790,-0.224609,-0.641602,0.671875,0
57810,-0.25,-0.675781,0.672363,0
57830,-0.248535,-0.664062,0.668457,0
57850,-0.256348,-0.615723,0.648438,0
57870,-0.278809,-0.586426,0.648926,0
57890,-0.291504,-0.597168,0.614746,0
57910,-0.299316,-0.617676,0.595703,0
57930,-0.299805,-0.610352,0.601074,0
57950,-0.295898,-0.599121,0.593262,0
57970,-0.293945,-0.583984,0.575684,0
57990,-0.280273,-0.573242,0.565918,0
58010,-0.255859,-0.57666,0.558594,0
58030,-0.236816,-0.585449,0.527344,0
58050,-0.25293,-0.638184,0.52832,0
58070,-0.397949,-0.889648,0.793945,0
58090,-0.673828,-1.05322,1.16357,0
58110,-0.214355,-1.1377,0.668457,0
58130,-0.270996,-0.820312,0.399414,0
58150,-0.274414,-0.652344,0.5,0
58170,-0.306641,-0.594238,0.501465,0
58190,-0.328613,-0.665039,0.393555,0
58210,-0.353516,-0.692871,0.411133,0
58230,-0.393555,-0.743652,0.464355,0
58250,-0.413086,-0.770996,0.547363,0
58270,-0.416504,-0.826172,0.576172,0
58290,-0.391602,-0.835449,0.561523,0
58310,-0.375,-0.789062,0.524902,0
58330,-0.376465,-0.715332,0.483398,0
58350,-0.36377,-0.689453,0.475098,0
58370,-0.354492,-0.700684,0.48584,0
58390,-0.35791,-0.738281,0.503418,0
58410,-0.345703,-0.756836,0.507812,0
58430,-0.350586,-0.774902,0.518555,0
58450,-0.360352,-0.779297,0.532715,0
58470,-0.349609,-0.760254,0.540527,0
58490,-0.348145,-0.758301,0.53125,0
58510,-0.34668,-0.74707,0.527832,0
58530,-0.349609,-0.748535,0.531738,0
58550,-0.351074,-0.748047,0.516113,0
58570,-0.337402,-0.743164,0.501953,0
58590,-0.329102,-0.747559,0.492188,0
58610,-0.333984,-0.739746,0.490723,0
58630,-0.339844,-0.734375,0.491699,0
58650,-0.351562,-0.743164,0.499512,0
58670,-0.353027,-0.754883,0.512695,0
58690,-0.35498,-0.756348,0.519531,0
58710,-0.356934,-0.759766,0.529297,0
58720,-0.35498,-0.762207,0.538574,0
58740,-0.346191,-0.769043,0.543457,0
58760,-0.339355,-0.777832,0.552246,0
58780,-0.341797,-0.756348,0.547363,0
58800,-0.34668,-0.73877,0.549316,0
58820,-0.352539,-0.722656,0.538086,0
58840,-0.345703,-0.726074,0.521973,0
58860,-0.333008,-0.715332,0.501465,0
58880,-0.341309,-0.720215,0.498535,0
58900,-0.356934,-0.724609,0.498535,0
58920,-0.361328,-0.73584,0.500977,0
58940,-0.361816,-0.744141,0.495605,0
58960,-0.361816,-0.741211,0.492676,0
58980,-0.36377,-0.744141,0.488281,0
59000,-0.365723,-0.746094,0.497559,0
59020,-0.37793,-0.780273,0.526367,0
59040,-0.35498,-0.776855,0.50293,0
59060,-0.339844,-0.774902,0.503418,0
59080,-0.338867,-0.760742,0.505371,0
59100,-0.327637,-0.75293,0.501465,0
59120,-0.335449,-0.76416,0.512695,0
59140,-0.334961,-0.76709,0.518066,0
59160,-0.34082,-0.778809,0.52002,0
59180,-0.343262,-0.772461,0.494141,0
59200,-0.333984,-0.776855,0.487305,0
59220,-0.323242,-0.779785,0.46875,0
59240,-0.348145,-0.788574,0.460449,0
59260,-0.378906,-0.764648,0.48584,0
59280,-0.37793,-0.736816,0.506836,0
59300,-0.367676,-0.738281,0.503906,0
59320,-0.363281,-0.728027,0.516113,0
59340,-0.361816,-0.729492,0.524902,0
59360,-0.362793,-0.716797,0.533203,0
59380,-0.371582,-0.728516,0.526855,0
59400,-0.375488,-0.72998,0.523438,0
59420,-0.37793,-0.731934,0.523926,0
59440,-0.375977,-0.725098,0.519531,0
59460,-0.363281,-0.737793,0.515625,0
59480,-0.365723,-0.751465,0.51123,0
59500,-0.364746,-0.753418,0.525879,0
59520,-0.363281,-0.76416,0.528809,0
59540,-0.358887,-0.761719,0.53418,0
59560,-0.349609,-0.746094,0.526855,0
59580,-0.341309,-0.724121,0.526855,0
59600,-0.34375,-0.730957,0.53125,0
59620,-0.347168,-0.730957,0.532227,0
59640,-0.364746,-0.716309,0.538086,0
59660,-0.37207,-0.711914,0.538574,0
59680,-0.359863,-0.728027,0.522461,0
59700,-0.361816,-0.72998,0.516113,0
59720,-0.358398,-0.726562,0.526855,0
59740,-0.35498,-0.740723,0.52002,0
59760,-0.351562,-0.746094,0.520508,0
59780,-0.351562,-0.750488,0.524902,0
59800,-0.350098,-0.74707,0.524902,0
59820,-0.338867,-0.751953,0.518555,0
59840,-0.337402,-0.75293,0.513672,0
59860,-0.337402,-0.744629,0.513184,0
59880,-0.336426,-0.750977,0.52002,0
59900,-0.332031,-0.755859,0.518066,0
59920,-0.329102,-0.76123,0.536133,0
59940,-0.334961,-0.769043,0.541016,0
59960,-0.345703,-0.771484,0.533203,0
59980,-0.344727,-0.759766,0.522461,0
60000,-0.341797,-0.755859,0.535156,0
60020,-0.349121,-0.761719,0.521973,0
60040,-0.368164,-0.725098,0.532227,0
60060,-0.368652,-0.725586,0.532227,0
60080,-0.366211,-0.739258,0.520508,0
60100,-0.359863,-0.739258,0.53125,0
60120,-0.364746,-0.72998,0.529785,0
60140,-0.366699,-0.731934,0.523926,0
60180,-0.352539,-0.749023,0.501465,0
60200,-0.352051,-0.751953,0.495117,0
60220,-0.34375,-0.753906,0.498047,0
60240,-0.336426,-0.773438,0.496094,0
60260,-0.335449,-0.773926,0.50293,0
60280,-0.333008,-0.786621,0.505859,0
60300,-0.337402,-0.79248,0.510254,0
60320,-0.369629,-0.854004,0.498047,0
60340,-0.351074,-0.998535,0.494141,0
60360,-0.22168,-1.11816,0.522461,0
60380,-0.205566,-1.04443,0.52832,0
60400,-0.259766,-0.871094,0.501953,0
60420,-0.250977,-0.845703,0.489746,0
60440,-0.232422,-0.90918,0.499023,0
60460,-0.284668,-0.990723,0.541992,0
60480,-0.34668,-1.04004,0.598633,0
60500,-0.268555,-1.01318,0.605469,0
60520,-0.236816,-0.87793,0.546875,0
60540,-0.269043,-0.710938,0.543457,0
60560,-0.226074,-0.743652,0.536621,0
60580,-0.203613,-0.769043,0.462891,0
60600,-0.219238,-0.73877,0.433105,0
60620,-0.210449,-0.70166,0.429199,0
60640,-0.19873,-0.662598,0.397461,0
60660,-0.1875,-0.668945,0.370117,0
60680,-0.17041,-0.67627,0.357422,0
60700,-0.156738,-0.692871,0.330566,0
60710,-0.10498,-0.719727,0.342773,0
60730,-0.0698242,-0.745605,0.35791,0
60750,-0.034668,-0.762207,0.379395,0
60770,-0.00390625,-0.808594,0.385254,0
60790,0.027832,-0.827637,0.399414,0
60810,0.0380859,-0.845215,0.400879,0
60830,0.0200195,-0.868164,0.40918,0
60850,0.0234375,-0.886719,0.400391,0
60870,0.0371094,-0.909668,0.394043,0
60890,0.034668,-0.92041,0.394531,0
60910,0.012207,-0.91748,0.394043,0
60930,0.00830078,-0.908691,0.401367,0
60950,0.00244141,-0.919434,0.400391,0
60970,0.00390625,-0.926758,0.387695,0
60990,0.00195312,-0.925781,0.384766,0
61010,-0.00146484,-0.915527,0.382324,0
61030,-0.00927734,-0.89209,0.382812,0
61050,-0.0136719,-0.883301,0.383789,0
61070,-0.0175781,-0.88916,0.383789,0
61090,-0.0249023,-0.88623,0.383789,0
61110,-0.0366211,-0.874023,0.398438,0
61130,-0.0449219,-0.871582,0.401855,0
61150,-0.0537109,-0.832031,0.388184,0
61170,-0.0576172,-0.802734,0.408203,0
61190,-0.0571289,-0.812012,0.433594,0
61210,-0.0644531,-0.855957,0.441895,0
61230,-0.0942383,-0.858398,0.443359,0
61250,-0.141113,-0.791992,0.482422,0
61270,-0.161133,-0.708984,0.603027,0
61290,-0.0825195,-0.71582,0.55957,0
61310,0.0874023,-0.79248,0.468262,0
61330,0.143555,-0.822266,0.477051,0
61350,0.114258,-0.848145,0.475586,0
61370,0.081543,-0.824707,0.551758,0
61390,0.0537109,-0.888184,0.623535,0
61410,0.0214844,-0.862793,0.638184,0
61430,0.0463867,-0.813965,0.631348,0
61450,0.0742188,-0.780273,0.619629,0
61470,0.0571289,-0.746094,0.634277,0
61490,0.0576172,-0.73584,0.638672,0
61510,0.0600586,-0.69043,0.641602,0
61530,0.0605469,-0.674805,0.631348,0
61550,0.0800781,-0.682617,0.625977,0
61570,0.0639648,-0.691895,0.605957,0
61590,0.0732422,-0.710449,0.547363,0
61610,0.0537109,-0.699219,0.572266,0
61630,-0.0170898,-0.816895,0.604492,0
61650,-0.114746,-0.902832,0.529297,0
61670,-0.0961914,-0.890625,0.631836,0
61690,0.019043,-0.742676,0.526855,0
61710,0.17041,-0.731934,0.339844,0
61730,0.0952148,-0.729492,0.383789,0
61750,-0.00439453,-0.915039,0.352051,0
61770,-0.113281,-1.1001,0.412109,0
61790,-0.175293,-1.10693,0.533691,0
61810,-0.050293,-1.04932,0.442383,0
61830,0.0576172,-0.80127,0.458008,0
61850,0.0517578,-0.678223,0.416504,0
61870,0.0800781,-0.715332,0.351074,0
61890,0.0488281,-0.820801,0.337402,0
61910,-0.0273438,-0.887207,0.334961,0
61930,-0.0273438,-0.929688,0.330078,0
61950,-0.015625,-0.92334,0.335938,0
61970,-0.00927734,-0.927246,0.319336,0
61990,-0.0180664,-0.940918,0.291504,0
62010,-0.0424805,-0.949219,0.280273,0
62030,-0.0639648,-0.95166,0.291992,0
62050,-0.0756836,-0.976562,0.30957,0
62070,-0.0664062,-0.984863,0.320801,0
62090,-0.0742188,-0.967285,0.306641,0
62110,-0.09375,-0.930664,0.339844,0
62130,-0.0742188,-0.90332,0.336914,0
62150,-0.0791016,-0.899414,0.343262,0
62170,-0.0810547,-0.881836,0.328125,0
62190,-0.065918,-0.943359,0.324707,0
62210,-0.0541992,-0.978516,0.365723,0
62230,-0.0263672,-0.959473,0.334473,0
62250,-0.0224609,-0.901367,0.31543,0
62270,-0.0854492,-0.887207,0.327148,0
62290,-0.0712891,-0.931641,0.335449,0
62310,-0.0693359,-0.906738,0.354004,0
62330,-0.0981445,-0.88916,0.374023,0
62350,-0.11377,-0.890625,0.379395,0
62370,-0.0878906,-0.908203,0.365234,0
62390,-0.0771484,-0.873535,0.355957,0
62410,-0.0805664,-0.874512,0.355957,0
62430,-0.0898438,-0.862793,0.353027,0
62450,-0.143555,-0.825195,0.369629,0
62470,-0.164062,-0.812988,0.390137,0
62490,-0.174316,-0.797852,0.390137,0
62510,-0.179688,-0.793945,0.384277,0
62530,-0.1875,-0.783203,0.382812,0
62550,-0.20166,-0.740234,0.391113,0
62570,-0.20752,-0.761719,0.378418,0
62590,-0.199219,-0.787109,0.367188,0
62610,-0.211914,-0.831543,0.386719,0
62630,-0.205566,-0.870605,0.44043,0
62650,-0.222656,-0.909668,0.438965,0
62670,-0.230469,-0.916992,0.476074,0
62690,-0.233887,-0.941895,0.502441,0
62710,-0.237793,-0.960449,0.543457,0
62730,-0.234375,-0.954102,0.533691,0
62750,-0.264648,-0.94043,0.52832,0
62770,-0.246094,-0.925293,0.528809,0
62790,-0.229492,-0.932129,0.512695,0
62810,-0.234863,-0.916016,0.507324,0
62830,-0.236328,-0.888672,0.487793,0
62850,-0.236816,-0.852539,0.460938,0
62870,-0.251953,-0.825684,0.466309,0
62890,-0.279785,-0.816895,0.467285,0
62910,-0.305176,-0.797852,0.463379,0
62930,-0.327637,-0.787598,0.464355,0
62950,-0.335938,-0.76416,0.467773,0
62970,-0.334961,-0.76416,0.46875,0
62990,-0.334961,-0.752441,0.47168,0
63010,-0.333984,-0.752441,0.482422,0
63030,-0.327637,-0.760254,0.479492,0
63050,-0.330078,-0.766602,0.486328,0
63070,-0.335449,-0.782227,0.481934,0
63090,-0.325684,-0.79541,0.483887,0
63110,-0.3125,-0.810059,0.477539,0
63130,-0.293457,-0.843262,0.474609,0
63150,-0.239258,-0.899414,0.493164,0
63170,-0.18457,-0.942871,0.492676,0
63190,-0.106934,-0.986816,0.51416,0
63210,-0.0556641,-0.982422,0.553223,0
63230,-0.0361328,-0.945312,0.553223,0
63250,-0.027832,-0.943848,0.549316,0
63270,-0.0498047,-0.932617,0.545898,0
63290,-0.0932617,-0.917969,0.523438,0
63310,-0.110352,-0.900879,0.509766,0
63330,-0.127441,-0.870605,0.478027,0
63350,-0.152344,-0.833496,0.465332,0
63370,-0.176758,-0.805176,0.443359,0
63390,-0.186035,-0.791504,0.412109,0
63410,-0.187988,-0.762695,0.397461,0
63430,-0.199219,-0.745117,0.388184,0
63450,-0.191895,-0.726562,0.375977,0
63470,-0.199219,-0.730469,0.362793,0
63490,-0.198242,-0.731934,0.36377,0
63510,-0.179199,-0.773438,0.356445,0
63530,-0.15332,-0.780762,0.375488,0
63550,-0.142578,-0.806152,0.377441,0
63570,-0.118652,-0.836914,0.388184,0
63590,-0.130371,-0.837402,0.402832,0
63610,-0.13623,-0.864258,0.398926,0
63630,-0.129883,-0.882812,0.420898,0
63650,-0.140137,-0.908203,0.428223,0
63670,-0.121582,-0.941406,0.406738,0
63690,-0.0878906,-0.984375,0.390137,0
63710,-0.0493164,-1.01758,0.380859,0
63730,-0.027832,-1.02393,0.365723,0
63750,-0.0205078,-1.0415,0.375488,0
63770,-0.0239258,-1.01465,0.39502,0
63790,-0.0478516,-0.964355,0.40332,0
63810,-0.0410156,-0.947266,0.394043,0
63830,-0.0361328,-0.924316,0.395996,0
63850,-0.0297852,-0.899902,0.383301,0
63870,-0.0117188,-0.890625,0.381836,0
63890,-0.0166016,-0.857422,0.382812,0
63910,-0.00585938,-0.847656,0.374512,0
63930,-0.00341797,-0.834473,0.381348,0
63950,-0.00537109,-0.821777,0.380371,0
63970,-0.00439453,-0.81543,0.373047,0
63990,-0.00878906,-0.810547,0.382324,0
64010,-0.015625,-0.812012,0.389648,0
64030,-0.0107422,-0.833496,0.375488,0
64050,0.000488281,-0.848633,0.375,0
64070,0.00585938,-0.85791,0.373535,0
64090,0.0249023,-0.875977,0.367676,0
64110,0.0258789,-0.900391,0.396973,0
64120,0.0175781,-0.928711,0.387695,0
64140,0.0131836,-0.96582,0.387695,0
64160,-0.00439453,-0.963379,0.38623,0
64180,0.00244141,-0.936523,0.367676,0
64200,0.00927734,-0.936523,0.364258,0
64220,0.0146484,-0.921387,0.366699,0
64240,0.0249023,-0.912109,0.369141,0
64260,0.0253906,-0.904297,0.376953,0
64280,0.0302734,-0.88916,0.379395,0
64300,0.0429688,-0.876465,0.379883,0
64320,0.0566406,-0.849609,0.390625,0
64340,0.0522461,-0.855469,0.390137,0
64360,0.0546875,-0.854492,0.395996,0
64380,0.0522461,-0.85498,0.406738,0
64400,0.0546875,-0.867676,0.415039,0
64420,0.0488281,-0.867188,0.415039,0
64440,0.0390625,-0.870605,0.413086,0
64460,0.0444336,-0.871582,0.398926,0
64480,0.0400391,-0.882812,0.410645,0
64500,0.0488281,-0.883789,0.399902,0
64520,0.0561523,-0.902344,0.40332,0
64540,0.0751953,-0.905273,0.387695,0
64560,0.0698242,-0.904297,0.381836,0
64580,0.0712891,-0.905762,0.375488,0
64600,0.0810547,-0.904297,0.37207,0
64620,0.0791016,-0.921875,0.388184,0
64640,0.0874023,-0.91748,0.385254,0
64660,0.0952148,-0.933594,0.38623,0
64680,0.116699,-0.933105,0.387207,0
64700,0.153809,-0.989258,0.402344,0
64720,0.223145,-1.02979,0.383301,0
64740,0.287109,-1.06885,0.404785,0
64760,0.361328,-1.05908,0.445312,0
64780,0.335938,-0.99707,0.41748,0
64800,0.255371,-0.947754,0.40332,0
64820,0.149414,-0.893555,0.381348,0
64840,0.081543,-0.901367,0.357422,0
64860,0.0371094,-0.888672,0.324707,0
64880,0.00292969,-0.865723,0.288574,0
64900,-0.00976562,-0.831055,0.263672,0
64920,-0.0151367,-0.822266,0.244141,0
64940,-0.0249023,-0.833984,0.226562,0
64960,-0.00732422,-0.868652,0.207031,0
64980,0.00878906,-0.869629,0.188477,0
65000,0.0117188,-0.863281,0.188965,0
65020,0.0390625,-0.90332,0.18457,0
65040,0.065918,-0.937012,0.20459,0
65060,0.074707,-0.949707,0.187988,0
65080,0.0834961,-0.966797,0.161133,0
65100,0.0786133,-0.961426,0.180176,0
65120,0.0571289,-0.958496,0.169922,0
65140,0.0341797,-0.936035,0.172363,0
65160,0.00244141,-0.927734,0.167969,0
65180,-0.0205078,-0.89209,0.166992,0
65200,-0.0664062,-0.856934,0.179199,0
65220,-0.126465,-0.817383,0.185059,0
65240,-0.214355,-0.746582,0.197266,0
65260,-0.267578,-0.663086,0.182129,0
65280,-0.273438,-0.593262,0.176758,0
65300,-0.23584,-0.578613,0.218262,0
65320,-0.16748,-0.609863,0.294434,0
65340,-0.102051,-0.733887,0.359375,0
65360,0.0214844,-0.822754,0.397949,0
65380,0.104492,-0.844727,0.427246,0
65400,0.0522461,-0.936523,0.45459,0
65420,0.0170898,-1.01562,0.459961,0
65440,-0.0786133,-1.13232,0.469238,0
65460,-0.122559,-1.11523,0.544434,0
65480,-0.217773,-1.03516,0.554688,0
65500,-0.231934,-1.15137,0.523926,0
65520,-0.27832,-1.14795,0.590332,0
65540,-0.23291,-1.17236,0.63623,0
65560,-0.286133,-1.09229,0.734863,0
65580,-0.211914,-1.05371,0.646484,0
65600,-0.172852,-0.988281,0.413086,0
65620,-0.285156,-0.82666,0.415527,0
65640,-0.290039,-0.779785,0.439941,0
65660,-0.265137,-0.770508,0.385742,0
65680,-0.356445,-0.680176,0.388672,0
