Timestamp, Acceleration x, Acceleration y, Acceleration z, Marker
40,-0.580078,-0.720703,0.393555,0
60,-0.591797,-0.717285,0.369629,0
80,-0.583008,-0.724121,0.367676,0
100,-0.582031,-0.743652,0.370605,0
120,-0.578613,-0.760254,0.369141,0
140,-0.575684,-0.761719,0.364746,0
160,-0.579102,-0.774902,0.349609,0
170,-0.57373,-0.777344,0.34375,0
180,-0.565918,-0.794434,0.362305,0
220,-0.570312,-0.79248,0.36377,0
240,-0.57666,-0.782227,0.375488,0
260,-0.580566,-0.756836,0.378906,0
280,-0.578125,-0.724609,0.384277,0
300,-0.59375,-0.718262,0.385254,0
310,-0.583496,-0.709473,0.370605,0
330,-0.595703,-0.703125,0.369141,0
350,-0.596191,-0.711426,0.369141,0
370,-0.605957,-0.728516,0.370117,0
390,-0.614746,-0.750977,0.361328,0
410,-0.606445,-0.752441,0.355957,0
430,-0.597656,-0.749512,0.346191,0
450,-0.601074,-0.746094,0.34375,0
470,-0.613281,-0.744629,0.354492,0
490,-0.609863,-0.754395,0.34668,0
510,-0.601562,-0.765137,0.352051,0
530,-0.605469,-0.766113,0.365234,0
550,-0.609375,-0.749512,0.362793,0
570,-0.605469,-0.74707,0.374512,0
590,-0.612793,-0.716309,0.365234,0
610,-0.614746,-0.697754,0.364746,0
630,-0.628906,-0.683105,0.361328,0
650,-0.64502,-0.682129,0.366211,0
670,-0.649902,-0.710449,0.381836,0
690,-0.637695,-0.732422,0.379395,0
710,-0.612305,-0.723633,0.367188,0
730,-0.603027,-0.733398,0.367188,0
750,-0.580078,-0.75,0.375,0
770,-0.588379,-0.749023,0.371582,0
790,-0.585938,-0.742676,0.362793,0
810,-0.600586,-0.731445,0.351074,0
830,-0.60498,-0.73291,0.359863,0
850,-0.61084,-0.733398,0.348145,0
870,-0.614258,-0.727051,0.353516,0
890,-0.608887,-0.727539,0.356934,0
910,-0.601074,-0.728516,0.361816,0
930,-0.611328,-0.736328,0.379395,0
950,-0.598633,-0.740234,0.380371,0
970,-0.602539,-0.739746,0.37207,0
990,-0.589844,-0.746582,0.373047,0
1010,-0.59375,-0.73877,0.379883,0
1030,-0.591309,-0.734863,0.382812,0
1050,-0.572266,-0.713867,0.378906,0
1070,-0.584961,-0.728516,0.395996,0
1090,-0.579102,-0.740723,0.399414,0
1110,-0.582031,-0.730957,0.402832,0
1130,-0.569336,-0.734863,0.403809,0
1150,-0.565918,-0.743652,0.408691,0
1170,-0.568359,-0.713867,0.403809,0
1190,-0.567383,-0.742676,0.430664,0
1210,-0.572754,-0.761719,0.419434,0
1230,-0.576172,-0.75,0.41748,0
1270,-0.568359,-0.724121,0.41748,0
1290,-0.567871,-0.724121,0.42627,0
1310,-0.563477,-0.737793,0.426758,0
1330,-0.55127,-0.741211,0.437988,0
1340,-0.550781,-0.744629,0.444336,0
1360,-0.541016,-0.742676,0.453125,0
1380,-0.54834,-0.745605,0.463867,0
1400,-0.52002,-0.751953,0.46875,0
1420,-0.528809,-0.73584,0.460449,0
1440,-0.53125,-0.742188,0.457031,0
1470,-0.519043,-0.727051,0.459473,0
1490,-0.499023,-0.756348,0.481445,0
1510,-0.498535,-0.748535,0.487793,0
1530,-0.49707,-0.734375,0.490234,0
1550,-0.480469,-0.747559,0.504395,0
1570,-0.48877,-0.726562,0.49707,0
1590,-0.479492,-0.716797,0.51123,0
1610,-0.498535,-0.692871,0.53125,0
1640,-0.470215,-0.718262,0.552734,0
1660,-0.489258,-0.641113,0.523438,0
1680,-0.459961,-0.693848,0.556641,0
1700,-0.455566,-0.688477,0.552734,0
1720,-0.463379,-0.702148,0.55127,0
1740,-0.44873,-0.703613,0.573242,0
1750,-0.438965,-0.703613,0.578613,0
1760,-0.444336,-0.695312,0.570801,0
1780,-0.436035,-0.684082,0.585449,0
1800,-0.436035,-0.700195,0.606934,0
1820,-0.435547,-0.699707,0.611816,0
1840,-0.430176,-0.724609,0.614258,0
1860,-0.417969,-0.713379,0.603027,0
1880,-0.409668,-0.699219,0.607422,0
1910,-0.401367,-0.709473,0.604492,0
1930,-0.399414,-0.710449,0.614258,0
1950,-0.395508,-0.70459,0.618164,0
1960,-0.39209,-0.701172,0.623047,0
1990,-0.387207,-0.721191,0.638184,0
2000,-0.394043,-0.693848,0.628418,0
2010,-0.410645,-0.6875,0.631836,0
2050,-0.390625,-0.697266,0.625977,0
2070,-0.377441,-0.710449,0.613281,0
2090,-0.385254,-0.703125,0.608887,0
2110,-0.391602,-0.680664,0.595215,0
2120,-0.382324,-0.687012,0.604492,0
2140,-0.38623,-0.678711,0.61377,0
2170,-0.385254,-0.695801,0.623047,0
2190,-0.381836,-0.684082,0.616211,0
2210,-0.365234,-0.69873,0.628906,0
2230,-0.369629,-0.695801,0.623047,0
2240,-0.375,-0.725586,0.62793,0
2240,-0.388672,-0.709961,0.636719,0
2260,-0.375977,-0.705566,0.632324,0
2280,-0.356445,-0.704102,0.627441,0
2310,-0.350586,-0.692383,0.651367,0
2330,-0.353027,-0.693848,0.648438,0
2340,-0.374023,-0.687988,0.637695,0
2380,-0.37207,-0.694824,0.637207,0
2400,-0.361328,-0.693359,0.655762,0
2410,-0.362305,-0.687012,0.664062,0
2430,-0.350586,-0.67627,0.651855,0
2450,-0.347656,-0.668945,0.650879,0
2460,-0.357422,-0.654297,0.657227,0
2480,-0.369629,-0.647949,0.661621,0
2500,-0.381836,-0.628906,0.680664,0
2530,-0.358887,-0.688477,0.689453,0
2550,-0.34082,-0.697266,0.678711,0
2570,-0.294434,-0.709473,0.665039,0
2600,-0.277344,-0.730469,0.690918,0
2630,-0.27832,-0.739746,0.669922,0
2650,-0.266113,-0.720703,0.669434,0
2670,-0.266602,-0.724609,0.660156,0
2690,-0.273926,-0.724121,0.654297,0
2710,-0.297852,-0.689453,0.639648,0
2720,-0.333008,-0.665039,0.653809,0
2730,-0.337891,-0.663086,0.670898,0
2750,-0.345215,-0.675781,0.705078,0
2770,-0.357422,-0.693848,0.700684,0
2790,-0.382812,-0.685059,0.685547,0
2810,-0.373535,-0.660645,0.683105,0
2830,-0.367676,-0.64502,0.683105,0
2850,-0.383301,-0.654785,0.675781,0
2870,-0.364258,-0.682129,0.669434,0
2890,-0.340332,-0.704102,0.631836,0
2910,-0.355957,-0.726562,0.604004,0
2930,-0.355469,-0.722168,0.593262,0
2950,-0.366211,-0.721191,0.609375,0
2970,-0.374512,-0.720215,0.642578,0
2990,-0.37793,-0.713379,0.634277,0
3010,-0.368164,-0.668945,0.620117,0
3030,-0.374023,-0.693359,0.587891,0
3060,-0.369629,-0.771484,0.573242,0
3080,-0.359375,-0.771973,0.557617,0
3090,-0.383789,-0.75293,0.572266,0
3110,-0.383789,-0.76709,0.560547,0
3110,-0.453613,-0.736328,0.575195,0
3130,-0.458984,-0.736816,0.5625,0
3140,-0.462891,-0.736328,0.541504,0
3150,-0.471191,-0.70752,0.518066,0
3170,-0.467285,-0.695312,0.513672,0
3190,-0.469727,-0.690918,0.525391,0
3200,-0.475586,-0.701172,0.520996,0
3210,-0.495117,-0.741211,0.526367,0
3230,-0.495605,-0.744629,0.514648,0
3250,-0.49707,-0.745605,0.479492,0
3270,-0.500488,-0.763672,0.446289,0
3290,-0.504395,-0.772461,0.439453,0
3310,-0.510742,-0.768066,0.427246,0
3340,-0.510254,-0.760254,0.42041,0
3370,-0.524414,-0.746094,0.387695,0
3380,-0.52002,-0.76123,0.403809,0
3380,-0.460938,-0.814941,0.381836,0
3400,-0.433105,-0.796875,0.386719,0
3400,-0.464355,-0.798828,0.435547,0
3420,-0.46582,-0.799316,0.421875,0
3420,-0.478027,-0.800781,0.425781,0
3440,-0.472656,-0.791504,0.428223,0
3460,-0.475098,-0.796875,0.4375,0
3480,-0.469727,-0.794922,0.449219,0
3510,-0.450684,-0.791016,0.436523,0
3530,-0.452637,-0.757324,0.418945,0
3550,-0.449707,-0.779297,0.446777,0
3570,-0.454102,-0.789062,0.464355,0
3590,-0.482422,-0.765137,0.486328,0
3590,-0.448242,-0.774414,0.481445,0
3630,-0.4375,-0.791504,0.507324,0
3650,-0.437988,-0.776855,0.512695,0
3650,-0.404785,-0.750977,0.498535,0
3680,-0.368164,-0.730957,0.530762,0
3720,-0.410645,-0.736816,0.578613,0
3740,-0.428223,-0.755859,0.595215,0
3760,-0.379395,-0.774902,0.62207,0
3780,-0.449707,-0.700684,0.59668,0
3800,-0.39209,-0.707031,0.611816,0
3820,-0.402344,-0.712891,0.60791,0
3840,-0.409668,-0.714355,0.625,0
3860,-0.378906,-0.724121,0.630371,0
3880,-0.463867,-0.669922,0.609375,0
3900,-0.385254,-0.678711,0.636719,0
3920,-0.407715,-0.665527,0.647461,0
3940,-0.349121,-0.652344,0.65625,0
3960,-0.362305,-0.67041,0.663086,0
3980,-0.350098,-0.671875,0.644043,0
4000,-0.322754,-0.649902,0.64209,0
4020,-0.34668,-0.67334,0.648438,0
4040,-0.361328,-0.665527,0.668457,0
4070,-0.350586,-0.669434,0.690918,0
4090,-0.348633,-0.638184,0.693848,0
4110,-0.34082,-0.655273,0.694336,0
4130,-0.311035,-0.671875,0.689941,0
4150,-0.272461,-0.670898,0.702148,0
4170,-0.283691,-0.661621,0.706543,0
4190,-0.287109,-0.646973,0.714355,0
4210,-0.266602,-0.638184,0.741211,0
4230,-0.253418,-0.634277,0.773438,0
4260,-0.282227,-0.63623,0.775879,0
4280,-0.300781,-0.64502,0.73877,0
4320,-0.333008,-0.666016,0.686523,0
4340,-0.329102,-0.66748,0.679199,0
4360,-0.353027,-0.660156,0.674316,0
4380,-0.339355,-0.669434,0.666992,0
4400,-0.328125,-0.672852,0.685059,0
4420,-0.327637,-0.667969,0.69043,0
4440,-0.318359,-0.660645,0.687012,0
4460,-0.306152,-0.666992,0.682129,0
4480,-0.310059,-0.673828,0.679688,0
4500,-0.31543,-0.680664,0.680176,0
4520,-0.303711,-0.679688,0.67627,0
4540,-0.293945,-0.681641,0.687012,0
4560,-0.301758,-0.670898,0.700684,0
4590,-0.309082,-0.670898,0.694336,0
4640,-0.321289,-0.675293,0.677734,0
4650,-0.322754,-0.684082,0.671875,0
4670,-0.313965,-0.677246,0.679688,0
4700,-0.310059,-0.692383,0.670898,0
4720,-0.306152,-0.692871,0.665527,0
4740,-0.302734,-0.688965,0.665039,0
4760,-0.297852,-0.688477,0.679688,0
4780,-0.292969,-0.686523,0.695801,0
4800,-0.29248,-0.698242,0.694336,0
4820,-0.293457,-0.702637,0.691406,0
4840,-0.291016,-0.700684,0.686035,0
4860,-0.285156,-0.694336,0.664062,0
4880,-0.285156,-0.693359,0.655273,0
4900,-0.295898,-0.708496,0.655273,0
4920,-0.307617,-0.704102,0.652344,0
4940,-0.319824,-0.698242,0.654785,0
4960,-0.32959,-0.705566,0.641602,0
4980,-0.333496,-0.716309,0.625977,0
5010,-0.335938,-0.706055,0.629883,0
5050,-0.338379,-0.737305,0.61084,0
5080,-0.354004,-0.735352,0.618164,0
5110,-0.333496,-0.747559,0.598145,0
5160,-0.330566,-0.76709,0.571289,0
5180,-0.345703,-0.768555,0.555664,0
5210,-0.384766,-0.789062,0.503418,0
5250,-0.359375,-0.802734,0.510742,0
5280,-0.363281,-0.790039,0.521973,0
5320,-0.36084,-0.770508,0.569336,0
5340,-0.355957,-0.767578,0.567383,0
5350,-0.359863,-0.748047,0.565918,0
5370,-0.374023,-0.751465,0.584473,0
5400,-0.404785,-0.743164,0.555664,0
5420,-0.391602,-0.744141,0.560059,0
5440,-0.389648,-0.743652,0.56543,0
5470,-0.425781,-0.713867,0.583008,0
5500,-0.418457,-0.721191,0.572754,0
5580,-0.405273,-0.70166,0.613281,0
5580,-0.402832,-0.691895,0.611816,0
5630,-0.391113,-0.710449,0.609863,0
5690,-0.399414,-0.712891,0.60791,0
5700,-0.393555,-0.712891,0.604492,0
5720,-0.39502,-0.712402,0.607422,0
5740,-0.394531,-0.710938,0.600586,0
5760,-0.394043,-0.714355,0.604492,0
5790,-0.393066,-0.71582,0.601562,0
5830,-0.394531,-0.711914,0.60498,0
5850,-0.397461,-0.713379,0.59668,0
5880,-0.39502,-0.708496,0.612793,0
5890,-0.397461,-0.703125,0.610352,0
5930,-0.39209,-0.712402,0.609375,0
5950,-0.389648,-0.712891,0.611816,0
5960,-0.393066,-0.705078,0.618164,0
6010,-0.400391,-0.70752,0.611328,0
6030,-0.393555,-0.708984,0.604492,0
6030,-0.395508,-0.714355,0.606445,0
6050,-0.395996,-0.706543,0.607422,0
6050,-0.398926,-0.712891,0.602539,0
6070,-0.397461,-0.709473,0.598633,0
6090,-0.398926,-0.711914,0.60791,0
6110,-0.399414,-0.70752,0.605469,0
6130,-0.398926,-0.716309,0.601562,0
6140,-0.396973,-0.709961,0.60498,0
6160,-0.400391,-0.713379,0.592773,0
6160,-0.397949,-0.714844,0.601562,0
6180,-0.398926,-0.709961,0.609863,0
6200,-0.404785,-0.710449,0.603516,0
6220,-0.403809,-0.710938,0.602539,0
6240,-0.403809,-0.713867,0.599121,0
6240,-0.402832,-0.709473,0.600586,0
6250,-0.402832,-0.710938,0.597168,0
6280,-0.399902,-0.710938,0.602051,0
6300,-0.398438,-0.710449,0.602051,0
6360,-0.401855,-0.714355,0.605957,0
6370,-0.397461,-0.711914,0.60791,0
6390,-0.395508,-0.708008,0.608398,0
6450,-0.393555,-0.708984,0.606445,0
6470,-0.398438,-0.708984,0.605469,0
6500,-0.395508,-0.708984,0.604492,0
6520,-0.396973,-0.705566,0.61084,0
6540,-0.398438,-0.711426,0.600586,0
6560,-0.398926,-0.705078,0.602539,0
6580,-0.393555,-0.708496,0.604492,0
6640,-0.396484,-0.708008,0.609863,0
6640,-0.394043,-0.706055,0.606934,0
6690,-0.396484,-0.709961,0.609375,0
6710,-0.399414,-0.704102,0.602539,0
6790,-0.431641,-0.780273,0.503418,0
6820,-0.486816,-0.777344,0.480957,0
6840,-0.368652,-0.82959,0.54248,0
6880,-0.108398,-0.875977,0.662598,0
6900,-0.0336914,-0.862793,0.641113,0
6920,0.0463867,-0.845703,0.593262,0
6940,0.132324,-0.831055,0.578125,0
6970,0.27832,-0.747559,0.517578,0
6990,0.320312,-0.746582,0.484863,0
7010,0.37207,-0.765625,0.441895,0
7030,0.381836,-0.776367,0.424805,0
7050,0.356445,-0.775879,0.413086,0
7070,0.402832,-0.756348,0.382812,0
7090,0.465332,-0.759277,0.376465,0
7110,0.484375,-0.736328,0.374512,0
7130,0.453125,-0.739746,0.377441,0
7150,0.380371,-0.761719,0.38623,0
7170,0.331543,-0.780273,0.427246,0
7190,0.289062,-0.791016,0.439941,0
7210,0.255371,-0.824219,0.469238,0
7230,0.242188,-0.834961,0.481445,0
7250,0.259277,-0.850586,0.492676,0
7270,0.240234,-0.822754,0.48877,0
7290,0.258789,-0.816895,0.473633,0
7310,0.263184,-0.836914,0.478516,0
7330,0.296387,-0.873535,0.481934,0
7350,0.350586,-0.881348,0.447266,0
7370,0.374512,-0.865234,0.436035,0
7390,0.385742,-0.842773,0.436035,0
7410,0.397461,-0.821289,0.45752,0
7430,0.404297,-0.804688,0.461914,0
7450,0.40625,-0.812988,0.446289,0
7470,0.419434,-0.833984,0.441406,0
7490,0.439941,-0.84082,0.443359,0
7510,0.443359,-0.828125,0.442871,0
7530,0.45459,-0.817383,0.454102,0
7550,0.449707,-0.810059,0.44873,0
7580,0.417969,-0.819824,0.460938,0
7600,0.424805,-0.815918,0.442383,0
7620,0.434082,-0.810547,0.432129,0
7640,0.450195,-0.808105,0.44873,0
7660,0.43457,-0.794922,0.456543,0
7680,0.422852,-0.799316,0.454102,0
7700,0.412598,-0.794922,0.450195,0
7720,0.402344,-0.783203,0.458984,0
7740,0.409668,-0.791504,0.463867,0
7760,0.419434,-0.793945,0.454102,2000
7780,0.422363,-0.802246,0.47168,0
7800,0.419434,-0.806152,0.455566,0
7820,0.427734,-0.808594,0.45752,0
7840,0.432617,-0.814941,0.467285,0
7860,0.430176,-0.813477,0.473633,0
7880,0.416992,-0.819336,0.470215,0
7900,0.427734,-0.816895,0.470703,0
7920,0.431152,-0.81543,0.476074,0
7940,0.439453,-0.813965,0.468262,0
7960,0.442871,-0.822266,0.473633,0
7980,0.435059,-0.821777,0.460449,0
8000,0.42627,-0.816406,0.455078,0
8020,0.430176,-0.8125,0.463379,0
8040,0.438965,-0.791992,0.449707,0
8060,0.426758,-0.802734,0.444824,0
8080,0.430176,-0.792969,0.459473,0
8100,0.413086,-0.798828,0.461914,0
8120,0.405273,-0.810547,0.46875,0
8140,0.387207,-0.816895,0.467773,0
8170,0.308594,-0.829102,0.486816,0
8190,0.269043,-0.831055,0.490234,0
8210,0.271484,-0.845703,0.46875,0
8230,0.34082,-0.850098,0.484375,0
8250,0.356445,-0.842773,0.497559,0
8270,0.371094,-0.834961,0.490234,0
8290,0.395508,-0.822266,0.479492,0
8310,0.423828,-0.806641,0.474609,0
8330,0.46875,-0.774902,0.459473,0
8350,0.524902,-0.766113,0.455566,0
8370,0.576172,-0.76416,0.466309,0
8390,0.594727,-0.747559,0.456543,0
8410,0.605469,-0.727051,0.447754,0
8430,0.617676,-0.693848,0.449219,0
8450,0.631348,-0.694824,0.449707,0
8480,0.631836,-0.669922,0.439453,0
8500,0.626953,-0.676758,0.452148,0
8520,0.599121,-0.686523,0.457031,0
8540,0.605469,-0.693359,0.466797,0
8560,0.629395,-0.703125,0.449219,0
8570,0.628418,-0.69043,0.450195,0
8590,0.60791,-0.750488,0.432129,0
8610,0.669434,-0.674805,0.423828,0
8620,0.763184,-0.606934,0.41748,0
8640,0.762695,-0.58252,0.415527,0
8650,0.797852,-0.55957,0.396973,0
8660,0.856934,-0.563477,0.423828,0
8680,0.855957,-0.52832,0.43457,0
8700,0.744141,-0.531738,0.459473,0
8720,0.726074,-0.586914,0.512207,0
8740,0.688965,-0.611816,0.587891,0
8760,0.664551,-0.620117,0.56543,0
8780,0.662109,-0.605469,0.554688,0
8800,0.645996,-0.580078,0.599121,0
8820,0.560547,-0.589355,0.669434,0
8840,0.535156,-0.629395,0.675781,0
8860,0.516113,-0.657227,0.685547,0
8880,0.509766,-0.655762,0.722168,0
8900,0.44043,-0.643555,0.692383,0
8920,0.394531,-0.60498,0.682617,0
8940,0.418457,-0.67041,0.691895,0
8960,0.367676,-0.70166,0.697266,0
8980,0.348633,-0.681641,0.677246,0
9000,0.380371,-0.617676,0.661621,0
9020,0.374023,-0.571289,0.680176,0
9040,0.32666,-0.641602,0.70166,0
9060,0.32373,-0.683105,0.697754,0
9080,0.345703,-0.694336,0.681152,0
9100,0.338379,-0.666992,0.665527,0
9120,0.308105,-0.660645,0.644043,0
9150,0.290039,-0.720215,0.589355,0
9170,0.338379,-0.703125,0.569824,0
9210,0.386719,-0.72998,0.558594,0
9230,0.370605,-0.76123,0.540527,0
9250,0.608887,-0.806641,0.709473,0
9280,0.555664,-0.586426,0.266113,0
9300,-0.0444336,-1.01123,0.300781,0
9330,-0.180664,-1.06055,-0.0229492,0
9350,1.04932,-0.553223,0.730957,0
9370,0.180664,-1.06445,0.368164,0
9390,0.467773,-0.894043,0.491699,0
9410,0.530273,-0.779785,0.335938,0
9430,0.601074,-0.780273,0.307617,0
9450,0.650879,-0.782715,0.319336,0
9470,0.676758,-0.794434,0.317871,0
9490,0.686035,-0.76416,0.287109,0
9510,0.317383,-0.708984,-0.0229492,0
9530,0.554199,-0.931152,0.467285,0
9550,0.15918,-0.803223,-0.0478516,0
9570,0.458496,-0.626465,0.250977,0
9610,0.837402,-0.369629,-0.130371,0
9630,1.18066,-0.441406,0.0585938,0
9650,1.35547,-0.523438,0.30957,0
9670,1.3291,-0.525391,0.503418,0
9690,1.06201,-0.377441,0.264648,0
9710,1.04834,-0.321289,0.227051,0
9730,1.03369,-0.324707,0.262207,0
9750,1.00049,-0.3125,0.277344,0
9770,1.01514,-0.318848,0.278809,0
9790,1.03857,-0.310059,0.306641,0
9810,1.05908,-0.337402,0.836426,0
9830,1.08789,-0.295898,0.336426,0
9850,1.07129,-0.309082,0.371094,0
9870,1.02051,-0.40918,0.438965,0
9890,0.897461,-0.397461,0.48584,0
9910,0.876953,-0.375488,0.472168,0
9930,0.926758,-0.375,0.506836,0
9950,0.853027,-0.354004,0.556641,0
9980,0.693848,-0.458008,0.626953,0
10000,0.648438,-0.450684,0.606934,0
10020,0.615234,-0.444336,0.596191,0
10040,0.569824,-0.436523,0.602539,0
10060,0.575195,-0.467285,0.591797,0
10080,0.614746,-0.511719,0.602539,0
10100,0.622559,-0.529785,0.589355,0
10120,0.577637,-0.516602,0.538574,0
10140,0.536133,-0.535645,0.557617,0
10160,0.534668,-0.578125,0.555176,0
10180,0.543945,-0.612793,0.54248,0
10200,0.554199,-0.598145,0.53125,0
10220,0.568359,-0.608887,0.529785,0
10220,0.568848,-0.60498,0.530762,0
10240,0.549805,-0.62207,0.525879,0
10260,0.51416,-0.649414,0.529785,0
10280,0.515137,-0.656738,0.524414,0
10300,0.53125,-0.64502,0.55957,0
10320,0.497559,-0.620117,0.531738,0
10340,0.475098,-0.652832,0.52832,0
10360,0.474121,-0.677734,0.516113,0
10380,0.457031,-0.695312,0.491211,0
10400,0.458984,-0.6875,0.456543,0
10420,0.474121,-0.687988,0.446289,0
10440,0.491211,-0.687012,0.438477,0
10460,0.491211,-0.736328,0.407715,0
10480,0.506348,-0.76123,0.394531,0
10500,0.541504,-0.734375,0.353516,0
10540,0.554688,-0.688477,0.311523,0
10560,0.567383,-0.712891,0.30127,0
10580,0.583496,-0.74707,0.269043,0
10600,0.614258,-0.789062,0.190918,0
10620,0.680176,-0.779785,0.20459,0
10640,0.69873,-0.742676,0.259277,0
10660,0.677246,-0.738281,0.254883,0
10680,0.662598,-0.755859,0.1875,0
10700,0.695312,-0.741699,0.17627,0
10720,0.768066,-0.715332,0.13916,0
10740,0.813477,-0.702148,0.144531,0
10760,0.838379,-0.668945,0.123535,0
10780,0.884277,-0.639648,0.102539,0
10800,0.869141,-0.632812,0.0893555,0
10820,0.865234,-0.626465,0.0825195,0
10840,0.867188,-0.570801,0.0473633,0
10860,0.915527,-0.519531,0.0195312,0
10880,0.968262,-0.470703,0.0366211,0
10900,0.979004,-0.447266,0.0537109,0
10920,0.980469,-0.396973,0.0302734,0
10940,0.994629,-0.388184,0.0146484,0
10960,1.04102,-0.398438,0.0532227,0
10980,1.06885,-0.347168,0.0908203,0
11000,1.08154,-0.304199,0.078125,0
11020,1.0874,-0.26709,0.0898438,0
11040,1.09326,-0.229492,0.123047,0
11080,1.09375,-0.149902,0.20166,0
11100,1.07861,-0.103516,0.211426,0
11120,1.10596,-0.0883789,0.205566,0
11140,1.11719,-0.125977,0.270508,0
11160,1.05859,-0.10498,0.310059,0
11180,1.04688,-0.0800781,0.30127,0
11200,1.01953,-0.0498047,0.332031,0
11220,0.993164,-0.0961914,0.390137,0
11240,0.918945,-0.169922,0.446289,0
11260,0.865234,-0.225586,0.4375,0
11280,0.888184,-0.190918,0.482422,0
11300,0.930176,-0.143555,0.560547,0
11320,0.87207,-0.190918,0.608887,0
11340,0.76709,-0.293945,0.624023,0
11360,0.720215,-0.351562,0.626953,0
11380,0.715332,-0.367188,0.617188,0
11400,0.706543,-0.339355,0.609863,0
11420,0.679688,-0.348633,0.63623,0
11440,0.615234,-0.410645,0.642578,0
11460,0.553223,-0.461914,0.637207,0
11480,0.557617,-0.445312,0.629883,0
11500,0.57666,-0.435547,0.608398,0
11520,0.57373,-0.449707,0.623047,0
11540,0.524902,-0.487793,0.606934,0
11560,0.539062,-0.543945,0.586426,0
11580,0.574219,-0.567383,0.5625,0
11600,0.576172,-0.516113,0.522461,0
11620,0.527832,-0.51709,0.505859,0
11640,0.496582,-0.570312,0.499512,0
11660,0.522461,-0.627441,0.493164,0
11680,0.541504,-0.633301,0.46875,0
11700,0.502441,-0.584473,0.481445,0
11720,0.405273,-0.58252,0.455566,0
11740,0.437012,-0.640625,0.399414,0
11760,0.567871,-0.688965,0.409668,0
11780,0.529297,-0.673828,0.379395,0
11800,0.502441,-0.700195,0.283203,0
11820,0.589355,-0.731445,0.219727,0
11840,0.658203,-0.763672,0.20459,0
11860,0.711914,-0.770508,0.161621,0
11880,0.737305,-0.774414,0.113281,0
11920,0.851074,-0.777344,0.0664062,0
11950,0.813477,-0.762207,0.0683594,0
11970,0.829102,-0.72168,0.090332,0
11990,0.85791,-0.647461,0.104492,0
12010,0.89502,-0.584473,0.0366211,0
12030,0.912598,-0.581543,0.0249023,0
12050,0.899902,-0.603027,0.0595703,0
12070,0.889648,-0.548828,0.0356445,0
12090,0.929199,-0.475098,-0.0268555,0
12110,0.970703,-0.404785,-0.0380859,0
12130,0.992188,-0.405273,-0.0424805,0
12150,0.969727,-0.396484,-0.0527344,0
12170,0.966309,-0.376953,-0.043457,2001
12190,1.04102,-0.112305,0.0117188,0
12210,1.0083,-0.11377,0,0
12230,1.02441,-0.115234,0.0317383,0
12260,1.00439,-0.126465,0.0410156,0
12280,1.01074,-0.122559,0.0522461,0
12290,1.03223,-0.147461,0.0224609,0
12300,1.0293,-0.204102,0.0537109,0
12320,1.00586,-0.244629,0.0717773,0
12340,0.934082,-0.247559,0.0830078,0
12360,0.88916,-0.253418,0.0654297,0
12380,0.850586,-0.250977,0.0986328,0
12410,0.760254,-0.265625,0.131348,0
12430,0.721191,-0.260254,0.125488,0
12460,0.871094,-0.32666,0.0625,0
12480,0.954102,-0.373535,0.0322266,0
12500,0.95166,-0.388672,0.0698242,0
12510,0.99707,-0.443848,0.0493164,0
12530,1.05273,-0.478516,0.0615234,0
12550,0.982422,-0.479492,0.0761719,0
12570,0.938477,-0.504395,0.0834961,0
12590,0.902344,-0.510742,0.0986328,0
12610,0.898438,-0.552734,0.0537109,0
12630,0.991699,-0.533203,0.171387,0
12650,0.941895,-0.558594,0.185547,0
12670,0.94043,-0.580566,0.0283203,0
12690,1.10938,-0.589844,0.0488281,0
12710,1.19629,-0.542969,0.0771484,0
12730,1.17725,-0.554199,0.0922852,0
12750,1.10303,-0.589355,0.145508,0
12770,0.949707,-0.591797,0.20166,0
12800,0.772461,-0.564941,0.19873,0
12820,0.691895,-0.548828,0.15918,0
12840,0.681641,-0.547363,0.183594,0
12860,0.599609,-0.595215,0.201172,0
12880,0.576172,-0.644531,0.155762,0
12900,0.608398,-0.66748,0.155273,0
12920,0.616211,-0.658691,0.155762,0
12940,0.629395,-0.704102,0.193848,0
12960,0.591797,-0.800781,0.182129,0
12980,0.581543,-0.845215,0.164062,0
13000,0.623047,-0.862305,0.196777,0
13020,0.670898,-0.878418,0.215332,0
13040,0.684082,-0.920898,0.239258,0
13060,0.672363,-0.914551,0.275879,0
13080,0.623535,-0.89209,0.307617,0
13100,0.618164,-0.868164,0.320801,0
13120,0.628906,-0.890625,0.340332,0
13140,0.601074,-0.879883,0.35498,0
13160,0.507324,-0.875977,0.378906,0
13180,0.428711,-0.874023,0.418457,0
13200,0.404785,-0.878418,0.404297,0
13220,0.411133,-0.883789,0.386719,0
13240,0.438965,-0.835938,0.407715,0
13250,0.394531,-0.833008,0.40918,0
13280,0.429688,-0.817383,0.429199,0
13300,0.410645,-0.792969,0.43457,0
13320,0.408691,-0.790527,0.435059,0
13330,0.422363,-0.76709,0.42041,0
13350,0.420898,-0.786133,0.406738,0
13370,0.450195,-0.805664,0.418945,0
13390,0.458984,-0.799316,0.424316,0
13410,0.464355,-0.796875,0.418457,0
13420,0.479492,-0.79248,0.438965,0
13440,0.460938,-0.828125,0.442383,2000
13450,0.452148,-0.826172,0.423828,0
13480,0.371094,-0.806152,0.437012,0
13500,0.401367,-0.850098,0.428711,0
13520,0.436035,-0.848633,0.456543,0
13540,0.42041,-0.82666,0.441895,0
13570,0.395996,-0.814453,0.449707,0
13590,0.376953,-0.784668,0.459473,0
13600,0.424316,-0.79541,0.431641,0
13620,0.432617,-0.799805,0.424316,0
13640,0.434082,-0.820312,0.412109,0
13660,0.407715,-0.817871,0.426758,0
13680,0.395996,-0.799805,0.436523,0
13700,0.39209,-0.791992,0.414062,0
13720,0.390625,-0.808105,0.402344,0
13740,0.399902,-0.813477,0.450195,0
13760,0.452148,-0.825195,0.419434,0
13780,0.498535,-0.816895,0.370117,0
13800,0.495117,-0.793945,0.35498,0
13820,0.483398,-0.789551,0.412109,0
13840,0.563965,-0.81543,0.430664,0
13860,0.699219,-0.817383,0.37793,0
13880,0.701172,-0.777344,0.349121,0
13890,0.579102,-0.731934,0.348145,0
13920,0.712402,-0.712891,0.310059,0
13930,0.689453,-0.67627,0.311035,0
13950,0.800293,-0.666992,0.333496,0
13970,0.822266,-0.641602,0.313477,0
13980,0.84375,-0.585938,0.380371,0
14000,0.85498,-0.567383,0.412109,0
14020,0.827637,-0.575684,0.42334,0
14040,0.794922,-0.577148,0.443359,0
14060,0.769531,-0.552734,0.461914,0
14090,0.782715,-0.55957,0.490723,0
14130,0.749023,-0.553711,0.506836,0
14150,0.755371,-0.570801,0.496094,0
14170,0.742676,-0.590332,0.491211,0
14190,0.721191,-0.565918,0.551758,0
14210,0.698242,-0.580078,0.547363,0
14230,0.662109,-0.586426,0.556152,0
14250,0.569824,-0.618652,0.60498,0
14270,0.496094,-0.605469,0.604004,0
14290,0.519531,-0.587891,0.57959,0
14310,0.529297,-0.574707,0.628418,0
14330,0.519043,-0.56543,0.603027,0
14350,0.516602,-0.598633,0.586426,0
14370,0.480957,-0.649902,0.62207,0
14390,0.398438,-0.677246,0.61377,0
14410,0.400391,-0.668457,0.593262,0
14440,0.316406,-0.662109,0.600098,0
14460,0.319824,-0.674805,0.591797,0
14470,0.402344,-0.663086,0.57959,0
14500,0.440918,-0.633301,0.568359,0
14520,0.452637,-0.680664,0.585449,0
14540,0.449219,-0.713867,0.585938,0
14560,0.445801,-0.684082,0.55957,0
14580,0.472168,-0.651855,0.552734,0
14600,0.502441,-0.668945,0.559082,0
14620,0.503906,-0.720215,0.532227,0
14640,0.444824,-0.74707,0.529785,0
14660,0.418945,-0.764648,0.499023,0
14680,0.438965,-0.762207,0.478516,0
14700,0.432129,-0.769531,0.460449,0
14710,0.425781,-0.785645,0.43457,0
14730,0.383301,-0.806641,0.410645,0
14750,0.359863,-0.813477,0.403809,0
14770,0.428711,-0.790527,0.404785,0
14790,0.481934,-0.789551,0.384766,0
14810,0.491699,-0.78418,0.376465,0
14850,0.527344,-0.801758,0.413086,0
14880,0.575684,-0.794922,0.351074,0
14900,0.607422,-0.776855,0.361328,0
14930,0.57373,-0.770996,0.344727,0
14950,0.600586,-0.751465,0.327148,0
14980,0.6875,-0.717773,0.322754,0
15000,0.64502,-0.716797,0.313477,0
15020,0.66748,-0.711426,0.317383,0
15040,0.677246,-0.710449,0.293457,0
15050,0.699219,-0.695801,0.245117,0
15070,0.757812,-0.617676,0.258301,0
15090,0.793945,-0.595703,0.279785,0
15110,0.812012,-0.544434,0.240723,0
15130,0.833496,-0.515137,0.223145,0
15150,0.847168,-0.520508,0.242188,0
15170,0.847168,-0.524414,0.255371,0
15190,0.875488,-0.521484,0.231445,0
15210,0.906738,-0.490234,0.220703,0
15230,1.00391,-0.469238,0.235352,0
15250,0.947266,-0.396484,0.248047,0
15270,0.946777,-0.365723,0.260254,0
15290,0.961914,-0.349121,0.243164,0
15310,1.00098,-0.298828,0.259766,0
15330,1.01855,-0.260254,0.247559,0
15350,0.998535,-0.239258,0.262695,0
15370,0.997559,-0.253906,0.269043,0
15390,0.986816,-0.239258,0.293457,0
15410,1.01562,-0.239746,0.29834,0
15430,0.994629,-0.239258,0.315918,0
15450,1.01318,-0.206543,0.343262,0
15470,1.0249,-0.235352,0.350586,0
15490,0.983887,-0.262207,0.384277,0
15510,0.917969,-0.258301,0.398438,0
15530,0.932129,-0.23584,0.354492,0
15550,0.991211,-0.217773,0.390137,0
15570,0.978027,-0.192383,0.404785,0
15590,0.928223,-0.212891,0.413086,0
15610,0.937988,-0.225098,0.396484,0
15630,0.963379,-0.240234,0.383789,0
15650,1.00488,-0.202148,0.366211,0
15670,1.04297,-0.137695,0.359375,0
15690,1.03076,-0.164551,0.430176,0
15710,0.935547,-0.275879,0.504395,0
15730,0.825195,-0.457031,0.519043,0
15750,0.821289,-0.449707,0.513184,0
15760,0.82373,-0.177734,0.58252,0
15800,0.634766,-0.450195,0.624512,0
15820,0.59668,-0.467773,0.640625,0
15840,0.572754,-0.363281,0.635254,0
15860,0.512207,-0.312988,0.609375,0
15860,0.458984,-0.315918,0.621582,0
15880,0.460938,-0.375977,0.636719,0
15900,0.530762,-0.426758,0.63623,0
15920,0.569336,-0.391602,0.633789,0
15940,0.558105,-0.378418,0.657227,0
15960,0.531738,-0.423828,0.646973,0
15980,0.584961,-0.460938,0.637207,0
15990,0.705566,-0.530762,0.537598,0
16010,0.76709,-0.541016,0.512695,0
16030,0.77832,-0.51123,0.515137,0
16070,0.674316,-0.555664,0.5625,0
16090,0.622559,-0.644043,0.500488,0
16110,0.710938,-0.658691,0.499512,0
16130,0.722656,-0.604004,0.483887,0
16150,0.700195,-0.598633,0.437988,0
16170,0.702637,-0.618164,0.442383,0
16190,0.655762,-0.664551,0.453613,0
16210,0.668457,-0.674316,0.409668,0
16230,0.644531,-0.675293,0.389648,0
16250,0.576172,-0.628418,0.39209,0
16270,0.513672,-0.626953,0.391113,0
16290,0.480469,-0.668457,0.391113,0
16310,0.505371,-0.684082,0.350586,0
16330,0.599609,-0.694824,0.355957,0
16350,0.660156,-0.689453,0.321289,0
16370,0.651367,-0.663574,0.302246,0
16390,0.63916,-0.666016,0.29834,0
16410,0.671875,-0.712402,0.307129,0
16430,0.694336,-0.748047,0.291992,0
16470,0.735352,-0.688477,0.194336,0
16510,0.772461,-0.680664,0.241699,0
16540,0.87793,-0.580078,0.120117,0
16560,0.869141,-0.625977,0.113281,0
16580,0.870605,-0.60791,0.0581055,0
16600,0.906738,-0.564453,0.0385742,0
16620,0.955078,-0.549805,0.0200195,0
16640,0.947266,-0.547363,-0.0112305,0
16660,0.949707,-0.578125,-0.0239258,0
16680,0.933594,-0.561035,0.00732422,0
16700,0.896484,-0.47168,-0.043457,0
16720,0.911621,-0.464355,-0.0478516,0
16740,0.885254,-0.477539,-0.0170898,0
16760,0.846191,-0.484863,-0.0332031,0
16780,0.857422,-0.473145,-0.0546875,0
16800,0.89209,-0.442383,-0.0839844,0
16820,0.911621,-0.414551,-0.0786133,0
16840,0.927246,-0.428223,-0.0473633,0
16860,0.918457,-0.416992,-0.034668,0
16880,0.921387,-0.397461,-0.0366211,0
16900,0.917969,-0.383789,-0.0263672,0
16920,0.900391,-0.370117,-0.0102539,0
16940,0.908691,-0.34668,-0.0117188,0
16960,0.942871,-0.313965,-0.0195312,0
16980,0.953125,-0.270996,-0.0209961,0
17000,0.961914,-0.249512,-0.0224609,0
17020,0.984375,-0.233887,0.00292969,0
17050,1.00684,-0.182617,0.0380859,0
17110,1.11719,-0.106934,0.106445,0
17150,1.11816,-0.0996094,0.137207,0
17180,1.00391,-0.143066,0.290039,0
17220,1.01025,-0.247559,0.432129,0
17230,0.953125,-0.257812,0.380859,0
17250,0.951172,-0.194824,0.409668,0
17260,0.857422,-0.241699,0.44873,0
17280,0.818848,-0.369141,0.469238,0
17300,0.822754,-0.405762,0.497559,0
17320,0.803223,-0.350586,0.475098,0
17340,0.779785,-0.325195,0.481934,0
17360,0.800293,-0.333008,0.510742,0
17380,0.83252,-0.331055,0.46582,0
17400,0.844238,-0.353516,0.513184,0
17420,0.817383,-0.366211,0.496582,0
17440,0.797852,-0.322754,0.469238,0
17460,0.770508,-0.280762,0.463867,0
17480,0.746094,-0.342285,0.453613,0
17500,0.790527,-0.48291,0.45459,0
17520,0.789551,-0.541992,0.475586,0
17540,0.694824,-0.491211,0.444336,0
17560,0.649902,-0.438965,0.402832,0
17580,0.6875,-0.456055,0.410156,0
17600,0.629883,-0.53418,0.41748,0
17620,0.575684,-0.535645,0.393066,0
17640,0.681641,-0.541504,0.403809,0
17660,0.70166,-0.547363,0.44873,0
17680,0.608887,-0.533203,0.450195,0
17700,0.617676,-0.568848,0.408691,0
17720,0.696777,-0.586426,0.409668,0
17740,0.668457,-0.617676,0.400879,0
17760,0.563477,-0.620117,0.384766,0
17780,0.561523,-0.601562,0.357422,0
17800,0.681152,-0.640137,0.335449,0
17820,0.700684,-0.657715,0.319824,0
17840,0.646484,-0.625977,0.294922,0
17870,0.658691,-0.671875,0.27002,0
17890,0.628418,-0.691406,0.216309,0
17910,0.704102,-0.685547,0.20166,0
17930,0.791504,-0.628418,0.196289,0
17950,0.853027,-0.589844,0.197266,0
17960,0.892578,-0.592285,0.186035,0
17980,0.928711,-0.594727,0.102539,0
18000,0.936523,-0.562988,0.0571289,0
18020,0.915039,-0.5625,0.0400391,0
18040,0.907715,-0.560547,0.0351562,0
18060,0.905762,-0.570801,0.0185547,0
18080,0.883301,-0.522461,0,0
18100,0.867676,-0.492676,-0.00439453,0
18120,0.856934,-0.513672,-0.0126953,0
18140,0.859863,-0.502441,-0.0385742,0
18170,0.949219,-0.412598,-0.0708008,0
18190,0.999512,-0.393066,-0.112305,0
18210,0.992188,-0.365723,-0.128418,0
18240,1.00195,-0.273926,-0.152344,0
18260,1.02051,-0.269531,-0.145508,2001
18280,0.969727,-0.288086,-0.146484,0
18300,0.966797,-0.304688,-0.193848,0
18310,0.966309,-0.223145,-0.141602,0
18340,0.970703,-0.230469,-0.0927734,0
18370,0.760254,-0.345703,0.0244141,0
18410,0.571289,-0.333496,0.0942383,0
18420,0.646484,-0.338867,0.0483398,0
18440,0.746582,-0.347168,0.111328,0
18450,0.787598,-0.350586,0.148438,0
18470,0.813965,-0.393066,0.179688,0
18490,0.917969,-0.39209,0.196777,0
18510,0.977539,-0.422363,0.16748,0
18530,1.00586,-0.461426,0.245117,0
18550,1.11963,-0.569824,0.236328,0
18570,1.17627,-0.664062,0.21875,0
18590,1.13135,-0.636719,0.288574,0
18600,1.07764,-0.646484,0.34375,0
18620,1.23486,-0.804688,0.275879,0
18640,1.25439,-0.800293,0.291016,0
18660,1.20068,-0.73877,0.288086,0
18680,1.12793,-0.719238,0.312988,0
18700,1.04346,-0.752441,0.320312,0
18720,0.894043,-0.796875,0.380371,0
18750,0.459961,-0.705566,0.504883,0
18770,0.401855,-0.72998,0.512207,0
18790,0.383301,-0.752441,0.497559,0
18810,0.355469,-0.73584,0.52002,0
18830,0.294922,-0.717773,0.510742,0
18850,0.279785,-0.70459,0.5,0
18870,0.250488,-0.714355,0.526367,0
18890,0.250977,-0.751953,0.51416,0
18910,0.371094,-0.768066,0.534668,0
18930,0.489746,-0.745117,0.520996,0
18950,0.500977,-0.696289,0.503906,0
18970,0.464355,-0.693848,0.526367,0
18990,0.438477,-0.750977,0.526367,2000
19010,0.428711,-0.805664,0.552734,0
19030,0.481445,-0.798828,0.511719,0
19050,0.542969,-0.756348,0.489258,0
19070,0.567383,-0.678223,0.518066,0
19090,0.532715,-0.681641,0.526855,0
19110,0.46875,-0.758789,0.527832,0
19130,0.444336,-0.776367,0.521484,0
19150,0.507812,-0.739746,0.526367,0
19170,0.491211,-0.700684,0.529297,0
19190,0.429688,-0.703125,0.503418,0
19210,0.422852,-0.752441,0.483398,0
19230,0.419922,-0.756836,0.526367,0
19250,0.416992,-0.737793,0.544434,0
19270,0.407227,-0.720703,0.518555,0
19300,0.434082,-0.731934,0.464355,0
19330,0.540527,-0.725098,0.442383,0
19350,0.57373,-0.708984,0.438477,0
19370,0.639648,-0.702148,0.430176,0
19390,0.661133,-0.710449,0.401367,0
19410,0.688477,-0.71582,0.410645,0
19430,0.746094,-0.698242,0.410645,0
19450,0.729492,-0.669434,0.416016,0
19470,0.664062,-0.618652,0.428223,0
19490,0.692383,-0.629395,0.455566,0
19540,0.77002,-0.531738,0.361328,0
19550,0.812988,-0.555664,0.381836,0
19570,0.820801,-0.552246,0.45752,0
19570,0.786133,-0.449707,0.477539,0
19590,0.794922,-0.400879,0.485352,0
19610,0.841309,-0.42041,0.476074,0
19610,0.893066,-0.492188,0.459961,0
19630,0.89209,-0.514648,0.459473,0
19650,0.818359,-0.441406,0.484863,0
19670,0.780762,-0.490723,0.537109,0
19680,0.780273,-0.583496,0.576172,0
19700,0.737793,-0.5625,0.567871,0
19720,0.682617,-0.496582,0.573242,0
19740,0.671387,-0.466309,0.588867,0
19760,0.681152,-0.499512,0.588379,0
19780,0.630371,-0.553223,0.640137,0
19800,0.583496,-0.599121,0.663574,0
19820,0.579102,-0.538574,0.618164,0
19840,0.593262,-0.497559,0.625,0
19860,0.589844,-0.53125,0.65918,0
19880,0.520996,-0.554199,0.679199,0
19900,0.489258,-0.581055,0.674805,0
19920,0.507812,-0.520996,0.655273,0
19940,0.500977,-0.500488,0.638672,0
19960,0.468262,-0.516602,0.641113,0
19980,0.450195,-0.555664,0.661621,0
20000,0.458496,-0.614746,0.624512,0
20010,0.500977,-0.572754,0.596191,0
20030,0.555176,-0.493652,0.602051,0
20050,0.539551,-0.577637,0.608398,0
20070,0.550293,-0.585938,0.617188,0
20100,0.576172,-0.599609,0.640137,0
20120,0.536621,-0.592285,0.593262,0
20140,0.469727,-0.625977,0.601562,0
20160,0.443359,-0.666016,0.631836,0
20180,0.452148,-0.661133,0.607422,0
20190,0.375488,-0.644531,0.629395,0
20210,0.306152,-0.615234,0.584961,0
20230,0.364746,-0.582031,0.55127,0
20250,0.418457,-0.606445,0.577148,0
20270,0.458008,-0.642578,0.573242,0
20290,0.453125,-0.629883,0.567871,0
20310,0.395508,-0.630371,0.56543,0
20330,0.356934,-0.639648,0.558105,0
20350,0.387207,-0.681152,0.553711,0
20370,0.453613,-0.696777,0.54248,0
20390,0.450195,-0.719727,0.503418,0
20410,0.441406,-0.717773,0.514648,0
20430,0.527344,-0.764648,0.512695,0
20430,0.522461,-0.73291,0.541504,0
20450,0.525391,-0.713379,0.497559,0
20470,0.586426,-0.650879,0.44873,0
20490,0.596191,-0.644043,0.448242,0
20510,0.560547,-0.714844,0.477539,0
20530,0.58252,-0.751953,0.441895,0
20550,0.638672,-0.697266,0.395508,0
20570,0.677734,-0.665527,0.36377,0
20590,0.686523,-0.672852,0.371094,0
20610,0.658691,-0.666992,0.352051,0
20630,0.660645,-0.658203,0.34082,0
20670,0.736328,-0.687988,0.26416,0
20690,0.76709,-0.638672,0.302246,0
20710,0.818359,-0.626465,0.265137,0
20730,0.854492,-0.59375,0.263672,0
20750,0.831055,-0.598633,0.307129,0
20770,0.803711,-0.63623,0.265625,0
20830,0.850586,-0.540039,0.212402,0
20850,0.946777,-0.526367,0.209961,0
20880,0.926758,-0.472656,0.292969,0
20900,0.943359,-0.424316,0.295898,0
20920,0.952148,-0.397949,0.238281,0
20940,0.908203,-0.374512,0.23291,0
20960,0.920898,-0.373535,0.251953,0
20980,0.921875,-0.371094,0.291504,0
21000,0.943848,-0.365234,0.26709,0
21020,0.986328,-0.350098,0.239258,0
21040,1.02344,-0.32373,0.266602,0
21060,0.989258,-0.325195,0.279297,0
21080,0.975586,-0.328125,0.302734,0
21100,1.01416,-0.305176,0.321777,0
21120,1.04834,-0.289551,0.32373,0
21140,1.02832,-0.257812,0.308105,0
21160,1.01221,-0.240723,0.326172,0
21180,0.989746,-0.241211,0.374023,0
21200,0.975098,-0.254883,0.378418,0
21220,1.02881,-0.278809,0.362305,0
21240,1.05518,-0.249512,0.402344,0
21260,1.02588,-0.265625,0.441895,0
21280,0.928711,-0.241211,0.448242,0
21300,0.884277,-0.280273,0.438477,0
21320,0.894043,-0.305176,0.466309,0
21340,0.907715,-0.318848,0.450684,0
21360,0.888672,-0.310059,0.481445,0
21380,0.798828,-0.312988,0.515137,0
21400,0.68457,-0.336914,0.536621,0
21450,0.585938,-0.480957,0.575195,0
21490,0.733887,-0.419434,0.553223,0
21510,0.708496,-0.468262,0.563477,0
21530,0.682617,-0.497559,0.549316,0
21550,0.692383,-0.471191,0.517578,0
21570,0.699707,-0.45166,0.511719,0
21590,0.713867,-0.458008,0.492676,0
21610,0.722656,-0.507812,0.526855,0
21640,0.727539,-0.536133,0.494629,0
21660,0.71875,-0.520508,0.501465,0
21680,0.634277,-0.526855,0.494141,0
21700,0.632812,-0.55127,0.453613,0
21720,0.741699,-0.589355,0.447754,0
21740,0.711426,-0.587891,0.474121,0
21760,0.573242,-0.594727,0.475098,0
21800,0.599609,-0.629395,0.450195,0
21820,0.567383,-0.634766,0.444824,0
21840,0.547363,-0.635742,0.427734,0
21860,0.5625,-0.634277,0.418457,0
21870,0.539551,-0.666992,0.401367,0
21900,0.619629,-0.702148,0.422363,0
21920,0.595703,-0.675781,0.416016,0
21940,0.520996,-0.683594,0.376953,0
21960,0.599609,-0.70459,0.382324,0
21980,0.57373,-0.714355,0.362305,0
22040,0.645996,-0.744629,0.23877,0
22070,0.72998,-0.713379,0.192871,0
22090,0.768066,-0.67627,0.186035,0
22120,0.647949,-0.699707,0.179688,0
22140,0.666504,-0.703613,0.153809,0
22150,0.783691,-0.62793,0.145508,0
22170,0.740723,-0.609375,0.10498,0
22190,0.728516,-0.633789,0.152344,0
22210,0.765137,-0.621582,0.172363,0
22230,0.811523,-0.637207,0.104004,0
22250,0.847656,-0.577637,0.0820312,0
22270,0.895996,-0.575684,0.124023,0
22300,0.847168,-0.607422,0.059082,0
22310,0.943848,-0.541016,0.043457,0
22320,0.977051,-0.526855,-0.0341797,0
22350,0.942383,-0.507324,0.0175781,0
22370,0.912109,-0.494141,0.00292969,0
22390,0.924316,-0.414551,0.0361328,0
22410,0.910156,-0.424805,0.0668945,0
22430,0.902832,-0.401855,0.0810547,0
22450,0.945801,-0.328125,0.0605469,0
22470,1.02637,-0.287109,0.03125,0
22490,1.00244,-0.249023,0.0366211,0
22510,0.975586,-0.271973,0.0288086,0
22530,1.01318,-0.285156,0.0498047,0
22550,1.03613,-0.248535,0.0541992,0
22570,1.03223,-0.193848,0.0883789,0
22590,1.01465,-0.181641,0.121094,0
22610,1.04492,-0.148926,0.142578,0
22630,1.03711,-0.146484,0.113281,0
22650,1.03223,-0.125,0.136719,0
22670,1.05322,-0.114258,0.165527,0
22690,1.08008,-0.123535,0.188477,0
22710,1.10791,-0.111328,0.196289,0
22730,1.08984,-0.100586,0.222656,0
22750,1.06348,-0.0854492,0.249023,0
22770,1.04297,-0.104004,0.25,0
22790,1.03174,-0.140137,0.283691,0
22810,1.01758,-0.142578,0.315918,0
22830,1,-0.126465,0.316406,0
22850,0.978516,-0.137695,0.342285,0
22870,0.965332,-0.14502,0.38916,0
22890,0.967285,-0.233398,0.4375,0
22910,0.970703,-0.286133,0.413086,0
22930,0.970703,-0.254883,0.429199,0
22950,0.956543,-0.203613,0.467285,0
22970,0.90918,-0.236816,0.51123,0
22990,0.944824,-0.305664,0.468262,0
23010,1.02783,-0.303223,0.495117,0
23030,0.936035,-0.274902,0.61377,0
23050,0.748535,-0.263672,0.552246,0
23070,0.727051,-0.268555,0.489258,0
23100,0.669434,-0.378906,0.47998,0
23120,0.631836,-0.320312,0.523926,0
23140,0.619629,-0.366211,0.484375,0
23160,0.623535,-0.390625,0.458984,0
23170,0.618652,-0.458496,0.455078,0
23190,0.724609,-0.525879,0.476074,0
23210,0.689941,-0.495117,0.47998,0
23230,0.540527,-0.520996,0.450195,0
23250,0.671875,-0.542969,0.454102,0
23270,0.741699,-0.548828,0.421875,0
23290,0.629883,-0.617188,0.430176,0
23310,0.6875,-0.647461,0.416504,0
23330,0.759277,-0.635254,0.418457,0
23350,0.695801,-0.612793,0.438477,0
23370,0.625,-0.670898,0.420898,0
23390,0.607422,-0.696777,0.37207,0
23410,0.618652,-0.751465,0.349121,0
23430,0.560059,-0.750977,0.313965,0
23450,0.612793,-0.766602,0.30127,0
23470,0.671875,-0.718262,0.308594,0
23490,0.616699,-0.714844,0.271484,0
23510,0.594727,-0.808594,0.281738,0
23530,0.596191,-0.833008,0.259766,0
23550,0.578613,-0.807617,0.209473,0
23570,0.574707,-0.743164,0.194336,0
23590,0.541992,-0.723145,0.158691,0
23610,0.543945,-0.750488,0.147949,0
23630,0.572754,-0.789062,0.164551,0
23650,0.625,-0.732422,0.186523,0
23670,0.603027,-0.647949,0.171875,0
23690,0.586914,-0.611328,0.138672,0
23710,0.664062,-0.595215,0.0698242,0
23730,0.805664,-0.623535,0.0493164,0
23750,0.769531,-0.643066,0.0996094,0
23770,0.741211,-0.675293,0.0664062,0
23790,0.888184,-0.591797,0.0419922,0
23810,0.993164,-0.563965,0.0419922,0
23830,0.966797,-0.614258,0.0532227,0
23850,0.943848,-0.588379,-0.00439453,0
23870,1.02344,-0.585938,-0.0561523,0
23890,1.06982,-0.57959,-0.0629883,0
23910,1.00977,-0.608398,-0.0688477,0
23930,0.936035,-0.554688,-0.0571289,0
23950,0.923828,-0.520508,-0.114258,0
23970,0.938965,-0.462402,-0.115234,0
23990,0.918945,-0.47168,-0.0986328,0
24010,0.906738,-0.466797,-0.108887,0
24030,0.931641,-0.463867,-0.118652,0
24050,0.908691,-0.450195,-0.103027,0
24070,0.898438,-0.424316,-0.097168,0
24090,0.929688,-0.356934,-0.146973,0
24110,0.92627,-0.35498,-0.120605,0
24130,0.898926,-0.42041,-0.101074,0
24150,0.881348,-0.425781,-0.0727539,0
24170,0.861328,-0.338867,-0.0581055,2001
24180,0.902832,-0.230957,-0.120117,0
24200,0.958496,-0.289551,-0.0581055,0
24220,0.835938,-0.40625,-0.0649414,0
24240,0.871582,-0.395996,-0.0761719,0
24290,0.825684,-0.438477,-0.0366211,0
24300,0.80957,-0.442871,-0.0395508,0
24310,0.64209,-0.373535,-0.0234375,0
24310,0.672363,-0.410645,-0.0571289,0
24330,0.755859,-0.4375,0.123047,0
24350,0.8125,-0.516113,0.133301,0
24360,0.866699,-0.613281,0.126953,0
24370,0.869629,-0.656738,0.182129,0
24390,0.86084,-0.686035,0.217285,0
24410,0.931152,-0.717285,0.272949,0
24430,0.987305,-0.939453,0.344727,0
24450,0.945312,-0.971191,0.380859,0
24460,0.870117,-0.969238,0.356934,0
24480,0.82666,-0.928711,0.324219,0
24500,0.771484,-0.872559,0.32959,0
24520,0.701172,-0.837891,0.336914,0
24540,0.567383,-0.914062,0.371582,0
24560,0.453613,-0.984863,0.433105,0
24580,0.415039,-0.949707,0.490723,0
24590,0.378418,-0.876465,0.450684,0
24610,0.355469,-0.806641,0.47168,0
24630,0.375488,-0.786621,0.541504,0
24650,0.366699,-0.831055,0.560547,0
24680,0.429688,-0.843262,0.505371,0
24700,0.508789,-0.761719,0.519531,2000
24730,0.440918,-0.807129,0.507812,0
24750,0.499023,-0.788086,0.446289,0
24790,0.47168,-0.678223,0.495117,0
24810,0.427246,-0.753906,0.503906,0
24830,0.445312,-0.765137,0.492188,0
24850,0.481445,-0.725586,0.48291,0
24860,0.410645,-0.729004,0.495117,0
24880,0.381836,-0.765625,0.50293,0
24900,0.357422,-0.772949,0.521484,0
24920,0.345703,-0.753906,0.526855,0
24940,0.358887,-0.747559,0.497559,0
24960,0.361328,-0.752441,0.47998,0
24980,0.396484,-0.771973,0.458496,0
25000,0.445312,-0.806152,0.462402,0
25010,0.457031,-0.806641,0.478516,0
25030,0.428711,-0.791504,0.475098,0
25050,0.396973,-0.769043,0.509277,0
25070,0.409668,-0.760254,0.508789,0
25090,0.496094,-0.766113,0.45459,0
25110,0.506836,-0.73877,0.46875,0
25130,0.477051,-0.75293,0.456543,0
25130,0.639648,-0.726074,0.407227,0
25150,0.602051,-0.713867,0.427246,0
25170,0.631348,-0.699219,0.424316,0
25190,0.755371,-0.697266,0.375977,0
25200,0.785156,-0.691406,0.339355,0
25220,0.699707,-0.643555,0.346191,0
25240,0.707031,-0.625488,0.367188,0
25260,0.744629,-0.615234,0.316406,0
25280,0.730469,-0.618164,0.30127,0
25320,0.817383,-0.59668,0.354492,0
25340,0.868164,-0.577637,0.329102,0
25350,0.967285,-0.440918,0.400879,0
25370,0.937012,-0.402832,0.400391,0
25370,0.914551,-0.439941,0.412109,0
25390,0.948242,-0.412109,0.412598,0
25410,0.915039,-0.336426,0.437012,0
25430,0.836914,-0.386719,0.490723,0
25470,0.79834,-0.450684,0.597656,0
25490,0.824707,-0.404297,0.592285,0
25510,0.78125,-0.371582,0.604004,0
25530,0.73291,-0.38623,0.604004,0
25550,0.666504,-0.425781,0.652344,0
25570,0.619629,-0.458496,0.62793,0
25590,0.619629,-0.475098,0.634766,0
25610,0.655273,-0.447754,0.600098,0
25630,0.710938,-0.429199,0.623535,0
25650,0.675293,-0.448242,0.614746,0
25670,0.626953,-0.532227,0.662598,0
25690,0.608398,-0.53125,0.666992,0
25710,0.63623,-0.475098,0.62793,0
25730,0.656738,-0.46875,0.654785,0
25750,0.627441,-0.524902,0.654297,0
25770,0.539062,-0.544434,0.643066,0
25790,0.514648,-0.500977,0.619629,0
25810,0.524414,-0.474121,0.603027,0
25830,0.509277,-0.526367,0.600098,0
25840,0.508301,-0.575195,0.600098,0
25860,0.490234,-0.644531,0.581543,0
25880,0.513184,-0.626953,0.575195,0
25900,0.563965,-0.553223,0.574219,0
25920,0.540527,-0.529297,0.62207,0
25940,0.397461,-0.553711,0.634277,0
25960,0.333008,-0.640137,0.627441,0
25980,0.393555,-0.651855,0.595703,0
26020,0.407715,-0.626953,0.583984,0
26040,0.385254,-0.667969,0.623047,0
26090,0.470703,-0.702148,0.54541,0
26110,0.390625,-0.749512,0.507812,0
26130,0.418457,-0.795898,0.461426,0
26150,0.478516,-0.792969,0.441406,0
26170,0.467285,-0.751465,0.481445,0
26190,0.446289,-0.719727,0.532715,0
26210,0.429199,-0.741699,0.548828,0
26250,0.366211,-0.814453,0.463867,0
26270,0.473145,-0.805664,0.422363,0
26290,0.598633,-0.748047,0.390625,0
26310,0.566406,-0.737305,0.38916,0
26330,0.467285,-0.791992,0.372559,0
26340,0.501953,-0.861328,0.363281,0
26360,0.583008,-0.835938,0.36084,0
26380,0.714355,-0.686035,0.289551,0
26400,0.64209,-0.688477,0.36377,0
26420,0.578613,-0.770996,0.338379,0
26440,0.59082,-0.791504,0.25293,0
26460,0.689453,-0.77002,0.243164,0
26480,0.722656,-0.751465,0.229492,0
26500,0.710938,-0.750977,0.214355,0
26520,0.69873,-0.730469,0.197754,0
26540,0.78125,-0.72998,0.216797,0
26560,0.838867,-0.687988,0.21582,0
26580,0.8125,-0.615723,0.165527,0
26600,0.753906,-0.622559,0.13623,0
26620,0.722656,-0.660156,0.0830078,0
26640,0.773438,-0.670898,0.102539,0
26660,0.842285,-0.594727,0.102051,0
26680,0.95752,-0.47998,0.0483398,0
26710,0.984375,-0.399902,0.0332031,0
26730,1.03027,-0.40918,0.0415039,0
26770,1.0791,-0.358398,0.019043,0
26810,1.06201,-0.328125,0.0908203,0
26830,1.01172,-0.310059,0.152832,0
26860,1.0542,-0.269043,0.20166,0
26870,1.03369,-0.271973,0.21582,0
26900,0.985352,-0.250488,0.242676,0
26920,1.0083,-0.236328,0.233887,0
26940,1.00781,-0.225098,0.255859,0
26950,1.01416,-0.246582,0.273926,0
26970,1.02637,-0.244141,0.294922,0
26990,1.02881,-0.235352,0.328125,0
27010,0.977051,-0.234375,0.338867,0
27030,0.958008,-0.21875,0.338379,0
27050,0.960449,-0.161621,0.352539,0
27070,0.945801,-0.18457,0.422852,0
27090,0.91748,-0.24707,0.42041,0
27110,0.909668,-0.253418,0.393066,0
27130,0.899902,-0.189453,0.431641,0
27150,0.867676,-0.171387,0.466797,0
27170,0.795898,-0.21582,0.496582,0
27190,0.774902,-0.262207,0.48584,0
27210,0.868652,-0.26709,0.514648,0
27230,0.947266,-0.169434,0.541016,0
27260,0.855957,-0.198242,0.608398,0
27280,0.699219,-0.312012,0.598633,0
27300,0.739258,-0.320312,0.534668,0
27320,0.795898,-0.23584,0.523926,0
27340,0.741211,-0.219727,0.541992,0
27360,0.677246,-0.287109,0.563477,0
27380,0.710938,-0.375977,0.499512,0
27400,0.824219,-0.393555,0.521973,0
27410,0.830078,-0.294434,0.553711,0
27430,0.755859,-0.281738,0.556641,0
27450,0.740234,-0.33252,0.555176,0
27470,0.708984,-0.410645,0.603516,0
27490,0.69043,-0.407715,0.608398,0
27510,0.665039,-0.374512,0.611328,0
27530,0.608398,-0.371094,0.606445,0
27550,0.555664,-0.393066,0.589844,0
27570,0.618652,-0.41748,0.580566,0
27590,0.616699,-0.441406,0.628906,0
27610,0.576172,-0.416504,0.610352,0
27630,0.625488,-0.362305,0.616699,0
27650,0.662109,-0.413574,0.583984,0
27670,0.627441,-0.469238,0.580566,0
27690,0.61084,-0.479004,0.594727,0
27710,0.692383,-0.498535,0.574707,0
27730,0.712891,-0.481445,0.548828,0
27750,0.699707,-0.473145,0.561523,0
27780,0.773438,-0.544434,0.554199,0
27790,0.686523,-0.554199,0.577148,0
27800,0.641602,-0.521484,0.53125,0
27820,0.623535,-0.50293,0.481934,0
27840,0.580566,-0.520996,0.393555,0
27860,0.666992,-0.597168,0.364258,0
27880,0.731934,-0.670898,0.40625,0
27900,0.72168,-0.616211,0.351562,0
27920,0.729004,-0.566895,0.293457,0
27940,0.728516,-0.601562,0.332031,0
27960,0.710449,-0.62793,0.317871,0
27980,0.723145,-0.646973,0.299805,0
28000,0.719238,-0.572754,0.266602,0
28020,0.746582,-0.583984,0.259277,0
28040,0.751953,-0.625977,0.212402,0
28060,0.830078,-0.638184,0.201172,0
28080,0.868164,-0.594727,0.223145,0
28100,0.856445,-0.579102,0.186035,0
28120,0.847656,-0.616211,0.166504,0
28140,0.817383,-0.641113,0.143555,0
28160,0.816895,-0.615234,0.114746,0
28180,0.830078,-0.572754,0.128906,0
28200,0.838867,-0.534668,0.118164,0
28220,0.856934,-0.53125,0.0805664,0
28240,0.873535,-0.543457,0.0947266,0
28260,0.878418,-0.525391,0.0654297,0
28280,0.961426,-0.47998,0.0288086,0
28300,1.01172,-0.438965,0.0522461,0
28320,0.923828,-0.414062,0.065918,0
28340,0.881836,-0.40918,0.00976562,0
28360,0.936523,-0.40918,-0.00585938,0
28390,1.01758,-0.285645,-0.0517578,0
28410,1.00146,-0.265137,0.0366211,0
28430,0.991211,-0.3125,0.0498047,0
28450,0.98877,-0.30127,0.012207,0
28470,0.95166,-0.279297,0.0219727,0
28490,0.930176,-0.214844,0.0634766,0
28510,0.973633,-0.145996,0.0620117,0
28530,1.04346,-0.132812,0.0522461,0
28540,1.03662,-0.0776367,0.105957,0
28570,1.03223,-0.0449219,0.0834961,0
28590,1.0249,-0.0478516,0.104492,0
28610,1.05078,-0.0175781,0.101562,0
28630,1.04785,0.0288086,0.101562,0
28650,1.06152,0.0712891,0.0976562,0
28670,1.07324,0.0810547,0.136719,0
28690,1.03027,0.074707,0.165527,0
28710,0.999512,0.0664062,0.162109,0
28730,0.98291,0.0615234,0.205566,0
28750,0.975586,0.0834961,0.200684,0
28770,0.981445,0.117188,0.195312,0
28790,0.98877,0.0966797,0.240234,0
28810,1.00732,0.0629883,0.299805,0
28830,1.00977,0.0332031,0.322754,0
28850,1.00977,0.043457,0.318848,0
28890,1.02979,-0.0185547,0.362793,0
28910,1.02002,-0.0830078,0.397461,0
28930,1.021,-0.0844727,0.39209,0
28950,1.03223,-0.0576172,0.39502,0
28970,0.983398,-0.0742188,0.432129,0
28990,0.903809,-0.164551,0.438965,0
29010,0.930176,-0.131348,0.484863,0
29030,0.816406,-0.263672,0.481934,0
29050,0.885254,-0.232422,0.476074,0
29070,0.90625,-0.189453,0.488281,0
29090,0.805176,-0.192871,0.506836,0
29110,0.73291,-0.254883,0.486816,0
29130,0.827637,-0.306152,0.517578,0
29150,0.849121,-0.251953,0.498047,0
29170,0.839355,-0.233887,0.478516,0
29190,0.858887,-0.245117,0.517578,0
29210,0.773438,-0.296875,0.560547,0
29230,0.719727,-0.32666,0.540039,0
29250,0.780762,-0.271973,0.527344,0
29270,0.747559,-0.236328,0.52832,0
29290,0.781738,-0.286621,0.530273,0
29310,0.811523,-0.378906,0.54248,0
29330,0.671875,-0.33252,0.458496,0
29350,0.647461,-0.332031,0.452637,0
29370,0.72998,-0.357422,0.454102,0
29390,0.71875,-0.401855,0.455078,0
29410,0.695312,-0.410645,0.471191,0
29430,0.743652,-0.427734,0.500977,0
29450,0.773926,-0.457031,0.49707,0
29470,0.79248,-0.511719,0.476562,0
29490,0.825195,-0.49707,0.46875,0
29510,0.775391,-0.51709,0.537598,0
29530,0.70459,-0.561523,0.512207,0
29550,0.725098,-0.563965,0.467285,0
29570,0.713867,-0.573242,0.478516,0
29590,0.515625,-0.55127,0.438477,0
29610,0.516602,-0.575195,0.387695,0
29630,0.706055,-0.583984,0.42334,0
29650,0.580566,-0.588867,0.35498,0
29670,0.616699,-0.603516,0.356445,0
29690,0.699707,-0.574219,0.35791,0
29710,0.627441,-0.566406,0.331055,0
29730,0.621582,-0.594238,0.331543,0
29750,0.695312,-0.589844,0.30127,0
29770,0.693359,-0.615234,0.291504,0
29790,0.64209,-0.635742,0.291504,0
29810,0.753906,-0.630371,0.248047,0
29830,0.824707,-0.609863,0.228516,0
29850,0.797363,-0.608398,0.179199,0
29870,0.887695,-0.634277,0.145996,0
29890,0.969238,-0.670898,0.163574,0
29910,0.91748,-0.668945,0.146973,0
29930,0.873535,-0.635742,0.154297,0
29930,0.863281,-0.588379,0.117188,0
29950,0.915527,-0.554199,0.043457,0
29970,0.963867,-0.588379,0.00830078,0
29990,0.896484,-0.552734,-0.0126953,0
30010,0.839355,-0.533203,-0.0102539,0
30030,0.848633,-0.462402,-0.0195312,0
30050,0.932129,-0.411621,-0.0551758,0
30070,0.931152,-0.425293,-0.0556641,0
30090,0.904785,-0.422363,-0.0698242,0
30110,0.92334,-0.422363,-0.0800781,0
30130,0.930176,-0.419434,-0.101074,0
30150,0.968262,-0.385254,-0.144531,0
30170,1.02979,-0.373535,-0.12207,0
30190,1.00391,-0.353027,-0.0844727,0
30210,0.953125,-0.381348,-0.116211,0
30230,0.959473,-0.37207,-0.112305,0
30250,0.998047,-0.355469,-0.130371,0
30270,1.00684,-0.316895,-0.10498,2001
30290,0.937012,-0.306641,-0.0644531,0
30310,0.936035,-0.351562,-0.109863,0
30330,0.938477,-0.393066,-0.0913086,0
30350,0.91748,-0.383301,-0.097168,0
30370,0.89502,-0.368652,-0.074707,0
30390,0.894043,-0.375977,-0.0415039,0
30410,0.919922,-0.367676,-0.0571289,0
30430,0.924316,-0.398926,-0.0615234,0
30450,0.89209,-0.42334,-0.0258789,0
30470,0.849609,-0.397949,-0.0327148,0
30490,0.792969,-0.402832,-0.0078125,0
30510,0.720215,-0.397461,0.0141602,0
30530,0.664551,-0.385742,-0.0488281,0
30550,0.662109,-0.398926,-0.0493164,0
30570,0.62207,-0.411621,-0.00537109,0
30590,0.592773,-0.381348,0.0288086,0
30610,0.601562,-0.352539,0.0239258,0
30630,0.630859,-0.347656,0.0629883,0
30650,0.697754,-0.358887,0.11377,0
30670,0.715332,-0.350098,0.174805,0
30690,0.732422,-0.311523,0.23584,0
30710,0.811523,-0.339355,0.259766,0
30730,0.893066,-0.382812,0.275391,0
30750,0.882812,-0.421387,0.246582,0
30770,0.837891,-0.456055,0.228516,0
30780,0.95752,-0.529297,0.283203,0
30800,1.07666,-0.617676,0.335938,0
30820,1.06543,-0.674316,0.322754,0
30840,1.12549,-0.734863,0.272949,0
30860,1.23584,-0.799316,0.322266,0
30880,1.20361,-0.796875,0.368652,0
30900,1.17334,-0.82959,0.40918,0
30920,1.13965,-0.853516,0.410645,0
30940,1.00293,-0.810547,0.467773,0
30960,0.634766,-0.79541,0.535645,0
30980,0.507812,-0.795898,0.546387,0
31000,0.440918,-0.659668,0.550781,0
31030,0.532227,-0.749023,0.558105,0
31060,0.55127,-0.682129,0.518066,2000
31080,0.54834,-0.687988,0.536133,0
31110,0.530762,-0.708008,0.508301,0
31130,0.418945,-0.661621,0.562012,0
31150,0.478516,-0.682617,0.562988,0
31170,0.494141,-0.705566,0.557617,0
31190,0.492676,-0.703125,0.552246,0
31200,0.459961,-0.686035,0.540039,0
31200,0.496094,-0.695801,0.504883,0
31240,0.624023,-0.69043,0.459961,0
31250,0.617188,-0.654297,0.385254,0
31270,0.652344,-0.666992,0.441895,0
31290,0.667969,-0.637207,0.399414,0
31310,0.716309,-0.624512,0.392578,0
31330,0.787598,-0.623535,0.428223,0
31350,0.758789,-0.586426,0.428711,0
31370,0.697754,-0.585449,0.373535,0
31390,0.727539,-0.590332,0.385742,0
31410,0.782715,-0.565918,0.426758,0
31430,0.841797,-0.526855,0.411133,0
31450,0.82959,-0.513184,0.372559,0
31510,0.843262,-0.392578,0.502441,0
31530,0.799316,-0.398438,0.492676,0
31550,0.813477,-0.432129,0.465332,0
31570,0.842773,-0.422363,0.481445,0
31590,0.823242,-0.398438,0.466797,0
31610,0.781738,-0.40332,0.481445,0
31630,0.763184,-0.430176,0.497559,0
31650,0.793457,-0.476562,0.547363,0
31670,0.814941,-0.494141,0.556152,0
31690,0.771973,-0.433594,0.568359,0
31710,0.70459,-0.427246,0.583984,0
31750,0.710449,-0.492676,0.614746,0
31770,0.685059,-0.480957,0.602051,0
31790,0.695801,-0.488281,0.604004,0
31810,0.690918,-0.464844,0.605957,0
31830,0.671875,-0.462402,0.614258,0
31850,0.650391,-0.479004,0.611816,0
31870,0.620605,-0.464355,0.620605,0
31890,0.585449,-0.482422,0.619141,0
31910,0.568848,-0.501953,0.638184,0
31930,0.544922,-0.512207,0.658691,0
31950,0.517578,-0.461914,0.660156,0
31990,0.464355,-0.543457,0.67334,0
32010,0.481445,-0.553223,0.624023,0
32020,0.550781,-0.504395,0.626953,0
32030,0.583008,-0.508789,0.641113,0
32050,0.526367,-0.559082,0.637695,0
32060,0.512207,-0.584961,0.608398,0
32080,0.602051,-0.533691,0.601074,0
32090,0.511719,-0.625,0.621094,0
32130,0.628418,-0.625977,0.627441,0
32140,0.541504,-0.618652,0.579102,0
32170,0.5,-0.625488,0.547852,0
32180,0.512695,-0.6875,0.520508,0
32190,0.508789,-0.701172,0.480957,0
32210,0.511719,-0.677734,0.45752,0
32230,0.549316,-0.70166,0.462402,0
32250,0.515137,-0.74707,0.48584,0
32270,0.48584,-0.759766,0.492188,0
32290,0.513672,-0.696289,0.475098,0
32310,0.576172,-0.667969,0.41748,0
32330,0.608887,-0.706055,0.412598,0
32350,0.588379,-0.754883,0.427246,0
32370,0.520996,-0.743164,0.416504,0
32390,0.490723,-0.733398,0.404297,0
32410,0.570312,-0.702148,0.39209,0
32430,0.645508,-0.679688,0.358887,0
32450,0.637695,-0.692383,0.313965,0
32470,0.611328,-0.730469,0.347656,0
32490,0.628418,-0.72998,0.335938,0
32510,0.671875,-0.694336,0.320312,0
32530,0.710449,-0.700195,0.30127,0
32550,0.772949,-0.70459,0.277344,0
32570,0.808594,-0.722168,0.290039,0
32590,0.748047,-0.678223,0.269531,0
32610,0.692871,-0.677734,0.226562,0
32630,0.725098,-0.686035,0.27002,0
32650,0.773438,-0.676758,0.293945,0
32670,0.765137,-0.660645,0.248535,0
32690,0.724121,-0.617676,0.22168,0
32710,0.737305,-0.623535,0.20459,0
32730,0.854492,-0.612305,0.223145,0
32760,0.812988,-0.580566,0.20752,0
32780,0.726562,-0.578613,0.19873,0
32800,0.723145,-0.60498,0.185059,0
32820,0.831055,-0.580566,0.189453,0
32840,0.897949,-0.560547,0.175781,0
32860,0.827637,-0.535156,0.154785,0
32880,0.786621,-0.54834,0.166992,0
32890,0.856445,-0.526855,0.20459,0
32910,0.929688,-0.475098,0.212402,0
32930,0.942871,-0.441406,0.166016,0
32950,0.910156,-0.458496,0.15918,0
32970,0.946777,-0.456543,0.218262,0
32990,0.970215,-0.407715,0.219238,0
33010,0.963379,-0.388184,0.196289,0
33030,0.960449,-0.394043,0.217285,0
33050,0.995605,-0.379395,0.246094,0
33070,0.973633,-0.342285,0.250977,0
33090,0.958008,-0.300781,0.290039,0
33110,0.976562,-0.275879,0.307617,0
33130,0.994141,-0.289062,0.30957,0
33150,1.00098,-0.277832,0.27002,0
33170,0.993652,-0.277344,0.26709,0
33190,0.975586,-0.246582,0.303223,0
33210,0.979004,-0.239258,0.367676,0
33230,0.978027,-0.26416,0.372559,0
33250,0.985352,-0.266602,0.34375,0
33270,1.01367,-0.261719,0.351074,0
33290,1.00781,-0.225586,0.393555,0
33310,0.962402,-0.259766,0.376465,0
33330,0.955078,-0.284668,0.359863,0
33350,0.963867,-0.298828,0.416016,0
33370,0.92627,-0.317871,0.438965,0
33390,0.880371,-0.311523,0.434082,0
33410,0.841309,-0.287598,0.473633,0
33430,0.839355,-0.370605,0.493164,0
33450,0.822754,-0.40332,0.520996,0
33470,0.788086,-0.362305,0.542969,0
33490,0.734863,-0.361816,0.564453,0
33510,0.719727,-0.373047,0.56543,0
33530,0.772461,-0.399902,0.585449,0
33560,0.90918,-0.428223,0.61377,0
33590,0.679688,-0.447266,0.601074,0
33610,0.649902,-0.437012,0.602539,0
33640,0.569336,-0.390137,0.628418,0
33650,0.635254,-0.431641,0.595215,0
33660,0.695312,-0.462402,0.56543,0
33680,0.697266,-0.493652,0.550781,0
33690,0.575195,-0.491699,0.540527,0
33710,0.519531,-0.521484,0.506836,0
33730,0.513184,-0.525879,0.49707,0
33750,0.669922,-0.535645,0.536133,0
33770,0.720703,-0.526855,0.546875,0
33790,0.662598,-0.543457,0.531738,0
33810,0.583008,-0.580078,0.505371,0
33830,0.662109,-0.615234,0.485352,0
33850,0.68457,-0.604492,0.481445,0
33870,0.651367,-0.630371,0.473633,0
33890,0.67627,-0.629883,0.478516,0
33910,0.641602,-0.60498,0.491699,0
33930,0.588379,-0.632324,0.475098,0
33950,0.625977,-0.666504,0.438477,0
33960,0.50293,-0.63623,0.43457,0
33970,0.659668,-0.671875,0.444336,0
33990,0.657227,-0.673828,0.421875,0
34020,0.584961,-0.712402,0.351074,0
34040,0.566406,-0.725098,0.314941,0
34060,0.651855,-0.731445,0.311035,0
34080,0.660156,-0.711426,0.319824,0
34100,0.675293,-0.722168,0.309082,0
34120,0.709473,-0.720703,0.300781,0
34140,0.727539,-0.722656,0.278809,0
34160,0.766602,-0.695312,0.212891,0
34180,0.744629,-0.699707,0.223145,0
34200,0.70166,-0.67334,0.1875,0
34220,0.760254,-0.650391,0.166504,0
34240,0.82666,-0.646484,0.149902,0
34260,0.803711,-0.651855,0.158691,0
34280,0.783203,-0.625488,0.12793,0
34300,0.800781,-0.612793,0.122559,0
34320,0.814453,-0.618164,0.117676,0
34340,0.821777,-0.619629,0.0839844,0
34360,0.793945,-0.594727,0.103516,0
34380,0.791992,-0.589355,0.0791016,0
34400,0.842773,-0.578125,0.0639648,0
34420,0.826172,-0.575195,0.0883789,0
34440,0.739746,-0.540527,0.109863,0
34460,0.754883,-0.543457,0.065918,0
34480,0.84375,-0.543457,0.0268555,0
34500,0.877441,-0.557617,-0.000976562,0
34520,0.862793,-0.559082,0.0146484,0
34540,0.834961,-0.585449,0.0444336,0
34560,0.85498,-0.579102,0.0209961,0
34590,0.9375,-0.540039,0.0195312,0
34600,0.953125,-0.521973,-0.00585938,0
34640,0.969238,-0.435059,-0.00927734,0
34660,0.989746,-0.402832,0.000976562,0
34670,1.03662,-0.388672,-0.0488281,0
34690,1.05273,-0.404297,-0.0195312,0
34700,0.958984,-0.351074,0.00195312,0
34720,0.981934,-0.365723,0.00439453,0
34740,0.98877,-0.362305,0.046875,0
34760,0.975586,-0.317871,0.0332031,0
34780,1,-0.275879,0.0649414,0
34800,0.977051,-0.285156,0.0483398,0
34820,0.972168,-0.296875,0.0507812,0
34840,1.00098,-0.288086,0.0595703,0
34860,1.02295,-0.258301,0.0800781,0
34870,1.02832,-0.260254,0.0727539,0
34890,1.04297,-0.213379,0.090332,0
34900,1.04053,-0.224609,0.121094,0
34910,0.990234,-0.178223,0.307129,0
34920,0.94043,-0.208008,0.321777,0
34920,0.899414,-0.290527,0.376465,0
34940,0.871582,-0.311523,0.344727,0
34960,0.892578,-0.23877,0.344727,0
34980,0.864258,-0.239746,0.39209,0
35000,0.827148,-0.304199,0.427734,0
35020,0.875488,-0.382812,0.428223,0
35040,0.933594,-0.353027,0.480957,0
35060,0.835449,-0.34375,0.463867,0
35080,0.724609,-0.408691,0.433594,0
35100,0.72168,-0.44873,0.474121,0
35120,0.670898,-0.453125,0.477051,0
35140,0.638184,-0.369629,0.492188,0
35160,0.654785,-0.36377,0.490723,0
35180,0.689453,-0.428223,0.523438,0
35200,0.68457,-0.505859,0.500977,0
35220,0.709473,-0.472168,0.515625,0
35240,0.678711,-0.446289,0.477539,0
35260,0.72998,-0.47998,0.48584,0
35280,0.648438,-0.508301,0.440918,0
35300,0.717285,-0.551758,0.427246,0
35320,0.810547,-0.543945,0.439941,0
35340,0.717285,-0.524902,0.420898,0
35360,0.72168,-0.597168,0.390625,0
35380,0.836914,-0.626465,0.384277,0
35400,0.811523,-0.625488,0.386719,0
35420,0.717773,-0.62793,0.355957,0
35440,0.744141,-0.679199,0.327148,0
35460,0.759766,-0.672852,0.319824,0
35480,0.715332,-0.671387,0.327637,0
35500,0.75293,-0.690918,0.287598,0
35520,0.792969,-0.695312,0.321777,0
35540,0.643555,-0.708984,0.278809,0
35560,0.63623,-0.739258,0.255371,0
35580,0.694336,-0.738281,0.218262,0
35580,0.665527,-0.696777,0.20166,0
35600,0.566406,-0.703613,0.193359,0
35620,0.605957,-0.723633,0.13623,0
35640,0.681641,-0.706055,0.14502,0
35660,0.634766,-0.672852,0.134277,0
35680,0.613281,-0.679199,0.090332,0
35700,0.631836,-0.678223,0.0722656,0
35720,0.655273,-0.684082,0.0957031,0
35740,0.705566,-0.675781,0.0678711,0
35760,0.789551,-0.652344,0.0161133,0
35780,0.859375,-0.648438,-0.0292969,0
35800,0.844238,-0.649902,-0.0556641,0
35820,0.778809,-0.65625,-0.074707,0
35840,0.771484,-0.672363,-0.0620117,0
35860,0.751953,-0.646973,-0.0356445,0
35880,0.757812,-0.574707,-0.0297852,0
35900,0.814453,-0.544922,-0.059082,0
35920,0.84668,-0.583984,-0.0771484,0
35940,0.811035,-0.558594,-0.0766602,0
35960,0.859863,-0.551758,-0.154785,0
35980,0.938965,-0.534668,-0.140137,0
36000,0.893555,-0.546875,-0.148926,0
36020,0.836426,-0.550293,-0.181152,0
36040,0.887207,-0.53418,-0.20166,0
36060,0.969727,-0.523926,-0.199707,0
36080,0.95166,-0.501465,-0.188477,0
36100,0.896484,-0.475586,-0.203613,0
36120,0.973145,-0.459961,-0.192871,0
36140,1.00391,-0.444336,-0.174805,0
36160,0.942383,-0.5,-0.178223,0
36180,0.898438,-0.460938,-0.166504,0
36200,0.899902,-0.428711,-0.196289,2001
36220,0.94043,-0.448242,-0.153809,0
36240,0.90918,-0.4375,-0.128906,0
36260,0.859863,-0.416016,-0.127441,0
36280,0.79248,-0.42041,-0.124023,0
36300,0.773438,-0.474609,-0.125977,0
36320,0.800293,-0.457031,-0.103516,0
36340,0.825195,-0.393066,-0.129395,0
36360,0.845703,-0.376953,-0.151367,0
36380,0.806152,-0.423828,-0.0649414,0
36400,0.727051,-0.42334,-0.00341797,0
36420,0.586426,-0.443848,-0.00585938,0
36440,0.562012,-0.407227,-0.0771484,0
36460,0.609375,-0.34082,-0.0283203,0
36490,0.582031,-0.326172,0.0424805,0
36520,0.671387,-0.395996,0.00390625,0
36550,1.21045,-0.768555,0.102539,0
36570,1.20996,-0.798828,0.156738,0
36590,1.16553,-0.869141,0.150391,0
36610,1.11816,-0.874023,0.15625,0
36630,1.03516,-0.834473,0.226562,0
36650,0.902832,-0.874023,0.238281,0
36670,0.86084,-0.937012,0.255371,0
36690,0.864746,-0.926758,0.296387,0
36710,0.837891,-0.868164,0.343262,0
36730,0.708984,-0.772949,0.376953,0
36750,0.587891,-0.73877,0.395508,0
36770,0.542969,-0.762695,0.424316,0
36790,0.537598,-0.827148,0.447754,0
36810,0.523438,-0.844238,0.46582,0
36830,0.510742,-0.773438,0.496582,0
36850,0.493164,-0.703125,0.481934,0
36870,0.48291,-0.711426,0.518066,0
36890,0.445801,-0.760254,0.547363,0
36910,0.435059,-0.760254,0.517578,0
36930,0.474121,-0.758301,0.474609,0
36950,0.507812,-0.717285,0.468262,0
36970,0.473633,-0.680664,0.477539,0
37010,0.49707,-0.757812,0.454102,0
37030,0.48877,-0.779297,0.469727,0
37050,0.49707,-0.726074,0.498535,2000
37070,0.521484,-0.745605,0.493164,0
37090,0.509277,-0.771484,0.486816,0
37110,0.463379,-0.788574,0.492676,0
37130,0.444824,-0.799805,0.503418,0
37140,0.499512,-0.761719,0.511719,0
37160,0.498535,-0.736816,0.47168,0
37180,0.433594,-0.784668,0.481934,0
37200,0.400391,-0.830078,0.509277,0
37230,0.393066,-0.804199,0.475098,0
37250,0.356445,-0.742188,0.464844,0
37270,0.388184,-0.756348,0.473633,0
37290,0.446289,-0.750977,0.447266,0
37310,0.468262,-0.770508,0.40332,0
37340,0.506348,-0.706055,0.442383,0
37350,0.633301,-0.710938,0.477539,0
37360,0.791992,-0.674316,0.333008,0
37380,0.707031,-0.664062,0.332031,0
37390,0.620117,-0.67334,0.345703,0
37410,0.643066,-0.727539,0.319336,0
37430,0.728516,-0.732422,0.343262,0
37450,0.822266,-0.664062,0.344727,0
37470,0.837891,-0.618652,0.308105,0
37490,0.770996,-0.612305,0.271484,0
37510,0.669922,-0.617188,0.282227,0
37530,0.64209,-0.676758,0.313965,0
37550,0.702637,-0.69873,0.320312,0
37570,0.814453,-0.684082,0.303223,0
37590,0.776855,-0.610352,0.327637,0
37610,0.699219,-0.595703,0.296875,0
37620,0.766113,-0.632812,0.36377,0
37640,0.831055,-0.615234,0.354004,0
37660,0.713867,-0.612793,0.324707,0
37690,0.802734,-0.590332,0.362793,0
37710,0.803223,-0.57959,0.341309,0
37720,0.785156,-0.57666,0.341797,0
37730,0.787109,-0.575195,0.339844,0
37750,0.870605,-0.51709,0.405273,0
37770,0.922363,-0.494141,0.421875,0
37790,0.92627,-0.483887,0.398438,0
37810,0.953613,-0.430176,0.415039,0
37830,0.916504,-0.419922,0.477539,0
37860,0.794434,-0.495117,0.512695,0
37870,0.840332,-0.408691,0.51123,0
37890,0.813477,-0.400879,0.54834,0
37910,0.789062,-0.442871,0.566895,0
37930,0.752441,-0.489746,0.556641,0
37950,0.695312,-0.480469,0.548828,0
37970,0.71582,-0.439453,0.537598,0
37990,0.724609,-0.448242,0.549805,0
38010,0.689941,-0.499023,0.610352,0
38030,0.666992,-0.554199,0.591309,0
38050,0.630371,-0.557617,0.569824,0
38070,0.615234,-0.500977,0.581543,0
38090,0.628906,-0.457031,0.574707,0
38110,0.637695,-0.530273,0.583496,0
38130,0.613281,-0.58252,0.603516,0
38150,0.576172,-0.609375,0.634766,0
38170,0.529785,-0.55957,0.658691,0
38190,0.490234,-0.485352,0.656738,0
38210,0.461914,-0.536133,0.674316,0
38230,0.422852,-0.617188,0.652344,0
38250,0.4375,-0.618164,0.603516,0
38270,0.532715,-0.552246,0.574707,0
38290,0.540039,-0.564941,0.604004,0
38310,0.457031,-0.616211,0.589355,0
38330,0.457031,-0.696289,0.547852,0
38340,0.521973,-0.660645,0.53418,0
38360,0.48877,-0.623047,0.552734,0
38380,0.401855,-0.683105,0.524902,0
38400,0.418457,-0.708008,0.516602,0
38410,0.560547,-0.648926,0.509277,0
38430,0.566895,-0.634277,0.508789,0
38450,0.51123,-0.6875,0.493164,0
38470,0.461426,-0.742676,0.474121,0
38490,0.520996,-0.711426,0.42627,0
38510,0.528809,-0.745605,0.435059,0
38530,0.560547,-0.737305,0.433594,0
38560,0.623047,-0.746582,0.402832,0
38580,0.597168,-0.736328,0.39502,0
38600,0.583008,-0.72998,0.44043,0
38620,0.601562,-0.71582,0.382812,0
38640,0.640137,-0.707031,0.346191,0
38660,0.641602,-0.67334,0.36084,0
38680,0.624023,-0.680664,0.373047,0
38700,0.594238,-0.724121,0.29834,0
38720,0.658691,-0.76709,0.287598,0
38740,0.699707,-0.709473,0.301758,0
38750,0.6875,-0.669922,0.244141,0
38770,0.824219,-0.689453,0.247559,0
38790,0.87207,-0.662109,0.285156,0
38800,0.801758,-0.641113,0.233398,0
38820,0.776367,-0.631348,0.214844,0
38840,0.791016,-0.641113,0.236328,0
38860,0.827148,-0.611816,0.21582,0
38880,0.863281,-0.577148,0.193848,0
38900,0.903809,-0.550293,0.219238,0
38920,0.895508,-0.552734,0.206055,0
38970,0.90918,-0.390137,0.216309,0
38990,0.937988,-0.376953,0.153809,0
39010,0.998535,-0.312988,0.183105,0
39030,1.06299,-0.258789,0.213379,0
39050,1.11523,-0.207031,0.205078,0
39070,1.11768,-0.202637,0.213867,0
39090,1.0835,-0.198242,0.255371,0
39110,1.05713,-0.172852,0.286621,0
39130,1.07812,-0.14209,0.318359,0
39150,1.04736,-0.117676,0.308594,0
39170,1.03711,-0.140137,0.323242,0
39190,1.00879,-0.152344,0.364258,0
39210,1.02051,-0.155762,0.334961,0
39230,1.01709,-0.13623,0.335449,0
39250,1.01221,-0.139648,0.360352,0
39270,1.02393,-0.177246,0.376953,0
39290,1.02441,-0.199707,0.418457,0
39310,0.943359,-0.211914,0.473633,0
39330,0.885254,-0.206543,0.492188,0
39350,0.866699,-0.157227,0.501465,0
39370,0.869629,-0.183594,0.530273,0
39390,0.859375,-0.237793,0.535156,0
39410,0.78418,-0.248047,0.560059,0
39430,0.765137,-0.239258,0.578613,0
39450,0.837402,-0.212402,0.548828,0
39470,0.853027,-0.175781,0.594238,0
39490,0.8125,-0.23877,0.624023,0
39510,0.742188,-0.320312,0.608887,0
39530,0.725586,-0.297363,0.598145,0
39550,0.739258,-0.223633,0.586914,0
39570,0.708496,-0.231445,0.580078,0
39590,0.706543,-0.310059,0.57373,0
39610,0.67041,-0.365234,0.584473,0
39630,0.703613,-0.400879,0.534668,0
39650,0.886719,-0.384277,0.571777,0
39690,0.562012,-0.438477,0.602051,0
39710,0.450684,-0.442871,0.581543,0
39730,0.603516,-0.516602,0.602051,0
39740,0.495605,-0.482422,0.590332,0
39760,0.437012,-0.441406,0.550781,0
39780,0.546875,-0.495117,0.529785,0
39800,0.629883,-0.562012,0.572754,0
39820,0.564453,-0.543945,0.555176,0
39840,0.553711,-0.567871,0.594727,0
39860,0.597656,-0.58252,0.565918,0
39880,0.559082,-0.620117,0.519043,0
39900,0.625488,-0.646973,0.523926,0
39920,0.619629,-0.635254,0.5,0
39940,0.700195,-0.661621,0.521484,0
39960,0.694336,-0.620117,0.526367,0
39980,0.584961,-0.666992,0.467773,0
40020,0.694824,-0.660156,0.34375,0
40030,0.638184,-0.604492,0.332031,0
40080,0.633301,-0.679199,0.26123,0
40100,0.631348,-0.689453,0.29248,0
40120,0.624023,-0.705078,0.229004,0
40140,0.66748,-0.746582,0.208496,0
40160,0.672852,-0.719238,0.265625,0
40180,0.658203,-0.685059,0.201172,0
40200,0.71875,-0.67334,0.15332,0
40220,0.779297,-0.695312,0.161621,0
40240,0.850586,-0.685547,0.0991211,0
40260,0.86084,-0.698242,0.0878906,0
40280,0.833008,-0.662109,0.0898438,0
40300,0.846191,-0.673828,-0.000488281,0
40320,0.952637,-0.637695,0.000488281,0
40340,0.959473,-0.640137,0.0117188,0
40360,0.897949,-0.580566,-0.0131836,0
40380,0.866211,-0.563965,-0.00732422,0
40400,0.873535,-0.571777,0.0146484,0
40440,0.893555,-0.527344,0.0410156,0
40460,0.897949,-0.505371,0.0258789,0
40480,0.913086,-0.477539,-0.00976562,0
40500,0.894043,-0.495605,0.0375977,0
40520,0.896484,-0.494629,0.0405273,0
40540,0.918945,-0.478027,0.00146484,0
40560,0.979492,-0.427246,-0.019043,0
40590,0.974121,-0.364258,0.00976562,0
40620,0.996094,-0.27832,0.0361328,0
40640,0.958984,-0.263184,0.0600586,0
40660,0.965332,-0.232422,0.105957,0
40680,0.981445,-0.208496,0.129395,0
40700,1.00928,-0.17627,0.115723,0
40720,1.06152,-0.132812,0.0654297,0
40740,1.07861,-0.111816,0.0834961,0
40760,1.125,-0.0859375,0.0830078,0
40780,1.18311,-0.10791,0.15625,0
40800,1.15723,-0.103027,0.20166,0
40840,0.976074,-0.0800781,0.169434,0
40850,1.00879,-0.111328,0.228027,0
40870,0.994141,-0.101562,0.255371,0
40890,0.960938,-0.0908203,0.260742,0
40910,0.92041,-0.121094,0.335449,0
40930,0.888184,-0.193848,0.334473,0
40950,0.92334,-0.208984,0.390625,0
40970,0.943848,-0.185059,0.429199,0
40990,0.919434,-0.141602,0.397461,0
41010,0.869141,-0.213867,0.424805,0
41030,0.842773,-0.322754,0.468262,0
41050,0.855469,-0.324707,0.443359,0
41070,0.908203,-0.266113,0.476074,0
41090,0.865234,-0.274414,0.507812,0
41110,0.833496,-0.361328,0.501953,0
41130,0.822266,-0.405762,0.50293,0
41150,0.799805,-0.388672,0.485352,0
41170,0.78418,-0.338867,0.45166,0
41190,0.749023,-0.333984,0.486816,0
41210,0.720703,-0.388672,0.483398,0
41230,0.765625,-0.466797,0.523438,0
41250,0.728516,-0.44043,0.504395,0
41270,0.76709,-0.443359,0.51709,0
41290,0.741699,-0.487305,0.481445,0
41310,0.730469,-0.544922,0.5,0
41330,0.669434,-0.534668,0.48291,0
41350,0.76123,-0.541504,0.464844,0
41370,0.688965,-0.586426,0.445801,0
41390,0.65332,-0.645508,0.43457,0
41410,0.700195,-0.619629,0.418457,0
41430,0.660645,-0.606445,0.391602,0
41450,0.641602,-0.646484,0.362305,0
41470,0.741211,-0.665039,0.351074,0
41490,0.652832,-0.680664,0.359863,0
41510,0.643066,-0.708984,0.311523,0
41530,0.729004,-0.699707,0.321777,0
41550,0.641602,-0.664062,0.306152,0
41570,0.614258,-0.696289,0.287598,0
41590,0.646484,-0.735352,0.25293,0
41610,0.724609,-0.755371,0.195801,0
41630,0.79834,-0.728516,0.21582,0
41650,0.727051,-0.707031,0.216797,0
41670,0.678711,-0.706543,0.215332,0
41690,0.636719,-0.733398,0.200684,0
41710,0.672852,-0.77832,0.149902,0
41730,0.805664,-0.757324,0.118164,0
41800,0.759277,-0.567871,0.0239258,0
41820,0.708008,-0.599121,-0.0444336,0
41840,0.695801,-0.651855,-0.0371094,0
41880,0.874512,-0.543457,-0.0825195,0
41900,0.839355,-0.597656,-0.0830078,0
41920,0.807129,-0.586914,-0.0610352,0
41940,0.819824,-0.55127,-0.116211,0
41960,0.899414,-0.508301,-0.183594,0
41980,0.994141,-0.501953,-0.196777,0
42000,0.975098,-0.462402,-0.128418,0
42020,0.95166,-0.448242,-0.125977,0
42040,1.01172,-0.398438,-0.165527,0
42060,1.04199,-0.378906,-0.158691,0
42080,0.999023,-0.37793,-0.15918,0
42100,0.991699,-0.402344,-0.162598,0
42120,0.969238,-0.404297,-0.174805,0
42140,0.935547,-0.368164,-0.175781,0
42160,0.910645,-0.341797,-0.164062,0
42180,0.902832,-0.307617,-0.15918,2001
42200,0.891602,-0.319336,-0.158203,0
42220,0.866699,-0.368164,-0.145996,0
42240,0.861816,-0.404297,-0.134766,0
42260,0.822266,-0.412598,-0.105469,0
42280,0.830078,-0.339844,-0.130859,0
42300,0.839355,-0.325684,-0.0981445,0
42320,0.826172,-0.395996,-0.116699,0
42340,0.830566,-0.411621,-0.128906,0
42360,0.833008,-0.416504,-0.137207,0
42380,0.827148,-0.464844,-0.0878906,0
42400,0.776855,-0.438477,-0.0493164,0
42420,0.685059,-0.397949,-0.0195312,0
42440,0.637207,-0.435059,-0.0205078,0
42450,0.773438,-0.463379,-0.126953,0
42480,0.985352,-0.752441,0.171875,0
42510,0.902832,-0.842773,0.252441,0
42530,0.858398,-0.837402,0.336426,0
42560,0.657227,-0.88623,0.301758,0
42580,0.694336,-0.919434,0.322266,0
42600,0.708496,-0.935059,0.257812,0
42640,0.564941,-0.875977,0.378418,0
42660,0.478027,-0.866211,0.385742,0
42690,0.411621,-0.828613,0.460449,0
42710,0.332031,-0.816406,0.446289,0
42740,0.42334,-0.779785,0.443848,0
42770,0.549316,-0.810547,0.432129,0
42790,0.554199,-0.833008,0.417969,0
42810,0.547852,-0.804688,0.428223,0
42820,0.506836,-0.777832,0.404297,0
42840,0.51123,-0.777832,0.430176,0
42870,0.516602,-0.825684,0.479004,2000
42890,0.481934,-0.814453,0.479492,0
42900,0.481445,-0.800293,0.46582,0
42920,0.437988,-0.782715,0.493652,0
42940,0.409668,-0.807129,0.52002,0
42960,0.367676,-0.814453,0.509766,0
43010,0.412109,-0.82666,0.46875,0
43030,0.481934,-0.757324,0.466309,0
43050,0.522949,-0.734375,0.449707,0
43070,0.495605,-0.753418,0.437988,0
43090,0.467773,-0.762695,0.443359,0
43120,0.614258,-0.807617,0.37207,0
43130,0.630371,-0.70166,0.388672,0
43150,0.665527,-0.689453,0.424805,0
43170,0.737793,-0.713379,0.396484,0
43190,0.732422,-0.703613,0.38623,0
43210,0.688477,-0.664062,0.372559,0
43230,0.697754,-0.666016,0.369629,0
43250,0.790527,-0.682617,0.387207,0
43270,0.801758,-0.677246,0.350098,0
43290,0.740723,-0.623047,0.350098,0
43310,0.711914,-0.603516,0.344727,0
43350,0.861816,-0.542969,0.365723,0
43360,0.836914,-0.464355,0.399414,0
43380,0.92041,-0.414062,0.404785,0
43400,0.95459,-0.399902,0.414062,0
43420,0.90625,-0.414551,0.465332,0
43450,0.81543,-0.505371,0.453613,0
43490,0.853516,-0.499023,0.478027,0
43510,0.826172,-0.483887,0.465332,0
43530,0.800781,-0.491211,0.474121,0
43550,0.818848,-0.50293,0.494141,0
43570,0.853516,-0.517578,0.483398,0
43590,0.79541,-0.526855,0.506348,0
43610,0.708984,-0.553711,0.557129,0
43630,0.704102,-0.578613,0.560059,0
43650,0.699219,-0.555664,0.535156,0
43670,0.647461,-0.542969,0.57666,0
43690,0.559082,-0.546387,0.568848,0
43710,0.537109,-0.537109,0.559082,0
43750,0.53418,-0.586426,0.551758,0
43770,0.477051,-0.62207,0.590332,0
43790,0.426758,-0.632812,0.546875,0
43810,0.484375,-0.643555,0.557129,0
43820,0.42041,-0.661133,0.573242,0
43840,0.418457,-0.702637,0.543457,0
43860,0.419434,-0.675293,0.529785,0
43870,0.509766,-0.67041,0.527832,0
43890,0.533691,-0.687988,0.51709,0
43920,0.463867,-0.692871,0.535645,0
43940,0.437012,-0.716797,0.546875,0
43950,0.456055,-0.665527,0.543457,0
43960,0.421875,-0.67334,0.515137,0
43980,0.492188,-0.687988,0.491211,0
44000,0.578613,-0.710938,0.508301,0
44020,0.546387,-0.733887,0.507324,0
44040,0.47998,-0.745117,0.44043,0
44060,0.447266,-0.746582,0.425781,0
44080,0.447266,-0.729492,0.4375,0
44100,0.487305,-0.741211,0.408203,0
44120,0.491211,-0.728027,0.389648,0
44140,0.48877,-0.729004,0.402832,0
44160,0.524902,-0.768066,0.401855,0
44180,0.553223,-0.751953,0.383789,0
44200,0.543457,-0.708008,0.402344,0
44220,0.556641,-0.669434,0.386719,0
44240,0.617188,-0.690918,0.381836,0
44260,0.648926,-0.739746,0.354004,0
44280,0.660645,-0.723145,0.369629,0
44300,0.819336,-0.6875,0.306152,0
44320,0.821289,-0.69873,0.303711,0
44340,0.833984,-0.723633,0.297363,0
44360,0.870117,-0.719727,0.282227,0
44380,0.808105,-0.684082,0.259277,0
44400,0.790039,-0.665527,0.236816,0
44420,0.803711,-0.651367,0.241211,0
44440,0.800781,-0.619141,0.241211,0
44460,0.784668,-0.575684,0.209473,0
44480,0.816895,-0.529297,0.193848,0
44490,0.854492,-0.48291,0.217285,0
44500,0.884277,-0.470215,0.166992,0
44500,0.891113,-0.461914,0.172852,0
44520,0.915527,-0.416016,0.145996,0
44530,0.979492,-0.402344,0.150879,0
44550,0.97168,-0.368164,0.142578,0
44570,0.944336,-0.33252,0.121582,0
44590,1.01562,-0.320801,0.145508,0
44630,1.01807,-0.28125,0.148926,0
44650,1.02783,-0.271973,0.193848,0
44670,1.08545,-0.222656,0.269531,0
44690,1.10986,-0.205566,0.238281,0
44710,1.08105,-0.194336,0.240723,0
44730,1.02246,-0.189941,0.313965,0
44750,0.997559,-0.220215,0.331543,0
44770,1.0166,-0.212402,0.314453,0
44790,1.0415,-0.18457,0.294434,0
44810,1.05176,-0.192871,0.337402,0
44830,1.01855,-0.231934,0.368164,0
44850,0.961914,-0.278809,0.394043,0
44870,0.941406,-0.257812,0.401367,0
44890,0.947754,-0.228516,0.400879,0
44910,0.943848,-0.218262,0.404297,0
44930,0.929688,-0.25,0.398438,0
44950,0.915039,-0.318848,0.489746,0
44970,0.874512,-0.30957,0.468262,0
44990,0.825195,-0.29834,0.458008,0
45010,0.833008,-0.286133,0.516602,0
45030,0.861328,-0.314941,0.491699,0
45050,0.84375,-0.347656,0.490234,0
45070,0.808105,-0.324219,0.493164,0
45090,0.770508,-0.299805,0.488281,0
45110,0.76123,-0.333008,0.501465,0
45130,0.761719,-0.354004,0.485352,0
45150,0.745117,-0.370605,0.450195,0
45170,0.702637,-0.376953,0.489746,0
45210,0.659668,-0.487305,0.546875,0
45230,0.564941,-0.537598,0.551758,0
45250,0.605469,-0.509277,0.569824,0
45270,0.55127,-0.530762,0.564941,0
45290,0.583984,-0.549805,0.540039,0
45310,0.64209,-0.555176,0.551758,0
45330,0.615723,-0.538086,0.529785,0
45350,0.657715,-0.571289,0.522949,0
45370,0.717285,-0.605469,0.476562,0
45390,0.747559,-0.65625,0.506348,0
45410,0.749023,-0.664551,0.564941,0
45430,0.731934,-0.663086,0.575684,0
45450,0.691406,-0.664062,0.512695,0
45470,0.636719,-0.667969,0.466309,0
45490,0.490723,-0.646973,0.424805,0
45510,0.426758,-0.710449,0.316406,0
45530,0.672852,-0.709961,0.310547,0
45550,0.701172,-0.615723,0.329102,0
45570,0.51416,-0.641602,0.265137,0
45590,0.598145,-0.734375,0.232422,0
45610,0.630371,-0.724121,0.217773,0
45630,0.549316,-0.698242,0.18457,0
45650,0.686035,-0.680176,0.147949,0
45670,0.73877,-0.698242,0.149414,0
45690,0.816406,-0.665039,0.0668945,0
45710,0.848633,-0.67627,0.111816,0
45730,0.660156,-0.690918,0.134277,0
45750,0.622559,-0.739258,0.0537109,0
45770,0.770996,-0.660645,0.0991211,0
45790,0.859375,-0.557617,0.0668945,0
45810,0.866211,-0.585938,-0.0112305,0
45830,0.888184,-0.687012,0.000976562,0
45850,0.899902,-0.709961,0.0483398,0
45870,0.881348,-0.533691,-0.0712891,0
45890,0.904297,-0.500488,-0.00488281,0
45910,0.920898,-0.513672,-0.0668945,0
45930,0.950195,-0.515137,-0.0576172,0
45950,0.986328,-0.494629,0.0151367,0
45970,0.960938,-0.42334,0.00341797,0
45990,0.950684,-0.389648,-0.0546875,0
46010,0.94043,-0.444824,-0.0244141,0
46030,0.912598,-0.475586,-0.0395508,0
46050,0.929199,-0.438477,-0.0756836,0
46070,0.990234,-0.319336,-0.0219727,0
46090,1.00635,-0.296387,0.0307617,0
46110,0.998535,-0.292969,0.0361328,0
46130,1.00879,-0.277344,0.0825195,0
46160,1.06543,-0.220703,0.11084,0
46180,1.08496,-0.12207,0.101562,0
46210,1.02393,-0.153809,0.222656,0
46230,1.02393,-0.175293,0.238281,0
46250,1.04541,-0.123047,0.248047,0
46270,1.05029,-0.0883789,0.227051,0
46290,1.07764,-0.0859375,0.287109,0
46310,1.0498,-0.101562,0.348145,0
46330,0.979004,-0.27002,0.344238,0
46340,1.0376,-0.228027,0.342773,0
46400,0.758301,-0.341797,0.484375,0
46420,0.758789,-0.428223,0.478516,0
46440,0.824219,-0.416504,0.503906,0
46460,0.827148,-0.335449,0.508301,0
46480,0.734863,-0.324707,0.484863,0
46500,0.697266,-0.407715,0.460938,0
46520,0.70166,-0.515625,0.48877,0
46540,0.647461,-0.487793,0.476562,0
46560,0.731445,-0.470215,0.446777,0
46580,0.722656,-0.448242,0.440918,0
46600,0.687012,-0.535156,0.456055,0
46620,0.717773,-0.624023,0.429688,0
46640,0.739258,-0.64209,0.417969,0
46660,0.659668,-0.603027,0.397461,0
46680,0.665527,-0.628906,0.361328,0
46700,0.72998,-0.663574,0.343262,0
46720,0.680664,-0.679199,0.350098,0
46740,0.601562,-0.687988,0.336914,0
46760,0.664551,-0.663086,0.33252,0
46780,0.616211,-0.645996,0.313965,0
46800,0.601074,-0.669434,0.331543,0
46820,0.543457,-0.713867,0.29541,0
46840,0.573242,-0.727539,0.297363,0
46880,0.623535,-0.748535,0.286133,0
46900,0.536621,-0.743652,0.257812,0
46920,0.569336,-0.787109,0.214844,0
46940,0.604004,-0.810059,0.182129,0
46960,0.54248,-0.828125,0.142578,0
46980,0.56543,-0.795898,0.10791,0
47000,0.680176,-0.777832,0.0795898,0
47020,0.682617,-0.803711,0.074707,0
47040,0.575195,-0.887207,0.0766602,0
47060,0.572266,-0.875977,0.065918,0
47070,0.629883,-0.825684,0.0166016,0
47090,0.645508,-0.744141,0.00195312,0
47110,0.655762,-0.769043,0.00927734,0
47130,0.666504,-0.778809,-0.00195312,0
47150,0.672363,-0.77002,-0.0224609,0
47170,0.691406,-0.742676,-0.00683594,0
47190,0.685059,-0.669434,-0.00195312,0
47210,0.682129,-0.622559,-0.0395508,0
47230,0.742676,-0.618164,-0.0625,0
47250,0.827148,-0.660645,-0.0478516,0
47270,0.817871,-0.651855,-0.0878906,0
47290,0.854492,-0.612793,-0.136719,0
47310,0.938477,-0.58252,-0.155762,0
47330,0.958984,-0.617188,-0.143555,0
47350,0.936035,-0.605957,-0.137207,0
47370,0.929199,-0.57666,-0.15332,0
47390,0.90332,-0.558105,-0.16748,0
47410,0.918457,-0.555176,-0.183594,0
47430,0.918457,-0.489258,-0.158203,0
47450,0.889648,-0.472168,-0.157227,0
47470,0.893555,-0.474609,-0.148926,0
47490,0.912109,-0.449707,-0.182129,0
47510,0.90332,-0.440918,-0.171387,2001
47530,0.881836,-0.419922,-0.160156,0
47550,0.848633,-0.444336,-0.147949,0
47570,0.853516,-0.480469,-0.160645,0
47590,0.862793,-0.418945,-0.153809,0
47610,0.855469,-0.39502,-0.124023,0
47630,0.854492,-0.438477,-0.135254,0
47650,0.848633,-0.504883,-0.100098,0
47670,0.840332,-0.482422,-0.133301,0
47690,0.830566,-0.444336,-0.12207,0
47710,0.855469,-0.430176,-0.135742,0
47730,0.839355,-0.45752,-0.128906,0
47750,0.791992,-0.495605,-0.107422,0
47770,0.71582,-0.516602,-0.0874023,0
47790,0.66748,-0.52002,-0.0756836,0
47810,0.655273,-0.450195,-0.0878906,0
47830,0.645508,-0.39209,-0.0620117,0
47850,0.630371,-0.404297,-0.0454102,0
47870,0.634277,-0.427734,-0.0908203,0
47880,0.586426,-0.45166,-0.0751953,0
47900,0.558105,-0.435059,0.019043,0
47920,0.606445,-0.456055,0.0483398,0
47950,0.754395,-0.441895,0.136719,0
47970,0.895508,-0.627441,0.125488,0
47990,1.04688,-0.739746,0.109375,0
48010,0.937988,-0.859375,0.243652,0
48030,0.936035,-0.902832,0.291016,0
48050,0.928711,-0.905273,0.28125,0
48070,0.86377,-0.90332,0.354004,0
48090,0.783203,-0.895508,0.401367,0
48110,0.650879,-0.92041,0.389648,0
48130,0.562988,-0.890625,0.442871,0
48150,0.548828,-0.882324,0.466309,0
48170,0.539551,-0.861816,0.458984,0
48190,0.484863,-0.855957,0.45752,0
48220,0.413574,-0.871094,0.484375,0
48240,0.422363,-0.844727,0.479004,0
48260,0.436035,-0.79248,0.44873,0
48280,0.484375,-0.774902,0.447266,0
48300,0.5,-0.782227,0.44873,0
48320,0.445801,-0.82373,0.453613,0
48340,0.455078,-0.797363,0.482422,2000
48360,0.464844,-0.750977,0.461914,0
48380,0.467773,-0.727539,0.447754,0
48390,0.458496,-0.783691,0.458496,0
48400,0.423828,-0.803223,0.482422,0
48420,0.42627,-0.788086,0.477051,0
48440,0.47998,-0.788086,0.449707,0
48460,0.516113,-0.772461,0.429199,0
48480,0.513672,-0.756348,0.443359,0
48500,0.471191,-0.785156,0.470703,0
48520,0.458496,-0.79541,0.466797,0
48540,0.466797,-0.808105,0.452637,0
48560,0.441406,-0.791504,0.45752,0
48580,0.412109,-0.768066,0.453125,0
48600,0.443359,-0.77832,0.457031,0
48620,0.428711,-0.764648,0.470703,0
48640,0.38916,-0.771973,0.470703,0
48660,0.383301,-0.766602,0.427734,0
48680,0.441406,-0.770996,0.430664,0
48710,0.522949,-0.795898,0.411133,0
48710,0.552734,-0.755371,0.422852,0
48730,0.586914,-0.731934,0.38916,0
48750,0.588379,-0.722168,0.344238,0
48770,0.591797,-0.716797,0.316895,0
48790,0.621094,-0.70459,0.333496,0
48810,0.699707,-0.6875,0.391113,0
48820,0.770996,-0.687012,0.342285,0
48840,0.755371,-0.69873,0.279785,0
48860,0.674805,-0.703125,0.307617,0
48880,0.699707,-0.707031,0.414062,0
48900,0.819824,-0.644043,0.455078,0
48920,0.902832,-0.496582,0.38623,0
48930,0.951172,-0.51416,0.40625,0
48950,0.951172,-0.499512,0.45166,0
48970,0.88916,-0.451172,0.43457,0
48990,0.838867,-0.464355,0.38916,0
49010,0.827148,-0.486328,0.434082,0
49030,0.822754,-0.51123,0.465332,0
49050,0.800293,-0.542969,0.450195,0
49070,0.799316,-0.537109,0.394043,0
49080,0.827148,-0.464844,0.384277,0
49100,0.904785,-0.458496,0.477051,0
49120,0.831543,-0.530273,0.610352,0
49140,0.678711,-0.606445,0.569336,0
49160,0.645996,-0.602051,0.544434,0
49180,0.694336,-0.493652,0.541016,0
49200,0.700195,-0.476074,0.584473,0
49220,0.608398,-0.567871,0.581055,0
49240,0.593262,-0.615234,0.560059,0
49260,0.624023,-0.647461,0.584473,0
49280,0.624512,-0.584473,0.577637,0
49300,0.610352,-0.562012,0.540527,0
49320,0.597656,-0.612793,0.533203,0
49340,0.588867,-0.664551,0.556152,0
49350,0.558594,-0.639648,0.569336,0
49390,0.553711,-0.621094,0.547363,0
49410,0.622559,-0.677246,0.468262,0
49440,0.425293,-0.70166,0.512695,0
49470,0.534668,-0.735352,0.502441,0
49490,0.422852,-0.769043,0.445312,0
49490,0.477051,-0.79834,0.427734,0
49500,0.471191,-0.80957,0.456543,0
49520,0.380371,-0.80957,0.449219,0
49530,0.330078,-0.82959,0.398926,0
49550,0.364746,-0.819336,0.375488,0
49570,0.399902,-0.794434,0.381348,0
49590,0.460938,-0.787598,0.363281,0
49620,0.532715,-0.858398,0.302734,0
49640,0.586914,-0.822266,0.307129,0
49660,0.553711,-0.781738,0.266113,0
49680,0.552734,-0.765625,0.239746,0
49700,0.606445,-0.846191,0.265137,0
49720,0.782715,-0.787109,0.22168,0
49740,0.82373,-0.728027,0.211426,0
49760,0.808594,-0.669434,0.133301,0
49780,0.76416,-0.695312,0.138184,0
49800,0.730469,-0.678223,0.100586,0
49820,0.689941,-0.634766,0.0947266,0
49840,0.675781,-0.648926,0.126953,0
49860,0.704102,-0.666016,0.180664,0
49880,0.799805,-0.630371,0.161621,0
49900,0.785156,-0.635742,0.0878906,0
49910,0.780273,-0.643066,0.0756836,0
49930,0.889648,-0.636719,0.0786133,0
49950,0.897461,-0.586914,0.100586,0
49970,0.898438,-0.571777,0.0639648,0
49990,0.900391,-0.54834,0.0546875,0
50010,0.895996,-0.491699,0.0605469,0
50040,0.959473,-0.430176,0.0996094,0
50060,0.95752,-0.422363,0.0830078,0
50080,0.983398,-0.394531,0.118164,0
50100,1.05127,-0.36377,0.125,0
50120,1.00928,-0.347168,0.117188,0
50140,0.984863,-0.328125,0.155273,0
50160,1.02344,-0.350098,0.199707,0
50180,1.04199,-0.339355,0.185547,0
50200,1.05371,-0.343262,0.149902,0
50220,1.03711,-0.336914,0.19043,0
50240,1.01416,-0.350098,0.230469,0
50260,1.02979,-0.37207,0.243652,0
50280,1.04541,-0.35498,0.241699,0
50300,1.03418,-0.334961,0.210449,0
50320,1.04102,-0.352539,0.259766,0
50340,1.0083,-0.368164,0.3125,0
50360,0.918457,-0.423828,0.355469,0
50380,0.883789,-0.505859,0.394531,0
50400,0.933105,-0.452148,0.32666,0
50420,0.96875,-0.353027,0.399902,0
50440,0.864746,-0.354004,0.529785,0
50460,0.775391,-0.508301,0.474121,0
50480,0.790527,-0.530762,0.422363,0
50500,0.821777,-0.438477,0.462402,0
50520,0.79834,-0.419434,0.501465,0
50540,0.73877,-0.519531,0.489746,0
50560,0.693848,-0.565918,0.514648,0
50570,0.6875,-0.447754,0.470215,0
50580,0.640625,-0.425293,0.494141,0
50600,0.566895,-0.548828,0.545898,0
50600,0.58252,-0.560547,0.503418,0
50620,0.550293,-0.490234,0.527832,0
50640,0.539062,-0.550781,0.521973,0
50650,0.589844,-0.618652,0.479004,0
50670,0.578125,-0.601074,0.503906,0
50690,0.540039,-0.589355,0.513672,0
50710,0.574219,-0.579102,0.505859,0
50730,0.64209,-0.635254,0.489258,0
50750,0.619629,-0.643066,0.480469,0
50770,0.596191,-0.616211,0.48291,0
50790,0.593262,-0.652832,0.445312,0
50810,0.599609,-0.725098,0.428223,0
50830,0.601074,-0.697266,0.405762,0
50850,0.626465,-0.680176,0.393066,0
50870,0.668457,-0.698242,0.388672,0
50890,0.672852,-0.703613,0.430664,0
50910,0.646973,-0.722656,0.454102,0
50930,0.624512,-0.752441,0.452148,0
50950,0.599121,-0.726562,0.40625,0
50970,0.516602,-0.667969,0.361816,0
50990,0.501465,-0.666992,0.334961,0
51010,0.566895,-0.758789,0.313965,0
51020,0.55127,-0.816895,0.255371,0
51040,0.519043,-0.781738,0.291504,0
51060,0.51709,-0.685059,0.288574,0
51090,0.624023,-0.739258,0.233887,0
51110,0.614746,-0.761719,0.260254,0
51130,0.583008,-0.727051,0.253906,0
51150,0.670898,-0.740723,0.166016,0
51170,0.758789,-0.761719,0.152832,0
51190,0.711914,-0.771973,0.17041,0
51210,0.664551,-0.705078,0.126465,0
51230,0.716309,-0.646973,0.03125,0
51250,0.815918,-0.666992,0.00683594,0
51270,0.811523,-0.716797,0.0634766,0
51290,0.791504,-0.737305,0.0561523,0
51310,0.84082,-0.691895,-0.000976562,0
51330,0.828125,-0.615723,-0.0219727,0
51350,0.810059,-0.589844,-0.0161133,0
51370,0.875977,-0.682617,-0.0102539,0
51390,0.838379,-0.646973,-0.027832,0
51410,0.857422,-0.608398,-0.0620117,0
51430,0.888184,-0.576172,-0.0581055,0
51450,0.853027,-0.572266,-0.0224609,0
51470,0.827637,-0.595215,-0.0136719,0
51490,0.862793,-0.577637,-0.0424805,0
51510,0.855469,-0.536621,-0.101074,0
51530,0.859863,-0.486328,-0.111816,0
51550,0.876465,-0.480957,-0.100586,0
51580,0.980469,-0.489746,-0.0644531,0
51610,0.931641,-0.406738,0.00683594,0
51630,0.963867,-0.366211,-0.0429688,0
51650,1.00879,-0.270508,-0.0458984,0
51670,1.03076,-0.207031,0.00195312,0
51690,1.04639,-0.208008,0.0327148,0
51710,1.03516,-0.237793,0.0498047,0
51750,1.04932,-0.189453,0.0742188,0
51770,1.10791,-0.115723,0.0942383,0
51810,1.03711,-0.156738,0.155762,0
51830,1.14453,-0.174805,0.150391,0
51850,1.24512,-0.0922852,0.141602,0
51870,1.21191,0.000976562,0.166016,0
51890,1.04102,-0.0644531,0.244141,0
51910,0.974609,-0.197754,0.25,0
51930,1.04346,-0.316406,0.250977,0
51950,1.08545,-0.254395,0.284668,0
51970,1.03857,-0.123535,0.286133,0
52000,0.960449,-0.289062,0.38916,0
52020,0.951172,-0.490723,0.482422,0
52040,0.952637,-0.380371,0.382324,0
52060,0.886719,-0.217773,0.44043,0
52070,0.744141,-0.240723,0.464355,0
52090,0.706543,-0.441895,0.486816,0
52110,0.666992,-0.562988,0.476562,0
52130,0.664062,-0.493652,0.484375,0
52150,0.714844,-0.500977,0.473145,0
52170,0.619629,-0.400391,0.462891,0
52190,0.592773,-0.479004,0.494629,0
52210,0.541016,-0.590332,0.48291,0
52230,0.513184,-0.532715,0.473633,0
52250,0.487793,-0.483887,0.45459,0
52270,0.485352,-0.539062,0.456055,0
52290,0.489746,-0.645508,0.504395,0
52310,0.5625,-0.584961,0.498047,0
52330,0.625977,-0.521973,0.430664,0
52350,0.65332,-0.559082,0.409668,0
52370,0.692383,-0.671387,0.408203,0
52390,0.69043,-0.725098,0.455566,0
52410,0.707031,-0.714355,0.455078,0
52430,0.688965,-0.644531,0.429688,0
52450,0.648438,-0.67041,0.38916,0
52470,0.564941,-0.767578,0.334961,0
52490,0.599609,-0.830566,0.27832,0
52510,0.742188,-0.787598,0.189453,0
52530,0.790527,-0.746582,0.160645,0
52550,0.76709,-0.740723,0.194336,0
52570,0.638672,-0.818848,0.15332,0
52590,0.584961,-0.88916,0.164551,0
52610,0.677734,-0.858398,0.16748,0
52630,0.682617,-0.757812,0.113281,0
52650,0.682617,-0.663086,0.0219727,0
52670,0.79541,-0.653809,-0.0185547,0
52690,0.870605,-0.716797,0.00732422,0
52710,0.85498,-0.709961,0.00488281,0
52730,0.842285,-0.607422,-0.0371094,0
52750,0.925781,-0.549316,-0.148926,0
52770,0.94043,-0.528809,-0.114258,0
52790,0.86084,-0.57373,-0.0874023,0
52810,0.790039,-0.635742,-0.0527344,0
52830,0.799805,-0.529297,-0.103027,0
52850,0.84082,-0.408203,-0.143555,0
52870,0.880859,-0.587402,-0.157715,0
52900,0.948242,-0.393555,-0.23877,0
52920,0.939453,-0.414062,-0.204102,0
52940,0.904297,-0.480957,-0.116211,0
52960,0.892578,-0.48291,-0.171387,0
52970,0.96875,-0.413086,-0.228027,0
53010,0.966309,-0.329102,-0.162598,0
53030,0.918945,-0.416504,-0.126953,0
53050,0.891602,-0.443848,-0.10791,2001
53070,0.876465,-0.402344,-0.154785,0
53090,0.914062,-0.328125,-0.216309,0
53110,0.897461,-0.348145,-0.149414,0
53130,0.84668,-0.413574,-0.117676,0
53150,0.853516,-0.461914,-0.0952148,0
53170,0.868652,-0.445801,-0.112793,0
53190,0.894043,-0.355957,-0.156738,0
53210,0.895508,-0.353516,-0.145996,0
53230,0.86084,-0.443848,-0.119141,0
53250,0.822754,-0.455566,-0.105957,0
53260,0.777832,-0.453125,-0.0849609,0
53280,0.728027,-0.369629,-0.0766602,0
53300,0.671875,-0.328613,-0.0585938,0
53320,0.589844,-0.351074,-0.0556641,0
53340,0.531738,-0.399902,-0.0498047,0
53350,0.537598,-0.429199,-0.097168,0
53370,0.575195,-0.422363,-0.0668945,0
53390,0.603516,-0.385742,-0.0244141,0
53400,0.664062,-0.374023,-0.0107422,0
53420,0.805176,-0.480957,-0.0102539,0
53440,0.891113,-0.684082,0.034668,0
53460,0.984375,-0.707031,0.078125,0
53480,1.01025,-0.699219,0.0541992,0
53500,1.06006,-0.788086,0.0756836,0
53520,1.02441,-0.883301,0.155273,0
53530,0.840332,-1.03516,0.317383,0
53550,0.796387,-1.07812,0.248047,0
53570,0.82666,-1.00635,0.276855,0
53590,0.736328,-0.916992,0.308594,0
53610,0.656738,-0.916016,0.31543,0
53630,0.64502,-1.01611,0.330078,0
53650,0.646973,-1.00879,0.376953,0
53670,0.556641,-0.944336,0.371094,0
53690,0.524902,-0.812012,0.313965,0
53710,0.567871,-0.788086,0.383789,0
53730,0.524414,-0.825684,0.42334,0
53750,0.455078,-0.874023,0.431152,0
53770,0.442383,-0.835938,0.400879,0
53790,0.45459,-0.770996,0.415039,0
53810,0.474609,-0.742676,0.435059,0
53830,0.45752,-0.753418,0.413574,0
53850,0.437012,-0.807129,0.382812,0
53860,0.472656,-0.821777,0.435059,0
53880,0.444824,-0.776855,0.421387,2000
53920,0.392578,-0.821777,0.452637,0
53930,0.452148,-0.782227,0.435547,0
53950,0.458496,-0.79541,0.412598,0
53960,0.447754,-0.813477,0.434082,0
53980,0.42627,-0.820801,0.464355,0
53990,0.419922,-0.775879,0.474609,0
54010,0.435547,-0.759766,0.480469,0
54030,0.424805,-0.777344,0.489258,0
54050,0.398438,-0.783203,0.467285,0
54070,0.395508,-0.734375,0.501465,0
54090,0.393066,-0.730957,0.498047,0
54110,0.404785,-0.742676,0.478516,0
54130,0.476562,-0.751465,0.459961,0
54150,0.567871,-0.724121,0.481445,0
54170,0.581543,-0.707031,0.454102,0
54190,0.558105,-0.733398,0.421387,0
54220,0.673828,-0.744629,0.358887,0
54250,0.637207,-0.723145,0.344238,0
54270,0.681641,-0.717773,0.38916,0
54290,0.693359,-0.70459,0.354492,0
54300,0.668945,-0.706543,0.293457,0
54310,0.677246,-0.687988,0.352539,0
54330,0.760254,-0.65918,0.345703,0
54350,0.779785,-0.626465,0.308105,0
54390,0.755371,-0.62207,0.367188,0
54410,0.871582,-0.598145,0.373047,0
54420,0.804688,-0.54248,0.332031,0
54450,0.874512,-0.503906,0.416992,0
54470,0.933594,-0.465332,0.445312,0
54490,0.870605,-0.48291,0.411133,0
54510,0.842285,-0.490723,0.476074,0
54550,0.873047,-0.404297,0.476074,0
54570,0.870605,-0.429688,0.533203,0
54590,0.754883,-0.452148,0.562012,0
54610,0.684082,-0.483887,0.575684,0
54650,0.863281,-0.421387,0.583008,0
54670,0.804199,-0.388672,0.58252,0
54690,0.682617,-0.45459,0.592773,0
54710,0.644043,-0.520508,0.617676,0
54730,0.702148,-0.537598,0.580566,0
54750,0.723633,-0.486328,0.54541,0
54770,0.662598,-0.464355,0.612305,0
54790,0.645508,-0.494141,0.597168,0
54810,0.673828,-0.498047,0.587891,0
54830,0.655762,-0.527344,0.641602,0
54850,0.54834,-0.470703,0.688477,0
54870,0.5,-0.44873,0.621094,0
54880,0.533691,-0.498047,0.679688,0
54900,0.538574,-0.504395,0.702148,0
54920,0.594238,-0.478027,0.672363,0
54940,0.599609,-0.446289,0.67041,0
54960,0.529785,-0.48291,0.725586,0
54990,0.455566,-0.452637,0.693848,0
55010,0.419922,-0.424316,0.663086,0
55050,0.557129,-0.464844,0.685547,0
55070,0.437988,-0.59082,0.630859,0
55090,0.46875,-0.5625,0.65918,0
55090,0.525879,-0.553223,0.649414,0
55110,0.488281,-0.562012,0.606934,0
55130,0.463379,-0.575684,0.602051,0
55150,0.464844,-0.597656,0.612793,0
55170,0.490234,-0.623047,0.617676,0
55170,0.462402,-0.640625,0.582031,0
55190,0.45166,-0.62793,0.550781,0
55210,0.399414,-0.660645,0.557617,0
55230,0.422363,-0.677246,0.564453,0
55250,0.471191,-0.688965,0.541016,0
55270,0.461426,-0.6875,0.525879,0
55290,0.422852,-0.687988,0.456055,0
55310,0.441406,-0.684082,0.484863,0
55330,0.518555,-0.685547,0.512207,0
55350,0.544922,-0.714355,0.526367,0
55370,0.477539,-0.696289,0.528809,0
55390,0.463867,-0.66748,0.494141,0
55410,0.561035,-0.650391,0.383789,0
55430,0.711426,-0.650879,0.397949,0
55450,0.712402,-0.616211,0.407227,0
55450,0.759277,-0.681152,0.328613,0
55450,0.814453,-0.672852,0.36084,0
55460,0.864746,-0.679199,0.256348,0
55480,0.896484,-0.642578,0.176758,0
55490,0.901367,-0.527832,0.222168,0
55520,0.995605,-0.29541,0.28125,0
55540,0.957031,-0.26123,0.234863,0
55560,0.955566,-0.237305,0.285156,0
55600,0.990234,-0.149902,0.237305,0
55620,1.02148,-0.154785,0.30957,0
55640,1.03564,-0.183105,0.316406,0
55660,1.04346,-0.207031,0.310547,0
55680,1.02197,-0.177734,0.290039,0
55700,1.03125,-0.140137,0.307129,0
55720,1.02881,-0.123047,0.382324,0
55740,0.979004,-0.167969,0.382812,0
55760,0.950195,-0.208984,0.384277,0
55780,0.977051,-0.207031,0.390625,0
55800,0.961914,-0.166992,0.437012,0
55820,0.944336,-0.14502,0.417969,0
55840,0.945312,-0.163086,0.416016,0
55860,0.926758,-0.265137,0.493652,0
55880,0.891602,-0.359863,0.49707,0
55900,0.893066,-0.30957,0.504395,0
55920,0.805664,-0.256836,0.513184,0
55940,0.742188,-0.27002,0.475098,0
55960,0.788086,-0.337891,0.522461,0
55980,0.811523,-0.382324,0.598145,0
56000,0.730469,-0.334473,0.563965,0
56020,0.701172,-0.307617,0.554199,0
56040,0.729492,-0.32373,0.583008,0
56060,0.705566,-0.405762,0.587891,0
56080,0.707031,-0.44043,0.564941,0
56100,0.719727,-0.42627,0.586914,0
56120,0.710938,-0.412598,0.630859,0
56140,0.695801,-0.443848,0.636719,0
56160,0.583984,-0.520996,0.641602,0
56180,0.470703,-0.569824,0.624512,0
56200,0.527832,-0.495117,0.556641,0
56240,0.534668,-0.478027,0.617676,0
56260,0.438965,-0.531738,0.608398,0
56300,0.509766,-0.533203,0.554688,0
56320,0.628906,-0.516602,0.578125,0
56340,0.51123,-0.549805,0.544434,0
56360,0.572754,-0.594238,0.541504,0
56380,0.655273,-0.588379,0.59082,0
56400,0.522461,-0.562012,0.558594,0
56420,0.580078,-0.591797,0.550781,0
56460,0.674316,-0.597168,0.535645,0
56510,0.575195,-0.73291,0.444824,0
56530,0.556152,-0.734863,0.395996,0
56570,0.647949,-0.754883,0.316895,0
56590,0.64502,-0.773926,0.292969,0
56610,0.624512,-0.78418,0.291992,0
56630,0.614258,-0.754395,0.259766,0
56650,0.76123,-0.709961,0.181641,0
56670,0.817871,-0.698242,0.178711,0
56690,0.62793,-0.724609,0.211914,0
56710,0.560059,-0.736328,0.185059,0
56730,0.703125,-0.711914,0.144531,0
56750,0.800293,-0.628906,0.142578,0
56770,0.77002,-0.634277,0.131836,0
56790,0.713867,-0.671875,0.097168,0
56810,0.698242,-0.696777,0.122559,0
56830,0.721191,-0.656738,0.081543,0
56850,0.765625,-0.611816,0.0507812,0
56870,0.833984,-0.553223,-0.00537109,0
56890,0.918945,-0.544922,-0.0229492,0
56900,0.924316,-0.586426,-0.0327148,0
56920,0.930176,-0.578613,-0.0859375,0
56940,0.924316,-0.531738,-0.100098,0
56960,1.01416,-0.422363,-0.125488,0
56980,1.05615,-0.398438,-0.10498,0
57000,1.0293,-0.403809,-0.0820312,0
57030,0.885742,-0.370117,0.0126953,0
57080,0.995605,-0.200684,0.0112305,0
57100,1.03418,-0.243164,0.00927734,0
57120,1.05615,-0.209961,-0.00341797,0
57140,1.08301,-0.111328,0.0649414,0
57160,1.10742,-0.0341797,0.0297852,0
57180,1.12988,-0.0791016,0.00830078,0
57200,1.11426,-0.0942383,0.0595703,0
57220,1.0752,-0.118652,0.116699,0
57240,1.07617,-0.123535,0.146484,0
57260,1.07324,-0.09375,0.14502,0
57280,1.06543,-0.0415039,0.166016,0
57300,1.05762,-0.0371094,0.208496,0
57320,1.04736,-0.0966797,0.240234,0
57340,1.04395,-0.172852,0.241211,0
57360,1.09229,-0.160156,0.287598,0
57380,0.925293,-0.219727,0.351562,0
57390,0.827148,-0.28125,0.402832,0
57410,0.758301,-0.349609,0.443848,0
57410,0.831055,-0.444824,0.460449,0
57430,0.904297,-0.382812,0.452148,0
57450,0.820801,-0.305176,0.427734,0
57470,0.70459,-0.348145,0.364746,0
57490,0.6875,-0.467285,0.490234,0
57510,0.722656,-0.501953,0.458008,0
57530,0.729492,-0.40332,0.400391,0
57550,0.761719,-0.39209,0.415039,0
57570,0.728516,-0.485352,0.424805,0
57590,0.674805,-0.536133,0.379883,0
57610,0.687012,-0.497559,0.398438,0
57630,0.75293,-0.450195,0.398926,0
57650,0.720703,-0.472168,0.395996,0
57670,0.674316,-0.557129,0.401855,0
57690,0.687012,-0.616699,0.365234,0
57710,0.762207,-0.539062,0.307129,0
57730,0.753418,-0.506836,0.350586,0
57750,0.622559,-0.588867,0.330078,0
57770,0.715332,-0.666016,0.348145,0
57790,0.729004,-0.655762,0.329102,0
57810,0.6875,-0.644043,0.294434,0
57830,0.652344,-0.67627,0.250488,0
57850,0.645508,-0.711914,0.239258,0
57860,0.666992,-0.725586,0.244141,0
57880,0.707031,-0.714844,0.184082,0
57900,0.746094,-0.744141,0.179688,0
57920,0.691406,-0.769531,0.200684,0
57940,0.605469,-0.803711,0.194824,0
57960,0.625,-0.773438,0.146484,0
57980,0.700684,-0.706055,0.125977,0
58000,0.743164,-0.686523,0.116211,0
58020,0.716309,-0.729492,0.104004,0
58040,0.72168,-0.760254,0.0966797,0
58060,0.672852,-0.760742,0.0551758,0
58080,0.70459,-0.716797,0.0166016,0
58100,0.842773,-0.652344,-0.0317383,0
58120,0.910645,-0.646973,-0.0263672,0
58140,0.810547,-0.703125,-0.0527344,0
58160,0.794434,-0.712402,-0.107422,0
58180,0.858887,-0.638672,-0.0917969,0
58200,0.85791,-0.555664,-0.107422,0
58220,0.872559,-0.536133,-0.136719,0
58240,0.842773,-0.595215,-0.123047,0
58260,0.808594,-0.617676,-0.11377,0
58280,0.875977,-0.569336,-0.197754,0
58300,0.938965,-0.498047,-0.197754,0
58320,0.916992,-0.473145,-0.199707,0
58340,0.864746,-0.495605,-0.217773,0
58360,0.85498,-0.528809,-0.194336,0
58380,0.876953,-0.492676,-0.19043,0
58400,0.928223,-0.433594,-0.242676,0
58420,0.967285,-0.415039,-0.254395,0
58440,0.955566,-0.449219,-0.209961,0
58460,0.916504,-0.498535,-0.181152,0
58480,0.917969,-0.442871,-0.224609,0
58500,0.938477,-0.416992,-0.21875,0
58520,0.946777,-0.391113,-0.187012,0
58540,0.918945,-0.382324,-0.186035,2001
58560,0.905762,-0.399414,-0.197266,0
58580,0.868164,-0.416504,-0.153809,0
58600,0.888672,-0.406738,-0.193848,0
58620,0.92334,-0.352539,-0.208984,0
58650,0.900879,-0.394531,-0.152344,0
58670,0.833496,-0.445312,-0.112305,0
58690,0.79541,-0.446289,-0.154785,0
58710,0.819336,-0.408203,-0.108887,0
58730,0.819336,-0.416016,-0.0981445,0
58750,0.806152,-0.418945,-0.0805664,0
58770,0.797852,-0.460938,-0.0864258,0
58790,0.770508,-0.426758,-0.0556641,0
58840,0.743652,-0.431152,-0.0522461,0
58850,0.782715,-0.443848,-0.0498047,0
58870,0.875488,-0.450195,0.0136719,0
58890,0.895508,-0.499023,0.0839844,0
58910,0.955078,-0.585938,-0.00341797,0
58930,0.980957,-0.597656,0.0180664,0
58950,0.941406,-0.606445,0.0610352,0
58970,1.01855,-0.708984,0.0908203,0
59000,1.00293,-0.722656,0.121094,0
59020,0.93457,-0.764648,0.132812,0
59040,0.967285,-0.791504,0.187012,0
59060,0.905273,-0.786133,0.268066,0
59080,0.778809,-0.794434,0.301758,0
59100,0.710449,-0.848633,0.339844,0
59140,0.651855,-0.774902,0.429688,0
59160,0.621582,-0.760254,0.476074,0
59170,0.572266,-0.84375,0.483398,0
59200,0.538574,-0.677734,0.561035,0
59220,0.523926,-0.677246,0.527832,2000
59240,0.463867,-0.711426,0.547852,0
59260,0.48877,-0.741211,0.567871,0
59270,0.490723,-0.640137,0.57959,0
59290,0.450195,-0.634277,0.568359,0
59310,0.453125,-0.709473,0.550293,0
59330,0.498047,-0.728027,0.565918,0
59350,0.515137,-0.71582,0.583008,0
59370,0.499512,-0.685547,0.561523,0
59390,0.498535,-0.65918,0.547363,0
59400,0.5,-0.679688,0.570801,0
59400,0.4375,-0.744629,0.585938,0
59420,0.390137,-0.711426,0.59375,0
59430,0.325195,-0.741211,0.603516,0
59470,0.674805,-0.647461,0.38623,0
59480,0.827148,-0.538574,0.333496,0
59500,0.759277,-0.568848,0.317383,0
59520,0.738281,-0.606445,0.322754,0
59560,0.876953,-0.552246,0.328613,0
59580,0.773926,-0.518066,0.305664,0
59600,0.714844,-0.49707,0.269531,0
59620,0.811035,-0.623047,0.327148,0
59650,0.887695,-0.452637,0.399902,0
59670,0.917969,-0.435547,0.37207,0
59690,0.92627,-0.414062,0.348633,0
59700,0.967285,-0.419922,0.398438,0
59720,0.947754,-0.444824,0.42627,0
59740,0.824707,-0.472168,0.424805,0
59760,0.773438,-0.45459,0.44043,0
59780,0.813477,-0.364258,0.450195,0
59800,0.85791,-0.408203,0.499023,0
59820,0.823242,-0.465332,0.527832,0
59840,0.750977,-0.539062,0.549805,0
59860,0.716797,-0.50293,0.557617,0
59880,0.758789,-0.41748,0.546387,0
59900,0.786133,-0.41748,0.504395,0
59920,0.805176,-0.520996,0.557617,0
59940,0.741211,-0.616699,0.539062,0
59960,0.74707,-0.564941,0.543945,0
59980,0.756836,-0.490723,0.551758,0
60000,0.649902,-0.465332,0.588379,0
60020,0.564453,-0.549805,0.57373,0
60040,0.630859,-0.563477,0.552734,0
60060,0.682129,-0.53418,0.612305,0
60080,0.597656,-0.478516,0.590332,0
60100,0.490234,-0.496094,0.500488,0
60120,0.549805,-0.614746,0.572266,0
60140,0.581543,-0.652344,0.596191,0
60160,0.536133,-0.5625,0.504883,0
60180,0.540527,-0.487793,0.54834,0
60200,0.543945,-0.519043,0.602539,0
60220,0.532227,-0.605469,0.561035,0
60250,0.456055,-0.60498,0.591309,0
60320,0.537598,-0.69873,0.564941,0
60360,0.453125,-0.647949,0.549316,0
60380,0.414062,-0.719727,0.516602,0
60400,0.512207,-0.766113,0.519043,0
60420,0.60791,-0.666016,0.537598,0
60440,0.559082,-0.623047,0.459961,0
60460,0.515625,-0.716797,0.39502,0
60480,0.563477,-0.812012,0.435547,0
60500,0.576172,-0.764648,0.469727,0
60520,0.554688,-0.664062,0.441895,0
60540,0.536133,-0.70459,0.441406,0
60560,0.534668,-0.764648,0.46875,0
60580,0.537598,-0.756836,0.431152,0
60600,0.587891,-0.70752,0.374023,0
60620,0.648438,-0.710938,0.358398,0
60640,0.628418,-0.724609,0.327148,0
60660,0.587891,-0.749023,0.31543,0
60680,0.605957,-0.762695,0.3125,0
60700,0.638672,-0.736328,0.28125,0
60720,0.708984,-0.693848,0.254395,0
60740,0.650879,-0.751465,0.249023,0
60760,0.657227,-0.737793,0.265137,0
60800,0.769043,-0.657227,0.231445,0
60800,0.785156,-0.644043,0.219727,0
60820,0.832031,-0.621094,0.219727,0
60860,0.779785,-0.553223,0.201172,0
60880,0.855469,-0.587402,0.124512,0
60910,0.854004,-0.607422,0.149414,0
60950,0.847656,-0.527344,0.169922,0
60970,0.86377,-0.512207,0.1875,0
61000,0.891113,-0.547363,0.165039,0
61020,0.891602,-0.554199,0.172852,0
61040,0.859375,-0.522461,0.180664,0
61060,0.893555,-0.492676,0.160156,0
61080,0.95752,-0.412598,0.220703,0
61100,0.995605,-0.456543,0.206543,0
61130,0.952637,-0.442871,0.175293,0
61150,0.988281,-0.395996,0.224121,0
61170,1.01709,-0.371582,0.191406,0
61190,1.03809,-0.377441,0.20459,0
61250,1.12256,-0.265625,0.300293,0
61270,1.13281,-0.339844,0.255371,0
61290,1.12744,-0.503906,0.399902,0
61310,1.08252,-0.554199,0.423828,0
61330,0.959961,-0.411133,0.459961,0
61350,0.798828,-0.336426,0.427246,0
61370,0.703125,-0.420898,0.516113,0
61390,0.633301,-0.49707,0.522461,0
61410,0.74707,-0.43457,0.455078,0
61430,0.778809,-0.363281,0.511719,0
61450,0.654785,-0.37207,0.562012,0
61470,0.623535,-0.540527,0.579102,0
61500,0.444336,-0.595215,0.544434,0
61530,0.559082,-0.428223,0.533203,0
61550,0.63916,-0.427246,0.508301,0
61570,0.614258,-0.54541,0.544922,0
61590,0.533203,-0.656738,0.60498,0
61610,0.550781,-0.61084,0.54248,0
61630,0.547363,-0.526367,0.50293,0
61650,0.546875,-0.541992,0.521973,0
61670,0.549316,-0.624512,0.562012,0
61690,0.56543,-0.632324,0.505859,0
61710,0.699219,-0.619141,0.560547,0
61730,0.587891,-0.605469,0.591797,0
61750,0.48584,-0.623535,0.483398,0
61760,0.710449,-0.674805,0.491699,0
61780,0.635254,-0.632812,0.469727,0
61800,0.556152,-0.661621,0.45752,0
61840,0.525879,-0.63623,0.494141,0
61860,0.559082,-0.665039,0.535645,0
61880,0.555176,-0.649414,0.552246,0
61900,0.65625,-0.678223,0.569824,0
61920,0.604004,-0.665527,0.537109,0
61940,0.437988,-0.677246,0.431641,0
61960,0.531738,-0.709961,0.376465,0
61980,0.538086,-0.688477,0.348633,0
62000,0.496582,-0.705566,0.277344,0
62020,0.562012,-0.772461,0.224121,0
62040,0.620605,-0.80127,0.208008,0
62060,0.627441,-0.785645,0.256348,0
62080,0.537109,-0.729004,0.217773,0
62100,0.561035,-0.702637,0.174316,0
62120,0.645508,-0.71875,0.20459,0
62140,0.60791,-0.70166,0.233887,0
62160,0.646973,-0.708984,0.170898,0
62180,0.789062,-0.669922,0.115723,0
62200,0.83252,-0.643066,0.149902,0
62220,0.755371,-0.614746,0.165527,0
62240,0.727539,-0.669434,0.0625,0
62260,0.803711,-0.651367,0.0800781,0
62280,0.916504,-0.614746,0.0390625,0
62300,0.94873,-0.550293,-0.0375977,0
62320,1.00049,-0.572754,-0.00976562,0
62340,0.927734,-0.568848,0.0771484,0
62360,0.841309,-0.55127,0.0449219,0
62380,0.944824,-0.564941,-0.0751953,0
62400,0.974609,-0.512695,0,0
62420,0.930176,-0.452637,-0.00195312,0
62440,0.907715,-0.395508,-0.0283203,0
62460,0.941895,-0.359375,0.00732422,0
62480,0.916504,-0.401855,-0.027832,0
62500,0.925293,-0.429688,-0.0654297,0
62520,0.95752,-0.441406,0.00390625,0
62540,0.956055,-0.387695,0.0454102,0
62560,0.933105,-0.296875,0.046875,0
62570,0.98584,-0.229492,0.0498047,0
62590,1.03711,-0.238281,0.0844727,0
62610,1.06055,-0.273926,0.0600586,0
62620,1.13721,-0.128906,0.205078,0
62640,1.10107,-0.155273,0.195801,0
62660,1.09131,-0.14502,0.155273,0
62680,1.12598,-0.135742,0.222656,0
62700,1.11719,-0.102539,0.228516,0
62720,1.06592,-0.0595703,0.204102,0
62740,1.06348,-0.106445,0.277832,0
62760,1.09912,-0.171387,0.294434,0
62780,1.15967,-0.163574,0.267578,0
62800,1.16748,-0.0854492,0.295898,0
62820,1.06201,-0.146973,0.397949,0
62870,0.869629,-0.359863,0.487305,0
62890,0.794434,-0.359375,0.490234,0
62910,0.845215,-0.324219,0.501953,0
62930,0.790039,-0.359375,0.477539,0
62950,0.603027,-0.401855,0.489258,0
62970,0.577148,-0.425781,0.48877,0
62990,0.65625,-0.422852,0.519043,0
63010,0.764648,-0.443848,0.493652,0
63030,0.820312,-0.456055,0.570312,0
63050,0.533203,-0.417969,0.529785,0
63070,0.436523,-0.47998,0.477051,0
63090,0.566406,-0.551758,0.45752,0
63110,0.549805,-0.599609,0.391602,0
63130,0.486816,-0.555176,0.387695,0
63150,0.490723,-0.528809,0.406738,0
63170,0.541504,-0.609863,0.423828,0
63190,0.676758,-0.643555,0.424316,0
63220,0.430176,-0.683105,0.374023,0
63240,0.5625,-0.69043,0.321289,0
63260,0.474609,-0.740723,0.307129,0
63280,0.48877,-0.80957,0.279297,0
63300,0.683105,-0.82373,0.268066,0
63320,0.67041,-0.770508,0.280762,0
63340,0.557129,-0.809082,0.23877,0
63360,0.530273,-0.79541,0.181152,0
63380,0.623535,-0.802246,0.145508,0
63400,0.681641,-0.810547,0.136719,0
63420,0.700195,-0.79541,0.119141,0
63440,0.705078,-0.790527,0.121094,0
63460,0.711914,-0.78125,0.127441,0
63480,0.740234,-0.724609,0.123535,0
63490,0.822266,-0.675781,0.0834961,0
63510,0.938477,-0.682129,0.0224609,0
63530,0.867188,-0.681641,0.0244141,0
63550,0.771973,-0.745605,0.0522461,0
63570,0.80127,-0.756836,-0.00292969,0
63590,0.936523,-0.675293,-0.0615234,0
63610,0.990234,-0.555176,-0.129883,0
63630,0.944336,-0.564453,-0.0791016,0
63650,0.922852,-0.638184,-0.0229492,0
63670,0.894043,-0.614258,-0.0698242,0
63690,0.890137,-0.482422,-0.145508,0
63710,0.90332,-0.400391,-0.14209,0
63730,0.90332,-0.427246,-0.152344,0
63750,0.91748,-0.500977,-0.165039,0
63770,0.890137,-0.458008,-0.196777,0
63790,0.851074,-0.436035,-0.179199,0
63810,0.909668,-0.375,-0.16748,0
63830,0.928223,-0.373047,-0.19043,2001
63850,0.871094,-0.383789,-0.169434,0
63870,0.869141,-0.466797,-0.159668,0
63890,0.87207,-0.444824,-0.121582,0
63910,0.850586,-0.378906,-0.156738,0
63930,0.879395,-0.328613,-0.182617,0
63950,0.873535,-0.410156,-0.074707,0
63970,0.809082,-0.512207,-0.0908203,0
63990,0.800293,-0.578125,-0.10498,0
64010,0.767578,-0.520508,-0.0722656,0
64030,0.839355,-0.468262,-0.133789,0
64050,0.804688,-0.460449,-0.0830078,0
64070,0.714355,-0.48877,-0.0541992,0
64090,0.662109,-0.504395,-0.0737305,0
64110,0.660156,-0.490723,-0.0634766,0
64130,0.683105,-0.462891,-0.0253906,0
64150,0.679199,-0.46582,-0.012207,0
64170,0.675781,-0.465332,-0.0292969,0
64190,0.702637,-0.480469,-0.00244141,0
64210,0.668457,-0.474609,0.10791,0
64230,0.698242,-0.487305,0.0986328,0
64250,0.780273,-0.522461,0.0878906,0
64270,0.852539,-0.492676,0.137695,0
64290,0.843262,-0.410156,0.204102,0
64310,0.812988,-0.428711,0.251953,0
64330,0.853027,-0.508789,0.283203,0
64350,0.878906,-0.543945,0.351562,0
64360,0.842773,-0.513672,0.374512,0
64380,0.854492,-0.511719,0.313477,0
64400,0.90918,-0.52832,0.333008,0
64420,0.893555,-0.557617,0.407715,0
64450,1.02051,-0.688965,0.486816,0
64460,0.805176,-0.693848,0.491211,0
64510,0.587402,-0.584473,0.60791,0
64530,0.552734,-0.618652,0.583496,0
64600,0.313477,-0.673828,0.572754,0
64640,0.263672,-0.661133,0.583984,0
64640,0.26123,-0.634277,0.59668,0
64660,0.241211,-0.608887,0.621094,0
64680,0.151367,-0.592773,0.625,0
64700,0.181152,-0.630371,0.655762,0
64730,-0.0927734,-0.561523,0.757812,0
64740,-0.230957,-0.867188,0.80127,0
64760,-0.223633,-0.88916,0.766113,0
64780,-0.224609,-0.820312,0.750488,0
64800,-0.338379,-0.704102,0.726562,0
64820,-0.394531,-0.685059,0.722656,0
64830,-0.404297,-0.714844,0.753906,0
64850,-0.328125,-0.762695,0.768066,0
64870,-0.315918,-0.746094,0.695801,0
64890,-0.44873,-0.843262,0.890625,0
64910,-0.423828,-0.733887,1.14062,0
64930,-0.275391,-0.64502,0.840332,0
64940,-0.304688,-0.69043,0.563965,0
64960,-0.280273,-0.637695,0.520996,0
64980,-0.263184,-0.539062,0.581055,0
65000,-0.402344,-0.474121,0.647461,0
65020,-0.608887,-0.538086,0.735352,0
65040,-0.598633,-0.774902,0.739746,0
65060,-0.50293,-0.744141,0.620117,0
65080,-0.436523,-0.647949,0.562988,0
65100,-0.383789,-0.591309,0.54248,0
65120,-0.385742,-0.643555,0.543945,0
65140,-0.447754,-0.665039,0.587891,0
65160,-0.48291,-0.678223,0.651367,0
65180,-0.480469,-0.70459,0.709961,0
65200,-0.434082,-0.699219,0.6875,0
65210,-0.417969,-0.663086,0.629883,0
65230,-0.409668,-0.660645,0.625,0
65260,-0.431152,-0.65332,0.681641,0
65280,-0.420898,-0.647461,0.672363,0
65300,-0.406738,-0.661621,0.662598,0
65320,-0.403809,-0.666504,0.645508,0
65340,-0.397461,-0.670898,0.642578,0
65360,-0.395996,-0.660156,0.638672,0
65400,-0.420898,-0.65625,0.643066,0
65440,-0.42041,-0.634277,0.65918,0
65490,-0.415039,-0.694336,0.615723,0
65530,-0.444824,-0.617676,0.627441,0
65550,-0.445801,-0.685059,0.584961,0
65570,-0.438965,-0.68457,0.603027,0
65610,-0.436523,-0.702637,0.58252,0
65630,-0.427246,-0.655762,0.598633,0
65650,-0.45166,-0.643555,0.599609,0
65700,-0.432617,-0.687012,0.61084,0
65730,-0.438965,-0.672363,0.617188,0
65750,-0.430176,-0.689941,0.631348,0
65790,-0.427246,-0.667969,0.615234,0
65840,-0.418457,-0.680664,0.629395,0
65880,-0.405273,-0.663574,0.625977,0
65880,-0.421875,-0.664551,0.635254,0
65900,-0.421387,-0.674805,0.632812,0
65940,-0.402832,-0.643066,0.628906,0
65970,-0.411621,-0.653809,0.634766,0
65990,-0.416992,-0.667969,0.65332,0
66000,-0.411133,-0.65625,0.647461,0
66020,-0.416504,-0.657715,0.641113,0
66040,-0.414062,-0.667969,0.655273,0
66060,-0.416016,-0.655762,0.652344,0
66080,-0.402832,-0.628906,0.633789,0
66100,-0.412109,-0.659668,0.649902,0
66120,-0.415039,-0.658691,0.645996,0
66140,-0.410645,-0.65332,0.647949,0
66160,-0.410645,-0.654297,0.638672,0
66180,-0.412109,-0.655273,0.652344,0
66210,-0.416016,-0.644043,0.651367,0
66250,-0.416504,-0.649414,0.655762,0
66280,-0.410645,-0.645996,0.65625,0
66300,-0.415527,-0.647949,0.662109,0
66310,-0.410645,-0.646973,0.662598,0
66320,-0.407715,-0.646973,0.657715,0
66340,-0.415039,-0.646973,0.655273,0
66370,-0.413086,-0.64502,0.658691,0
66390,-0.414062,-0.646484,0.65918,0
66400,-0.412598,-0.649902,0.658203,0
66420,-0.411621,-0.645508,0.656738,0
66460,-0.41748,-0.643066,0.660645,0
66480,-0.414551,-0.646973,0.660645,0
66500,-0.413574,-0.641113,0.656738,0
66510,-0.418457,-0.650879,0.649902,0
66530,-0.409668,-0.662598,0.650879,0
66570,-0.412598,-0.646484,0.649902,0
66590,-0.411621,-0.645996,0.646484,0
66600,-0.419922,-0.644531,0.654297,0
66620,-0.418945,-0.650391,0.65332,0
66670,-0.425293,-0.655273,0.631348,0
66690,-0.424316,-0.655273,0.635254,0
66710,-0.423828,-0.657227,0.641602,0
66750,-0.417969,-0.669922,0.632324,0
66780,-0.418457,-0.666504,0.634766,0
66790,-0.425781,-0.663086,0.629883,0
66810,-0.421387,-0.670898,0.630371,0
66830,-0.421387,-0.666992,0.630371,0
66850,-0.427246,-0.669434,0.625,0
66870,-0.430176,-0.670898,0.618652,0
66900,-0.424316,-0.675293,0.610352,0
66920,-0.431152,-0.674805,0.624512,0
66940,-0.429688,-0.670898,0.625977,0
66970,-0.426758,-0.671875,0.619141,0
67000,-0.432617,-0.668457,0.620117,0
67040,-0.435059,-0.668945,0.617188,0
67060,-0.429199,-0.672852,0.620605,0
67100,-0.428711,-0.681641,0.621094,0
67120,-0.423828,-0.673828,0.617188,0
67140,-0.42627,-0.675781,0.620117,0
67160,-0.428223,-0.678223,0.619629,0
67180,-0.431152,-0.67334,0.625,0
67190,-0.429688,-0.67627,0.616211,0
67240,-0.430664,-0.674805,0.617676,0
67260,-0.429688,-0.682617,0.616211,0
67300,-0.433105,-0.681641,0.613281,0
67310,-0.417969,-0.691895,0.61377,0
67320,-0.41748,-0.69043,0.608887,0
67340,-0.414062,-0.692383,0.609375,0
67360,-0.422852,-0.692871,0.604492,0
67380,-0.439941,-0.696289,0.592285,0
67390,-0.438477,-0.693848,0.59082,0
67410,-0.428711,-0.705078,0.590332,0
67430,-0.429688,-0.708984,0.582031,0
67450,-0.435059,-0.70459,0.586426,0
67470,-0.436523,-0.709473,0.583496,0
67490,-0.439453,-0.710449,0.571289,0
67510,-0.443359,-0.701172,0.57959,0
67530,-0.440918,-0.710938,0.575684,0
67560,-0.427246,-0.725098,0.571289,0
67580,-0.422852,-0.72168,0.573242,0
67590,-0.419922,-0.719727,0.580078,0
67610,-0.42627,-0.716797,0.571289,0
67630,-0.428711,-0.711914,0.566895,0
67650,-0.424316,-0.714355,0.57666,0
67670,-0.429688,-0.714355,0.568848,0
67700,-0.428223,-0.716797,0.574219,0
67730,-0.432617,-0.716797,0.572754,0
67730,-0.435059,-0.710938,0.578125,0
67750,-0.429199,-0.711914,0.586914,0
67790,-0.424805,-0.713867,0.580566,0
67820,-0.422363,-0.709473,0.59082,0
67820,-0.429688,-0.717773,0.588867,0
67840,-0.426758,-0.724121,0.588379,0
67840,-0.432617,-0.745117,0.597656,0
67860,-0.443848,-0.77832,0.623535,0
67880,-0.376953,-0.923828,0.621094,0
67900,-0.262207,-0.958008,0.769043,0
67930,-0.123535,-1.05127,0.802734,0
67950,-0.120605,-1.07129,0.807129,0
67970,-0.078125,-1.07324,0.799805,0
67990,-0.0234375,-1.04541,0.757812,0
68010,0.0375977,-0.98291,0.719238,0
68020,0.0957031,-0.963867,0.658203,0
68040,0.158203,-0.965332,0.593262,0
68080,0.267578,-0.95166,0.584473,0
68100,0.302734,-0.973145,0.595215,0
68120,0.370605,-0.962891,0.583984,0
68140,0.42627,-0.940918,0.533691,0
68160,0.460449,-0.933594,0.530762,0
68180,0.499512,-0.901855,0.469238,0
68200,0.583496,-0.85791,0.424805,0
68210,0.636719,-0.794434,0.467773,0
68230,0.482422,-0.646484,0.416992,0
68250,0.412598,-0.655273,0.369141,0
68270,0.405762,-0.737793,0.282227,0
68290,0.491699,-0.744629,0.21582,0
68310,0.517578,-0.73291,0.257812,0
68330,0.487305,-0.705078,0.258301,0
68370,0.358398,-0.624512,0.117676,0
68410,0.420898,-0.641602,0.103027,0
68430,0.449707,-0.611328,0.169922,0
68450,0.474121,-0.520508,0.166992,0
68470,0.522461,-0.539062,0.192383,0
68490,0.569824,-0.618652,0.207031,0
68510,0.501953,-0.692383,0.201172,0
68530,0.491699,-0.72168,0.258789,0
68550,0.581543,-0.695801,0.27832,0
68570,0.643066,-0.639648,0.213379,0
68590,0.67334,-0.627441,0.253418,0
68610,0.67334,-0.615723,0.288086,0
68630,0.660645,-0.667969,0.308105,1000
68650,0.666992,-0.722168,0.267578,0
68670,0.723633,-0.719238,0.257812,0
68690,0.729004,-0.674316,0.273438,0
68710,0.710449,-0.680664,0.286133,0
68730,0.783691,-0.711426,0.282715,0
68750,0.771973,-0.741211,0.312988,0
68770,0.720703,-0.73584,0.290039,0
68790,0.698242,-0.724121,0.288574,0
68810,0.717285,-0.678711,0.32373,0
68830,0.720215,-0.66748,0.286621,0
68850,0.705566,-0.693359,0.284668,0
68870,0.671387,-0.731934,0.307129,0
68890,0.655273,-0.73877,0.308594,0
68910,0.684082,-0.704102,0.300781,0
68930,0.67334,-0.660156,0.299805,0
68950,0.637207,-0.661133,0.291504,0
68970,0.655273,-0.688477,0.271973,0
68990,0.644043,-0.743164,0.266602,0
69010,0.562988,-0.755859,0.283203,0
69030,0.473633,-0.730469,0.27832,0
