Timestamp, Acceleration x, Acceleration y, Acceleration z, Marker
30,-0.604004,-0.614746,0.481934,0
50,-0.60498,-0.61377,0.481934,0
70,-0.605469,-0.613281,0.475098,0
90,-0.60791,-0.612305,0.478516,0
110,-0.606445,-0.613281,0.476562,0
130,-0.608398,-0.615723,0.469238,0
150,-0.611816,-0.614258,0.472168,0
170,-0.61084,-0.609863,0.472656,0
170,-0.61084,-0.617188,0.478516,0
210,-0.612305,-0.615234,0.470703,0
230,-0.611816,-0.612793,0.468262,0
250,-0.608398,-0.611816,0.46875,0
270,-0.61084,-0.62207,0.466797,0
290,-0.610352,-0.615234,0.466309,0
310,-0.605469,-0.615723,0.469238,0
330,-0.605469,-0.621582,0.474609,0
350,-0.603516,-0.623535,0.467773,0
370,-0.609375,-0.622559,0.461426,0
390,-0.60791,-0.620605,0.474121,0
410,-0.611328,-0.61377,0.472656,0
430,-0.612793,-0.615723,0.46875,0
450,-0.612305,-0.615234,0.466797,0
470,-0.614258,-0.619629,0.450195,0
490,-0.612793,-0.628906,0.444336,0
510,-0.622559,-0.629883,0.437012,0
530,-0.620117,-0.633789,0.42627,0
550,-0.621094,-0.641113,0.42627,0
570,-0.620117,-0.644531,0.42334,0
590,-0.623047,-0.641113,0.427246,0
600,-0.618164,-0.64502,0.42334,0
640,-0.60791,-0.63623,0.450195,0
660,-0.607422,-0.636719,0.45166,0
680,-0.607422,-0.637695,0.446289,0
700,-0.608887,-0.633301,0.444336,0
720,-0.605469,-0.635254,0.442383,0
740,-0.610352,-0.638184,0.441406,0
760,-0.612305,-0.631836,0.438965,0
780,-0.61377,-0.635254,0.4375,0
800,-0.617676,-0.633301,0.432129,0
820,-0.621582,-0.63916,0.425293,0
840,-0.622559,-0.634277,0.425781,0
860,-0.622559,-0.633789,0.428711,0
880,-0.624023,-0.635254,0.425781,0
900,-0.625488,-0.630371,0.424805,0
920,-0.625977,-0.634766,0.42627,0
940,-0.627441,-0.638672,0.425781,0
960,-0.625,-0.63916,0.430176,0
980,-0.62207,-0.632812,0.420898,0
1000,-0.620117,-0.63916,0.42334,0
1020,-0.625,-0.644043,0.425781,0
1030,-0.624512,-0.64209,0.425293,0
1050,-0.624023,-0.63916,0.423828,0
1060,-0.623047,-0.641113,0.423828,0
1080,-0.620605,-0.64209,0.421387,0
1080,-0.623535,-0.638672,0.421875,0
1090,-0.626953,-0.640625,0.424805,0
1110,-0.621094,-0.643066,0.424316,0
1130,-0.623535,-0.633789,0.420898,0
1150,-0.623535,-0.631836,0.42334,0
1170,-0.621582,-0.640625,0.415527,0
1180,-0.623535,-0.642578,0.423828,0
1200,-0.626465,-0.641602,0.422363,0
1220,-0.625488,-0.636719,0.429199,0
1260,-0.62207,-0.63623,0.431152,0
1280,-0.624512,-0.642578,0.428223,0
1300,-0.622559,-0.639648,0.421387,0
1320,-0.62207,-0.635254,0.428223,0
1340,-0.615234,-0.638184,0.4375,0
1360,-0.618164,-0.632812,0.437988,0
1380,-0.614258,-0.630859,0.436035,0
1400,-0.617188,-0.634277,0.439941,0
1420,-0.616211,-0.632812,0.438965,0
1440,-0.612305,-0.63623,0.433105,0
1460,-0.616211,-0.640625,0.429688,0
1480,-0.616211,-0.645508,0.437012,0
1500,-0.617188,-0.641113,0.440918,0
1520,-0.621094,-0.634766,0.434082,0
1540,-0.617676,-0.62793,0.429199,0
1560,-0.615234,-0.629883,0.4375,0
1580,-0.620605,-0.630859,0.434082,0
1580,-0.619141,-0.634766,0.434082,0
1600,-0.619141,-0.641602,0.435059,0
1620,-0.617676,-0.63623,0.436523,0
1640,-0.615723,-0.636719,0.4375,0
1660,-0.615234,-0.643066,0.428223,0
1680,-0.615234,-0.642578,0.436035,0
1700,-0.612305,-0.636719,0.437988,0
1720,-0.613281,-0.634766,0.434082,0
1740,-0.614258,-0.637695,0.434082,0
1760,-0.615234,-0.634766,0.435059,0
1780,-0.615234,-0.63623,0.437012,0
1800,-0.619629,-0.640137,0.438477,0
1820,-0.615234,-0.637207,0.435547,0
1880,-0.615234,-0.629883,0.436035,0
1890,-0.620117,-0.610352,0.445801,0
1910,-0.618164,-0.620605,0.446777,0
1930,-0.620605,-0.63916,0.435547,0
1950,-0.619629,-0.643066,0.429199,0
1970,-0.616699,-0.653809,0.428223,0
1990,-0.616211,-0.658691,0.416992,0
2010,-0.616699,-0.642578,0.42627,0
2050,-0.616699,-0.624512,0.435059,0
2070,-0.619141,-0.626465,0.438477,0
2110,-0.614746,-0.635254,0.442871,0
2130,-0.617676,-0.632324,0.443848,0
2150,-0.612793,-0.640625,0.438477,0
2170,-0.610352,-0.647461,0.430176,0
2190,-0.610352,-0.648926,0.430176,0
2200,-0.613281,-0.641113,0.428223,0
2240,-0.626465,-0.63916,0.424316,0
2250,-0.681152,-0.712402,0.40918,0
2280,-0.845215,-0.661133,0.365723,0
2300,-0.875977,-0.692871,0.379395,0
2320,-1.02783,-0.617676,0.450195,0
2340,-1.03223,-0.704102,0.409668,0
2360,-0.905762,-1.12939,0.563477,0
2380,-0.774414,-1.45654,0.65332,0
2390,-0.664551,-1.44434,0.617676,0
2410,-0.638184,-1.30566,0.63623,0
2430,-0.353516,-1.06201,0.527344,0
2450,-0.169922,-0.883789,0.503906,0
2470,0.074707,-0.904785,0.510742,0
2490,0.271973,-0.956055,0.451172,0
2510,0.365723,-0.897461,0.425781,0
2530,0.352539,-0.779785,0.45459,0
2550,0.30127,-0.726562,0.453613,0
2570,0.338379,-0.638184,0.449219,0
2590,0.344727,-0.552246,0.396973,0
2610,0.430664,-0.500977,0.351562,0
2630,0.461426,-0.466309,0.339355,0
2650,0.421875,-0.474121,0.391602,0
2670,0.339355,-0.531738,0.414062,0
2690,0.356934,-0.517578,0.392578,0
2710,0.42334,-0.462402,0.386719,0
2730,0.404297,-0.455078,0.391602,0
2750,0.459473,-0.521484,0.371094,0
2770,0.578613,-0.538086,0.379883,0
2790,0.59375,-0.590332,0.387207,0
2810,0.527832,-0.69043,0.396484,0
2830,0.585938,-0.714355,0.411621,0
2850,0.632324,-0.687988,0.432129,0
2880,0.398926,-0.712891,0.469727,0
2900,0.338867,-0.715332,0.515137,0
2920,0.311035,-0.709961,0.505371,0
2940,0.34375,-0.702148,0.556152,0
2960,0.342773,-0.660645,0.610352,0
2980,0.233398,-0.635254,0.581543,0
2990,0.113281,-0.619141,0.508301,0
3010,-0.0205078,-0.509766,0.455566,0
3010,-0.166992,-0.39502,0.102539,0
3030,-0.519531,-0.483398,-0.206055,0
3050,-0.24707,-1.24756,-0.0742188,0
3070,0.0249023,-1.19434,0.13916,0
3070,0.0292969,-0.906738,0.172852,0
3090,0.20459,-0.840332,-0.0224609,0
3110,0.272461,-0.908691,-0.0820312,0
3120,0.23877,-1.16406,-0.0292969,0
3130,0.319824,-1.2417,-0.019043,0
3150,0.316895,-1.14014,-0.105957,0
3170,0.343262,-0.957031,-0.0991211,0
3170,0.431152,-0.925781,-0.139648,0
3190,0.27832,-0.95459,-0.280273,0
3210,0.0537109,-0.889648,-0.19873,0
3230,0.0307617,-0.966797,-0.183594,0
3230,0.0263672,-0.986328,-0.183105,0
3250,0.0708008,-0.947266,-0.114746,0
3270,0.123047,-0.920898,-0.103516,0
3270,0.150879,-0.896484,-0.0683594,0
3290,0.081543,-0.9375,-0.0742188,0
3310,0.103027,-1.02246,-0.185547,0
3330,0.202148,-1.02637,-0.255859,0
3330,0.171875,-0.974121,-0.148926,0
3350,0.14209,-0.801758,-0.205566,0
3370,0.218262,-0.602051,-0.176758,0
3370,0.190918,-0.810059,-0.151367,0
3390,0.0976562,-0.911621,-0.0834961,0
3410,0.0795898,-0.95166,0.00927734,0
3430,0.17627,-0.915527,-0.185547,0
3430,0.167969,-0.763184,-0.090332,0
3470,0.133301,-0.751465,-0.0136719,0
3530,0.182129,-0.866699,0.0644531,0
3570,0.19873,-1.02148,0.0712891,0
3630,0.236816,-1.02734,0.112305,0
3670,0.0722656,-0.981445,0.190918,0
3700,0.0698242,-1.08398,0.314941,0
3720,0.243164,-1.19824,0.370117,0
3740,0.167969,-1.19531,0.310059,0
3760,0.208984,-1.02979,0.283203,0
3780,0.145996,-1.03467,0.246582,0
3800,0.0810547,-1.08984,0.340332,0
3820,0.216797,-1.08105,0.30127,0
3840,0.227539,-1.12549,0.29248,0
3860,0.182617,-0.981445,0.278809,0
3880,0.282715,-1.01807,0.25293,0
3900,0.355957,-1.06055,0.255859,0
3920,0.347168,-0.883301,0.163086,0
3940,0.146484,-0.790527,0.342773,0
3960,0.186523,-0.695801,0.496582,0
3980,0.393066,-0.540527,0.313965,0
4000,0.348633,0.189941,0.486816,0
4020,0.324707,0.308105,0.733398,0
4040,0.502441,-0.123047,0.734863,0
4060,0.698242,-0.562988,0.699707,0
4080,0.805664,-0.527832,0.552246,0
4100,0.777832,-0.464844,0.574219,0
4120,0.846191,-0.38623,0.476562,0
4140,0.850098,-0.341309,0.440918,0
4160,0.914551,-0.319824,0.373047,0
4180,0.910645,-0.438477,0.404785,0
4200,0.893555,-0.286133,0.516113,0
4220,0.85498,-0.23291,0.483398,0
4240,0.76416,-0.361328,0.330078,0
4260,0.722656,-0.658203,0.143066,0
4280,0.816406,-0.680664,0.0678711,0
4300,0.492188,-0.680664,0.304199,0
4320,0.613281,-0.316406,0.623535,0
4340,0.871582,-0.430664,0.219238,0
4360,0.732422,-0.428223,0.255371,0
4380,0.569336,-0.320801,0.408203,0
4400,0.571289,-0.585449,0.242676,0
4420,0.779297,-0.625977,0.104004,0
4440,0.884277,-0.106934,0.0776367,0
4460,0.571289,0.455078,0.208984,0
4480,0.27832,0.31543,0.0615234,0
4500,0.258301,0.196777,-0.0356445,0
4520,0.236328,-0.122559,-0.102051,0
4540,0.177246,-0.395996,-0.0673828,0
4560,0.193359,-0.504395,0.00390625,0
4580,-0.0146484,-0.538574,0.140625,0
4600,-0.125,-0.666504,0.298828,0
4620,-0.125488,-0.88623,0.473633,0
4640,-0.0512695,-0.928223,0.564453,0
4660,-0.213379,-0.825684,0.520508,0
4680,-0.415039,-0.825684,0.387207,0
4700,-0.402344,-0.645508,0.275879,0
4720,-0.942383,-0.0976562,0.196289,0
4740,-1.89551,0.241699,0.0844727,0
4760,-5.5542,-2.64307,1.82617,0
4780,0.563965,-1.92578,0.773926,0
4800,-0.622559,-2.15576,0.118652,0
4820,-0.582031,-1.36768,0.128906,0
4840,-0.314941,-0.720215,0.189453,0
4860,-0.334961,-0.282227,0.0478516,0
4880,-0.381836,-0.0712891,0.116211,0
4900,-0.34082,0.0786133,0.172363,0
4920,-0.566895,0.0712891,0.193359,0
4940,-0.907715,-0.269531,0.44043,0
4960,-0.819336,-0.992676,0.583496,0
4980,-0.692871,-1.52051,0.507812,0
5000,-0.690918,-1.0791,0.0161133,0
5020,-0.611816,-0.846191,0.0395508,0
5040,-0.666016,-0.916016,0.180176,0
5060,-0.679199,-0.866699,0.282227,0
5080,-0.66748,-0.822754,0.328613,0
5100,-0.647461,-0.718262,0.336426,0
5120,-0.622559,-0.580566,0.349121,0
5140,-0.585938,-0.510254,0.342285,0
5160,-0.595703,-0.496094,0.379883,0
5180,-0.617676,-0.528809,0.414062,0
5200,-0.648438,-0.580078,0.461426,0
5220,-0.667969,-0.626953,0.447754,0
5240,-0.667969,-0.681152,0.402344,0
5260,-0.661133,-0.722656,0.353027,0
5280,-0.639648,-0.739258,0.349121,0
5300,-0.63916,-0.75,0.329102,0
5320,-0.630371,-0.730469,0.334961,0
5340,-0.621582,-0.692383,0.345215,0
5360,-0.62207,-0.65918,0.368164,0
5380,-0.627441,-0.643555,0.387207,0
5400,-0.628418,-0.634277,0.399414,0
5420,-0.627441,-0.635742,0.401367,0
5440,-0.626953,-0.652832,0.395996,0
5460,-0.635742,-0.663086,0.390137,0
5480,-0.633789,-0.675293,0.373047,0
5500,-0.637695,-0.688965,0.375,0
5520,-0.636719,-0.677246,0.381836,0
5540,-0.624023,-0.672852,0.387207,0
5560,-0.623047,-0.668457,0.390137,0
5580,-0.610352,-0.657715,0.399902,0
5600,-0.60498,-0.658203,0.40332,0
5620,-0.613281,-0.651855,0.410645,0
5640,-0.618652,-0.652832,0.413086,0
5660,-0.62207,-0.664551,0.402832,0
5680,-0.628906,-0.657227,0.401855,0
5700,-0.630371,-0.657715,0.392578,0
5720,-0.637695,-0.650879,0.388672,0
5740,-0.635254,-0.640625,0.384277,0
5760,-0.64209,-0.666992,0.375,0
5780,-0.639648,-0.675293,0.373047,0
5800,-0.631836,-0.664551,0.37207,0
5820,-0.628418,-0.672852,0.37207,0
5840,-0.624023,-0.679199,0.367188,0
5860,-0.624512,-0.685547,0.371582,0
5870,-0.625,-0.670898,0.37793,0
5890,-0.626465,-0.666992,0.378906,0
5910,-0.627441,-0.667969,0.37207,0
5930,-0.632812,-0.666992,0.370117,0
5950,-0.626953,-0.67041,0.366211,0
5970,-0.627441,-0.669922,0.372559,0
5990,-0.62793,-0.67041,0.382324,0
6010,-0.624023,-0.679688,0.386719,0
6030,-0.614746,-0.657227,0.37793,0
6050,-0.630371,-0.687988,0.373535,0
6070,-0.621094,-0.682129,0.371094,0
6090,-0.614746,-0.671387,0.391602,0
6110,-0.633789,-0.662109,0.402344,0
6130,-0.613281,-0.658691,0.402832,0
6150,-0.625488,-0.661133,0.40625,0
6170,-0.618652,-0.650391,0.395996,0
6190,-0.618164,-0.652832,0.40332,0
6210,-0.623535,-0.661133,0.399414,0
6230,-0.625,-0.657715,0.397949,0
6250,-0.625488,-0.661621,0.394531,0
6270,-0.62207,-0.661133,0.401855,0
6290,-0.624023,-0.661621,0.393066,0
6310,-0.619629,-0.657227,0.391602,0
6330,-0.628906,-0.65918,0.397461,0
6350,-0.632324,-0.660156,0.395996,0
6370,-0.631836,-0.661621,0.398926,0
6390,-0.609375,-0.657715,0.408203,0
6410,-0.625,-0.658203,0.403809,0
6430,-0.633301,-0.660645,0.406738,0
6450,-0.607422,-0.65332,0.40332,0
6470,-0.626953,-0.650879,0.415039,0
6490,-0.616211,-0.645996,0.413086,0
6510,-0.620605,-0.650391,0.408691,0
6530,-0.611328,-0.649414,0.410156,0
6550,-0.619141,-0.658203,0.412109,0
6570,-0.625488,-0.652344,0.403809,0
6590,-0.621582,-0.647949,0.407227,0
6610,-0.623047,-0.652832,0.406738,0
6630,-0.623535,-0.65332,0.411133,0
6650,-0.625,-0.649902,0.413574,0
6670,-0.624512,-0.648926,0.412598,0
6690,-0.625,-0.646973,0.407715,0
6710,-0.627441,-0.648926,0.411621,0
6730,-0.629883,-0.645508,0.409668,0
6750,-0.634277,-0.646484,0.402344,0
6770,-0.632812,-0.650391,0.405762,0
6790,-0.630859,-0.652832,0.401367,0
6810,-0.62793,-0.654785,0.406738,0
6830,-0.625977,-0.65918,0.407227,0
6850,-0.625977,-0.656738,0.410156,0
6870,-0.618652,-0.646484,0.411621,0
6890,-0.620605,-0.645508,0.409668,0
6910,-0.616699,-0.650879,0.410156,0
6930,-0.619629,-0.649414,0.406738,0
6950,-0.624023,-0.645996,0.413086,0
6970,-0.621094,-0.654297,0.404297,0
6990,-0.629395,-0.657715,0.408203,0
7010,-0.619629,-0.650879,0.408691,0
7030,-0.62207,-0.650391,0.404297,0
7050,-0.62207,-0.65918,0.406738,0
7070,-0.620117,-0.65625,0.405273,0
7090,-0.621094,-0.65332,0.409668,0
7110,-0.616699,-0.649902,0.405762,0
7130,-0.615723,-0.646973,0.411621,0
7150,-0.620117,-0.652344,0.407715,0
7170,-0.617676,-0.649414,0.403809,0
7190,-0.625,-0.652832,0.401855,0
7210,-0.626465,-0.656738,0.402344,0
7230,-0.626465,-0.647949,0.401855,0
7250,-0.627441,-0.657715,0.397461,0
7270,-0.628418,-0.657715,0.392578,0
7290,-0.633789,-0.655762,0.395996,0
7310,-0.632812,-0.655762,0.396973,0
7330,-0.629395,-0.657715,0.394531,0
7350,-0.629395,-0.65625,0.408203,0
7370,-0.631348,-0.647949,0.403809,0
7390,-0.629883,-0.658203,0.400879,0
7410,-0.628906,-0.652344,0.411133,0
7430,-0.625,-0.649902,0.40918,0
7450,-0.625488,-0.646484,0.414062,0
7470,-0.619629,-0.642578,0.418457,0
7490,-0.623535,-0.642578,0.425293,0
7510,-0.620117,-0.642578,0.426758,0
7530,-0.618164,-0.637207,0.42627,0
7550,-0.618652,-0.640625,0.429688,0
7570,-0.619629,-0.639648,0.429199,0
7590,-0.616699,-0.64502,0.429688,0
7610,-0.618652,-0.643066,0.432617,0
7630,-0.617188,-0.635254,0.437988,0
7650,-0.618652,-0.635742,0.431152,0
7670,-0.620605,-0.633789,0.433594,0
7690,-0.617676,-0.637695,0.431152,0
7710,-0.623535,-0.642578,0.434082,0
7730,-0.62207,-0.630859,0.435059,0
7750,-0.617676,-0.635254,0.436523,0
7770,-0.623535,-0.634277,0.433105,0
7790,-0.619141,-0.630859,0.435059,0
7810,-0.62207,-0.636719,0.436523,0
7830,-0.620117,-0.632812,0.437012,0
7850,-0.618652,-0.631348,0.442383,0
7870,-0.615723,-0.628906,0.442871,0
7890,-0.612305,-0.631836,0.451172,0
7910,-0.614258,-0.633789,0.444336,0
7930,-0.618164,-0.63623,0.443848,0
7950,-0.61377,-0.630859,0.445801,0
7970,-0.610352,-0.634277,0.451172,0
7990,-0.617676,-0.630371,0.438965,0
8010,-0.619141,-0.629883,0.436035,0
8030,-0.615723,-0.632812,0.443359,0
8050,-0.619141,-0.633789,0.446777,0
8070,-0.617188,-0.634766,0.438477,0
8090,-0.614258,-0.637207,0.439941,0
8110,-0.616211,-0.635742,0.440918,0
8130,-0.621582,-0.636719,0.439941,0
8150,-0.614746,-0.632324,0.445312,0
8170,-0.618164,-0.633789,0.438477,0
8190,-0.613281,-0.635254,0.438477,0
8210,-0.616211,-0.635742,0.440918,0
8230,-0.616699,-0.637207,0.447266,0
8250,-0.618652,-0.637695,0.438477,0
8270,-0.615723,-0.635742,0.440918,0
8290,-0.619629,-0.633789,0.442871,0
8310,-0.615723,-0.628906,0.439453,0
8330,-0.616699,-0.640625,0.433594,0
8350,-0.624023,-0.63623,0.44043,0
8370,-0.616699,-0.629883,0.432129,0
8390,-0.615234,-0.638184,0.43457,0
8410,-0.623047,-0.641113,0.437988,0
8430,-0.612305,-0.640137,0.435547,0
8450,-0.615234,-0.637695,0.437012,0
8470,-0.615723,-0.637207,0.438965,0
8490,-0.616699,-0.639648,0.430176,0
8510,-0.618652,-0.634766,0.436035,0
8520,-0.612793,-0.633789,0.435547,0
8540,-0.615234,-0.638184,0.432129,0
8560,-0.617188,-0.630371,0.433594,0
8580,-0.619629,-0.638672,0.427734,0
8600,-0.624512,-0.636719,0.429688,0
8620,-0.623535,-0.637695,0.431152,0
8640,-0.625977,-0.631836,0.425293,0
8660,-0.620117,-0.641113,0.424805,0
8680,-0.62793,-0.63623,0.424805,0
8700,-0.624512,-0.631836,0.422852,0
8720,-0.622559,-0.634277,0.429199,0
8740,-0.617676,-0.631836,0.42627,0
8760,-0.624023,-0.637695,0.429199,0
8780,-0.621094,-0.631348,0.432617,0
8800,-0.618164,-0.638672,0.430176,0
8820,-0.62207,-0.636719,0.430176,0
8840,-0.623047,-0.642578,0.428711,0
8860,-0.622559,-0.640625,0.424316,0
8880,-0.622559,-0.643555,0.432617,0
8900,-0.622559,-0.634277,0.436523,0
8920,-0.617188,-0.630371,0.441895,0
8940,-0.653809,-0.614258,0.427246,0
8960,-0.586426,-0.654297,0.446777,0
8980,-0.623535,-0.621094,0.442871,0
9000,-0.621094,-0.632812,0.430176,0
9020,-0.629395,-0.635742,0.428223,0
9040,-0.640625,-0.642578,0.434082,0
9060,-0.641602,-0.633301,0.433105,0
9080,-0.634277,-0.631348,0.429688,0
9100,-0.628418,-0.624512,0.430176,0
9120,-0.624023,-0.629395,0.427246,0
9140,-0.619141,-0.632812,0.422363,0
9160,-0.619141,-0.641602,0.416504,0
9180,-0.618164,-0.649414,0.415039,0
9200,-0.617676,-0.651855,0.413086,0
9220,-0.617676,-0.657715,0.408691,0
9240,-0.617188,-0.661133,0.413086,0
9260,-0.615723,-0.663086,0.417969,0
9280,-0.614258,-0.661133,0.421387,0
9300,-0.609863,-0.65332,0.416504,0
9320,-0.608887,-0.654297,0.41748,0
9340,-0.610352,-0.650391,0.407715,0
9360,-0.607422,-0.651367,0.405273,0
9380,-0.601562,-0.662598,0.414551,0
9400,-0.604004,-0.663574,0.425781,0
9420,-0.60498,-0.656738,0.42334,0
9440,-0.607422,-0.65625,0.42627,0
9460,-0.612305,-0.65332,0.423828,0
9480,-0.618164,-0.646973,0.418945,0
9500,-0.619141,-0.635742,0.415527,0
9520,-0.626953,-0.64502,0.416992,0
9540,-0.630859,-0.645996,0.42041,0
9560,-0.63623,-0.650879,0.418457,0
9580,-0.634766,-0.65625,0.41748,0
9600,-0.626465,-0.668457,0.414551,0
9620,-0.628906,-0.659668,0.413574,0
9640,-0.624023,-0.653809,0.414062,0
9660,-0.633301,-0.657715,0.415527,0
9680,-0.636719,-0.659668,0.412109,0
9700,-0.630859,-0.660156,0.422363,0
9720,-0.620605,-0.664551,0.42334,0
9740,-0.631348,-0.667969,0.442871,0
9760,-0.643066,-0.667969,0.410645,0
9780,-0.67334,-0.681152,0.365723,0
9800,-0.688965,-0.686035,0.340332,0
9820,-0.697266,-0.687012,0.289062,0
9840,-0.717773,-0.687012,0.203613,0
9860,-0.724609,-0.692871,0.138184,0
9880,-0.725098,-0.720215,0.0952148,0
9900,-0.743164,-0.73291,0.0517578,0
9920,-0.739258,-0.75293,0.0615234,0
9940,-0.733887,-0.760254,0.0415039,0
9960,-0.736328,-0.766113,0.0522461,0
9980,-0.731445,-0.751465,0.0708008,0
10020,-0.722656,-0.69873,0.147949,0
10050,-0.67627,-0.778809,0.121582,0
10070,-0.650879,-0.791504,0.114258,0
10100,-0.546875,-0.910645,0.0864258,0
10110,-0.59668,-0.824219,0.0917969,0
10130,-0.569336,-0.766602,0.157227,0
10150,-0.592773,-0.802246,0.185059,0
10170,-0.529297,-0.870117,0.209473,0
10190,-0.518066,-0.844727,0.188965,0
10210,-0.599121,-0.719727,0.199707,0
10230,-0.572266,-0.664551,0.27832,0
10250,-0.537109,-0.617676,0.329102,0
10270,-0.554199,-0.562012,0.324707,0
10290,-0.570312,-0.538574,0.370117,0
10310,-0.576172,-0.548828,0.425293,0
10330,-0.601562,-0.541016,0.415039,0
10350,-0.625,-0.513184,0.416504,0
10370,-0.727539,-0.496582,0.436035,0
10390,-0.765137,-0.515625,0.402832,0
10410,-0.676758,-0.739746,0.32373,0
10430,-0.688477,-1.00488,0.227051,0
10450,-0.701172,-1.06738,0.20459,0
10470,-0.708984,-0.845703,0.179688,0
10490,-0.73584,-0.686035,0.17334,0
10500,-0.742188,-0.62793,0.185059,0
10520,-0.730469,-0.588379,0.177246,0
10540,-0.737305,-0.600098,0.223633,0
10560,-0.730469,-0.63623,0.26709,0
10580,-0.710449,-0.685547,0.264648,0
10600,-0.688477,-0.705566,0.259766,0
10620,-0.676758,-0.717773,0.22168,0
10640,-0.675293,-0.716797,0.181152,0
10660,-0.681641,-0.695801,0.188965,0
10680,-0.691895,-0.68457,0.211914,0
10700,-0.706055,-0.684082,0.222656,0
10720,-0.736816,-0.692383,0.227539,0
10740,-0.745605,-0.702148,0.22168,0
10760,-0.746582,-0.708008,0.225098,0
10780,-0.753418,-0.711914,0.208496,0
10800,-0.737305,-0.706055,0.195801,0
10820,-0.734863,-0.68457,0.210449,0
10840,-0.732422,-0.675781,0.20459,0
10860,-0.738281,-0.66748,0.201172,0
10880,-0.731445,-0.65625,0.21875,0
10900,-0.723633,-0.647949,0.206543,0
10940,-0.716309,-0.660645,0.187012,0
10960,-0.715332,-0.666016,0.190918,0
10990,-0.71875,-0.686523,0.179199,0
11000,-0.703125,-0.692383,0.180176,0
11020,-0.701172,-0.703613,0.199219,0
11040,-0.713867,-0.711914,0.198242,0
11060,-0.721191,-0.706543,0.195801,0
11080,-0.711914,-0.70166,0.1875,0
11100,-0.711914,-0.701172,0.189453,0
11120,-0.707031,-0.684082,0.192383,0
11140,-0.702148,-0.683594,0.17627,0
11160,-0.688477,-0.669922,0.163086,0
11180,-0.691406,-0.654785,0.149414,0
11200,-0.709961,-0.634277,0.138184,0
11220,-0.723145,-0.624023,0.135742,0
11240,-0.696777,-0.648438,0.146973,0
11260,-0.68457,-0.645996,0.186523,0
11280,-0.72168,-0.686035,0.164551,0
11300,-0.723633,-0.688965,0.153809,0
11320,-0.680176,-0.682617,0.168945,0
11340,-0.655762,-0.669434,0.203125,0
11360,-0.651855,-0.626465,0.220703,0
11380,-0.679199,-0.648926,0.243164,0
11400,-0.721191,-0.72998,0.269531,0
11420,-0.729004,-0.715332,0.306641,0
11440,-0.698242,-0.654297,0.335938,0
11460,-0.666016,-0.644531,0.396484,0
11480,-0.634277,-0.669434,0.460449,0
11500,-0.602539,-0.681152,0.532227,0
11520,-0.552246,-0.681641,0.528809,0
11540,-0.530762,-0.669922,0.567871,0
11560,-0.464844,-0.731445,0.594238,0
11580,-0.411133,-0.803711,0.581543,0
11600,-0.39502,-0.793945,0.54248,0
11620,-0.431152,-0.73877,0.521484,0
11640,-0.472656,-0.712402,0.519531,0
11660,-0.501953,-0.697266,0.522461,0
11680,-0.516113,-0.682617,0.483887,0
11700,-0.544434,-0.679199,0.448242,0
11720,-0.574707,-0.69873,0.430176,0
11740,-0.608887,-0.717285,0.427246,0
11760,-0.637695,-0.688965,0.423828,0
11780,-0.661621,-0.628418,0.416992,0
11830,-0.687012,-0.57959,0.398926,0
11840,-0.646973,-0.614746,0.375,0
11860,-0.628418,-0.648438,0.365234,0
11880,-0.61084,-0.685547,0.367188,0
11900,-0.599609,-0.696289,0.381836,0
11920,-0.583008,-0.69873,0.392578,0
11940,-0.585938,-0.685059,0.409668,0
11960,-0.57666,-0.680176,0.431641,0
11980,-0.560547,-0.692383,0.449707,0
12000,-0.558594,-0.707031,0.445312,0
12020,-0.56543,-0.739258,0.46875,0
12040,-0.559082,-0.764648,0.453613,0
12060,-0.537109,-0.768555,0.437988,0
12080,-0.513672,-0.790039,0.395996,0
12100,-0.505859,-0.783691,0.387695,0
12120,-0.499512,-0.746094,0.374023,0
12140,-0.525391,-0.715332,0.371094,0
12160,-0.573242,-0.677246,0.37793,0
12180,-0.647461,-0.63916,0.401367,0
12200,-0.705566,-0.639648,0.424805,0
12220,-0.730469,-0.641602,0.401367,0
12240,-0.736328,-0.620605,0.38623,0
12260,-0.753418,-0.608887,0.325684,0
12280,-0.736328,-0.640137,0.265137,0
12300,-0.713867,-0.675781,0.221191,0
12320,-0.693359,-0.702637,0.178711,0
12340,-0.663086,-0.727539,0.178223,0
12360,-0.632324,-0.763184,0.193848,0
12380,-0.651855,-0.785645,0.222168,0
12400,-0.646484,-0.805176,0.237305,0
12420,-0.623535,-0.806152,0.256348,0
12440,-0.631348,-0.794434,0.237305,0
12460,-0.652832,-0.77832,0.241211,0
12480,-0.650879,-0.743164,0.250488,0
12500,-0.655762,-0.712402,0.233398,0
12520,-0.666992,-0.715332,0.245605,0
12540,-0.646973,-0.728516,0.246582,0
12560,-0.617676,-0.747559,0.23877,0
12580,-0.612793,-0.748535,0.206543,0
12600,-0.594727,-0.72998,0.163574,0
12620,-0.592773,-0.698242,0.147461,0
12640,-0.602051,-0.686523,0.130859,0
12660,-0.627441,-0.686035,0.125,0
12680,-0.644043,-0.678711,0.139648,0
12700,-0.645508,-0.664062,0.144043,0
12720,-0.634766,-0.684082,0.135254,0
12740,-0.641113,-0.723145,0.130859,0
12760,-0.650879,-0.779297,0.140137,0
12780,-0.634277,-0.801758,0.130371,0
12800,-0.676758,-0.795898,0.152832,0
12820,-0.765137,-0.770996,0.20166,0
12840,-0.85791,-0.731445,0.246582,0
12860,-0.955566,-0.706543,0.28418,0
12880,-0.964844,-0.665527,0.289551,0
12900,-0.90625,-0.587891,0.243652,0
12920,-0.889648,-0.626953,0.168945,0
12940,-0.808105,-0.609375,0.219727,0
12960,-0.766113,-0.589355,0.241699,0
12980,-0.728027,-0.577637,0.302246,0
13000,-0.687012,-0.573242,0.288086,0
13020,-0.786133,-0.602539,0.32373,0
13040,-0.901855,-0.575195,0.350586,0
13060,-0.966309,-0.532715,0.301758,0
13080,-1.10938,-0.445801,0.234863,0
13100,-1.20312,-0.411621,0.182617,0
13120,-1.15869,-0.45459,0.223145,0
13140,-1.0957,-0.450684,0.202148,0
13160,-0.960449,-0.477539,0.208008,0
13180,-0.78125,-0.398926,0.138184,0
13200,-0.851562,-0.391602,0.0507812,0
13220,-0.728027,-0.385254,0.097168,0
13240,-0.624023,-0.370605,0.158691,0
13260,-0.646973,-0.398438,0.121094,0
13280,-0.606445,-0.359863,-0.000488281,0
13300,-0.624023,-0.245117,-0.0566406,0
13320,-0.501465,-0.169434,-0.0664062,0
13340,-0.533691,-0.0683594,-0.0566406,0
13360,-0.520508,-0.0566406,-0.0283203,0
13380,-0.5,-0.181152,0.120117,0
13400,-0.668945,-0.267578,0.233887,0
13420,-0.876953,-0.375,0.331543,0
13440,-0.87207,-0.488281,0.202637,0
13460,-0.917969,-0.375488,0.311523,0
13480,-0.908691,-0.26123,0.299805,0
13500,-0.894531,-0.555176,0.286133,0
13520,-0.847656,-0.827148,0.371094,0
13540,-0.802246,-0.894531,0.472656,0
13560,-0.748047,-1.20312,0.488281,0
13580,-0.926758,-1.18896,0.602051,0
13600,-1.03711,-1.09473,0.615723,0
13620,-1.03467,-0.990723,0.598633,0
13630,-0.850586,-0.756348,0.46875,0
13650,-0.510254,-0.773926,0.301758,0
13670,-0.392578,-0.716797,0.151367,0
13690,-0.35498,-0.697754,0.100586,0
13710,-0.333984,-0.653809,0.0947266,0
13730,-0.342773,-0.59082,0.168457,0
13750,-0.322266,-0.606445,0.302734,0
13770,-0.320312,-0.67041,0.461426,0
13790,-0.36377,-0.817871,0.572754,0
13810,-0.368652,-0.879883,0.65625,0
13830,-0.444336,-0.856445,0.841309,0
13850,-0.546875,-0.874023,0.770508,0
13870,-0.672852,-0.812012,0.63623,0
13890,-0.695801,-0.76123,0.538574,0
13910,-0.650879,-0.753418,0.403809,0
13930,-0.628906,-0.712402,0.346191,0
13950,-0.592773,-0.652832,0.273926,0
13970,-0.588867,-0.63623,0.23291,0
13990,-0.561035,-0.658203,0.226074,0
14010,-0.552734,-0.684082,0.245117,0
14030,-0.571777,-0.710938,0.267578,0
14050,-0.633789,-0.745117,0.327637,0
14070,-0.684082,-0.76709,0.345703,0
14090,-0.697266,-0.753418,0.362305,0
14110,-0.742676,-0.687012,0.34082,0
14130,-0.725586,-0.640137,0.322754,0
14150,-0.726074,-0.616211,0.291992,0
14170,-0.694824,-0.616211,0.280273,0
14190,-0.668945,-0.61377,0.256836,0
14210,-0.658691,-0.650391,0.236328,0
14230,-0.663574,-0.708984,0.23291,0
14250,-0.679688,-0.745117,0.208496,0
14270,-0.659668,-0.757812,0.189453,0
14290,-0.657715,-0.776367,0.15625,0
14310,-0.639648,-0.775391,0.138672,0
14330,-0.655273,-0.770508,0.144043,0
14350,-0.651367,-0.763184,0.153809,0
14370,-0.672363,-0.752441,0.175293,0
14390,-0.69043,-0.744629,0.196289,0
14410,-0.687988,-0.736816,0.218262,0
14430,-0.678711,-0.714355,0.223145,0
14450,-0.659668,-0.708496,0.213379,0
14470,-0.646973,-0.719238,0.217285,0
14490,-0.641602,-0.716797,0.221191,0
14510,-0.657227,-0.707031,0.220703,0
14530,-0.626465,-0.726562,0.226074,0
14550,-0.649414,-0.745117,0.242188,0
14570,-0.644531,-0.745605,0.231445,0
14590,-0.649414,-0.742676,0.242676,0
14610,-0.654785,-0.734863,0.234863,0
14630,-0.66748,-0.726074,0.230469,0
14650,-0.671875,-0.717773,0.227051,0
14670,-0.680176,-0.718262,0.225098,0
14690,-0.677246,-0.719727,0.214355,0
14710,-0.673828,-0.708008,0.21582,0
14730,-0.673828,-0.701172,0.210449,0
14750,-0.67334,-0.708496,0.210449,0
14770,-0.675293,-0.704102,0.223633,0
14790,-0.67627,-0.706543,0.216797,0
14810,-0.682617,-0.697266,0.224121,0
14830,-0.680664,-0.709473,0.222656,0
14850,-0.67334,-0.710449,0.231445,0
14870,-0.668945,-0.71875,0.217285,0
14890,-0.676758,-0.720703,0.228516,0
14910,-0.676758,-0.735352,0.229004,0
14950,-0.639648,-0.767578,0.248047,0
14980,-0.623047,-0.765625,0.241211,0
15000,-0.587402,-0.766113,0.227539,0
15020,-0.617676,-0.790527,0.26416,0
15040,-0.600586,-0.841309,0.298828,0
15060,-0.590332,-0.883301,0.27832,0
15080,-0.554688,-0.966309,0.285645,0
15100,-0.523438,-0.999023,0.253418,0
15120,-0.506836,-0.942871,0.242676,0
15140,-0.48291,-0.883789,0.237793,0
15160,-0.470215,-0.848633,0.213379,0
15180,-0.453125,-0.80127,0.228516,0
15200,-0.42627,-0.854004,0.243164,0
15220,-0.385254,-0.839844,0.259766,0
15240,-0.355957,-0.797363,0.263672,0
15260,-0.323242,-0.731934,0.239258,0
15280,-0.28125,-0.652832,0.221191,0
15300,-0.269531,-0.556152,0.234375,0
15320,-0.37207,-0.443359,0.303711,0
15340,-0.635742,-0.427246,0.422852,0
15360,-0.894043,-0.493652,0.514648,0
15390,-0.94043,-0.575195,0.168457,0
15420,-0.901855,-0.370605,0.120117,0
15440,-0.976074,-0.524414,0.241211,0
15470,-0.97998,-0.780273,0.458496,0
15490,-0.842773,-0.687988,0.385254,0
15510,-0.654297,-0.510254,0.196289,0
15530,-0.591309,-0.265137,0.144531,0
15550,-0.663574,-0.195801,0.162109,0
15570,-0.788574,-0.362305,0.192871,0
15590,-0.973145,-0.498047,0.293457,0
15610,-1.27881,-0.8125,0.3125,0
15630,-1.47852,-1.26953,0.285645,0
15650,-1.38477,-1.44775,0.361816,0
15670,-1.32764,-1.09082,0.270508,0
15690,-1.35742,-0.427734,0.289062,0
15710,-1.23682,-0.0249023,0.248535,0
15730,-1.12402,-0.208984,0.25293,0
15750,-0.942383,-0.414062,0.208984,0
15760,-0.758301,-0.203613,0.102051,0
15780,-0.588379,-0.0605469,0.0708008,0
15800,-0.497559,0.0273438,0.0566406,0
15820,-0.447266,-0.00976562,0.168457,0
15840,-0.411133,-0.112793,0.204102,0
15860,-0.350586,-0.156738,0.183105,0
15880,-0.315918,-0.139648,0.187012,0
15900,-0.337891,-0.149902,0.224609,0
15920,-0.36377,-0.190918,0.18457,0
15940,-0.512695,-0.397949,0.225586,0
15960,-1.05029,-1.05615,0.597168,0
15980,-0.899902,-1.39111,0.549316,0
16000,-0.950195,-1.30273,0.119629,0
16020,-0.880371,-0.647949,0.295898,0
16040,-0.979004,-0.30957,0.478516,0
16060,-1.10742,-0.365723,0.45752,0
16080,-1.07861,-0.521484,0.368164,0
16090,-1.07031,-0.625488,0.286621,0
16110,-0.963379,-0.790527,0.15332,0
16130,-0.755371,-0.891602,0.108887,0
16160,-0.601074,-0.776367,0.0673828,0
16170,-0.552734,-0.670898,0.119629,0
16190,-0.615723,-0.716797,0.262207,0
16200,-0.697754,-0.753418,0.352539,0
16220,-0.76416,-0.733887,0.381836,0
16240,-0.76416,-0.698242,0.36084,0
16260,-0.791016,-0.672363,0.332031,0
16280,-0.807129,-0.598633,0.296875,0
16300,-0.812012,-0.539062,0.274414,0
16320,-0.813477,-0.533203,0.220703,0
16340,-0.833496,-0.54834,0.186035,0
16360,-0.826172,-0.591797,0.154297,0
16380,-0.793945,-0.625,0.115234,0
16400,-0.754395,-0.650391,0.0712891,0
16420,-0.737793,-0.638184,0.0581055,0
16440,-0.72168,-0.64209,0.0444336,0
16460,-0.709473,-0.695312,0.0449219,0
16480,-0.708496,-0.756348,0.0644531,0
16500,-0.696777,-0.815918,0.0727539,0
16520,-0.681641,-0.854492,0.0859375,0
16540,-0.663574,-0.858398,0.0942383,0
16560,-0.653809,-0.837402,0.0991211,0
16580,-0.640625,-0.803223,0.105469,0
16600,-0.619141,-0.786621,0.112793,0
16620,-0.598145,-0.759766,0.100586,0
16640,-0.581055,-0.727539,0.0913086,0
16660,-0.55127,-0.742188,0.0898438,0
16680,-0.594238,-0.748535,0.124512,0
16700,-0.631348,-0.751953,0.185547,0
16720,-0.626465,-0.776855,0.212402,0
16740,-0.578125,-0.836426,0.280273,0
16760,-0.569336,-0.849121,0.288574,0
16780,-0.581055,-0.779785,0.26709,0
16800,-0.582031,-0.666016,0.217285,0
16820,-0.589355,-0.613281,0.186523,0
16840,-0.61377,-0.63623,0.156738,0
16860,-0.677246,-0.687988,0.165039,0
16880,-0.73584,-0.718262,0.193359,0
16900,-0.731445,-0.745117,0.200195,0
16920,-0.689453,-0.746094,0.187012,0
16940,-0.65625,-0.743164,0.166504,0
16960,-0.635742,-0.754395,0.191406,0
16980,-0.623047,-0.774902,0.196289,0
17000,-0.633301,-0.802734,0.255371,0
17020,-0.625488,-0.820312,0.286621,0
17040,-0.633301,-0.833984,0.321289,0
17060,-0.614746,-0.82373,0.307617,0
17080,-0.598145,-0.780273,0.287109,0
17100,-0.640625,-0.70166,0.26416,0
17120,-0.649902,-0.609375,0.282227,0
17140,-0.682617,-0.552246,0.269043,0
17160,-0.713867,-0.506348,0.258789,0
17180,-0.68457,-0.515625,0.266113,0
17200,-0.736816,-0.556152,0.178223,0
17220,-0.754395,-0.631348,0.199707,0
17240,-0.726562,-0.744141,0.191895,0
17260,-0.740234,-0.802246,0.221191,0
17280,-0.719727,-0.804688,0.230957,0
17300,-0.715332,-0.835449,0.212891,0
17320,-0.786621,-0.76709,0.285156,0
17340,-0.747559,-0.705078,0.235352,0
17360,-0.745117,-0.676758,0.241699,0
17380,-0.738281,-0.67041,0.259277,0
17400,-0.712891,-0.708984,0.249023,0
17420,-0.687988,-0.722168,0.223633,0
17440,-0.663086,-0.6875,0.20459,0
17460,-0.628906,-0.67041,0.203613,0
17480,-0.584961,-0.687988,0.193359,0
17500,-0.55957,-0.719727,0.201172,0
17520,-0.534668,-0.771484,0.216309,0
17540,-0.518555,-0.818359,0.236328,0
17560,-0.508789,-0.836426,0.234375,0
17580,-0.486328,-0.844727,0.237793,0
17600,-0.474121,-0.845215,0.253418,0
17620,-0.575684,-0.820312,0.265625,0
17640,-0.60791,-0.783203,0.26416,0
17660,-0.606445,-0.744141,0.247559,0
17680,-0.596191,-0.743652,0.227539,0
17700,-0.588379,-0.774902,0.208008,0
17720,-0.588867,-0.796387,0.208496,0
17740,-0.577148,-0.807129,0.217773,0
17760,-0.579102,-0.82373,0.254883,0
17780,-0.540527,-0.818848,0.262695,0
17800,-0.465332,-0.868652,0.26709,0
17820,-0.461914,-0.840332,0.292969,0
17840,-0.511719,-0.772949,0.370605,0
17860,-0.526855,-0.729004,0.406738,0
17880,-0.539062,-0.700684,0.391113,0
17900,-0.570801,-0.676758,0.362793,0
17920,-0.609375,-0.668457,0.344727,0
17940,-0.657227,-0.660645,0.319336,0
17960,-0.72168,-0.633789,0.29541,0
17980,-0.745117,-0.60791,0.249512,0
18000,-0.744629,-0.603516,0.204102,0
18020,-0.736328,-0.624512,0.171875,0
18040,-0.746582,-0.635254,0.17334,0
18060,-0.765625,-0.642578,0.175293,0
18080,-0.773438,-0.636719,0.16748,0
18100,-0.779297,-0.625,0.171387,0
18120,-0.787109,-0.622559,0.175781,0
18140,-0.804199,-0.638672,0.187012,0
18160,-0.830078,-0.660645,0.195801,0
18180,-0.81543,-0.697266,0.179688,0
18200,-0.799805,-0.741211,0.163574,0
18220,-0.79834,-0.757812,0.143066,0
18240,-0.790527,-0.754395,0.144043,0
18260,-0.767578,-0.719727,0.163574,0
18280,-0.753906,-0.673828,0.188477,0
18300,-0.722168,-0.666016,0.206055,0
18320,-0.6875,-0.674805,0.217285,0
18340,-0.667969,-0.696289,0.249512,0
18360,-0.65332,-0.719238,0.26416,0
18380,-0.641113,-0.714355,0.276367,0
18400,-0.645996,-0.693848,0.268066,0
18420,-0.652344,-0.669922,0.265625,0
18440,-0.668457,-0.668457,0.260254,0
18460,-0.703125,-0.673828,0.245605,0
18480,-0.714355,-0.691895,0.246094,0
18500,-0.716797,-0.699219,0.229492,0
18520,-0.710449,-0.706543,0.225586,0
18540,-0.699219,-0.706055,0.229004,0
18560,-0.700195,-0.696777,0.230469,0
18580,-0.687012,-0.692383,0.233887,0
18600,-0.683594,-0.690918,0.25,0
18620,-0.683594,-0.685547,0.25,0
18640,-0.681641,-0.671875,0.242676,0
18660,-0.686523,-0.661133,0.248047,0
18680,-0.694336,-0.655762,0.254883,0
18700,-0.703125,-0.671875,0.264648,0
18720,-0.70166,-0.697754,0.265625,0
18740,-0.697754,-0.70459,0.274414,0
18760,-0.68457,-0.70752,0.276855,0
18780,-0.675293,-0.701172,0.272461,0
18790,-0.675781,-0.69043,0.274902,0
18810,-0.678223,-0.681641,0.279297,0
18830,-0.684082,-0.679688,0.27832,0
18850,-0.682129,-0.686523,0.28418,0
18870,-0.676758,-0.686523,0.278809,0
18890,-0.681641,-0.684082,0.27832,0
18910,-0.681641,-0.672363,0.27832,0
18930,-0.685547,-0.67627,0.283203,0
18950,-0.692871,-0.684082,0.289551,0
18970,-0.678711,-0.677734,0.283203,0
18990,-0.677734,-0.680664,0.267578,0
19010,-0.687012,-0.682617,0.27832,0
19030,-0.690918,-0.67041,0.283691,0
19050,-0.684082,-0.670898,0.275879,0
19070,-0.689453,-0.678223,0.28418,0
19090,-0.680664,-0.673828,0.276855,0
19110,-0.683594,-0.683105,0.272949,0
19130,-0.675293,-0.692871,0.287109,0
19150,-0.673828,-0.685547,0.288086,0
19170,-0.665527,-0.68457,0.29248,0
19190,-0.660645,-0.688477,0.291016,0
19210,-0.669434,-0.691406,0.293457,0
19230,-0.666016,-0.691895,0.299805,0
19250,-0.668457,-0.685547,0.300293,0
19270,-0.665527,-0.691895,0.294434,0
19290,-0.669922,-0.698242,0.29834,0
19310,-0.668945,-0.696777,0.300781,0
19330,-0.66748,-0.695312,0.300293,0
19350,-0.677734,-0.687988,0.298828,0
19370,-0.666992,-0.689941,0.295898,0
19390,-0.672852,-0.684082,0.29541,0
19410,-0.666016,-0.682129,0.296875,0
19430,-0.677734,-0.688965,0.304688,0
19450,-0.669922,-0.691895,0.330078,0
19470,-0.655762,-0.693848,0.375,0
19490,-0.643555,-0.706543,0.389648,0
19510,-0.645508,-0.730957,0.349609,0
19530,-0.662598,-0.720703,0.303711,0
19550,-0.693848,-0.694336,0.255859,0
19570,-0.708496,-0.662109,0.214355,0
19590,-0.717285,-0.628418,0.181152,0
19610,-0.723145,-0.624512,0.171875,0
19630,-0.72168,-0.647949,0.168457,0
19650,-0.705566,-0.681641,0.172363,0
19670,-0.708496,-0.677734,0.172363,0
19690,-0.699219,-0.663574,0.187988,0
19710,-0.692383,-0.665527,0.210938,0
19730,-0.696777,-0.678711,0.25,0
19750,-0.696289,-0.701172,0.283203,0
19770,-0.687012,-0.714355,0.289551,0
19790,-0.679688,-0.716309,0.287109,0
19810,-0.685547,-0.702637,0.274414,0
19830,-0.686523,-0.691406,0.250488,0
19850,-0.696777,-0.672852,0.237793,0
19870,-0.703125,-0.671875,0.21875,0
19890,-0.710449,-0.667969,0.222656,0
19910,-0.701172,-0.671387,0.211426,0
19930,-0.698242,-0.684082,0.223633,0
19950,-0.695801,-0.692383,0.223145,0
19970,-0.692871,-0.700195,0.240723,0
19990,-0.685547,-0.703613,0.249512,0
20010,-0.686035,-0.698242,0.252441,0
20030,-0.682617,-0.695801,0.259277,0
20050,-0.6875,-0.692871,0.259766,0
20070,-0.691406,-0.685547,0.251953,0
20090,-0.693848,-0.677734,0.247559,0
20110,-0.704102,-0.677246,0.246582,0
20130,-0.713379,-0.677246,0.250977,0
20150,-0.71582,-0.67627,0.240723,0
20170,-0.711426,-0.666016,0.243164,0
20190,-0.708496,-0.671875,0.239258,0
20210,-0.70752,-0.674805,0.244141,0
20230,-0.70166,-0.68457,0.249512,0
20250,-0.694336,-0.683105,0.256348,0
20270,-0.691406,-0.687988,0.272461,0
20290,-0.685059,-0.685059,0.274414,0
20310,-0.677734,-0.679199,0.275879,0
20330,-0.680664,-0.683105,0.275879,0
20350,-0.6875,-0.682129,0.278809,0
20370,-0.687012,-0.682617,0.275879,0
20390,-0.682617,-0.681641,0.278809,0
20410,-0.683105,-0.685059,0.274414,0
20430,-0.687012,-0.687012,0.267578,0
20450,-0.686523,-0.684082,0.269531,0
20470,-0.694824,-0.686035,0.265625,0
20490,-0.692383,-0.6875,0.263184,0
20510,-0.6875,-0.686523,0.264648,0
20530,-0.688965,-0.682617,0.260254,0
20550,-0.690918,-0.677246,0.260742,0
20570,-0.692383,-0.677734,0.260742,0
20590,-0.689453,-0.678223,0.257812,0
20610,-0.693848,-0.683105,0.262207,0
20630,-0.695801,-0.686523,0.262207,0
20650,-0.687988,-0.693848,0.258301,0
20670,-0.681152,-0.694336,0.252441,0
20690,-0.685059,-0.692871,0.263672,0
20710,-0.687988,-0.693848,0.255859,0
20730,-0.6875,-0.692871,0.263184,0
20750,-0.683594,-0.697754,0.259277,0
20770,-0.68457,-0.700684,0.26416,0
20790,-0.683105,-0.678223,0.257324,0
20810,-0.681152,-0.675781,0.259277,0
20830,-0.68457,-0.677246,0.259277,0
20850,-0.68457,-0.677734,0.261719,0
20870,-0.685547,-0.670898,0.259277,0
20890,-0.687988,-0.681152,0.257324,0
20910,-0.688965,-0.693848,0.256836,0
20930,-0.682617,-0.694336,0.256348,0
20950,-0.679199,-0.699219,0.256836,0
20970,-0.678223,-0.705078,0.259766,0
20990,-0.67334,-0.70166,0.260742,0
21010,-0.678223,-0.696289,0.259766,0
21030,-0.679199,-0.690918,0.261719,0
21050,-0.683594,-0.694824,0.264648,0
21070,-0.6875,-0.695801,0.260254,0
21090,-0.685059,-0.694336,0.26123,0
21110,-0.691895,-0.695312,0.259277,0
21130,-0.689453,-0.697266,0.254395,0
21150,-0.693848,-0.693848,0.263672,0
21170,-0.689941,-0.688477,0.254395,0
21190,-0.68457,-0.694336,0.251953,0
21210,-0.687012,-0.688477,0.254883,0
21230,-0.688965,-0.692871,0.260254,0
21250,-0.696777,-0.690918,0.255371,0
21270,-0.689941,-0.682617,0.25,0
21290,-0.684082,-0.686035,0.245605,0
21310,-0.696777,-0.685547,0.258789,0
21330,-0.700684,-0.688965,0.241699,0
21350,-0.705078,-0.684082,0.241699,0
21370,-0.694824,-0.678223,0.239746,0
21390,-0.687012,-0.673828,0.220703,0
21410,-0.687012,-0.668457,0.201172,0
21430,-0.688477,-0.678711,0.200684,0
21440,-0.70166,-0.690918,0.216797,0
21460,-0.703613,-0.70166,0.242188,0
21480,-0.704102,-0.70166,0.246582,0
21500,-0.691895,-0.700195,0.253906,0
21520,-0.691406,-0.696777,0.258301,0
21540,-0.700684,-0.685059,0.271484,0
21560,-0.697754,-0.67627,0.27832,0
21580,-0.696777,-0.682617,0.266113,0
21600,-0.696289,-0.695801,0.25293,0
21620,-0.695312,-0.704102,0.242676,0
21640,-0.69873,-0.682617,0.226074,0
21660,-0.701172,-0.674316,0.215332,0
21680,-0.700684,-0.681641,0.203125,0
21700,-0.707031,-0.699707,0.19873,0
21720,-0.706543,-0.714355,0.193848,0
21740,-0.720703,-0.70752,0.197266,0
21760,-0.730469,-0.683594,0.211914,0
21780,-0.713867,-0.657227,0.209473,0
21800,-0.71582,-0.678711,0.208496,0
21820,-0.699707,-0.693359,0.202637,0
21840,-0.686035,-0.70166,0.194336,0
21860,-0.696289,-0.70459,0.197266,0
21880,-0.694824,-0.713379,0.1875,0
21900,-0.705078,-0.702637,0.200684,0
21920,-0.70166,-0.695312,0.199707,0
21940,-0.696289,-0.708984,0.188477,0
21960,-0.705566,-0.708984,0.175781,0
21980,-0.705566,-0.725586,0.186035,0
22000,-0.70459,-0.716309,0.150391,0
22020,-0.717773,-0.72168,0.165039,0
22040,-0.727539,-0.730469,0.166504,0
22060,-0.736816,-0.693359,0.157715,0
22080,-0.732422,-0.693359,0.144531,0
22100,-0.730469,-0.684082,0.114746,0
22120,-0.719238,-0.720215,0.103516,0
22140,-0.724121,-0.757324,0.0898438,0
22160,-0.744141,-0.742188,0.100098,0
22180,-0.768555,-0.733887,0.113281,0
22200,-0.770508,-0.66748,0.10498,0
22220,-0.748047,-0.683105,0.0805664,0
22240,-0.71875,-0.714844,0.0927734,0
22260,-0.752441,-0.704102,0.0986328,0
22280,-0.710449,-0.72168,0.0878906,0
22300,-0.717285,-0.723633,0.0830078,0
22320,-0.724609,-0.729492,0.0888672,0
22340,-0.732422,-0.70752,0.0830078,0
22360,-0.73584,-0.697266,0.0942383,0
22380,-0.731445,-0.6875,0.03125,0
22400,-0.765137,-0.679688,0.0600586,0
22420,-0.741211,-0.653809,0.0107422,0
22440,-0.73291,-0.706055,0.00976562,0
22460,-0.779297,-0.70459,-0.0117188,0
22480,-0.787598,-0.687988,0.0112305,0
22500,-0.777344,-0.662109,-0.0263672,0
22520,-0.777344,-0.683105,-0.0224609,0
22540,-0.791504,-0.693359,-0.0361328,0
22560,-0.77002,-0.660156,-0.0395508,0
22580,-0.773926,-0.687988,-0.0317383,0
22600,-0.782227,-0.666504,-0.03125,0
22620,-0.762207,-0.652832,-0.0478516,0
22640,-0.787598,-0.641602,-0.0244141,0
22660,-0.801758,-0.662598,-0.0297852,0
22680,-0.83252,-0.648438,-0.0195312,0
22700,-0.828125,-0.595703,-0.0253906,0
22720,-0.767578,-0.632812,-0.0571289,0
22740,-0.746582,-0.661621,-0.0805664,0
22760,-0.689941,-0.706055,-0.0834961,0
22780,-0.775391,-0.70752,-0.0395508,0
22800,-0.799316,-0.675781,0.00341797,0
22820,-0.76709,-0.634766,-0.0229492,0
22840,-0.749512,-0.635254,-0.0234375,0
22860,-0.76709,-0.652832,-0.0283203,0
22880,-0.780762,-0.643066,-0.0209961,0
22900,-0.789062,-0.65332,-0.019043,0
22920,-0.786133,-0.671387,-0.012207,0
22940,-0.788574,-0.682129,-0.00195312,0
22960,-0.791504,-0.68457,-0.00878906,0
22980,-0.820312,-0.663574,-0.00195312,0
23000,-0.830078,-0.663086,-0.00195312,0
23020,-0.803223,-0.686523,0.0185547,0
23040,-0.757324,-0.728027,-0.0126953,0
23060,-0.756836,-0.75,0.0205078,0
23080,-0.754395,-0.72168,0.0180664,0
23100,-0.749023,-0.665039,0.0141602,0
23120,-0.746582,-0.625977,-0.00634766,0
23140,-0.753906,-0.642578,-0.000488281,0
23160,-0.762207,-0.660156,-0.00927734,0
23180,-0.777344,-0.660156,-0.00927734,0
23200,-0.782715,-0.664551,-0.0209961,0
23220,-0.784668,-0.671875,-0.0126953,0
23240,-0.786621,-0.677734,0.00195312,0
23260,-0.776367,-0.691895,0.00976562,0
23280,-0.770996,-0.699707,0.0253906,0
23300,-0.770996,-0.699707,0.0332031,0
23320,-0.762695,-0.704102,0.0561523,0
23340,-0.749512,-0.699707,0.0571289,0
23360,-0.743652,-0.70166,0.0664062,0
23380,-0.742188,-0.692871,0.0722656,0
23400,-0.737793,-0.682129,0.0771484,0
23420,-0.741211,-0.676758,0.0756836,0
23440,-0.742188,-0.692383,0.0830078,0
23460,-0.741211,-0.713867,0.0771484,0
23480,-0.734863,-0.722656,0.090332,0
23500,-0.736816,-0.719238,0.0947266,0
23520,-0.728516,-0.708984,0.0996094,0
23540,-0.723145,-0.704102,0.102539,0
23560,-0.731934,-0.705078,0.114746,0
23580,-0.721191,-0.711426,0.118652,0
23600,-0.721191,-0.71875,0.117188,0
23620,-0.710938,-0.725586,0.111816,0
23640,-0.717773,-0.729492,0.112305,0
23660,-0.725586,-0.713379,0.130859,0
23680,-0.718262,-0.708496,0.121582,0
23700,-0.734375,-0.699219,0.125,0
23720,-0.733887,-0.697754,0.118652,0
23740,-0.730469,-0.695312,0.116211,0
23760,-0.748047,-0.688477,0.11377,0
23780,-0.749023,-0.672363,0.107422,0
23800,-0.75293,-0.673828,0.11377,0
23820,-0.814941,-0.771973,0.130859,0
23840,-0.784668,-0.907715,0.0727539,0
23860,-0.75,-0.984375,0.0805664,0
23880,-0.720215,-0.795898,0.167969,0
23900,-0.846191,-0.510254,0.250488,0
23920,-0.868652,-0.422363,0.333008,0
23940,-0.773438,-0.436035,0.376953,0
23960,-0.740723,-0.427734,0.371094,0
23980,-0.66748,-0.455078,0.337891,0
24000,-0.617676,-0.475586,0.319824,0
24020,-0.578125,-0.520508,0.320801,0
24040,-0.544434,-0.629883,0.339844,0
24060,-0.538086,-0.76123,0.366699,0
24080,-0.609863,-0.931152,0.38916,0
24090,-0.589355,-1.03662,0.404297,0
24110,-0.634277,-0.924316,0.387695,0
24130,-0.619629,-0.708008,0.352051,0
24150,-0.619141,-0.543945,0.356934,0
24170,-0.61084,-0.473633,0.348145,0
24190,-0.604004,-0.495117,0.344727,0
24210,-0.59082,-0.569824,0.353027,0
24230,-0.627441,-0.70752,0.37207,0
24250,-0.638184,-0.848145,0.404785,0
24270,-0.644043,-0.851562,0.422363,0
24290,-0.626953,-0.821289,0.399902,0
24310,-0.713379,-0.777832,0.476074,0
24330,-0.773438,-0.691406,0.499512,0
24350,-0.796875,-0.629883,0.550781,0
24370,-0.777344,-0.539062,0.560059,0
24390,-0.77002,-0.501953,0.634277,0
24410,-0.722168,-0.602051,0.666504,0
24430,-0.652344,-0.689941,0.721191,0
24450,-0.592773,-0.761719,0.753906,0
24470,-0.496582,-0.748535,0.73584,0
24490,-0.414062,-0.688477,0.682617,0
24510,-0.362793,-0.709473,0.691406,0
24530,-0.288086,-0.829102,0.657715,0
24550,-0.206055,-0.916992,0.621582,0
24570,-0.185059,-0.873535,0.612305,0
24590,-0.112793,-0.745605,0.543457,0
24610,0.0209961,-0.667969,0.541016,0
24630,0.0981445,-0.625977,0.481445,0
24650,0.137695,-0.632324,0.468262,0
24650,0.165039,-0.657715,0.453125,0
24670,0.186035,-0.734375,0.474121,0
24690,0.205566,-0.736816,0.457031,0
24730,0.255859,-0.751465,0.581543,0
24750,0.246582,-0.728027,0.675293,0
24770,0.289551,-0.6875,0.489258,0
24790,0.294434,-0.62207,0.461914,0
24810,0.268066,-0.61084,0.43457,0
24830,0.319336,-0.557617,0.429199,0
24850,0.304199,-0.600098,0.431641,0
24870,0.177246,-0.716309,0.345703,0
24890,0.0737305,-0.731445,0.51709,0
24910,-0.0302734,-0.668945,0.630371,0
24930,0.0678711,-0.588867,0.577148,0
24950,0.0869141,-0.571777,0.552246,0
24970,-0.0424805,-0.623535,0.577637,0
24990,-0.340332,-0.43457,0.698242,0
25010,0.0649414,-0.542969,0.558105,0
25030,0.230469,-0.866699,0.678223,0
25050,0.392578,-0.851562,0.604004,0
25070,0.316406,-0.668457,0.570312,0
25090,0.437012,-0.611328,0.578125,0
25110,0.583496,-0.557617,0.491699,0
25130,0.602539,-0.6875,0.476562,0
25150,0.511719,-0.735352,0.468262,0
25170,0.473633,-0.733398,0.472168,0
25190,0.521484,-0.722656,0.470215,0
25210,0.544434,-0.700684,0.40332,0
25230,0.48877,-0.627441,0.404785,0
25250,0.445312,-0.589844,0.4375,0
25270,0.499023,-0.55957,0.431152,0
25290,0.541992,-0.520508,0.389648,0
25310,0.562012,-0.569336,0.368164,0
25330,0.619141,-0.550293,0.35791,0
25350,0.604004,-0.624512,0.355469,0
25370,0.67041,-0.645996,0.350586,0
25390,0.67627,-0.647461,0.294434,0
25410,0.682617,-0.630371,0.287109,0
25430,0.636719,-0.661133,0.3125,0
25450,0.616211,-0.635742,0.319824,0
25460,0.570312,-0.601074,0.351562,0
25480,0.57373,-0.603516,0.349121,0
25500,0.66748,-0.644531,0.27832,0
25520,0.672852,-0.665527,0.267578,0
25540,0.66748,-0.676758,0.270996,0
25540,0.674316,-0.647949,0.253906,0
25550,0.68457,-0.660645,0.226074,0
25570,0.788574,-0.682617,0.148926,0
25590,0.825684,-0.745605,0.181641,0
25610,0.699707,-0.617188,0.269043,0
25630,0.723145,-0.584961,0.287109,0
25650,0.655762,-0.627441,0.235352,0
25670,0.603027,-0.689941,0.172363,0
25690,0.614746,-0.737305,0.182129,0
25710,0.584473,-0.710449,0.302246,0
25730,0.546875,-0.80957,0.344727,0
25750,0.544434,-0.854004,0.323242,0
25770,0.55957,-0.740723,0.267578,0
25790,0.605469,-0.648926,0.212402,0
25810,0.585449,-0.644531,0.205566,0
25830,0.488281,-0.634766,0.237305,0
25850,0.542969,-0.711914,0.289551,0
25870,0.560059,-0.828613,0.290039,0
25890,0.494629,-0.834961,0.277832,0
25910,0.407227,-0.727539,0.279297,0
25930,0.361816,-0.634277,0.237305,0
25950,0.368652,-0.560547,0.225098,0
25970,0.408203,-0.596191,0.226562,0
25990,0.372559,-0.677246,0.225586,0
26010,0.388184,-0.671875,0.21875,0
26030,0.488281,-0.687988,0.230469,0
26050,0.552734,-0.709961,0.245117,0
26070,0.606934,-0.686035,0.247559,0
26090,0.670898,-0.704102,0.27002,0
26110,0.65625,-0.70166,0.277344,0
26130,0.624512,-0.724609,0.275879,0
26150,0.56543,-0.73584,0.29248,0
26170,0.539551,-0.756348,0.308594,0
26190,0.549805,-0.75293,0.312012,0
26210,0.505859,-0.750488,0.304199,0
26230,0.47998,-0.771484,0.285156,0
26250,0.481445,-0.772461,0.300781,0
26270,0.474121,-0.801758,0.303223,0
26290,0.431641,-0.82666,0.299805,0
26300,0.400879,-0.839355,0.297363,0
26320,0.433105,-0.820312,0.300293,0
26340,0.494629,-0.820312,0.299805,0
26360,0.5,-0.815918,0.279297,0
26380,0.500977,-0.805176,0.271484,0
26400,0.539551,-0.788086,0.277832,0
26420,0.559082,-0.766113,0.298828,0
26440,0.577148,-0.744141,0.280273,0
26460,0.568359,-0.723633,0.275879,0
26480,0.57666,-0.696289,0.274414,0
26500,0.576172,-0.700195,0.289062,0
26520,0.570801,-0.712402,0.273438,0
26540,0.545898,-0.705566,0.284668,0
26560,0.519531,-0.689453,0.280762,0
26580,0.527832,-0.694824,0.286621,0
26600,0.570801,-0.709961,0.296387,0
26620,0.538574,-0.697266,0.286133,0
26640,0.519043,-0.69873,0.269043,0
26660,0.556152,-0.695801,0.264648,0
26680,0.541504,-0.708984,0.279297,0
26700,0.513672,-0.72998,0.299316,0
26720,0.521484,-0.744629,0.293457,0
26740,0.522949,-0.771484,0.280762,0
26760,0.534668,-0.754883,0.286621,0
26780,0.54248,-0.746094,0.314453,0
26800,0.490723,-0.732422,0.344727,0
26820,0.482422,-0.758301,0.335449,0
26840,0.557617,-0.776367,0.30127,0
26860,0.546875,-0.756836,0.317871,0
26880,0.472656,-0.644043,0.343262,0
26900,0.535645,-0.59668,0.32373,0
26920,0.57666,-0.607422,0.35791,0
26940,0.537109,-0.602539,0.426758,0
26960,0.533691,-0.670898,0.473633,0
26980,0.510742,-0.749512,0.488281,0
27000,0.473633,-0.71582,0.494141,0
27020,0.48291,-0.691895,0.504395,0
27040,0.497559,-0.660645,0.519531,0
27060,0.479492,-0.624512,0.571289,0
27080,0.473145,-0.644531,0.55957,0
27100,0.481445,-0.664062,0.56543,0
27120,0.474121,-0.620605,0.543945,0
27140,0.478516,-0.553223,0.533691,0
27160,0.391602,-0.588379,0.513672,0
27180,0.332031,-0.658203,0.496582,0
27200,0.355957,-0.744141,0.538086,0
27220,0.348145,-0.71582,0.496582,0
27240,0.253418,-0.682617,0.501953,0
27260,0.261719,-0.588379,0.527832,0
27280,0.299805,-0.601562,0.584473,0
27300,0.228027,-0.66748,0.623535,0
27320,0.244629,-0.647461,0.624023,0
27340,0.305664,-0.685059,0.607422,0
27360,0.293945,-0.698242,0.580078,0
27380,0.291504,-0.723145,0.574707,0
27400,0.290039,-0.711426,0.60791,0
27420,0.240723,-0.650391,0.583984,0
27440,0.171387,-0.691895,0.584961,0
27460,0.307129,-0.60791,0.57959,0
27480,0.388672,-0.613281,0.58252,0
27500,0.344238,-0.741699,0.603516,0
27520,0.365723,-0.729492,0.593262,0
27540,0.338867,-0.6875,0.559082,0
27560,0.29834,-0.634766,0.558594,0
27580,0.312988,-0.683105,0.588379,0
27600,0.335938,-0.78125,0.580078,0
27620,0.310059,-0.878906,0.575684,0
27640,0.307617,-0.86377,0.544434,0
27650,0.317383,-0.794434,0.549316,0
27650,0.337891,-0.728516,0.581055,0
27700,0.351562,-0.691406,0.563965,0
27720,0.349609,-0.665039,0.578125,0
27740,0.351074,-0.646484,0.569336,0
27760,0.382812,-0.65332,0.513672,0
27780,0.379883,-0.630371,0.49707,0
27800,0.351562,-0.552734,0.526367,0
27820,0.404785,-0.512207,0.545898,0
27840,0.407227,-0.554688,0.49707,0
27860,0.373047,-0.574219,0.45459,0
27880,0.363281,-0.586914,0.489746,0
27900,0.375977,-0.533203,0.580078,0
27920,0.430176,-0.560547,0.601074,0
27940,0.437012,-0.607422,0.530273,0
27960,0.479492,-0.586426,0.455078,0
27980,0.46582,-0.51416,0.501465,0
28000,0.458008,-0.505371,0.58252,0
28020,0.513672,-0.53125,0.592773,0
28040,0.537109,-0.51416,0.518555,0
28060,0.458496,-0.539062,0.554688,0
28080,0.483398,-0.540039,0.587891,0
28100,0.554199,-0.578125,0.574219,0
28120,0.472656,-0.532715,0.554688,0
28140,0.510254,-0.46582,0.538574,0
28160,0.518555,-0.427734,0.58252,0
28180,0.48291,-0.474609,0.591797,0
28200,0.414551,-0.474609,0.539062,0
28220,0.43457,-0.45166,0.517578,0
28240,0.483398,-0.470703,0.549805,0
28260,0.485352,-0.571777,0.503418,0
28280,0.462891,-0.608887,0.538086,0
28300,0.46582,-0.638672,0.55127,0
28320,0.478516,-0.667969,0.551758,0
28340,0.40625,-0.637695,0.507812,0
28360,0.386719,-0.547363,0.542969,0
28380,0.407227,-0.467773,0.575684,0
28400,0.396484,-0.521973,0.560059,0
28420,0.377441,-0.718262,0.551758,0
28440,0.461914,-0.746582,0.601074,0
28460,0.413086,-0.721191,0.678711,0
28480,0.416016,-0.802246,0.610352,0
28500,0.466797,-0.820801,0.571289,0
28520,0.494629,-0.717285,0.611816,0
28540,0.568848,-0.624023,0.567871,0
28560,0.605469,-0.612305,0.496094,0
28580,0.556641,-0.744141,0.555176,0
28600,0.594727,-0.608887,0.583984,0
28620,0.678711,-0.52832,0.483398,0
28640,0.632812,-0.505859,0.522949,0
28660,0.586426,-0.422852,0.464355,0
28680,0.620117,-0.417969,0.495605,0
28700,0.668945,-0.512695,0.489746,0
28720,0.58252,-0.572754,0.464844,0
28740,0.529785,-0.488281,0.535645,0
28760,0.581055,-0.528809,0.555664,0
28780,0.577637,-0.502441,0.566406,0
28800,0.518555,-0.495117,0.486328,0
28820,0.562988,-0.514648,0.490723,0
28840,0.570312,-0.591797,0.531738,0
28860,0.522949,-0.626953,0.516602,0
28880,0.547363,-0.642578,0.515137,0
28900,0.605957,-0.586426,0.529785,0
28920,0.571777,-0.575684,0.554199,0
28930,0.524414,-0.599609,0.542969,0
28950,0.515625,-0.590332,0.565918,0
28970,0.458496,-0.60791,0.554688,0
28990,0.433594,-0.627441,0.527344,0
29010,0.442383,-0.595215,0.556641,0
29030,0.413574,-0.569824,0.5625,0
29050,0.403809,-0.54248,0.548828,0
29070,0.446777,-0.522949,0.541016,0
29090,0.445801,-0.538086,0.547852,0
29110,0.400391,-0.577148,0.571289,0
29130,0.399902,-0.621094,0.603516,0
29150,0.428711,-0.60498,0.584473,0
29170,0.444824,-0.584961,0.583984,0
29190,0.446777,-0.588379,0.554688,0
29210,0.459961,-0.599121,0.554688,0
29230,0.459473,-0.616211,0.561035,0
29250,0.460938,-0.611328,0.555664,0
29270,0.458984,-0.616699,0.531738,0
29290,0.448242,-0.583496,0.522461,0
29310,0.444336,-0.556152,0.531738,0
29330,0.45459,-0.577637,0.533691,0
29350,0.425781,-0.614258,0.553711,0
29370,0.447266,-0.62207,0.558105,0
29390,0.458984,-0.61084,0.550781,0
29410,0.424805,-0.60498,0.549805,0
29430,0.42334,-0.57959,0.567383,0
29450,0.435547,-0.583984,0.594727,0
29470,0.383789,-0.629395,0.602051,0
29490,0.394043,-0.652344,0.580566,0
29510,0.416504,-0.640625,0.592773,0
29530,0.35791,-0.629883,0.594727,0
29550,0.34668,-0.596191,0.595703,0
29570,0.376465,-0.529785,0.595703,0
29590,0.360352,-0.549805,0.619141,0
29610,0.361328,-0.621582,0.61377,0
29630,0.376465,-0.677734,0.599121,0
29650,0.355957,-0.679688,0.603027,0
29670,0.348633,-0.643066,0.589355,0
29690,0.388672,-0.606445,0.584473,0
29710,0.393555,-0.606934,0.5625,0
29730,0.359863,-0.599121,0.553223,0
29750,0.356934,-0.595215,0.568848,0
29770,0.359863,-0.608398,0.570801,0
29790,0.345703,-0.622559,0.561035,0
29810,0.341797,-0.628418,0.585938,0
29830,0.333496,-0.628418,0.600586,0
29850,0.338867,-0.620117,0.60791,0
29870,0.354004,-0.632324,0.59668,0
29890,0.349121,-0.636719,0.598145,0
29910,0.343262,-0.624023,0.609863,0
29930,0.353027,-0.632812,0.606934,0
29950,0.34668,-0.625,0.608887,0
29970,0.34668,-0.62207,0.603516,0
29990,0.347168,-0.638672,0.591797,0
30010,0.358887,-0.649902,0.588379,0
30030,0.35791,-0.628418,0.592773,0
30050,0.34082,-0.627441,0.59668,0
30070,0.358887,-0.615234,0.608887,0
30090,0.349121,-0.609863,0.607422,0
30110,0.337402,-0.637695,0.581055,0
30130,0.331543,-0.658691,0.585938,2000
30150,0.330566,-0.645508,0.599121,0
30170,0.3125,-0.618652,0.599121,0
30190,0.312012,-0.618164,0.597168,0
30210,0.302246,-0.640625,0.589844,0
30230,0.300293,-0.647949,0.594238,0
30250,0.302246,-0.630371,0.588867,0
30270,0.30127,-0.623047,0.603027,0
30290,0.29834,-0.59082,0.608398,0
30310,0.314941,-0.621094,0.611328,0
30330,0.317871,-0.666992,0.606445,0
30350,0.330566,-0.672363,0.603027,0
30370,0.363281,-0.667969,0.60791,0
30390,0.373535,-0.644531,0.601074,0
30410,0.352051,-0.614746,0.592285,0
30430,0.356934,-0.615234,0.570801,0
30450,0.397461,-0.630859,0.560547,0
30470,0.375488,-0.643555,0.567383,0
30490,0.330566,-0.646973,0.570312,0
30510,0.340332,-0.643555,0.568848,0
30530,0.372559,-0.625977,0.570312,0
30550,0.333496,-0.637695,0.561035,0
30570,0.332031,-0.640625,0.539062,0
30590,0.368164,-0.646484,0.547363,0
30610,0.344727,-0.655273,0.541504,0
30630,0.341309,-0.647461,0.553223,0
30650,0.392578,-0.65332,0.537109,0
30670,0.399902,-0.675781,0.547852,0
30690,0.402344,-0.683105,0.55127,0
30710,0.404297,-0.691406,0.54248,0
30730,0.436035,-0.680176,0.526367,0
30750,0.44043,-0.687988,0.519531,0
30770,0.411621,-0.699707,0.507324,0
30790,0.470703,-0.685059,0.503906,0
30810,0.513672,-0.686523,0.499023,0
30830,0.455566,-0.693848,0.467773,0
30850,0.438965,-0.706055,0.441895,0
30870,0.48877,-0.697266,0.462402,0
30890,0.487793,-0.702637,0.466797,0
30910,0.435059,-0.730957,0.442871,0
30930,0.435547,-0.692871,0.44043,0
30950,0.477539,-0.666992,0.430664,0
30970,0.448242,-0.681152,0.41748,0
30990,0.446777,-0.671387,0.394531,0
31010,0.502441,-0.68457,0.396973,0
31030,0.535156,-0.685059,0.395996,0
31050,0.553711,-0.675293,0.374512,0
31070,0.561523,-0.666504,0.348145,0
31090,0.583496,-0.656738,0.344727,0
31110,0.612793,-0.647461,0.341309,0
31130,0.621094,-0.652344,0.333008,0
31150,0.614746,-0.652344,0.311035,0
31170,0.646973,-0.646973,0.282715,0
31190,0.690918,-0.624512,0.291016,0
31210,0.671875,-0.61377,0.266602,0
31230,0.669434,-0.603516,0.230469,0
31250,0.657227,-0.61377,0.236328,0
31270,0.646973,-0.654297,0.240234,0
31290,0.644043,-0.644531,0.237305,0
31310,0.658203,-0.617188,0.237793,0
31330,0.645508,-0.605469,0.248535,0
31350,0.67334,-0.619629,0.243164,0
31370,0.702148,-0.640137,0.223633,0
31390,0.711426,-0.629395,0.23584,0
31410,0.735352,-0.625488,0.227051,0
31430,0.72998,-0.629395,0.242676,0
31450,0.729004,-0.630371,0.251465,0
31470,0.750977,-0.617676,0.256348,0
31490,0.740234,-0.600098,0.265137,0
31510,0.706055,-0.592773,0.293457,0
31530,0.727051,-0.622559,0.260254,0
31550,0.780762,-0.609375,0.208984,0
31570,0.755859,-0.580078,0.209473,0
31580,0.64502,-0.572754,0.291992,0
31600,0.598145,-0.652344,0.299805,0
31620,0.631836,-0.730469,0.293945,0
31640,0.619141,-0.714355,0.350586,0
31660,0.583984,-0.594238,0.409668,0
31680,0.584961,-0.565918,0.428711,0
31700,0.568359,-0.647949,0.460938,0
31720,0.560547,-0.691895,0.480469,0
31740,0.618164,-0.664062,0.46582,0
31760,0.624512,-0.618164,0.469238,0
31780,0.526367,-0.61084,0.504883,0
31800,0.536133,-0.615723,0.489746,0
31820,0.563965,-0.616699,0.488281,0
31840,0.578613,-0.633789,0.49707,0
31860,0.586426,-0.66748,0.470215,0
31880,0.550293,-0.650391,0.48291,0
31900,0.489258,-0.648438,0.539062,0
31920,0.477539,-0.672363,0.496582,0
31940,0.48877,-0.653809,0.506348,0
31960,0.445312,-0.609863,0.531738,0
31980,0.417969,-0.630859,0.556152,0
32000,0.449707,-0.723145,0.561035,0
32020,0.408691,-0.70752,0.530762,0
32040,0.349609,-0.666016,0.572266,0
32060,0.332031,-0.631348,0.581055,0
32080,0.320801,-0.609863,0.588867,0
32100,0.302734,-0.594238,0.548828,0
32120,0.305176,-0.60498,0.535156,0
32140,0.325684,-0.740723,0.55127,0
32160,0.288086,-0.856445,0.557617,0
32180,0.272949,-0.799316,0.53125,0
32200,0.308105,-0.694336,0.499023,0
32220,0.279297,-0.658691,0.466797,0
32240,0.225586,-0.679688,0.477051,0
32260,0.20459,-0.729492,0.536133,0
32280,0.193359,-0.774902,0.549316,0
32290,0.19043,-0.826172,0.474121,0
32310,0.271973,-0.736816,0.540039,0
32310,0.243164,-0.682617,0.536621,0
32330,0.09375,-0.764648,0.482422,0
32330,0.112793,-0.793945,0.47168,0
32350,0.177246,-0.740234,0.509766,0
32350,0.0830078,-0.771484,0.478027,0
32370,0.0297852,-0.791504,0.428711,0
32420,0.0849609,-0.745117,0.463379,0
32450,0.0756836,-0.758789,0.481934,0
32450,0.0664062,-0.82666,0.40918,0
32470,0.149414,-0.816406,0.39209,0
32490,0.161621,-0.826172,0.367676,0
32520,-0.0429688,-0.825195,0.341797,0
32550,-0.0522461,-0.753906,0.196289,0
32570,0.41748,-0.944336,0.364258,0
32570,-0.123047,-0.78125,0.164062,0
32590,0.0859375,-0.896484,0.319824,0
32610,0.294922,-0.936035,0.438965,0
32630,0.112793,-0.962402,0.53125,0
32650,0.0961914,-0.779297,0.0361328,0
32670,-0.00341797,-1.04492,0.542969,0
32690,0.598633,-1.04346,0.532715,0
32710,0.638184,-0.793945,0.162598,0
32730,0.538574,-0.681641,-0.0117188,0
32790,0.583984,-0.661621,-0.00390625,0
32820,0.778809,-0.73291,0.134277,0
32840,0.41748,-0.866211,0.378906,0
32860,0.418457,-0.834473,0.268066,0
32880,0.430176,-0.787598,0.254883,0
32900,0.435547,-0.784668,0.291504,0
32920,0.495117,-0.821289,0.279785,0
32940,0.567383,-0.802246,0.235352,0
32960,0.578613,-0.69873,0.210938,0
32980,0.588379,-0.646973,0.223145,0
33000,0.60791,-0.6875,0.222656,0
33020,0.630371,-0.714844,0.216797,0
33040,0.681641,-0.729004,0.186523,0
33060,0.723145,-0.746094,0.164551,0
33080,0.73584,-0.708984,0.142578,0
33100,0.766113,-0.670898,0.127441,0
33120,0.791992,-0.669434,0.116211,0
33140,0.758789,-0.66748,0.100586,0
33160,0.790527,-0.612793,0.109863,0
33180,0.841797,-0.578125,0.100586,0
33200,0.865234,-0.560059,0.0737305,0
33220,0.873047,-0.550781,0.0576172,0
33240,0.864258,-0.567383,0.090332,0
33260,0.850098,-0.563477,0.114746,0
33280,0.834961,-0.536133,0.126465,0
33300,0.807617,-0.51416,0.145996,0
33320,0.777832,-0.549805,0.164551,0
33340,0.785156,-0.574219,0.202637,0
33360,0.764648,-0.59375,0.225098,0
33380,0.762695,-0.560059,0.232422,0
33400,0.795898,-0.500977,0.199707,0
33420,0.813965,-0.489746,0.197266,0
33440,0.811523,-0.516113,0.196777,0
33460,0.797363,-0.529297,0.217285,0
33480,0.79248,-0.551758,0.246582,0
33500,0.791992,-0.563965,0.287109,0
33520,0.767578,-0.515625,0.300781,0
33540,0.762695,-0.469727,0.301758,0
33560,0.792969,-0.458984,0.313965,0
33580,0.769531,-0.471191,0.343262,0
33600,0.740234,-0.507812,0.382324,0
33620,0.739746,-0.549316,0.395508,0
33640,0.721191,-0.568848,0.432617,0
33660,0.696289,-0.592773,0.455566,0
33680,0.685547,-0.602539,0.477539,0
33700,0.676758,-0.559082,0.461426,0
33720,0.623535,-0.569824,0.470215,0
33740,0.57666,-0.619141,0.472168,0
33760,0.580566,-0.583984,0.5,0
33780,0.567383,-0.598145,0.544922,0
33800,0.504395,-0.666992,0.562012,0
33820,0.431641,-0.636719,0.601562,0
33840,0.457031,-0.648438,0.562988,0
33860,0.492188,-0.677734,0.494141,0
33880,0.466309,-0.624023,0.504395,0
33900,0.38916,-0.578613,0.546875,0
33920,0.403809,-0.623535,0.53125,0
33940,0.413086,-0.639648,0.525391,0
33960,0.42041,-0.637695,0.550781,0
33980,0.419434,-0.615234,0.55127,0
34000,0.318848,-0.584961,0.538574,0
34020,0.335449,-0.570801,0.596191,0
34040,0.39209,-0.631836,0.597656,0
34060,0.330566,-0.701172,0.552734,0
34080,0.251953,-0.697754,0.574219,0
34100,0.289551,-0.60791,0.632324,0
34120,0.26416,-0.626953,0.580078,0
34140,0.242188,-0.676758,0.521973,0
34160,0.209961,-0.587891,0.544922,0
34180,0.18457,-0.622559,0.570312,0
34200,0.188477,-0.75,0.510254,0
34210,0.212891,-0.711426,0.555176,0
34210,0.152344,-0.546387,0.585449,0
34230,0.0805664,-0.746582,0.516113,0
34250,0.136719,-0.820312,0.490723,0
34250,0.171875,-0.696289,0.528809,0
34270,0.148926,-0.693359,0.496582,0
34310,0.217285,-0.774902,0.395996,0
34330,0.0649414,-0.669922,0.342773,0
34350,0.0283203,-0.57959,0.231934,0
34370,0.44873,-0.853027,0.612793,0
34390,0.24707,-0.64502,0.0654297,0
34410,-0.214844,-0.655273,0.216309,0
34430,-0.277832,-0.747559,0.421875,0
34450,-0.269043,-0.816895,0.346191,0
34470,-0.228516,-0.702148,0.118164,0
34490,0.195801,-0.553223,-0.0131836,0
34530,0.915527,-0.763672,0.360352,0
34550,0.299805,-1.07812,0.695801,0
34570,0.124512,-0.59668,-0.0424805,0
34590,0.547363,-0.88623,0.539551,0
34610,0.525391,-0.87207,0.402832,0
34630,0.514648,-0.72998,0.265137,0
34650,0.449707,-0.691406,0.25293,0
34670,0.473145,-0.758789,0.29541,0
34690,0.54248,-0.834473,0.312988,0
34710,0.495117,-0.84375,0.222656,0
34730,0.459961,-0.764648,0.180176,0
34750,0.460449,-0.751465,0.155762,0
34770,0.440918,-0.731934,0.211426,0
34790,0.495117,-0.734863,0.194336,0
34810,0.550293,-0.72168,0.147949,0
34830,0.536621,-0.684082,0.162109,0
34850,0.602051,-0.683594,0.163086,0
34870,0.662598,-0.688477,0.154785,0
34890,0.626465,-0.696777,0.126953,0
34910,0.619141,-0.703613,0.132812,0
34930,0.737305,-0.714355,0.145508,0
34950,0.820801,-0.677734,0.125488,0
34970,0.748535,-0.601562,0.0883789,0
34990,0.720215,-0.630859,0.0678711,0
35010,0.846191,-0.678223,0.0405273,0
35030,0.857422,-0.62207,0.0297852,0
35050,0.839844,-0.554688,0.0126953,0
35070,0.881348,-0.551758,-0.0166016,0
35090,0.883301,-0.554199,-0.0102539,0
35110,0.887695,-0.554199,-0.0297852,0
35130,0.891113,-0.510254,-0.0322266,0
35150,0.850098,-0.473633,-0.00732422,0
35170,0.85498,-0.518555,0.0136719,0
35190,0.896484,-0.547852,0.0292969,0
35210,0.854492,-0.528809,0.0625,0
35230,0.864258,-0.491211,0.0834961,0
35250,0.92041,-0.449219,0.0634766,0
35270,0.911621,-0.45459,0.0864258,0
35290,0.874512,-0.48291,0.134766,0
35310,0.902344,-0.490234,0.140625,0
35330,0.916992,-0.478516,0.151855,0
35350,0.901367,-0.445801,0.175293,0
35370,0.912598,-0.445801,0.189941,0
35390,0.896484,-0.462891,0.225098,0
35410,0.862305,-0.49707,0.24707,0
35430,0.863281,-0.493164,0.274902,0
35440,0.838379,-0.472168,0.266602,0
35460,0.79541,-0.512695,0.277344,0
35480,0.753418,-0.552246,0.333496,0
35500,0.735352,-0.587891,0.382324,0
35520,0.731445,-0.60791,0.364746,0
35540,0.72998,-0.592285,0.356445,0
35560,0.679199,-0.621582,0.384277,0
35580,0.693848,-0.615723,0.374023,0
35600,0.654785,-0.625,0.380859,0
35620,0.569824,-0.663574,0.422363,0
35640,0.520996,-0.639648,0.436035,0
35660,0.544434,-0.559082,0.438965,0
35680,0.534668,-0.634766,0.456055,0
35700,0.490723,-0.717285,0.458008,0
35720,0.541992,-0.668457,0.428223,0
35740,0.571289,-0.605469,0.425293,0
35760,0.466309,-0.675781,0.436523,0
35780,0.399414,-0.726562,0.421387,0
35800,0.445312,-0.717773,0.41748,0
35820,0.420898,-0.736328,0.388184,0
35840,0.371094,-0.685547,0.370117,0
35860,0.368164,-0.687012,0.372559,0
35880,0.364746,-0.799805,0.369141,0
35900,0.331055,-0.824219,0.352539,0
35920,0.290039,-0.76416,0.273438,0
35940,0.285156,-0.775391,0.223633,0
35960,0.238281,-0.888184,0.216797,0
35980,0.218262,-0.847168,0.20166,0
36000,0.186035,-0.835449,0.150879,0
36020,0.175781,-0.896484,0.212891,0
36040,0.236816,-0.925293,0.175781,0
36060,0.285645,-0.928711,0.151367,0
36080,0.293945,-0.858887,0.133301,0
36100,0.305176,-0.830078,0.126953,0
36120,0.311035,-0.884766,0.114746,0
36140,0.369141,-0.883301,0.0961914,0
36160,0.424316,-0.834473,0.0942383,0
36180,0.389648,-0.841797,0.0498047,0
36200,0.333984,-0.845215,0.0507812,0
36220,0.362305,-0.808105,0.0390625,0
36240,0.390625,-0.796875,-0.00292969,0
36260,0.449707,-0.861816,-0.0078125,0
36280,0.49707,-0.791504,-0.0185547,0
36300,0.494629,-0.763184,-0.0229492,0
36320,0.532227,-0.831543,-0.0458984,0
36340,0.638672,-0.797852,-0.027832,0
36360,0.648926,-0.786133,-0.0512695,0
36380,0.60791,-0.724609,-0.0200195,0
36400,0.731445,-0.626953,-0.074707,0
36420,0.802246,-0.709961,-0.0922852,0
36440,0.730957,-0.747559,-0.0224609,0
36460,0.765625,-0.714355,-0.0493164,0
36480,0.810059,-0.702637,-0.0830078,0
36500,0.807129,-0.654297,-0.0625,0
36520,0.859375,-0.614746,-0.0766602,0
36540,0.875977,-0.607422,-0.065918,0
36560,0.862793,-0.644531,-0.0703125,0
36580,0.865234,-0.628418,-0.0664062,0
36600,0.850586,-0.585938,-0.0273438,0
36620,0.837402,-0.609863,-0.050293,0
36640,0.852539,-0.561523,-0.0800781,0
36660,0.827148,-0.521973,-0.0605469,0
36680,0.803711,-0.561035,-0.0712891,0
36700,0.8125,-0.598633,-0.0454102,0
36720,0.810059,-0.641113,-0.0107422,0
36740,0.812012,-0.62207,-0.0297852,2001
36760,0.81543,-0.60498,-0.074707,0
36780,0.827637,-0.58252,-0.0585938,0
36800,0.811523,-0.597168,-0.0527344,0
36820,0.756348,-0.643555,-0.0625,0
36840,0.695312,-0.681641,-0.0605469,0
36850,0.675293,-0.706543,-0.043457,0
36870,0.673828,-0.699707,-0.0439453,0
36890,0.621094,-0.667969,-0.0473633,0
36910,0.574707,-0.668457,-0.0214844,0
36930,0.542969,-0.687988,-0.00927734,0
36950,0.553223,-0.660645,-0.0166016,0
36970,0.535645,-0.611816,-0.00878906,0
36990,0.524902,-0.606934,0.019043,0
37010,0.535156,-0.634277,0.0253906,0
37030,0.592773,-0.62207,-0.00830078,0
37050,0.614746,-0.602051,0.00585938,0
37070,0.650391,-0.609863,-0.03125,0
37090,0.651367,-0.601562,-0.0356445,0
37110,0.605469,-0.597168,-0.0205078,0
37130,0.59082,-0.650879,-0.0146484,0
37150,0.585449,-0.591797,0.0209961,0
37170,0.554199,-0.493164,0.00732422,0
37190,0.533691,-0.482422,0.0390625,0
37210,0.524414,-0.463379,0.0205078,0
37230,0.526367,-0.438965,0.0249023,0
37250,0.523926,-0.48584,0.043457,0
37270,0.547852,-0.533691,0.0820312,0
37290,0.605469,-0.512207,0.132812,0
37310,0.656738,-0.510254,0.161133,0
37330,0.662109,-0.600098,0.206055,0
37350,0.714355,-0.629883,0.269043,0
37370,0.780273,-0.618164,0.239746,0
37390,0.804199,-0.683105,0.273926,0
37410,0.816406,-0.729004,0.324707,0
37430,0.812988,-0.734375,0.331055,0
37450,0.795898,-0.790527,0.349121,0
37470,0.78125,-0.872559,0.406738,0
37490,0.710449,-0.882324,0.416016,0
37510,0.614258,-0.914551,0.443359,0
37530,0.5625,-0.963867,0.448242,0
37550,0.513672,-0.955566,0.467773,0
37570,0.4375,-0.905762,0.494141,0
37590,0.375977,-0.942383,0.547363,0
37610,0.347656,-1.00049,0.533203,0
37630,0.358887,-1.00342,0.504883,0
37650,0.339355,-0.988281,0.495605,0
37670,0.331543,-0.941406,0.485352,0
37690,0.318359,-0.890137,0.476562,0
37710,0.277344,-0.868652,0.483398,0
37730,0.279297,-0.842285,0.473633,0
37740,0.294922,-0.817383,0.459473,0
37760,0.274902,-0.829102,0.457031,0
37780,0.253418,-0.830566,0.42627,0
37800,0.309082,-0.809082,0.509277,0
37830,0.444824,-0.824219,0.587402,0
37850,0.353027,-0.785156,0.515625,0
37870,0.288086,-0.766602,0.440918,0
37890,0.322754,-0.766602,0.419922,0
37910,0.33252,-0.767578,0.418457,0
37920,0.334961,-0.76416,0.42334,2000
37940,0.337402,-0.743164,0.432129,0
37960,0.364746,-0.719727,0.446289,0
37990,0.245117,-0.695801,0.438477,0
38010,0.328613,-0.769043,0.458496,0
38030,0.340332,-0.795898,0.407227,0
38050,0.305664,-0.807617,0.453125,0
38070,0.268066,-0.795898,0.47168,0
38090,0.30957,-0.745605,0.464844,0
38110,0.286621,-0.711426,0.439941,0
38130,0.26416,-0.736816,0.426758,0
38150,0.274902,-0.744141,0.43457,0
38170,0.249023,-0.78125,0.453125,0
38180,0.23877,-0.799316,0.440918,0
38200,0.227051,-0.785645,0.459473,0
38220,0.229004,-0.775391,0.461914,0
38240,0.256348,-0.742188,0.427246,0
38260,0.124023,-0.694336,0.277344,0
38290,0.481445,-0.835938,0.516113,0
38310,-0.0830078,-0.698242,0.333496,0
38320,0.297852,-0.891113,0.543457,0
38330,0.188965,-0.793457,0.482422,0
38360,0.284668,-0.770508,0.508301,0
38380,0.143555,-0.739746,0.402344,0
38400,0.168457,-0.713867,0.222656,0
38420,0.592285,-0.882324,0.583984,0
38440,0.20459,-0.586914,0.135254,0
38460,-0.0537109,-0.839844,0.563965,0
38480,0.264648,-1.01465,0.756836,0
38500,0.483887,-1.00537,0.785156,0
38520,0.396484,-1.00879,0.810059,0
38540,0.0151367,-0.995117,0.665527,0
38560,-0.226074,-0.754395,0.178711,0
38580,0.574219,-0.57373,0.0644531,0
38600,0.734375,-0.938965,0.783691,0
38620,-0.228027,-0.759766,0.102051,0
38640,0.962891,-0.808105,0.578125,0
38660,-0.212402,-0.772949,0.0205078,0
38680,0.684082,-0.997559,0.845215,0
38700,0.728516,-0.579102,0.100586,0
38720,-0.175781,-0.73584,-0.015625,0
38740,0.0151367,-0.986328,0.559082,0
38760,0.560059,-0.98877,0.836426,0
38780,0.833008,-0.895996,0.83252,0
38800,0.884766,-0.866699,0.779297,0
38830,0.831543,-0.907715,0.80127,0
38850,0.603516,-0.974121,0.834961,0
38870,0.121094,-1.01807,0.634766,0
38890,0.112793,-0.745605,0.344238,0
38930,0.416504,-0.782227,0.329102,0
38950,0.45459,-0.771973,0.348145,0
38970,0.435059,-0.792969,0.328613,0
38990,0.42334,-0.77832,0.328613,0
39010,0.470215,-0.755371,0.331055,0
39030,0.473145,-0.771973,0.31543,0
39040,0.473145,-0.793457,0.286133,0
39060,0.478516,-0.788086,0.300781,0
39080,0.48877,-0.776855,0.30957,0
39100,0.500977,-0.777832,0.286621,0
39120,0.485352,-0.786133,0.268066,0
39140,0.508789,-0.756836,0.278809,0
39160,0.514648,-0.750977,0.272949,0
39180,0.485352,-0.75293,0.290039,0
39200,0.490723,-0.757324,0.27832,0
39220,0.52002,-0.760742,0.261719,0
39240,0.520996,-0.763184,0.264648,0
39260,0.538086,-0.770508,0.234863,0
39280,0.558594,-0.770508,0.231934,0
39300,0.584961,-0.739746,0.235352,0
39320,0.591309,-0.728516,0.232422,0
39340,0.588379,-0.739746,0.21582,0
39360,0.586914,-0.727051,0.221191,0
39380,0.57666,-0.71582,0.20752,0
39400,0.606445,-0.751465,0.171387,0
39420,0.645508,-0.744629,0.187988,0
39440,0.654297,-0.699707,0.180664,0
39460,0.638672,-0.681152,0.19043,0
39480,0.652832,-0.709473,0.192383,0
39490,0.666992,-0.737793,0.225586,0
39510,0.664062,-0.70752,0.246582,0
39530,0.651855,-0.665527,0.26709,0
39550,0.637207,-0.626953,0.282715,0
39570,0.643066,-0.65332,0.256836,0
39590,0.624512,-0.694824,0.269531,0
39610,0.628418,-0.719238,0.279297,0
39630,0.641602,-0.72998,0.271973,0
39650,0.642578,-0.696777,0.280762,0
39670,0.631836,-0.672363,0.278809,0
39690,0.625,-0.714355,0.257324,0
39710,0.617676,-0.739258,0.287109,0
39730,0.603516,-0.688477,0.317383,0
39750,0.614746,-0.630371,0.334473,0
39770,0.620117,-0.631348,0.327637,0
39790,0.586914,-0.691895,0.327637,0
39810,0.579102,-0.715332,0.360352,0
39830,0.594727,-0.700684,0.384277,0
39850,0.592773,-0.666016,0.380371,0
39870,0.573242,-0.644531,0.36377,0
39890,0.558594,-0.651855,0.391113,0
39910,0.548828,-0.686035,0.407227,0
39930,0.539551,-0.670898,0.404785,0
39950,0.515625,-0.669434,0.399902,0
39970,0.512207,-0.696777,0.419922,0
39990,0.535645,-0.690918,0.430176,0
40010,0.496582,-0.69043,0.432617,0
40030,0.45459,-0.678223,0.417969,0
40050,0.473145,-0.663574,0.418945,0
40070,0.469238,-0.688477,0.434082,0
40090,0.459961,-0.743164,0.457031,0
40110,0.449707,-0.76123,0.469727,0
40130,0.443848,-0.75293,0.459473,0
40150,0.436035,-0.726562,0.46582,0
40170,0.44873,-0.733887,0.44873,0
40190,0.444824,-0.710938,0.444824,0
40210,0.430664,-0.71582,0.450684,0
40230,0.428223,-0.75,0.454102,0
40250,0.406738,-0.768066,0.452637,0
40270,0.39502,-0.755859,0.45166,0
40290,0.410645,-0.737305,0.446289,0
40310,0.376953,-0.737793,0.440918,0
40330,0.351562,-0.742188,0.450684,0
40350,0.356445,-0.760742,0.473633,0
40370,0.374512,-0.769531,0.492676,0
40390,0.358398,-0.758301,0.461914,0
40410,0.325684,-0.749023,0.441406,0
40430,0.317383,-0.722168,0.478516,0
40450,0.303223,-0.757812,0.480469,0
40470,0.272461,-0.794922,0.464844,0
40490,0.291504,-0.759277,0.443848,0
40510,0.283691,-0.728516,0.460938,0
40530,0.247559,-0.753418,0.456055,0
40550,0.25293,-0.788574,0.425781,0
40550,0.28418,-0.797852,0.413086,0
40570,0.294434,-0.785156,0.427246,0
40590,0.27002,-0.752441,0.446289,0
40610,0.351074,-0.758789,0.371582,0
40630,0.443359,-0.771484,0.383301,0
40650,0.0166016,-0.816406,0.614746,0
40690,0.65918,-0.902344,0.493164,0
40710,0.396484,-0.648926,0.104492,0
40730,0.0273438,-0.577637,0.0463867,0
40750,-0.0244141,-0.571289,0.0263672,0
40770,0.223633,-0.569336,0.00390625,0
40790,0.6875,-0.646484,0.227539,0
40810,0.691406,-0.960938,0.788086,0
40830,-0.344238,-0.927734,0.429199,0
40850,0.602539,-0.583496,0.15332,0
40870,-0.0859375,-1.0083,0.704102,0
40890,0.605469,-0.629883,0.111816,0
40910,-0.296875,-0.984863,0.379395,0
40930,0.782227,-0.924805,0.783691,0
40950,0.481445,-0.60791,0.0473633,0
40970,-0.279785,-0.76123,-0.0361328,0
40990,-0.306641,-0.986328,0.387695,0
41010,-0.0336914,-1.05127,0.655762,0
41030,0.135742,-1.04932,0.731934,0
41050,0.0771484,-1.04199,0.698242,0
41070,-0.201172,-1.05469,0.496094,0
41090,-0.364746,-0.931641,0.100098,0
41110,0.0405273,-0.68457,-0.179199,0
41130,0.8125,-0.646973,0.264648,0
41150,0.59668,-0.97168,0.818359,0
41170,-0.314453,-0.944336,0.0668945,0
41190,0.694824,-0.666992,0.108398,0
41210,0.186035,-1.09375,0.665527,0
41230,0.360352,-0.630859,-0.163574,0
41250,0.255371,-1.06348,0.650391,0
41270,0.63623,-0.624512,0.027832,0
41290,-0.219238,-1.05029,0.153809,0
41310,0.899414,-0.900391,0.705078,0
41330,0.430664,-0.647461,-0.162598,0
41350,-0.272949,-1.00684,-0.0761719,0
41370,0.299316,-1.10645,0.62793,0
41390,0.934082,-0.809082,0.643066,0
41410,0.748047,-0.577637,0.0913086,0
41430,0.09375,-0.677734,-0.324707,0
41450,-0.220703,-0.995117,-0.114746,0
41470,0.145996,-1.13867,0.405273,0
41470,0.949707,-0.869629,0.475098,0
41490,0.604492,-0.99707,0.410156,0
41530,0.291016,-0.701172,0.000976562,0
41550,0.435059,-0.841797,0.143555,0
41570,0.419922,-0.844727,0.154297,0
41590,0.462891,-0.851562,0.149902,0
41610,0.473633,-0.840332,0.151855,0
41630,0.449219,-0.819336,0.145996,0
41650,0.485352,-0.824219,0.122559,0
41670,0.539062,-0.836426,0.13623,0
41690,0.52832,-0.843262,0.118652,0
41710,0.527344,-0.820801,0.109375,0
41730,0.586914,-0.805664,0.101074,0
41750,0.598633,-0.805176,0.0922852,0
41770,0.563477,-0.784668,0.0966797,0
41790,0.569336,-0.77832,0.105957,0
41810,0.60791,-0.70459,0.100586,0
41830,0.600586,-0.641113,0.0834961,0
41850,0.612793,-0.665527,0.0517578,0
41870,0.652832,-0.723145,0.0253906,0
41890,0.633301,-0.757324,0.0429688,0
41910,0.619629,-0.754395,0.0878906,0
41930,0.659668,-0.761719,0.0883789,0
41950,0.684082,-0.73877,0.0600586,0
41970,0.678223,-0.704102,0.0507812,0
41990,0.678711,-0.695312,0.0551758,0
42010,0.682129,-0.721191,0.0629883,0
42020,0.70752,-0.709961,0.0576172,0
42040,0.725098,-0.680664,0.0532227,0
42060,0.746094,-0.670898,0.0400391,0
42080,0.783691,-0.689453,0.0395508,0
42100,0.772461,-0.680176,0.0522461,0
42120,0.786133,-0.655273,0.0581055,0
42130,0.807129,-0.642578,0.0576172,0
42150,0.800293,-0.612305,0.0825195,0
42170,0.782715,-0.604004,0.100586,0
42190,0.80127,-0.614258,0.115723,0
42210,0.812012,-0.61084,0.129883,0
42230,0.791504,-0.601562,0.153809,0
42250,0.791992,-0.564453,0.173828,0
42270,0.79248,-0.543457,0.163574,0
42290,0.785156,-0.54541,0.169922,0
42310,0.764648,-0.565918,0.168945,0
42330,0.750977,-0.612793,0.180664,0
42350,0.750488,-0.647461,0.215332,0
42370,0.753906,-0.638672,0.224121,0
42390,0.755371,-0.59668,0.222656,0
42410,0.744141,-0.560547,0.207031,0
42430,0.720703,-0.583008,0.217285,0
42450,0.712402,-0.619141,0.229492,0
42470,0.703125,-0.639648,0.245117,0
42490,0.685059,-0.612305,0.245605,0
42510,0.667969,-0.562988,0.229492,0
42530,0.667969,-0.61084,0.246582,0
42550,0.660645,-0.661133,0.265137,0
42570,0.632324,-0.689941,0.304199,0
42590,0.624023,-0.716797,0.327637,0
42610,0.60498,-0.737305,0.348145,0
42630,0.587402,-0.687988,0.37793,0
42650,0.603516,-0.655273,0.35791,0
42670,0.586426,-0.627441,0.346191,0
42690,0.532715,-0.640137,0.37793,0
42710,0.512695,-0.71582,0.394043,0
42730,0.515137,-0.766602,0.42334,0
42750,0.540527,-0.714844,0.415527,0
42770,0.520996,-0.664551,0.401855,0
42790,0.46875,-0.669922,0.421875,0
42810,0.506836,-0.741211,0.419434,0
42830,0.532227,-0.768066,0.429199,0
42850,0.469238,-0.740234,0.449707,0
42870,0.468262,-0.729492,0.419434,0
42890,0.493164,-0.730957,0.421387,0
42910,0.477539,-0.706055,0.422363,0
42930,0.438477,-0.719727,0.435059,0
42930,0.438965,-0.698242,0.394531,0
42950,0.43457,-0.728516,0.387207,0
42970,0.407715,-0.756348,0.415527,0
42990,0.370117,-0.772461,0.437012,0
43010,0.365723,-0.78125,0.418457,0
43030,0.38623,-0.743164,0.372559,0
43050,0.372559,-0.699219,0.384766,0
43070,0.345703,-0.709961,0.37793,0
43090,0.325684,-0.772949,0.381836,0
43110,0.310059,-0.795898,0.384277,0
43130,0.273438,-0.811523,0.396484,0
43150,0.269043,-0.808105,0.399414,0
43170,0.341309,-0.764648,0.355957,0
43190,0.353516,-0.744141,0.34375,0
43210,0.28125,-0.760742,0.342285,0
43230,0.276367,-0.766602,0.32373,0
43250,0.300293,-0.80957,0.33252,0
43270,0.288086,-0.858398,0.338867,0
43290,0.312988,-0.848145,0.294922,0
43310,0.324219,-0.81543,0.272949,0
43330,0.339355,-0.84082,0.294922,0
43350,0.341797,-0.869629,0.296875,0
43370,0.333008,-0.875977,0.275391,0
43390,0.342773,-0.866699,0.256836,0
43410,0.353516,-0.864746,0.267578,0
43430,0.32666,-0.881348,0.265625,0
43450,0.302734,-0.893066,0.23584,0
43470,0.328613,-0.876465,0.233887,0
43490,0.344727,-0.895508,0.234375,0
43510,0.308105,-0.908691,0.208008,0
43530,0.335938,-0.875488,0.178223,0
43550,0.330566,-0.892578,0.186035,0
43570,0.283203,-0.91748,0.217285,0
43590,0.294922,-0.874023,0.217773,0
43610,0.351074,-0.820312,0.211426,0
43630,0.364746,-0.86377,0.212402,0
43650,0.373535,-0.870117,0.17334,0
43670,0.432617,-0.858398,0.112305,0
43690,0.413574,-0.89209,0.143066,0
43710,0.348145,-0.91748,0.144531,0
43730,0.355957,-0.899414,0.118164,0
43750,0.393066,-0.854492,0.0942383,0
43770,0.375,-0.842285,0.112305,0
43790,0.359375,-0.867188,0.117188,0
43810,0.424316,-0.852539,0.0952148,0
43830,0.447266,-0.824707,0.0693359,0
43850,0.399414,-0.82666,0.0571289,0
43870,0.381348,-0.838379,0.0532227,0
43890,0.421875,-0.846191,0.0727539,0
43910,0.463379,-0.8125,0.059082,0
43930,0.520996,-0.771484,0.0380859,0
43950,0.550293,-0.786133,0.0341797,0
43970,0.54834,-0.822266,0.0327148,0
43990,0.561523,-0.816895,0.0112305,0
44010,0.583496,-0.782715,-0.0170898,0
44030,0.577637,-0.793457,0.0107422,0
44050,0.574707,-0.817871,-0.00683594,0
44070,0.628906,-0.808594,-0.0268555,0
44090,0.676758,-0.769531,-0.0410156,0
44110,0.652832,-0.749023,-0.0302734,0
44130,0.628906,-0.73291,-0.0385742,0
44150,0.678223,-0.722168,-0.0654297,0
44170,0.677246,-0.70752,-0.0571289,0
44190,0.660156,-0.705078,-0.0454102,0
44210,0.654785,-0.687012,-0.0463867,0
44230,0.643555,-0.633789,-0.0332031,0
44250,0.62793,-0.666504,-0.0668945,0
44270,0.705078,-0.746582,-0.102051,0
44290,0.788086,-0.730469,-0.112793,0
44310,0.769531,-0.723145,-0.0776367,0
44330,0.730469,-0.739258,-0.0498047,0
44350,0.770996,-0.696289,-0.0439453,0
44370,0.789551,-0.641602,-0.0688477,0
44390,0.771484,-0.630371,-0.0517578,0
44410,0.792969,-0.611816,-0.0205078,0
44430,0.814941,-0.585938,-0.00390625,0
44450,0.795898,-0.586914,-0.00488281,0
44470,0.789062,-0.604004,0.0136719,0
44490,0.838379,-0.579102,0.0307617,0
44510,0.827637,-0.556152,0.0488281,0
44530,0.804199,-0.543457,0.0698242,0
44550,0.844727,-0.539551,0.0683594,0
44570,0.847656,-0.552734,0.0844727,0
44590,0.815918,-0.547852,0.100098,0
44610,0.842773,-0.539062,0.065918,0
44630,0.870605,-0.563477,0.0800781,0
44650,0.867676,-0.555664,0.113281,0
44670,0.82373,-0.577637,0.129395,0
44690,0.793945,-0.647949,0.169434,0
44710,0.807617,-0.641113,0.160645,0
44730,0.779785,-0.600586,0.166016,0
44750,0.730469,-0.581055,0.152344,0
44760,0.728027,-0.569336,0.160156,0
44780,0.734375,-0.558105,0.199219,0
44800,0.723145,-0.573242,0.214355,0
44820,0.705566,-0.63916,0.18457,0
44840,0.69873,-0.689941,0.195801,0
44860,0.687988,-0.720703,0.22998,0
44880,0.670898,-0.712402,0.22168,0
44900,0.649414,-0.696777,0.187988,0
44920,0.659668,-0.734863,0.189941,0
44940,0.650391,-0.764648,0.22998,0
44960,0.630859,-0.774414,0.218262,0
44980,0.579102,-0.76416,0.229492,0
45000,0.554688,-0.755859,0.268066,0
45020,0.556152,-0.771973,0.276855,0
45040,0.546387,-0.813477,0.237793,0
45060,0.550781,-0.820801,0.225586,0
45080,0.555664,-0.805176,0.221191,0
45100,0.510742,-0.809082,0.219238,0
45120,0.493164,-0.804688,0.188965,0
45140,0.509766,-0.779297,0.177246,0
45160,0.503906,-0.784668,0.194824,0
45180,0.459473,-0.804688,0.204102,0
45200,0.434082,-0.786133,0.18457,0
45220,0.443359,-0.78418,0.167969,0
45240,0.432129,-0.819824,0.144531,0
45260,0.416504,-0.813965,0.115234,0
45280,0.442871,-0.781738,0.149414,0
45300,0.420898,-0.809082,0.174805,0
45320,0.380371,-0.862793,0.0952148,0
45340,0.416992,-0.870117,0.0917969,0
45360,0.421875,-0.876953,0.166504,0
45380,0.334961,-0.945801,0.125,0
45400,0.337891,-0.939941,0.0351562,0
45420,0.38916,-0.852539,0.0688477,0
45440,0.351562,-0.823242,0.131836,0
45460,0.273438,-0.936523,0.0478516,0
45480,0.276855,-0.956543,-0.00732422,0
45500,0.280762,-0.874512,0.0356445,0
45520,0.287598,-0.850098,0.0444336,0
45540,0.311523,-0.913574,-0.0185547,0
45560,0.333496,-0.922363,-0.0258789,0
45580,0.361816,-0.85791,0.0146484,0
45600,0.361816,-0.862793,0.0302734,0
45620,0.349609,-0.890625,0.0078125,0
45640,0.417969,-0.881348,0.00585938,0
45660,0.438965,-0.874512,0.00732422,0
45680,0.412109,-0.879395,-0.0478516,0
45700,0.461914,-0.831543,-0.114258,0
45720,0.449219,-0.872559,-0.0961914,0
45740,0.378906,-0.981934,-0.0776367,0
45760,0.387695,-0.964844,-0.0908203,0
45780,0.430664,-0.885742,-0.144043,0
45800,0.416504,-0.891602,-0.166016,0
45820,0.429199,-0.849121,-0.166016,0
45840,0.440918,-0.812988,-0.161133,0
45860,0.436035,-0.819824,-0.144531,0
45880,0.442383,-0.82666,-0.144531,0
45900,0.458008,-0.799316,-0.14209,0
45920,0.50293,-0.780762,-0.153809,0
45940,0.565918,-0.753906,-0.182617,0
45960,0.598633,-0.753418,-0.21582,0
45980,0.595215,-0.807617,-0.223145,0
46000,0.594727,-0.789551,-0.182129,0
46020,0.616699,-0.782715,-0.168945,0
46040,0.67041,-0.733398,-0.200684,0
46060,0.705078,-0.69043,-0.237793,0
46080,0.695801,-0.679199,-0.219238,0
46100,0.730469,-0.65332,-0.203613,0
46120,0.758789,-0.680664,-0.205566,0
46140,0.740234,-0.653809,-0.168945,0
46160,0.78418,-0.545898,-0.169922,2001
46180,0.813477,-0.560059,-0.195312,0
46200,0.771973,-0.616699,-0.17627,0
46220,0.757324,-0.594238,-0.165527,0
46240,0.802246,-0.567383,-0.197266,0
46260,0.806641,-0.571777,-0.19873,0
46280,0.836426,-0.549805,-0.183105,0
46300,0.868652,-0.547363,-0.214355,0
46320,0.840332,-0.563477,-0.23291,0
46340,0.81543,-0.544922,-0.228516,0
46360,0.791016,-0.466309,-0.240234,0
46380,0.740234,-0.481934,-0.225098,0
46400,0.709473,-0.554199,-0.213867,0
46420,0.655273,-0.583008,-0.240234,0
46440,0.631348,-0.582031,-0.236328,0
46460,0.620605,-0.567871,-0.231934,0
46480,0.601074,-0.530273,-0.216309,0
46500,0.558594,-0.46582,-0.150879,0
46520,0.500488,-0.433594,-0.151367,0
46540,0.489746,-0.458008,-0.19043,0
46560,0.481934,-0.461426,-0.178711,0
46580,0.450684,-0.426758,-0.0961914,0
46600,0.407227,-0.447754,-0.0292969,0
46620,0.462891,-0.458496,0.000976562,0
46640,0.518066,-0.433594,-0.0449219,0
46660,0.529785,-0.465332,0.0102539,0
46680,0.637695,-0.59668,0.118164,0
46700,0.703125,-0.646484,0.186523,0
46720,0.693848,-0.702637,0.178711,0
46740,0.767578,-0.808105,0.211914,0
46760,0.801758,-0.925293,0.241699,0
46780,0.751465,-1.04492,0.250977,0
46800,0.716797,-1.10352,0.237305,0
46820,0.623535,-1.09619,0.275391,0
46840,0.515137,-1.07568,0.348633,0
46860,0.455078,-1.11523,0.341797,0
46880,0.425781,-1.17627,0.338379,0
46900,0.393555,-1.20996,0.34668,0
46900,0.354004,-1.20312,0.370605,0
46920,0.32666,-1.17969,0.384766,0
46940,0.345703,-1.04932,0.410645,0
46960,0.29834,-0.958984,0.32959,0
46980,0.173828,-0.908203,0.23584,0
47000,0.54834,-0.974609,0.335938,0
47020,-0.019043,-0.809082,0.289551,0
47040,0.155273,-1.06543,0.674805,0
47060,0.515137,-1.07031,0.69043,0
47080,0.656738,-1.01855,0.654785,0
47120,0.486816,-1.01025,0.718262,0
47140,-0.0327148,-1.01318,0.586914,0
47160,-0.280273,-0.803223,0.0722656,2000
47180,0.625977,-0.644043,0.0615234,0
47210,-0.298828,-0.747559,-0.00341797,0
47230,0.831055,-0.878418,0.629395,0
47250,-0.199219,-0.701172,-0.0615234,0
47270,0.208008,-1.0498,0.756836,0
47290,0.786621,-0.74707,0.388184,0
47310,0.0136719,-0.658203,-0.0869141,0
47330,-0.427734,-0.85791,0.113281,0
47350,-0.327148,-1.01221,0.418945,0
47370,-0.143555,-1.06689,0.617676,0
47390,-0.11377,-1.05371,0.626465,0
47400,-0.262695,-1.03857,0.499023,0
47420,-0.442383,-0.956055,0.189453,0
47440,-0.265625,-0.761719,-0.11377,0
47460,0.52002,-0.615234,0.111816,0
47480,0.737305,-0.854492,0.833496,0
47500,-0.388672,-1.01758,0.427734,0
47520,0.125977,-0.636719,-0.0668945,0
47540,0.481445,-0.999023,0.868164,0
47560,-0.202148,-0.850098,-0.112793,0
47580,0.788574,-0.973145,0.868164,0
47600,-0.0649414,-0.800293,-0.163574,0
47620,0.246582,-1.08984,0.731934,0
47640,0.875977,-0.654785,0.302734,0
47660,-0.208008,-0.883789,-0.168457,0
47680,0.0366211,-1.12988,0.584961,0
47700,0.850586,-0.876953,0.765625,0
47720,0.776367,-0.661133,0.233887,0
47740,0.0595703,-0.734375,-0.247559,0
47760,-0.345703,-0.999023,-0.110352,0
47780,0.0424805,-1.11279,0.488281,0
47800,0.736816,-0.925781,0.796875,0
47820,0.898438,-0.671875,0.501953,0
47840,0.428223,-0.624512,-0.0664062,0
47860,-0.129395,-0.831543,-0.279297,0
47870,-0.220215,-1.04004,0.0361328,0
47900,0.169434,-1.09473,0.540039,0
47920,0.708008,-0.910645,0.79248,0
47940,0.621582,-0.990234,0.563965,0
47960,0.342285,-0.833984,0.254395,0
48000,0.350098,-0.849121,0.237793,0
48020,0.370605,-0.838867,0.228027,0
48040,0.352051,-0.877441,0.358887,0
48060,-0.123535,-1.04395,0.21875,0
48080,0.411133,-0.604492,-0.17627,0
48100,-0.130859,-1.01855,0.0131836,0
48120,0.419434,-1.04834,0.598145,0
48140,0.983887,-0.81543,0.721191,0
48160,1.02148,-0.585449,0.398438,0
48180,0.561523,-0.568359,-0.133301,0
48200,0.0478516,-0.80127,-0.316406,0
48220,-0.00976562,-0.983398,0.0185547,0
48240,1.00635,-0.712891,0.27002,0
48260,0.463867,-0.749023,0.100098,0
48280,0.59375,-0.766602,0.198242,0
48300,0.589355,-0.757812,0.210449,0
48320,0.611816,-0.797852,0.207031,0
48340,0.655273,-0.779785,0.195312,0
48360,0.675293,-0.737305,0.179688,0
48380,0.699219,-0.734863,0.185059,0
48400,0.687988,-0.735352,0.192383,0
48420,0.694336,-0.717285,0.196289,0
48440,0.694824,-0.708496,0.208008,0
48460,0.687988,-0.726074,0.219238,0
48480,0.687012,-0.742676,0.224609,0
48500,0.681641,-0.736328,0.237305,0
48520,0.661133,-0.700684,0.258301,0
48540,0.640625,-0.681641,0.256348,0
48560,0.611816,-0.683594,0.266113,0
48580,0.631836,-0.677734,0.286621,0
48600,0.667969,-0.694336,0.292969,0
48620,0.647461,-0.700195,0.307617,0
48640,0.598633,-0.677246,0.314453,0
48660,0.603516,-0.654297,0.317871,0
48680,0.596191,-0.647949,0.335938,0
48700,0.596191,-0.669434,0.346191,0
48720,0.602539,-0.709473,0.373047,0
48740,0.578613,-0.729492,0.374023,0
48760,0.561035,-0.699707,0.373535,0
48780,0.571289,-0.661133,0.38623,0
48800,0.533203,-0.681152,0.386719,0
48820,0.505371,-0.711914,0.406738,0
48840,0.472656,-0.73877,0.407227,0
48860,0.44043,-0.739258,0.437012,0
48880,0.429688,-0.724121,0.462891,0
48900,0.437012,-0.728027,0.486328,0
48920,0.446777,-0.766113,0.474609,0
48940,0.425293,-0.785645,0.450195,0
48960,0.399414,-0.788574,0.456055,0
48980,0.370605,-0.762695,0.442871,0
49000,0.336426,-0.779785,0.442871,0
49020,0.304199,-0.808105,0.453125,0
49040,0.308594,-0.782715,0.504395,0
49060,0.317383,-0.754395,0.502441,0
49080,0.297363,-0.780273,0.44873,0
49100,0.255371,-0.785156,0.443848,0
49120,0.28418,-0.817871,0.438477,0
49140,0.290039,-0.883301,0.429199,0
49160,0.220703,-0.912598,0.416504,0
49180,0.197754,-0.85498,0.385254,0
49200,0.227051,-0.771484,0.381836,0
49220,0.195312,-0.757324,0.394043,0
49240,0.157715,-0.841309,0.350586,0
49260,0.190918,-0.867676,0.334961,0
49280,0.193848,-0.843262,0.357422,0
49300,0.0913086,-0.81543,0.364258,0
49320,0.0786133,-0.840332,0.322266,0
49330,0.188965,-0.877441,0.310059,0
49350,0.229004,-0.875977,0.349609,0
49370,0.156738,-0.836426,0.341309,0
49390,0.142578,-0.82959,0.371094,0
49410,0.176758,-0.84668,0.361816,0
49430,0.133789,-0.868652,0.331543,0
49450,0.121094,-0.880371,0.327637,0
49470,0.179688,-0.853027,0.334961,0
49490,0.165527,-0.839355,0.343262,0
49510,0.120605,-0.826172,0.306152,0
49530,0.159668,-0.831055,0.291504,0
49550,0.199219,-0.852539,0.301758,0
49570,0.174316,-0.877441,0.30127,0
49590,0.177246,-0.905762,0.272949,0
49610,0.215332,-0.903809,0.26123,0
49630,0.223633,-0.904297,0.258301,0
49650,0.190918,-0.91748,0.237305,0
49670,0.14502,-0.927246,0.208008,0
49690,0.131836,-0.932129,0.212402,0
49710,0.170898,-0.922363,0.214355,0
49730,0.154297,-0.904297,0.191895,0
49750,0.117676,-0.90332,0.176758,0
49770,0.155273,-0.914062,0.174316,0
49790,0.205078,-0.912598,0.168945,0
49810,0.170898,-0.941895,0.181641,0
49830,0.187988,-0.988281,0.165039,0
49850,0.254883,-0.959473,0.175293,0
49870,0.223145,-0.914551,0.148438,0
49890,0.237305,-0.914062,0.164551,0
49910,0.338379,-0.930664,0.15918,0
49930,0.36377,-0.938965,0.145996,0
49950,0.312988,-0.90625,0.106934,0
49970,0.312988,-0.890625,0.0986328,0
49990,0.40332,-0.90332,0.0869141,0
50010,0.410645,-0.911621,0.0712891,0
50030,0.365234,-0.899414,0.0458984,0
50050,0.399414,-0.907715,0.0283203,0
50070,0.46875,-0.877441,0.0253906,0
50090,0.438965,-0.855957,0.0400391,0
50110,0.402344,-0.864746,0.0161133,0
50130,0.384277,-0.857422,-0.00439453,0
50150,0.35791,-0.84082,-0.015625,0
50170,0.384277,-0.835938,-0.00878906,0
50190,0.444336,-0.831543,-0.0200195,0
50210,0.511719,-0.831543,0.00537109,0
50230,0.529297,-0.83252,0.0126953,0
50250,0.540527,-0.82373,0.0239258,0
50270,0.601074,-0.839355,0.0317383,0
50290,0.663574,-0.851074,0.0268555,0
50310,0.678711,-0.805664,0.0146484,0
50330,0.70166,-0.775391,0.0273438,0
50350,0.786133,-0.742676,0.00488281,0
50370,0.840332,-0.685059,0.0126953,0
50390,0.783691,-0.625,0.0151367,0
50410,0.711426,-0.621582,-0.00683594,0
50430,0.704102,-0.665039,0.00439453,0
50460,0.706543,-0.671875,0.065918,0
50480,0.726074,-0.637207,0.0507812,0
50500,0.722168,-0.586914,0.0673828,0
50520,0.740723,-0.598145,0.0737305,0
50540,0.782227,-0.615723,0.0605469,0
50560,0.813477,-0.592285,0.0712891,0
50580,0.844727,-0.577637,0.0688477,0
50600,0.875488,-0.596191,0.0620117,0
50620,0.897461,-0.595703,0.078125,0
50640,0.897461,-0.572754,0.0961914,0
50660,0.897461,-0.563965,0.097168,0
50680,0.904297,-0.570801,0.108398,0
50700,0.885742,-0.551758,0.13916,0
50720,0.885742,-0.533203,0.168945,0
50740,0.890625,-0.531738,0.183105,0
50760,0.854492,-0.538574,0.202148,0
50780,0.857422,-0.530762,0.231445,0
50800,0.867676,-0.527832,0.264648,0
50820,0.813965,-0.553223,0.313477,0
50840,0.766602,-0.592285,0.333008,0
50860,0.753906,-0.578613,0.353516,0
50880,0.720215,-0.577637,0.365234,0
50900,0.666016,-0.591797,0.391113,0
50920,0.658691,-0.591309,0.378906,0
50940,0.635742,-0.59375,0.378418,0
50960,0.591309,-0.637207,0.407715,0
50980,0.559082,-0.65625,0.388672,0
51010,0.445801,-0.73584,0.411621,0
51030,0.439941,-0.726074,0.398438,0
51050,0.489258,-0.663574,0.385254,0
51070,0.455078,-0.656738,0.42334,0
51090,0.364746,-0.727539,0.405762,0
51110,0.339844,-0.800293,0.378906,0
51130,0.363281,-0.791016,0.408691,0
51150,0.392578,-0.787109,0.40918,0
51170,0.369141,-0.775391,0.386719,0
51190,0.385742,-0.707031,0.396973,0
51210,0.425781,-0.67627,0.421875,0
51230,0.380371,-0.77002,0.400879,0
51250,0.30957,-0.831543,0.367188,0
51270,0.327148,-0.775391,0.349121,0
51290,0.310547,-0.759766,0.369141,0
51310,0.269531,-0.789062,0.348633,0
51330,0.318359,-0.753906,0.347168,0
51350,0.339844,-0.755859,0.32959,0
51370,0.309082,-0.834961,0.317383,0
51390,0.318848,-0.855469,0.31543,0
51410,0.34082,-0.831543,0.285645,0
51430,0.30957,-0.872559,0.255371,0
51450,0.273438,-0.895508,0.263672,0
51470,0.279297,-0.838379,0.254883,0
51490,0.23584,-0.88916,0.23584,0
51510,0.219238,-0.92334,0.236328,0
51530,0.211426,-0.909668,0.231934,0
51550,0.184082,-0.922852,0.225586,0
51570,0.198242,-0.911621,0.202637,0
51590,0.248047,-0.891602,0.19873,0
51610,0.23291,-0.898926,0.194336,0
51630,0.199707,-0.919434,0.165039,0
51650,0.213867,-0.883789,0.138184,0
51670,0.26416,-0.861328,0.135254,0
51690,0.275391,-0.893555,0.110352,0
51710,0.240723,-0.95166,0.0395508,0
51730,0.23584,-0.964355,0.0141602,0
51750,0.257324,-0.974121,0.0371094,0
51770,0.277832,-0.955078,0.0209961,0
51790,0.296387,-0.907715,-0.0517578,0
51810,0.320312,-0.905762,-0.0537109,0
51830,0.346191,-0.920898,-0.0302734,0
51850,0.340332,-0.907715,-0.0268555,0
51870,0.378906,-0.877441,-0.0561523,0
51890,0.44873,-0.887695,-0.0961914,0
51910,0.449219,-0.900391,-0.0776367,0
51930,0.393066,-0.877441,-0.0854492,0
51950,0.383301,-0.806152,-0.108887,0
51970,0.443848,-0.780273,-0.108398,0
51990,0.577148,-0.762695,-0.109863,0
52010,0.616211,-0.775879,-0.14209,0
52030,0.536621,-0.821777,-0.152832,0
52050,0.559082,-0.842285,-0.12793,0
52070,0.658691,-0.791504,-0.10791,0
52090,0.641113,-0.774414,-0.0981445,0
52110,0.609863,-0.766602,-0.15918,0
52130,0.678711,-0.705078,-0.178223,0
52150,0.676758,-0.658203,-0.17041,0
52170,0.627441,-0.719727,-0.180176,0
52190,0.671387,-0.771973,-0.184082,0
52210,0.731445,-0.725098,-0.166016,0
52230,0.689453,-0.680664,-0.129883,0
52250,0.683105,-0.683105,-0.163086,0
52270,0.741211,-0.696777,-0.208008,0
52290,0.730469,-0.660645,-0.194824,0
52310,0.723145,-0.602051,-0.157227,0
52330,0.784668,-0.584473,-0.167969,0
52350,0.793457,-0.594238,-0.178223,0
52370,0.767578,-0.595215,-0.161133,0
52390,0.796387,-0.603516,-0.143555,0
52410,0.853027,-0.591797,-0.14209,0
52430,0.841309,-0.551758,-0.136719,0
52450,0.82373,-0.539551,-0.128906,0
52470,0.858398,-0.539062,-0.11377,0
52490,0.862305,-0.526367,-0.0908203,0
52510,0.848145,-0.549805,-0.074707,0
52530,0.909668,-0.554688,-0.0483398,0
52550,0.912598,-0.47998,-0.0327148,0
52570,0.84668,-0.45459,0.0117188,0
52590,0.838379,-0.458008,0.0283203,0
52610,0.871094,-0.474609,0.0327148,0
52620,0.864258,-0.490723,0.0405273,0
52640,0.852539,-0.446777,0.0585938,0
52660,0.871094,-0.419922,0.0693359,0
52680,0.869629,-0.457031,0.09375,0
52700,0.86377,-0.494141,0.113281,0
52720,0.880371,-0.510742,0.116211,0
52740,0.892578,-0.532227,0.132812,0
52760,0.876465,-0.555664,0.151855,0
52780,0.882812,-0.54834,0.17041,0
52800,0.868164,-0.574219,0.176758,0
52820,0.834473,-0.620605,0.229492,0
52840,0.828613,-0.616211,0.236816,0
52860,0.79834,-0.597656,0.230957,0
52880,0.741699,-0.621094,0.242188,0
52900,0.725098,-0.65625,0.272949,0
52920,0.724121,-0.672363,0.320312,0
52940,0.682617,-0.686035,0.309082,0
52960,0.65332,-0.691406,0.321289,0
52980,0.629883,-0.74707,0.314453,0
53000,0.624512,-0.775879,0.325684,0
53020,0.64209,-0.754883,0.305664,0
53040,0.617188,-0.730957,0.246094,0
53060,0.582031,-0.758301,0.248047,0
53080,0.539551,-0.762207,0.265625,0
53100,0.492676,-0.806152,0.271973,0
53120,0.452637,-0.851074,0.272949,0
53140,0.425293,-0.869141,0.242188,0
53160,0.397461,-0.845215,0.222168,0
53180,0.368652,-0.778809,0.219238,0
53200,0.328125,-0.754883,0.217285,0
53220,0.30957,-0.76416,0.195801,0
53240,0.320312,-0.773438,0.166504,0
53260,0.3125,-0.845703,0.168945,0
53280,0.261719,-0.90625,0.177734,0
53300,0.290527,-0.824707,0.169434,0
53320,0.342285,-0.760742,0.146484,0
53340,0.303711,-0.882324,0.0952148,0
53360,0.28125,-0.931152,0.0883789,0
53380,0.313477,-0.887695,0.0688477,0
53400,0.302246,-0.890625,0.0449219,0
53420,0.295898,-0.877441,0.0175781,0
53440,0.285156,-0.849121,-0.0126953,0
53460,0.228516,-0.857422,-0.0253906,0
53480,0.24707,-0.912109,-0.0419922,0
53500,0.284668,-0.943848,-0.09375,0
53520,0.296387,-0.85498,-0.0537109,0
53540,0.315918,-0.758789,-0.121582,0
53560,0.316895,-0.819336,-0.137695,0
53580,0.282715,-0.916016,-0.122559,0
53600,0.289062,-0.974609,-0.0893555,0
53620,0.390137,-0.987793,-0.143066,0
53640,0.419922,-0.950195,-0.165527,0
53660,0.384766,-0.878418,-0.186523,0
53680,0.414551,-0.826172,-0.20166,0
53700,0.499023,-0.793945,-0.202148,0
53720,0.539062,-0.859375,-0.227539,0
53740,0.527344,-0.901367,-0.220703,0
53760,0.505859,-0.828613,-0.227051,0
53780,0.549805,-0.761719,-0.239746,0
53800,0.664062,-0.744141,-0.306152,0
53820,0.679199,-0.743164,-0.297852,0
53840,0.607422,-0.729492,-0.286621,0
53860,0.605957,-0.710449,-0.306152,0
53880,0.658203,-0.691895,-0.30957,0
53900,0.695312,-0.669434,-0.333984,0
53920,0.737793,-0.657715,-0.364746,0
53940,0.742188,-0.611816,-0.336914,0
53960,0.735352,-0.608398,-0.338867,0
53980,0.741211,-0.679688,-0.315918,0
54000,0.783691,-0.709961,-0.294434,2001
54020,0.837402,-0.641113,-0.3125,0
54040,0.847168,-0.600098,-0.308594,0
54060,0.824219,-0.618164,-0.273926,0
54080,0.817871,-0.665527,-0.25293,0
54100,0.814941,-0.675781,-0.24707,0
54120,0.788086,-0.638184,-0.244629,0
54140,0.750488,-0.586426,-0.238281,0
54160,0.741211,-0.586426,-0.237305,0
54180,0.756836,-0.613281,-0.243164,0
54200,0.747559,-0.663574,-0.216309,0
54220,0.711426,-0.668457,-0.189453,0
54240,0.676758,-0.657227,-0.19043,0
54260,0.631836,-0.626953,-0.210938,0
54280,0.604492,-0.625488,-0.195801,0
54300,0.601562,-0.638184,-0.208984,0
54320,0.582031,-0.667969,-0.199707,0
54340,0.551758,-0.660645,-0.194824,0
54360,0.574219,-0.634277,-0.240723,0
54380,0.576172,-0.613281,-0.238281,0
54400,0.538086,-0.580078,-0.222168,0
54420,0.506348,-0.609863,-0.187988,0
54440,0.512695,-0.612305,-0.210938,0
54460,0.522949,-0.588867,-0.20752,0
54480,0.491699,-0.546387,-0.160645,0
54500,0.483398,-0.540527,-0.162109,0
54520,0.509277,-0.503906,-0.173828,0
54540,0.491211,-0.462402,-0.134766,0
54560,0.473633,-0.498047,-0.106445,0
54570,0.541016,-0.586426,-0.0961914,0
54590,0.628906,-0.643066,-0.0844727,0
54610,0.60791,-0.648438,-0.0498047,0
54630,0.648438,-0.708496,0.0151367,0
54650,0.782227,-0.725586,0.0649414,0
54670,0.755859,-0.67627,0.0898438,0
54690,0.654297,-0.692871,0.132812,0
54710,0.647949,-0.820801,0.161133,0
54730,0.620117,-0.949707,0.187988,0
54750,0.55957,-1.0166,0.205566,0
54770,0.537598,-1.07227,0.205566,0
54790,0.492676,-1.10986,0.23584,0
54810,0.45166,-1.08203,0.259766,0
54830,0.439941,-1.0708,0.26416,0
54850,0.40332,-1.13525,0.29834,0
54870,0.366211,-1.18506,0.293457,0
54890,0.361328,-1.13721,0.319336,0
54910,0.315918,-1.11914,0.316895,0
54930,0.288086,-1.10791,0.300781,0
54950,0.268066,-1.07812,0.279297,0
54970,0.249512,-1.04736,0.310547,0
54990,0.257324,-0.986816,0.330566,0
55010,0.268555,-0.960938,0.326172,0
55030,0.245605,-0.939453,0.325684,0
55050,0.238281,-0.938477,0.338379,0
55070,0.223633,-0.941406,0.342285,0
55090,0.206055,-0.929688,0.348145,0
55110,0.195312,-0.896973,0.32373,0
55130,0.199219,-0.864746,0.313965,0
55150,0.193359,-0.848145,0.324219,0
55170,0.174805,-0.827148,0.316406,0
55190,0.158203,-0.816406,0.335938,0
55210,0.174316,-0.82959,0.320801,0
55230,0.178711,-0.861816,0.311035,0
55250,0.189941,-0.895996,0.332031,0
55270,0.221191,-0.866699,0.336426,0
55290,0.218262,-0.868652,0.32666,0
55310,0.221191,-0.880859,0.301758,0
55330,0.236328,-0.875977,0.283691,0
55350,0.228027,-0.863281,0.281738,0
55370,0.223145,-0.884766,0.271973,0
55390,0.215332,-0.887695,0.300781,0
55410,0.209473,-0.884277,0.303711,0
55430,0.205078,-0.890137,0.308105,0
55450,0.209473,-0.893555,0.304688,0
55470,0.17334,-0.897461,0.305176,0
55490,0.157227,-0.867188,0.32373,0
55510,0.169434,-0.853027,0.339355,0
55530,0.179199,-0.888184,0.318848,0
55550,0.162598,-0.884277,0.298828,0
55570,0.162598,-0.887207,0.318848,0
55590,0.198242,-0.884766,0.335449,0
55610,0.189453,-0.899902,0.319824,0
55630,0.163086,-0.902344,0.325684,0
55650,0.198242,-0.913574,0.342773,0
55670,0.220703,-0.925781,0.328125,0
55680,0.194824,-0.936035,0.326172,0
55710,0.201172,-0.866211,0.318359,0
55730,0.171875,-0.842773,0.317871,0
55750,0.157227,-0.865234,0.314941,0
55770,0.15918,-0.907227,0.324219,0
55790,0.155273,-0.898926,0.333984,0
55810,0.150879,-0.882812,0.334961,0
55830,0.144043,-0.885742,0.33252,0
55850,0.159668,-0.867676,0.318848,0
55870,0.141113,-0.867676,0.32666,0
55890,0.13916,-0.891113,0.350098,0
55910,0.166016,-0.891602,0.352051,0
55930,0.180664,-0.89502,0.327637,0
55950,0.160156,-0.913086,0.298828,0
55970,0.152344,-0.910156,0.309082,0
55990,0.168457,-0.896973,0.308594,0
56010,0.185059,-0.907715,0.31543,0
56030,0.230957,-0.900391,0.319336,0
56050,0.27002,-0.905762,0.327148,0
56070,0.254395,-0.924805,0.311035,0
56090,0.25293,-0.918945,0.297363,0
56110,0.290039,-0.895508,0.300781,0
56130,0.310547,-0.87207,0.299316,0
56150,0.278809,-0.892578,0.282227,0
56170,0.260254,-0.914062,0.275879,0
56190,0.266113,-0.890137,0.288574,0
56210,0.289062,-0.878906,0.285645,0
56230,0.280762,-0.891113,0.250977,0
56250,0.269531,-0.892578,0.240723,0
56270,0.290039,-0.844727,0.249512,0
56290,0.299316,-0.835938,0.249512,0
56310,0.312012,-0.86377,0.248535,0
56330,0.323242,-0.879883,0.248535,0
56350,0.346191,-0.854004,0.244629,0
56370,0.391602,-0.842773,0.22998,0
56390,0.418457,-0.879395,0.216797,0
56410,0.455078,-0.878906,0.189453,0
56430,0.561523,-0.839355,0.17627,0
56450,0.620605,-0.819336,0.155762,0
56470,0.609375,-0.807617,0.114258,0
56490,0.61084,-0.791504,0.0800781,0
56510,0.640137,-0.794434,0.0678711,0
56530,0.614746,-0.786133,0.0483398,0
56550,0.581543,-0.773438,0.0654297,0
56570,0.588867,-0.784668,0.0776367,0
56590,0.567871,-0.802734,0.101562,0
56610,0.530762,-0.794922,0.100586,0
56630,0.515137,-0.794434,0.123047,0
56650,0.526367,-0.777832,0.135742,0
56670,0.490723,-0.788574,0.177246,0
56690,0.439941,-0.820312,0.214844,0
56710,0.428223,-0.856934,0.241211,0
56730,0.39502,-0.878418,0.258789,0
56750,0.333008,-0.911133,0.273438,0
56770,0.306152,-0.901367,0.308594,0
56790,0.306641,-0.855469,0.336426,0
56810,0.275879,-0.839844,0.339355,0
56830,0.249023,-0.874023,0.358398,0
56850,0.233398,-0.900391,0.358398,0
56870,0.243652,-0.88916,0.361328,0
56890,0.250488,-0.865234,0.367188,0
56910,0.225586,-0.87207,0.361328,0
56930,0.195801,-0.896484,0.344238,0
56950,0.215332,-0.919434,0.34375,0
56970,0.217285,-0.890137,0.321289,0
56990,0.183594,-0.866211,0.346191,0
57010,0.190918,-0.866211,0.361328,0
57030,0.197266,-0.877441,0.350586,0
57050,0.191895,-0.880371,0.34668,0
57070,0.182129,-0.866699,0.348633,0
57090,0.173828,-0.851562,0.374023,0
57110,0.202637,-0.863281,0.356934,0
57130,0.200684,-0.879883,0.347656,0
57150,0.203613,-0.876465,0.354492,0
57170,0.208008,-0.879395,0.354492,0
57190,0.196289,-0.873047,0.345215,0
57210,0.206543,-0.862305,0.339355,0
57230,0.228027,-0.867188,0.320312,0
57250,0.191895,-0.870117,0.323242,0
57270,0.162109,-0.872559,0.339355,2000
57290,0.195801,-0.861816,0.344727,0
57310,0.185059,-0.868164,0.344727,0
57330,0.169922,-0.884766,0.365234,0
57350,0.208496,-0.881836,0.353516,0
57370,0.228027,-0.890137,0.340332,0
57390,0.220703,-0.894531,0.341797,0
57410,0.225098,-0.866211,0.344727,0
57430,0.227051,-0.844238,0.342285,0
57450,0.214844,-0.872559,0.337891,0
57470,0.227051,-0.899902,0.338379,0
57490,0.220703,-0.898926,0.34668,0
57510,0.187012,-0.898926,0.334473,0
57530,0.187012,-0.885254,0.315918,0
57550,0.19043,-0.838867,0.325684,0
57570,0.146973,-0.833984,0.329102,0
57590,0.132812,-0.86377,0.337891,0
57610,0.157227,-0.884277,0.344238,0
57630,0.15918,-0.89209,0.36377,0
57650,0.160645,-0.893555,0.364746,0
57670,0.187988,-0.869141,0.362305,0
57690,0.178223,-0.869629,0.349121,0
57710,0.188477,-0.871094,0.345215,0
57730,0.191895,-0.878418,0.368652,0
57750,0.203613,-0.895996,0.35498,0
57770,0.202148,-0.906738,0.33252,0
57790,0.219727,-0.898438,0.331543,0
57810,0.239746,-0.888672,0.326172,0
57830,0.23877,-0.897949,0.328613,0
57850,0.273438,-0.896484,0.319336,0
57870,0.315918,-0.887207,0.30957,0
57890,0.297852,-0.873047,0.291016,0
57910,0.28418,-0.861328,0.29541,0
57920,0.348633,-0.854492,0.305664,0
57940,0.364746,-0.87793,0.299316,0
57960,0.313965,-0.88916,0.269531,0
57980,0.297363,-0.867676,0.260742,0
58000,0.296875,-0.849121,0.274902,0
58020,0.280762,-0.85498,0.271484,0
58040,0.256348,-0.871582,0.277832,0
58060,0.254883,-0.894043,0.279297,0
58080,0.274414,-0.900391,0.273438,0
58100,0.26123,-0.877441,0.272949,0
58120,0.251465,-0.86084,0.254395,0
58140,0.26416,-0.864258,0.263184,0
58160,0.286621,-0.877441,0.265625,0
58180,0.282227,-0.888184,0.268555,0
58200,0.275879,-0.865234,0.256348,0
58220,0.284668,-0.854492,0.241699,0
58240,0.335938,-0.874023,0.249023,0
58260,0.346191,-0.891113,0.240234,0
58280,0.341309,-0.852051,0.228027,0
58300,0.368652,-0.83252,0.243164,0
58320,0.40625,-0.840332,0.237305,0
58340,0.400391,-0.832031,0.211914,0
58360,0.390137,-0.820801,0.204102,0
58380,0.418945,-0.811523,0.212402,0
58400,0.439941,-0.825195,0.20752,0
58420,0.43457,-0.844727,0.200195,0
58440,0.460938,-0.830566,0.19043,0
58460,0.476074,-0.82373,0.189941,0
58480,0.45459,-0.858398,0.16748,0
58500,0.4375,-0.856934,0.168457,0
58520,0.456055,-0.848145,0.169434,0
58540,0.464844,-0.848633,0.178223,0
58560,0.426758,-0.853027,0.181152,0
58580,0.442383,-0.861816,0.169922,0
58610,0.45166,-0.839844,0.1875,0
58630,0.45166,-0.847168,0.188965,0
58650,0.472656,-0.827637,0.188965,0
58670,0.478027,-0.796387,0.196289,0
58690,0.493164,-0.817871,0.208008,0
58720,0.51709,-0.793945,0.195801,0
58740,0.53125,-0.762695,0.199707,0
58760,0.538086,-0.763672,0.199707,0
58780,0.54541,-0.765137,0.184082,0
58800,0.591797,-0.755371,0.174805,0
58820,0.644043,-0.728027,0.169922,0
58840,0.620605,-0.742188,0.189941,0
58860,0.603516,-0.740234,0.169434,0
58880,0.604004,-0.707031,0.189453,0
58900,0.593262,-0.737305,0.217773,0
58920,0.577637,-0.801758,0.237305,0
58940,0.599609,-0.782715,0.245117,0
58960,0.593262,-0.737305,0.253418,0
58980,0.573242,-0.742676,0.254395,0
59000,0.570801,-0.741211,0.26416,0
59020,0.555664,-0.762207,0.285156,0
59040,0.585938,-0.773438,0.290039,0
59060,0.619629,-0.746582,0.291016,0
59080,0.622559,-0.730469,0.291504,0
59100,0.611328,-0.728027,0.283691,0
59120,0.619629,-0.724121,0.272461,0
59140,0.619141,-0.713379,0.28418,0
59160,0.599609,-0.706055,0.30127,0
59180,0.590332,-0.709473,0.303223,0
59200,0.591309,-0.696777,0.297363,0
59220,0.577148,-0.696777,0.30127,0
59240,0.572266,-0.733398,0.312012,0
59260,0.55127,-0.726562,0.329102,0
59280,0.554688,-0.656738,0.361816,0
59300,0.625,-0.606934,0.387695,0
59320,0.632324,-0.626953,0.372559,0
59340,0.539062,-0.688965,0.338867,0
59360,0.503906,-0.681641,0.323242,0
59380,0.524902,-0.644531,0.36084,0
59400,0.538086,-0.69873,0.367188,0
59420,0.493164,-0.743652,0.393066,0
59440,0.467285,-0.760254,0.382812,0
59460,0.487793,-0.774414,0.370605,0
59480,0.498535,-0.806152,0.383301,0
59500,0.486816,-0.740723,0.378418,0
59520,0.499512,-0.692871,0.370605,0
59540,0.486328,-0.702637,0.361816,0
59560,0.44873,-0.732422,0.383301,0
59580,0.453613,-0.748535,0.388184,0
59600,0.459961,-0.725586,0.413086,0
59620,0.4375,-0.690918,0.457031,0
59640,0.397949,-0.691895,0.469238,0
59660,0.379883,-0.697754,0.469727,0
59680,0.43457,-0.723145,0.452148,0
59700,0.475586,-0.728516,0.4375,0
59720,0.435547,-0.717285,0.428223,0
59740,0.445801,-0.69873,0.427246,0
59760,0.494141,-0.705078,0.388672,0
59780,0.466309,-0.726074,0.399902,0
59800,0.447266,-0.72998,0.383789,0
59820,0.468262,-0.708984,0.378418,0
59830,0.459473,-0.731934,0.404297,0
59850,0.430664,-0.768066,0.385254,0
59870,0.454102,-0.758301,0.390625,0
59890,0.446289,-0.74707,0.416992,0
59910,0.381348,-0.768555,0.427246,0
59930,0.36377,-0.770508,0.422363,0
59950,0.419434,-0.693359,0.397461,0
59970,0.430176,-0.684082,0.401855,0
59990,0.379883,-0.752441,0.406738,0
60010,0.343262,-0.804199,0.436523,0
60030,0.358887,-0.796387,0.481445,0
60050,0.380859,-0.763184,0.45752,0
60070,0.359863,-0.727539,0.433594,0
60090,0.375488,-0.703125,0.439453,0
60110,0.391113,-0.749512,0.477539,0
60130,0.391113,-0.794922,0.48584,0
60150,0.388672,-0.775879,0.456055,0
60170,0.419922,-0.756836,0.445312,0
60190,0.356934,-0.767578,0.476074,0
60210,0.317871,-0.762695,0.488281,0
60230,0.360352,-0.776855,0.477539,0
60250,0.387207,-0.750488,0.467773,0
60270,0.347656,-0.726074,0.46582,0
60290,0.345215,-0.723633,0.452148,0
60310,0.361328,-0.747559,0.463867,0
60330,0.335938,-0.774414,0.46582,0
60350,0.340332,-0.78125,0.463379,0
60370,0.351074,-0.762207,0.4375,0
60390,0.294922,-0.790527,0.429688,0
60410,0.284668,-0.791504,0.422363,0
60430,0.299316,-0.744141,0.424316,0
60450,0.237305,-0.760254,0.420898,0
60470,0.240723,-0.806152,0.415039,0
60490,0.29541,-0.793457,0.431152,0
60510,0.245605,-0.800293,0.433594,0
60530,0.238281,-0.799316,0.425293,0
60550,0.255371,-0.786621,0.407715,0
60570,0.209961,-0.802246,0.416016,0
60590,0.219238,-0.818359,0.401367,0
60610,0.276855,-0.782227,0.388672,0
60630,0.252441,-0.786133,0.381348,0
60650,0.211426,-0.827148,0.361816,0
60670,0.236328,-0.839355,0.356445,0
60690,0.249023,-0.833984,0.36084,0
60710,0.203613,-0.854004,0.345703,0
60730,0.197266,-0.841309,0.331055,0
60750,0.245117,-0.84082,0.313965,0
60770,0.227539,-0.840332,0.311035,0
60790,0.20459,-0.833984,0.311035,0
60810,0.239258,-0.833496,0.305664,0
60830,0.259277,-0.868164,0.316406,0
60850,0.268555,-0.897949,0.327148,0
60870,0.298828,-0.875488,0.308594,0
60890,0.33252,-0.867676,0.29541,0
60910,0.315918,-0.864258,0.274414,0
60930,0.327637,-0.831543,0.288086,0
60950,0.36084,-0.830566,0.281738,0
60970,0.353027,-0.847656,0.243164,0
60990,0.342773,-0.829102,0.22998,0
61010,0.39209,-0.849121,0.237305,0
61030,0.415039,-0.904785,0.208984,0
61050,0.365723,-0.923828,0.18457,0
61070,0.370605,-0.898438,0.181641,0
61090,0.407715,-0.868652,0.1875,0
61110,0.382324,-0.873535,0.178223,0
61130,0.386719,-0.867676,0.170898,0
61150,0.48291,-0.861816,0.166016,0
61170,0.493164,-0.855957,0.216309,0
61190,0.418945,-0.870117,0.18457,0
61210,0.419922,-0.87207,0.137207,0
61230,0.483398,-0.856934,0.13916,0
61250,0.464355,-0.847656,0.124512,0
61270,0.446289,-0.810059,0.125488,0
61290,0.534668,-0.794434,0.116699,0
61310,0.559082,-0.812988,0.111816,0
61330,0.519531,-0.82373,0.081543,0
61350,0.508789,-0.787109,0.0849609,0
61370,0.538086,-0.765137,0.0859375,0
61390,0.589355,-0.776367,0.0703125,0
61410,0.588867,-0.760742,0.0454102,0
61430,0.580078,-0.747559,0.0639648,0
61450,0.615234,-0.760742,0.0610352,0
61470,0.646973,-0.76416,0.0449219,0
61490,0.647461,-0.743164,0.0112305,0
61510,0.635254,-0.722656,0.00585938,0
61530,0.686523,-0.734863,-0.0102539,0
61550,0.691406,-0.778809,-0.019043,0
61570,0.670898,-0.770996,-0.00244141,0
61590,0.677246,-0.749023,-0.019043,0
61610,0.683105,-0.735352,-0.0200195,0
61630,0.691895,-0.683105,-0.0166016,0
61650,0.704102,-0.656738,0.00244141,0
61670,0.709961,-0.682129,0.00439453,0
61690,0.696289,-0.689941,0.000976562,0
61710,0.710449,-0.646973,0.0219727,0
61730,0.726074,-0.654785,0.00878906,0
61750,0.715332,-0.684082,0.0258789,0
61770,0.716797,-0.675293,0.0517578,0
61790,0.731934,-0.675781,0.050293,0
61810,0.742188,-0.683105,0.0366211,0
61830,0.73877,-0.634766,0.0263672,0
61850,0.736816,-0.608887,0.050293,0
61870,0.761719,-0.645996,0.0644531,0
61890,0.777832,-0.660156,0.0766602,0
61910,0.77832,-0.658203,0.081543,0
61930,0.789062,-0.654297,0.0996094,0
61950,0.805664,-0.617188,0.116211,0
61970,0.80127,-0.581543,0.107422,0
61990,0.774414,-0.618164,0.121094,0
62010,0.754883,-0.626953,0.152832,0
62030,0.751465,-0.621094,0.158691,0
62050,0.736328,-0.606445,0.172852,0
62070,0.724121,-0.624512,0.183594,0
62090,0.694824,-0.649902,0.210938,0
62110,0.690918,-0.677246,0.22168,0
62130,0.708984,-0.660156,0.210938,0
62150,0.712891,-0.637207,0.217773,0
62170,0.678223,-0.601074,0.205566,0
62190,0.623535,-0.644531,0.186035,0
62210,0.589355,-0.750488,0.222168,0
62230,0.595703,-0.814941,0.244629,0
62250,0.595703,-0.844238,0.266602,0
62270,0.550781,-0.875488,0.26416,0
62290,0.525879,-0.810059,0.223633,0
62310,0.518066,-0.716797,0.25,0
62330,0.512695,-0.704102,0.263672,0
62350,0.516113,-0.749512,0.266113,0
62370,0.47168,-0.804199,0.269043,0
62390,0.432617,-0.85498,0.299316,0
62410,0.454102,-0.858398,0.306152,0
62430,0.481445,-0.786621,0.305664,0
62450,0.482422,-0.71875,0.284668,0
62470,0.480469,-0.707031,0.276367,0
62490,0.449219,-0.731934,0.29248,0
62510,0.43457,-0.79834,0.314941,0
62530,0.441406,-0.835449,0.320312,0
62550,0.443359,-0.823242,0.294922,0
62570,0.456055,-0.783203,0.296875,0
62590,0.469727,-0.763184,0.293945,0
62610,0.424805,-0.772949,0.29834,0
62630,0.41748,-0.783691,0.272949,0
62650,0.453613,-0.781738,0.263184,0
62670,0.450684,-0.754883,0.28418,0
62690,0.398438,-0.738281,0.294434,0
62710,0.410156,-0.75,0.287598,0
62730,0.460938,-0.783691,0.286133,0
62750,0.438477,-0.840332,0.299805,0
62770,0.402344,-0.853516,0.306152,0
62790,0.418945,-0.837402,0.30957,0
62810,0.430176,-0.839355,0.300293,0
62830,0.383301,-0.828125,0.308594,0
62850,0.327148,-0.832031,0.290039,0
62870,0.311523,-0.818848,0.309082,0
62890,0.290527,-0.808105,0.34082,0
62910,0.202637,-0.839355,0.30957,0
62930,0.240234,-0.847656,0.278809,0
62950,0.342773,-0.773438,0.267578,0
62970,0.289551,-0.745605,0.321777,0
62990,0.225586,-0.835938,0.318359,0
63010,0.279297,-0.915527,0.297852,0
63030,0.306641,-0.887695,0.330078,0
63050,0.266602,-0.818848,0.346191,0
63070,0.245117,-0.819336,0.330078,0
63090,0.26709,-0.819824,0.307129,0
63110,0.318359,-0.808594,0.37207,0
63130,0.34082,-0.858398,0.355469,0
63150,0.327637,-0.893066,0.327148,0
63170,0.352539,-0.888184,0.310547,0
63190,0.358887,-0.876465,0.328125,0
63200,0.332031,-0.879395,0.312988,0
63220,0.34082,-0.878418,0.280273,0
63240,0.366211,-0.845703,0.27002,0
63260,0.345215,-0.86084,0.266602,0
63280,0.30957,-0.880371,0.255371,0
63300,0.310059,-0.896484,0.221191,0
63320,0.311035,-0.92041,0.207031,0
63340,0.323242,-0.889648,0.222656,0
63360,0.328613,-0.866211,0.20166,0
63380,0.307617,-0.849609,0.163574,0
63400,0.333008,-0.817871,0.170898,0
63420,0.385742,-0.799316,0.195801,0
63440,0.397461,-0.870117,0.161133,0
63460,0.402344,-0.898926,0.157715,0
63480,0.465332,-0.888184,0.177734,0
63500,0.46582,-0.897949,0.182129,0
63520,0.425781,-0.925293,0.173828,0
63540,0.467773,-0.870117,0.127441,0
63560,0.502441,-0.803711,0.103027,0
63580,0.45459,-0.812012,0.11084,0
63600,0.424316,-0.849121,0.118164,0
63620,0.467285,-0.879883,0.0947266,0
63640,0.476562,-0.885742,0.0766602,0
63660,0.437988,-0.87207,0.0673828,0
63680,0.457031,-0.820801,0.0576172,0
63700,0.502441,-0.818359,0.0380859,0
63720,0.466309,-0.819336,0.0517578,0
63740,0.461914,-0.791992,0.0239258,0
63760,0.489258,-0.789062,-0.00488281,0
63780,0.502441,-0.783203,0.000488281,0
63800,0.517578,-0.773926,0.0195312,0
63820,0.550781,-0.751953,0.0332031,0
63840,0.523438,-0.748047,0.0224609,0
63860,0.546875,-0.742676,-0.00195312,0
63880,0.622559,-0.779785,-0.0527344,0
63900,0.624512,-0.76123,-0.0507812,0
63920,0.595215,-0.756348,-0.0698242,0
63940,0.63623,-0.777832,-0.0776367,0
63960,0.70459,-0.778809,-0.0927734,0
63980,0.716797,-0.729492,-0.0961914,0
64000,0.70752,-0.708008,-0.148926,0
64020,0.711426,-0.709473,-0.144531,0
64040,0.736816,-0.705078,-0.109863,0
64060,0.756348,-0.678711,-0.111328,0
64080,0.754395,-0.688965,-0.106934,0
64100,0.750488,-0.685547,-0.102051,0
64120,0.760742,-0.65332,-0.112305,0
64140,0.790527,-0.634277,-0.104492,0
64160,0.782227,-0.62207,-0.116699,0
64180,0.775391,-0.585938,-0.11377,0
64200,0.794922,-0.547852,-0.108398,0
64220,0.801758,-0.553223,-0.104492,0
64240,0.807129,-0.557129,-0.0991211,0
64260,0.842773,-0.517578,-0.0595703,0
64280,0.869629,-0.506348,-0.0532227,0
64300,0.846191,-0.497559,-0.043457,0
64320,0.833984,-0.489746,-0.0356445,0
64340,0.859863,-0.488281,-0.0317383,0
64360,0.842773,-0.484375,0.0078125,0
64380,0.830566,-0.468262,0.0229492,0
64400,0.85791,-0.441895,0.0205078,0
64420,0.859863,-0.444824,0.034668,0
64440,0.842285,-0.45166,0.0644531,0
64460,0.866211,-0.472656,0.0854492,0
64480,0.887695,-0.505371,0.128906,0
64500,0.872559,-0.509277,0.149902,0
64520,0.874023,-0.493652,0.115723,0
64540,0.870605,-0.485352,0.103027,0
64560,0.855957,-0.506348,0.158691,0
64580,0.885742,-0.508789,0.18457,0
64600,0.867676,-0.552246,0.206543,0
64620,0.822754,-0.626953,0.228516,0
64640,0.816895,-0.619141,0.256836,0
64660,0.788574,-0.60498,0.266602,0
64680,0.73877,-0.577148,0.294922,0
64700,0.753418,-0.580566,0.305176,0
64720,0.771973,-0.568848,0.299316,0
64740,0.725586,-0.585449,0.305664,0
64760,0.737305,-0.637695,0.295898,0
64780,0.74707,-0.655273,0.34668,0
64800,0.660156,-0.671875,0.366699,0
64820,0.554688,-0.703125,0.349609,0
64840,0.577148,-0.726074,0.349121,0
64860,0.545898,-0.715332,0.353516,0
64880,0.507812,-0.731445,0.356445,0
64900,0.533203,-0.716797,0.308105,0
64920,0.499023,-0.743652,0.302734,0
64940,0.433105,-0.783203,0.33252,0
64960,0.428711,-0.764648,0.332031,0
64980,0.445801,-0.75,0.300293,0
65000,0.41748,-0.793945,0.288574,0
65020,0.397461,-0.828125,0.297852,0
65040,0.404297,-0.845215,0.305176,0
65060,0.344727,-0.860352,0.259277,0
65080,0.273926,-0.789062,0.243652,0
65100,0.354004,-0.720703,0.269043,0
65120,0.36084,-0.81543,0.228027,0
65140,0.295898,-0.876953,0.237793,0
65150,0.318848,-0.813477,0.271973,0
65170,0.350098,-0.820312,0.260254,0
65190,0.366699,-0.869141,0.17627,0
65210,0.40625,-0.836426,0.245605,0
65230,0.470703,-0.789551,0.326172,0
65250,0.484863,-0.924316,0.267578,0
65270,0.431152,-0.98584,0.22168,0
65290,0.414062,-0.811523,0.265137,0
65310,0.355469,-0.842285,0.180176,0
65330,0.333984,-0.964355,0.0820312,0
65350,0.348633,-0.849609,0.0825195,0
65370,0.334961,-0.796387,0.0371094,0
65390,0.316406,-0.884277,-0.0639648,0
65410,0.271484,-0.901367,-0.0493164,0
65430,0.264648,-0.810547,-0.00732422,0
65450,0.237793,-0.898438,-0.0839844,0
65470,0.175781,-0.967285,-0.137207,0
65490,0.176758,-0.861328,-0.132324,0
65510,0.275879,-0.793945,-0.140137,0
65530,0.323242,-0.959961,-0.0834961,0
65550,0.293945,-0.880859,-0.0239258,0
65570,0.324219,-0.79541,-0.0327148,0
65590,0.383301,-0.929688,-0.0703125,0
65610,0.398438,-1.01367,-0.0800781,0
65630,0.437988,-0.850098,-0.0493164,0
65650,0.552734,-0.740723,-0.0615234,0
65670,0.595703,-0.773438,-0.140625,0
65690,0.556641,-0.813965,-0.118164,0
65710,0.594727,-0.810059,-0.0273438,0
65730,0.727051,-0.844727,-0.0576172,0
65750,0.717285,-0.864746,-0.214844,0
65770,0.625,-0.779297,-0.172852,0
65790,0.63916,-0.63623,-0.0922852,0
65810,0.779785,-0.620117,-0.0908203,0
65830,0.800781,-0.682129,-0.161133,0
65850,0.712891,-0.652344,-0.201172,0
65870,0.730957,-0.622559,-0.200684,0
65890,0.760254,-0.644531,-0.181641,0
65910,0.760742,-0.592773,-0.185059,0
65930,0.793457,-0.53125,-0.209473,2001
65950,0.794434,-0.56543,-0.209961,0
65970,0.742188,-0.661621,-0.190918,0
65990,0.772461,-0.629883,-0.105469,0
66010,0.818848,-0.538086,-0.117676,0
66030,0.790527,-0.589355,-0.168945,0
66050,0.788086,-0.597168,-0.191406,0
66070,0.749023,-0.537598,-0.182617,0
66090,0.702148,-0.557617,-0.174316,0
66110,0.672852,-0.603516,-0.179199,0
66130,0.61377,-0.536133,-0.174316,0
66150,0.540527,-0.503906,-0.206543,0
66170,0.486816,-0.530273,-0.218262,0
66190,0.481445,-0.536621,-0.20752,0
66210,0.501465,-0.527832,-0.206055,0
66230,0.455078,-0.480957,-0.188965,0
66250,0.407227,-0.402832,-0.182129,0
66270,0.435059,-0.38623,-0.179688,0
66290,0.478027,-0.425781,-0.128906,0
66320,0.570312,-0.567871,0.00585938,0
