Timestamp, Acceleration x, Acceleration y, Acceleration z, Marker
30,-0.179199,-0.555176,0.741211,0
50,-0.166504,-0.557617,0.734863,0
70,-0.17334,-0.551758,0.689941,0
90,-0.152832,-0.602051,0.724121,0
110,-0.165039,-0.596191,0.732422,0
130,-0.1875,-0.577637,0.767578,0
150,-0.203125,-0.580078,0.736816,0
170,-0.225098,-0.569336,0.723633,0
180,-0.212891,-0.5625,0.729004,0
180,-0.21875,-0.555176,0.748535,0
220,-0.217285,-0.59082,0.765625,0
240,-0.206543,-0.625488,0.727539,0
260,-0.215332,-0.611816,0.732422,0
280,-0.217285,-0.573242,0.725586,0
300,-0.230957,-0.538086,0.741211,0
320,-0.211426,-0.574219,0.71582,0
340,-0.207031,-0.577637,0.724121,0
360,-0.197754,-0.575195,0.699707,0
380,-0.206543,-0.555664,0.714844,0
400,-0.196777,-0.536621,0.726074,0
420,-0.189453,-0.53125,0.711426,0
440,-0.220703,-0.568359,0.708496,0
460,-0.220703,-0.60498,0.722168,0
480,-0.247559,-0.633301,0.73584,0
500,-0.23877,-0.599609,0.731934,0
520,-0.243164,-0.580078,0.720703,0
540,-0.240723,-0.58252,0.73584,0
560,-0.256836,-0.56543,0.713379,0
580,-0.250488,-0.577637,0.722656,0
600,-0.236816,-0.57373,0.696777,0
620,-0.221191,-0.577637,0.697266,0
640,-0.22168,-0.571289,0.689453,0
660,-0.23877,-0.583008,0.706543,0
680,-0.236816,-0.57959,0.72168,0
700,-0.237305,-0.562988,0.740723,0
720,-0.221191,-0.562012,0.741699,0
740,-0.219727,-0.568359,0.721191,0
760,-0.226074,-0.583008,0.722168,0
780,-0.257812,-0.580566,0.708008,0
800,-0.248535,-0.575684,0.722168,0
820,-0.23584,-0.592285,0.708496,0
840,-0.207031,-0.587891,0.676758,0
860,-0.162598,-0.634277,0.69043,0
880,-0.121582,-0.670898,0.679688,0
900,-0.0991211,-0.638672,0.728027,0
920,-0.15332,-0.640625,0.759277,0
940,-0.17627,-0.645996,0.746094,0
960,-0.193848,-0.661133,0.714844,0
980,-0.205078,-0.640137,0.727539,0
1000,-0.21875,-0.629883,0.724121,0
1020,-0.215332,-0.628906,0.713379,0
1040,-0.207031,-0.612793,0.680176,0
1060,-0.171875,-0.615723,0.665527,0
1080,-0.188965,-0.626465,0.66748,0
1100,-0.19043,-0.616699,0.680176,0
1120,-0.199219,-0.618164,0.675293,0
1140,-0.237305,-0.618164,0.666504,0
1160,-0.236328,-0.618652,0.686523,0
1180,-0.249023,-0.624512,0.69043,0
1200,-0.233887,-0.618164,0.677734,0
1220,-0.203613,-0.63623,0.661621,0
1240,-0.152344,-0.64209,0.634766,0
1260,-0.11084,-0.652344,0.602539,0
1280,-0.0932617,-0.658691,0.583008,0
1300,-0.09375,-0.63916,0.654297,0
1320,-0.118164,-0.634766,0.709473,0
1340,-0.15918,-0.588867,0.743652,0
1360,-0.235352,-0.555176,0.766113,0
1380,-0.301758,-0.536621,0.745117,0
1400,-0.307129,-0.522949,0.816895,0
1420,-0.29834,-0.520508,0.821289,0
1440,-0.273438,-0.52002,0.788574,0
1460,-0.255371,-0.526367,0.78125,0
1480,-0.266113,-0.535156,0.770508,0
1500,-0.265625,-0.516602,0.788574,0
1520,-0.266602,-0.510254,0.805664,0
1540,-0.275391,-0.505371,0.80127,0
1560,-0.260742,-0.519531,0.783203,0
1580,-0.281738,-0.524414,0.762207,0
1600,-0.304199,-0.547363,0.797363,0
1620,-0.312012,-0.538086,0.812988,0
1640,-0.277832,-0.521484,0.820312,0
1660,-0.238281,-0.525879,0.814941,0
1680,-0.222168,-0.524414,0.804688,0
1700,-0.227539,-0.510254,0.801758,0
1720,-0.250488,-0.483398,0.805176,0
1740,-0.255859,-0.460449,0.806641,0
1760,-0.283203,-0.439941,0.830078,0
1780,-0.295898,-0.418457,0.830078,0
1800,-0.293945,-0.399414,0.811035,0
1820,-0.292969,-0.379395,0.814453,0
1840,-0.287109,-0.355469,0.784668,0
1860,-0.294922,-0.367676,0.753418,0
1880,-0.306152,-0.353516,0.746582,0
1900,-0.326172,-0.339355,0.755859,0
1920,-0.346191,-0.324219,0.750488,0
1940,-0.356445,-0.326172,0.726562,0
1960,-0.37793,-0.327148,0.713867,0
1980,-0.385254,-0.321777,0.679688,0
2000,-0.404297,-0.319336,0.67334,0
2020,-0.390137,-0.313965,0.675293,0
2040,-0.400879,-0.322266,0.688477,0
2060,-0.415527,-0.335449,0.73584,0
2080,-0.436035,-0.345703,0.764648,0
2100,-0.455078,-0.355469,0.802246,0
2120,-0.47998,-0.340332,0.827637,0
2140,-0.498535,-0.335938,0.829102,0
2160,-0.504883,-0.32959,0.830078,0
2180,-0.492188,-0.329102,0.816895,0
2200,-0.477539,-0.326172,0.815918,0
2220,-0.474609,-0.321289,0.806152,0
2240,-0.428711,-0.334961,0.79248,0
2260,-0.418945,-0.341797,0.8125,0
2280,-0.400879,-0.340332,0.815918,0
2310,-0.35791,-0.394531,0.832031,0
2330,-0.34668,-0.410156,0.812988,0
2350,-0.34082,-0.455566,0.792969,0
2370,-0.334961,-0.462402,0.788574,0
2390,-0.325684,-0.493164,0.769531,0
2400,-0.310547,-0.506348,0.752441,0
2420,-0.309082,-0.518555,0.730469,0
2440,-0.303711,-0.523926,0.725098,0
2460,-0.283691,-0.523438,0.708008,0
2480,-0.276855,-0.528809,0.694336,0
2500,-0.276855,-0.520996,0.703613,0
2520,-0.282715,-0.512207,0.710449,0
2540,-0.287598,-0.501465,0.738281,0
2560,-0.301758,-0.484375,0.788086,0
2580,-0.318359,-0.495605,0.770508,0
2600,-0.335449,-0.474121,0.764648,0
2620,-0.367676,-0.460938,0.794434,0
2640,-0.376465,-0.474609,0.799805,0
2660,-0.38916,-0.486816,0.796875,0
2680,-0.401367,-0.48291,0.769531,0
2700,-0.415527,-0.495117,0.758789,0
2730,-0.419922,-0.529297,0.77002,0
2750,-0.374023,-0.547852,0.71875,0
2770,-0.397949,-0.556152,0.737305,0
2790,-0.378906,-0.581543,0.72168,0
2810,-0.373047,-0.591309,0.705078,0
2830,-0.353027,-0.573242,0.704102,0
2850,-0.331055,-0.574219,0.689453,0
2870,-0.338867,-0.58252,0.691406,0
2890,-0.34668,-0.578125,0.693848,0
2910,-0.359863,-0.583008,0.697266,0
2930,-0.364258,-0.556152,0.69873,0
2950,-0.374512,-0.549316,0.685547,0
2970,-0.382812,-0.547363,0.676758,0
2990,-0.395996,-0.554688,0.661133,0
3010,-0.410645,-0.563477,0.635742,0
3030,-0.460449,-0.59375,0.606445,0
3050,-0.474121,-0.604004,0.60498,0
3070,-0.481445,-0.584473,0.622559,0
3090,-0.462891,-0.567383,0.624023,0
3110,-0.456543,-0.545898,0.623535,0
3130,-0.452637,-0.550781,0.642578,0
3150,-0.433105,-0.560059,0.653809,0
3170,-0.430664,-0.528809,0.615234,0
3190,-0.414551,-0.519531,0.604492,0
3210,-0.41748,-0.514648,0.601562,0
3230,-0.437012,-0.509277,0.613281,0
3250,-0.436035,-0.521973,0.624512,0
3270,-0.448242,-0.527344,0.630371,0
3290,-0.452148,-0.555664,0.626465,0
3310,-0.462891,-0.567871,0.622559,0
3330,-0.463867,-0.586914,0.618164,0
3350,-0.460449,-0.623535,0.603027,0
3370,-0.473145,-0.645508,0.590332,0
3390,-0.483398,-0.655762,0.57666,0
3410,-0.485352,-0.67041,0.581055,0
3430,-0.477539,-0.661621,0.585938,0
3450,-0.475586,-0.664062,0.606445,0
3470,-0.46875,-0.647461,0.623535,0
3490,-0.472168,-0.616699,0.626465,0
3510,-0.467285,-0.586426,0.616699,0
3530,-0.47168,-0.561035,0.614258,0
3550,-0.466797,-0.538574,0.60791,0
3570,-0.455078,-0.522461,0.601074,0
3590,-0.445801,-0.523438,0.596191,0
3610,-0.447754,-0.533691,0.602539,0
3630,-0.448242,-0.530762,0.625488,0
3650,-0.451172,-0.541504,0.632324,0
3670,-0.461914,-0.54248,0.640625,0
3690,-0.46875,-0.561035,0.641113,0
3710,-0.46875,-0.554688,0.629395,0
3730,-0.477051,-0.557617,0.629883,0
3750,-0.450684,-0.566895,0.654785,0
3770,-0.512695,-0.537598,0.642578,0
3790,-0.540527,-0.516113,0.634766,0
3810,-0.527832,-0.533691,0.64502,0
3830,-0.492676,-0.506836,0.651367,0
3850,-0.51123,-0.431152,0.626953,0
3870,-0.474609,-0.395996,0.632324,0
3890,-0.4375,-0.378418,0.650879,0
3910,-0.44873,-0.358398,0.632324,0
3930,-0.46582,-0.334473,0.654785,0
3950,-0.495605,-0.361328,0.703125,0
3970,-0.487305,-0.375,0.723633,0
3990,-0.483887,-0.375977,0.733398,0
4010,-0.481445,-0.36377,0.722168,0
4030,-0.483398,-0.373535,0.725586,0
4050,-0.48291,-0.388672,0.718262,0
4070,-0.48291,-0.376465,0.721191,0
4090,-0.489258,-0.394043,0.737305,0
4110,-0.496582,-0.398926,0.751465,0
4130,-0.494141,-0.422363,0.752441,0
4140,-0.460449,-0.464355,0.754395,0
4170,-0.475098,-0.466309,0.754395,0
4190,-0.494629,-0.469727,0.749512,0
4210,-0.467285,-0.504395,0.756348,0
4230,-0.475098,-0.557617,0.737793,0
4250,-0.507812,-0.637207,0.710938,0
4270,-0.458008,-0.725098,0.663574,0
4290,-0.398926,-0.708984,0.640137,0
4310,-0.366699,-0.673828,0.643555,0
4330,-0.339844,-0.654785,0.623047,0
4350,-0.334961,-0.606934,0.633301,0
4390,-0.35498,-0.556152,0.681152,0
4400,-0.379883,-0.526367,0.71875,0
4420,-0.396973,-0.521484,0.737305,0
4440,-0.406738,-0.522949,0.736816,0
4460,-0.412598,-0.522949,0.718262,0
4480,-0.430176,-0.522461,0.703125,0
4500,-0.43457,-0.51416,0.694336,0
4520,-0.413574,-0.523926,0.682129,0
4540,-0.435059,-0.514648,0.662598,0
4560,-0.456055,-0.517578,0.668945,0
4580,-0.433105,-0.544922,0.691406,0
4600,-0.373535,-0.558594,0.718262,0
4620,-0.370605,-0.54541,0.728516,0
4640,-0.413086,-0.54541,0.713867,0
4660,-0.385742,-0.556641,0.727539,0
4680,-0.375977,-0.539062,0.737793,0
4700,-0.36377,-0.524414,0.729492,0
4720,-0.394043,-0.526367,0.73291,0
4740,-0.447754,-0.533203,0.699707,0
4760,-0.450684,-0.55957,0.711426,0
4780,-0.461426,-0.553223,0.739258,0
4800,-0.477539,-0.548828,0.73291,0
4820,-0.474609,-0.573242,0.746094,0
4840,-0.398438,-0.588867,0.736816,0
4860,-0.397949,-0.612305,0.714355,0
4880,-0.353027,-0.614746,0.710938,0
4900,-0.283203,-0.625488,0.685059,0
4920,-0.193848,-0.618652,0.632812,0
4940,-0.236328,-0.57373,0.606445,0
4960,-0.199707,-0.617188,0.647461,0
4980,-0.180176,-0.648438,0.687012,0
5000,-0.164551,-0.652344,0.722656,0
5020,-0.157227,-0.647461,0.71875,0
5040,-0.117676,-0.635742,0.711426,0
5060,-0.103027,-0.619141,0.70752,0
5080,-0.0493164,-0.600098,0.681641,0
5100,-0.0385742,-0.595215,0.64502,0
5120,-0.0703125,-0.566406,0.675293,0
5140,-0.0810547,-0.569336,0.681641,0
5160,-0.0957031,-0.579102,0.68457,0
5180,-0.090332,-0.560059,0.705078,0
5200,-0.0654297,-0.572266,0.736816,0
5220,-0.0493164,-0.602051,0.707031,0
5240,-0.0307617,-0.581055,0.678223,0
5260,-0.0283203,-0.599121,0.676758,0
5280,-0.0405273,-0.595215,0.691406,0
5300,-0.019043,-0.583008,0.694336,0
5320,-0.0297852,-0.587891,0.707031,0
5340,-0.0205078,-0.583984,0.70459,0
5360,-0.0361328,-0.58252,0.717285,0
5380,-0.0268555,-0.57666,0.73584,0
5400,-0.0458984,-0.579102,0.746582,0
5420,-0.043457,-0.592285,0.733398,0
5440,-0.0405273,-0.611816,0.725586,0
5460,-0.0610352,-0.634766,0.697754,0
5480,-0.0400391,-0.644043,0.697266,0
5500,-0.0566406,-0.617676,0.696777,0
5520,-0.0688477,-0.59082,0.720215,0
5540,-0.102051,-0.556152,0.734863,0
5560,-0.103516,-0.5625,0.748535,0
5580,-0.100586,-0.558105,0.759766,0
5600,-0.105957,-0.567383,0.752441,0
5620,-0.104492,-0.569336,0.754395,0
5640,-0.101562,-0.583984,0.740723,0
5660,-0.0981445,-0.601074,0.724121,0
5680,-0.100586,-0.608887,0.724121,0
5700,-0.0952148,-0.603516,0.71582,0
5720,-0.0952148,-0.598633,0.738281,0
5740,-0.123535,-0.583984,0.748047,0
5760,-0.150879,-0.556152,0.728027,0
5780,-0.133789,-0.543457,0.694824,0
5800,-0.0908203,-0.568848,0.650391,0
5820,-0.113281,-0.581055,0.63623,0
5840,-0.0683594,-0.575195,0.657227,0
5860,-0.143555,-0.597656,0.677734,0
5880,-0.286621,-0.588867,0.660156,0
5900,-0.263184,-0.595703,0.691406,0
5920,-0.314941,-0.59668,0.708008,0
5940,-0.341309,-0.583008,0.716309,0
5960,-0.412109,-0.587402,0.716309,0
5980,-0.468262,-0.5625,0.712891,0
6000,-0.427246,-0.601562,0.68457,0
6020,-0.45459,-0.59082,0.658691,0
6040,-0.491699,-0.595215,0.630371,0
6060,-0.513184,-0.564941,0.645508,0
6080,-0.535645,-0.596191,0.636719,0
6100,-0.563477,-0.618652,0.61084,0
6120,-0.598633,-0.620605,0.621094,0
6140,-0.587891,-0.623047,0.617188,0
6160,-0.55957,-0.605957,0.608398,0
6180,-0.529785,-0.589844,0.60791,0
6200,-0.501465,-0.591309,0.598145,0
6220,-0.474609,-0.582031,0.59082,0
6240,-0.453125,-0.574707,0.594727,0
6260,-0.455078,-0.577148,0.605469,0
6280,-0.455078,-0.577148,0.612793,0
6300,-0.462891,-0.580566,0.618164,0
6320,-0.47168,-0.579102,0.630371,0
6340,-0.467773,-0.583008,0.622559,0
6360,-0.461426,-0.582031,0.611816,0
6380,-0.464844,-0.575195,0.616699,0
6400,-0.478516,-0.580566,0.61084,0
6420,-0.483398,-0.575684,0.620117,0
6440,-0.479492,-0.586426,0.625,0
6460,-0.475586,-0.57666,0.625,0
6480,-0.47168,-0.575684,0.620117,0
6500,-0.455078,-0.589844,0.622559,0
6520,-0.458496,-0.592285,0.631348,0
6540,-0.46582,-0.588867,0.621094,0
6560,-0.455566,-0.597656,0.625,0
6580,-0.443848,-0.601562,0.615234,0
6600,-0.432129,-0.609375,0.602051,0
6620,-0.432617,-0.617676,0.601562,0
6640,-0.448242,-0.611328,0.618164,0
6660,-0.449707,-0.597656,0.617676,0
6680,-0.451172,-0.604004,0.62207,0
6700,-0.460938,-0.601074,0.627441,0
6720,-0.463379,-0.59082,0.622559,0
6740,-0.470703,-0.583008,0.628906,0
6760,-0.473145,-0.577637,0.620117,0
6780,-0.484375,-0.587402,0.621094,0
6800,-0.487305,-0.59082,0.612305,0
6820,-0.475098,-0.580566,0.623047,0
6840,-0.462402,-0.581055,0.632812,0
6860,-0.460938,-0.581543,0.638184,0
6880,-0.437988,-0.595215,0.625488,0
6900,-0.431152,-0.597168,0.614746,0
6920,-0.429199,-0.602051,0.605469,0
6940,-0.452148,-0.605957,0.590332,0
6960,-0.476074,-0.600098,0.603027,0
6980,-0.467285,-0.626953,0.608398,0
7000,-0.449219,-0.626465,0.602051,0
7020,-0.445312,-0.60791,0.600098,0
7040,-0.450684,-0.609375,0.590332,0
7060,-0.453125,-0.604004,0.594238,0
7080,-0.457031,-0.625488,0.606934,0
7100,-0.458008,-0.625488,0.611816,0
7120,-0.455078,-0.61377,0.60498,0
7140,-0.452148,-0.601562,0.602539,0
7160,-0.450195,-0.603516,0.601074,0
7180,-0.456055,-0.612793,0.606445,0
7200,-0.455566,-0.603516,0.59375,0
7220,-0.45752,-0.611816,0.584473,0
7240,-0.45459,-0.598633,0.578613,0
7260,-0.459473,-0.612793,0.599121,0
7280,-0.465332,-0.631348,0.601074,0
7300,-0.464844,-0.605957,0.592773,0
7320,-0.461426,-0.604492,0.600098,0
7340,-0.456543,-0.619629,0.595215,0
7360,-0.441406,-0.623535,0.586426,0
7380,-0.439453,-0.625977,0.600098,0
7400,-0.445312,-0.619629,0.601562,0
7420,-0.44043,-0.619141,0.600586,0
7440,-0.436035,-0.626465,0.602539,0
7460,-0.431641,-0.626953,0.597168,0
7480,-0.430664,-0.633301,0.593262,0
7500,-0.432129,-0.626953,0.583496,0
7520,-0.433594,-0.633301,0.589844,0
7540,-0.438965,-0.640137,0.592285,0
7560,-0.439453,-0.632324,0.59375,0
7580,-0.443359,-0.636719,0.59375,0
7600,-0.441895,-0.630371,0.59375,0
7620,-0.441406,-0.628906,0.591797,0
7640,-0.439941,-0.629395,0.591309,0
7660,-0.442871,-0.622559,0.589844,0
7680,-0.445801,-0.629883,0.597168,0
7700,-0.439453,-0.62793,0.597168,0
7720,-0.434082,-0.637207,0.598633,0
7740,-0.433594,-0.632324,0.601562,0
7760,-0.429688,-0.636719,0.597168,0
7780,-0.431152,-0.638184,0.606445,0
7800,-0.438965,-0.631836,0.605469,0
7820,-0.446777,-0.635742,0.620605,0
7830,-0.447754,-0.623047,0.629395,0
7850,-0.430664,-0.625977,0.634766,0
7870,-0.418457,-0.642578,0.618164,0
7890,-0.384277,-0.626953,0.626953,0
7910,-0.392578,-0.616211,0.628418,0
7930,-0.384766,-0.603516,0.599121,0
7950,-0.390625,-0.60498,0.606934,0
7970,-0.398926,-0.616211,0.609375,0
7990,-0.42334,-0.626465,0.618652,0
8010,-0.429199,-0.637207,0.604004,0
8030,-0.421875,-0.648926,0.595703,0
8050,-0.421875,-0.639648,0.589355,0
8070,-0.419434,-0.635742,0.592285,0
8090,-0.413086,-0.629395,0.604004,0
8110,-0.409668,-0.632812,0.605469,0
8130,-0.413574,-0.631836,0.606934,0
8150,-0.422363,-0.635742,0.602539,0
8170,-0.424805,-0.634766,0.606445,0
8190,-0.435547,-0.626465,0.619141,0
8210,-0.421387,-0.627441,0.62793,0
8230,-0.402344,-0.623535,0.606934,0
8250,-0.402832,-0.621094,0.60791,0
8270,-0.404297,-0.625,0.609863,0
8290,-0.407715,-0.630371,0.601074,0
8310,-0.423828,-0.633789,0.608887,0
8330,-0.413574,-0.629883,0.616211,0
8350,-0.412109,-0.629883,0.614258,0
8370,-0.418457,-0.627441,0.615234,0
8390,-0.414062,-0.625977,0.610352,0
8410,-0.416504,-0.626953,0.613281,0
8430,-0.411621,-0.631348,0.60791,0
8450,-0.418457,-0.630859,0.605957,0
8470,-0.418457,-0.635742,0.603516,0
8490,-0.413574,-0.644531,0.594727,0
8510,-0.414551,-0.640137,0.57373,0
8530,-0.427246,-0.629395,0.585449,0
8550,-0.451172,-0.623047,0.597168,0
8570,-0.455078,-0.625488,0.609375,0
8590,-0.436523,-0.63916,0.607422,0
8610,-0.433105,-0.64502,0.61377,0
8630,-0.466797,-0.625488,0.611816,0
8650,-0.467773,-0.627441,0.603027,0
8670,-0.451172,-0.626465,0.602051,0
8690,-0.442871,-0.61084,0.594238,0
8710,-0.415527,-0.602539,0.591309,0
8730,-0.435547,-0.592285,0.581055,0
8750,-0.506348,-0.572754,0.612793,0
8770,-0.476562,-0.589844,0.611328,0
8790,-0.427246,-0.606445,0.597656,0
8810,-0.464844,-0.587402,0.616211,0
8830,-0.464355,-0.589844,0.61377,0
8850,-0.443359,-0.611816,0.607422,0
8870,-0.443359,-0.604004,0.613281,0
8890,-0.446289,-0.60791,0.606934,0
8910,-0.444824,-0.612305,0.599609,0
8930,-0.449219,-0.615234,0.595703,0
8950,-0.453125,-0.616699,0.598633,0
8970,-0.45459,-0.617188,0.595703,0
8990,-0.464844,-0.612305,0.609375,0
9010,-0.466309,-0.610352,0.613281,0
9030,-0.476074,-0.603027,0.604004,0
9050,-0.477539,-0.596191,0.598145,0
9070,-0.478027,-0.591797,0.599121,0
9090,-0.474609,-0.590332,0.606445,0
9110,-0.479492,-0.594238,0.601074,0
9130,-0.474121,-0.588867,0.598633,0
9150,-0.473633,-0.600586,0.603027,0
9170,-0.46875,-0.601074,0.610352,0
9190,-0.460938,-0.605957,0.608887,0
9210,-0.461914,-0.600098,0.601562,0
9230,-0.458008,-0.599121,0.603027,0
9250,-0.458496,-0.605957,0.602539,0
9270,-0.467285,-0.60791,0.606934,0
9290,-0.469238,-0.610352,0.600586,0
9310,-0.449219,-0.614258,0.603027,0
9330,-0.5,-0.60498,0.603027,0
9350,-0.485352,-0.605469,0.608887,0
9370,-0.465332,-0.604004,0.608887,0
9390,-0.473633,-0.599121,0.607422,0
9410,-0.475586,-0.608398,0.606445,0
9430,-0.462402,-0.600098,0.603027,0
9450,-0.460449,-0.602539,0.595215,0
9470,-0.470703,-0.602539,0.612793,0
9490,-0.473145,-0.617676,0.60498,0
9510,-0.46582,-0.619141,0.601562,0
9530,-0.477051,-0.612305,0.594238,0
9550,-0.477539,-0.606934,0.589844,0
9570,-0.47168,-0.615234,0.580566,0
9590,-0.474121,-0.617188,0.583984,0
9610,-0.474609,-0.616699,0.594238,0
9630,-0.483887,-0.605957,0.597168,0
9650,-0.472656,-0.619141,0.598145,0
9670,-0.467285,-0.62207,0.586914,0
9690,-0.470703,-0.630371,0.583008,0
9710,-0.466309,-0.616699,0.583008,0
9730,-0.456543,-0.618164,0.575684,0
9750,-0.459961,-0.616211,0.580566,0
9770,-0.464355,-0.612305,0.581055,0
9790,-0.464844,-0.619141,0.578125,0
9810,-0.463867,-0.612305,0.578125,0
9820,-0.467285,-0.611328,0.583984,0
9840,-0.465332,-0.620117,0.588379,0
9860,-0.464355,-0.614258,0.589355,0
9880,-0.472168,-0.622559,0.584473,0
9900,-0.477539,-0.612793,0.591309,0
9920,-0.479492,-0.616211,0.592285,0
9940,-0.480469,-0.622559,0.590332,0
9960,-0.484375,-0.629395,0.588379,0
9980,-0.483887,-0.636719,0.584961,0
10000,-0.489746,-0.619141,0.583496,0
10020,-0.494629,-0.616211,0.586914,0
10040,-0.483398,-0.613281,0.583496,0
10060,-0.476074,-0.61377,0.589355,0
10080,-0.47168,-0.608398,0.585449,0
10100,-0.458984,-0.611328,0.582031,0
10120,-0.45166,-0.621582,0.575195,0
10140,-0.439941,-0.62207,0.569824,0
10160,-0.45166,-0.624512,0.567871,0
10180,-0.462891,-0.622559,0.574707,0
10200,-0.466309,-0.628418,0.577148,0
10220,-0.469238,-0.63623,0.576172,0
10240,-0.470703,-0.629883,0.57373,0
10260,-0.46582,-0.634277,0.563965,0
10280,-0.469238,-0.625488,0.570312,0
10300,-0.464844,-0.616699,0.569824,0
10320,-0.471191,-0.621094,0.577637,0
10340,-0.480957,-0.618164,0.586426,0
10360,-0.479492,-0.626953,0.583496,0
10380,-0.483398,-0.626953,0.588867,0
10400,-0.475586,-0.624023,0.591797,0
10420,-0.470215,-0.623535,0.585938,0
10440,-0.465332,-0.617188,0.574707,0
10460,-0.464355,-0.62207,0.58252,0
10480,-0.466309,-0.623047,0.581055,0
10500,-0.463867,-0.624512,0.58252,0
10520,-0.467285,-0.626465,0.580566,0
10540,-0.467773,-0.62793,0.580078,0
10560,-0.473633,-0.634277,0.583984,0
10580,-0.472656,-0.626953,0.585938,0
10600,-0.467773,-0.62793,0.583496,0
10620,-0.46582,-0.628418,0.591309,0
10640,-0.461426,-0.618164,0.581055,0
10660,-0.460938,-0.617188,0.584961,0
10680,-0.461914,-0.61084,0.578613,0
10700,-0.466309,-0.605469,0.581543,0
10720,-0.466309,-0.608398,0.585449,0
10740,-0.476562,-0.610352,0.581055,0
10760,-0.479492,-0.617188,0.584961,0
10780,-0.477539,-0.618652,0.583984,0
10800,-0.47998,-0.618164,0.584473,0
10820,-0.478027,-0.625488,0.581543,0
10840,-0.472168,-0.62793,0.585449,0
10860,-0.471191,-0.626953,0.581543,0
10880,-0.466309,-0.616699,0.57959,0
10900,-0.466797,-0.618164,0.591797,0
10920,-0.466309,-0.620605,0.603027,0
10940,-0.471191,-0.614258,0.59668,0
10960,-0.463867,-0.611328,0.598633,0
10980,-0.460449,-0.609863,0.594238,0
11000,-0.466797,-0.60791,0.589355,0
11020,-0.462891,-0.61377,0.595215,0
11040,-0.467773,-0.614746,0.594727,0
11060,-0.470703,-0.616699,0.595215,0
11080,-0.471191,-0.612793,0.601074,0
11100,-0.467773,-0.615723,0.596191,0
11120,-0.468262,-0.616211,0.599121,0
11140,-0.465332,-0.612305,0.595215,0
11160,-0.461914,-0.617676,0.602051,0
11180,-0.466797,-0.611328,0.598633,0
11200,-0.462891,-0.610352,0.60498,0
11220,-0.462891,-0.60498,0.601074,0
11240,-0.463867,-0.61084,0.600098,0
11260,-0.466797,-0.615723,0.598633,0
11280,-0.462402,-0.608398,0.595703,0
11300,-0.466309,-0.608398,0.588867,0
11320,-0.46875,-0.606445,0.592285,0
11340,-0.466797,-0.611816,0.591797,0
11360,-0.470703,-0.613281,0.602539,0
11380,-0.475098,-0.615723,0.59082,0
11400,-0.465332,-0.617676,0.584961,0
11420,-0.462402,-0.608887,0.588867,0
11440,-0.461914,-0.611816,0.587402,0
11460,-0.459473,-0.614746,0.591797,0
11480,-0.465332,-0.616699,0.590332,0
11500,-0.465332,-0.615234,0.589844,0
11520,-0.46582,-0.615234,0.597168,0
11540,-0.474121,-0.618164,0.601562,0
11560,-0.477539,-0.612793,0.589355,0
11580,-0.478516,-0.612793,0.585938,0
11600,-0.476562,-0.616211,0.591797,0
11620,-0.472656,-0.608398,0.59375,0
11640,-0.470215,-0.60791,0.59375,0
11660,-0.466797,-0.615234,0.607422,0
11680,-0.470215,-0.610352,0.607422,0
11700,-0.469727,-0.612793,0.600586,0
11720,-0.470703,-0.609863,0.601074,0
11740,-0.46582,-0.61377,0.592773,0
11760,-0.466309,-0.61084,0.592773,0
11780,-0.470215,-0.619629,0.597656,0
11800,-0.47998,-0.617188,0.595703,0
11820,-0.474121,-0.61377,0.594238,0
11840,-0.474609,-0.618652,0.594727,0
11860,-0.479004,-0.620117,0.590332,0
11880,-0.477051,-0.614746,0.588867,0
11900,-0.478027,-0.62207,0.584473,0
11920,-0.477539,-0.614258,0.581055,0
11940,-0.477539,-0.618652,0.583008,0
11960,-0.480469,-0.615723,0.575195,0
11980,-0.474121,-0.609863,0.580566,0
12000,-0.479492,-0.617188,0.578613,0
12020,-0.478516,-0.608887,0.569824,0
12040,-0.480957,-0.611816,0.573242,0
12060,-0.478516,-0.60791,0.568848,0
12080,-0.480957,-0.608887,0.57373,0
12100,-0.483398,-0.609863,0.571777,0
12120,-0.486328,-0.617676,0.565918,0
12140,-0.488281,-0.621094,0.569824,0
12160,-0.488281,-0.616211,0.574707,0
12180,-0.484375,-0.621582,0.572266,0
12200,-0.48584,-0.620605,0.570312,0
12220,-0.478027,-0.621582,0.569824,0
12240,-0.479004,-0.625488,0.582031,0
12260,-0.483398,-0.619141,0.57959,0
12280,-0.479492,-0.623535,0.587402,0
12300,-0.484375,-0.616211,0.582031,0
12320,-0.483887,-0.618652,0.58252,0
12340,-0.486816,-0.612305,0.583984,0
12360,-0.484863,-0.614258,0.587402,0
12380,-0.48877,-0.615234,0.581543,0
12400,-0.483887,-0.609863,0.574219,0
12420,-0.47998,-0.609375,0.588379,0
12440,-0.487305,-0.619141,0.597168,0
12460,-0.490723,-0.612305,0.600098,0
12480,-0.48584,-0.619629,0.591797,0
12500,-0.490723,-0.615723,0.585938,0
12520,-0.488281,-0.615723,0.578125,0
12540,-0.48877,-0.624512,0.574707,0
12560,-0.486816,-0.623047,0.578613,0
12580,-0.488281,-0.622559,0.580566,0
12600,-0.48584,-0.616699,0.581055,0
12620,-0.486816,-0.609375,0.581543,0
12640,-0.48584,-0.613281,0.575195,0
12660,-0.492676,-0.609863,0.57666,0
12680,-0.494141,-0.611328,0.566406,0
12700,-0.498047,-0.610352,0.572754,0
12720,-0.503418,-0.611328,0.577148,0
12740,-0.501953,-0.616211,0.569824,0
12760,-0.503418,-0.612793,0.572266,0
12780,-0.506348,-0.618652,0.570312,0
12800,-0.500977,-0.621582,0.568359,0
12820,-0.504395,-0.624023,0.582031,0
12840,-0.511719,-0.625488,0.57373,0
12860,-0.498535,-0.620117,0.569336,0
12880,-0.493164,-0.631348,0.566406,0
12900,-0.490234,-0.630859,0.571777,0
12920,-0.492676,-0.633301,0.570312,0
12940,-0.498535,-0.625,0.563965,0
12960,-0.506348,-0.611816,0.557617,0
12980,-0.518555,-0.611816,0.556152,0
13000,-0.520996,-0.604492,0.554199,0
13020,-0.52832,-0.605469,0.552734,0
13040,-0.527344,-0.604004,0.544922,0
13060,-0.518555,-0.603516,0.550781,0
13080,-0.509277,-0.606445,0.547852,0
13100,-0.50293,-0.601074,0.547363,0
13120,-0.492188,-0.609375,0.538574,0
13140,-0.492676,-0.617676,0.547852,0
13160,-0.49707,-0.628418,0.561035,0
13180,-0.499512,-0.63623,0.556152,0
13200,-0.501953,-0.630371,0.543945,0
13220,-0.500488,-0.623047,0.546387,0
13240,-0.499023,-0.620605,0.543457,0
13260,-0.500977,-0.623535,0.549316,0
13270,-0.512207,-0.632324,0.557617,0
13290,-0.510742,-0.624512,0.550293,0
13310,-0.515625,-0.619629,0.556152,0
13330,-0.513672,-0.621094,0.553223,0
13350,-0.524414,-0.613281,0.566895,0
13370,-0.519531,-0.609375,0.557129,0
13390,-0.521484,-0.592285,0.560059,0
13410,-0.507324,-0.603516,0.57373,0
13430,-0.508789,-0.600586,0.566406,0
13450,-0.510254,-0.615234,0.575684,0
13470,-0.505859,-0.621582,0.562988,0
13490,-0.494141,-0.617188,0.560547,0
13510,-0.489258,-0.624512,0.561523,0
13530,-0.487305,-0.629883,0.556152,0
13550,-0.491699,-0.62793,0.558594,0
13570,-0.490234,-0.629395,0.567871,0
13590,-0.489258,-0.625488,0.573242,0
13610,-0.492676,-0.631348,0.561523,0
13630,-0.486328,-0.618652,0.55957,0
13650,-0.487793,-0.612305,0.5625,0
13670,-0.484375,-0.608887,0.57666,0
13690,-0.482422,-0.608398,0.58252,0
13710,-0.484863,-0.628906,0.583008,0
13730,-0.489258,-0.637695,0.590332,0
13750,-0.486328,-0.636719,0.583008,0
13770,-0.491211,-0.623047,0.581055,0
13790,-0.497559,-0.608398,0.571289,0
13810,-0.504395,-0.597656,0.5625,0
13830,-0.512207,-0.585449,0.575195,0
13850,-0.523438,-0.593262,0.585449,0
13870,-0.518066,-0.599121,0.591797,0
13890,-0.51123,-0.598633,0.600098,0
13910,-0.498535,-0.59668,0.600586,0
13930,-0.491211,-0.599609,0.583984,0
13950,-0.481445,-0.60498,0.578613,0
13970,-0.477051,-0.603516,0.584961,0
14010,-0.474121,-0.619629,0.588867,0
14030,-0.476074,-0.623047,0.594727,0
14050,-0.479004,-0.626465,0.597656,0
14070,-0.480469,-0.620605,0.597168,0
14090,-0.48584,-0.616211,0.586914,0
14110,-0.48291,-0.608887,0.57959,0
14130,-0.486816,-0.600098,0.583496,0
14150,-0.493164,-0.604004,0.586914,0
14170,-0.491211,-0.606445,0.59668,0
14190,-0.497559,-0.605469,0.601074,0
14210,-0.489746,-0.603516,0.599609,0
14230,-0.484375,-0.59375,0.597168,0
14250,-0.479004,-0.60498,0.587402,0
14270,-0.47998,-0.597168,0.58252,0
14290,-0.479492,-0.599121,0.581543,0
14310,-0.479004,-0.598145,0.590332,0
14330,-0.488281,-0.601562,0.587891,0
14350,-0.492188,-0.608887,0.588379,0
14370,-0.488281,-0.611328,0.588867,0
14390,-0.489258,-0.614746,0.580078,0
14410,-0.487305,-0.614746,0.580566,0
14430,-0.487793,-0.617676,0.578613,0
14450,-0.486816,-0.620605,0.578125,0
14470,-0.484863,-0.615723,0.57959,0
14490,-0.487305,-0.62207,0.584473,0
14510,-0.486328,-0.61084,0.578125,0
14530,-0.478516,-0.59668,0.568359,0
14550,-0.478027,-0.600586,0.58252,0
14570,-0.480957,-0.595215,0.592285,0
14590,-0.478027,-0.597168,0.589355,0
14610,-0.477539,-0.603516,0.593262,0
14630,-0.479004,-0.599609,0.588379,0
14650,-0.476562,-0.615234,0.580078,0
14670,-0.476562,-0.608887,0.584961,0
14690,-0.485352,-0.618652,0.583008,0
14710,-0.489258,-0.617676,0.587891,0
14730,-0.48877,-0.615723,0.59375,0
14750,-0.494141,-0.618652,0.587402,0
14770,-0.48877,-0.61084,0.59082,0
14790,-0.489258,-0.615723,0.591797,0
14810,-0.484863,-0.601074,0.587891,0
14830,-0.486328,-0.602051,0.586914,0
14850,-0.47998,-0.600586,0.59375,0
14870,-0.465332,-0.599609,0.598145,0
14890,-0.474609,-0.601562,0.603516,0
14910,-0.472656,-0.603027,0.596191,0
14930,-0.473633,-0.602051,0.591309,0
14950,-0.483887,-0.606445,0.591797,0
14970,-0.481445,-0.601562,0.587891,0
14990,-0.484863,-0.608887,0.588379,0
15010,-0.483398,-0.604492,0.589844,0
15030,-0.484375,-0.606445,0.593262,0
15050,-0.48584,-0.611816,0.59668,0
15070,-0.479492,-0.602051,0.59375,0
15090,-0.475586,-0.61377,0.600098,0
15110,-0.470215,-0.603027,0.59375,0
15130,-0.474609,-0.609863,0.597656,0
15150,-0.472656,-0.61084,0.599121,0
15170,-0.478027,-0.604004,0.597168,0
15190,-0.48291,-0.610352,0.592773,0
15210,-0.486328,-0.602539,0.593262,0
15230,-0.484375,-0.608398,0.59082,0
15250,-0.48291,-0.611816,0.580566,0
15260,-0.478027,-0.603027,0.585938,0
15290,-0.481934,-0.601562,0.596191,0
15310,-0.486816,-0.60498,0.599121,0
15330,-0.482422,-0.608398,0.594238,0
15350,-0.479004,-0.605469,0.580078,0
15370,-0.480957,-0.612793,0.587891,0
15390,-0.474609,-0.611328,0.586426,0
15410,-0.479492,-0.614746,0.593262,0
15430,-0.482422,-0.608887,0.594727,0
15450,-0.485352,-0.612793,0.59375,0
15470,-0.48584,-0.615234,0.586914,0
15490,-0.481934,-0.609375,0.587891,0
15510,-0.483398,-0.605957,0.586914,0
15530,-0.480957,-0.609375,0.580566,0
15550,-0.481445,-0.608398,0.583496,0
15570,-0.481445,-0.609863,0.589355,0
15590,-0.480469,-0.608887,0.586426,0
15610,-0.486816,-0.611816,0.594727,0
15630,-0.48584,-0.606445,0.585449,0
15650,-0.480957,-0.612305,0.584961,0
15670,-0.485352,-0.612305,0.591309,0
15690,-0.480957,-0.609375,0.584961,0
15710,-0.486816,-0.613281,0.595215,0
15730,-0.483887,-0.61377,0.585938,0
15750,-0.48291,-0.609375,0.586426,0
15770,-0.48291,-0.608887,0.583496,0
15790,-0.477051,-0.609863,0.584961,0
15810,-0.482422,-0.607422,0.587891,0
15830,-0.481445,-0.605469,0.580078,0
15850,-0.480957,-0.608887,0.581543,0
15870,-0.477539,-0.610352,0.588379,0
15890,-0.480469,-0.608887,0.589844,0
15910,-0.479004,-0.62207,0.589355,0
15930,-0.480469,-0.616699,0.589355,0
15950,-0.481445,-0.618164,0.591797,0
15970,-0.479004,-0.610352,0.588867,0
15990,-0.479004,-0.610352,0.587402,0
16010,-0.481445,-0.612305,0.594727,0
16030,-0.481445,-0.60498,0.580078,0
16050,-0.479492,-0.607422,0.585449,0
16070,-0.470215,-0.598633,0.589844,0
16090,-0.475098,-0.59668,0.59082,0
16110,-0.476074,-0.605469,0.59082,0
16130,-0.476562,-0.595215,0.591797,0
16150,-0.489258,-0.604004,0.586426,0
16170,-0.488281,-0.606934,0.587891,0
16190,-0.488281,-0.611816,0.584961,0
16210,-0.48877,-0.614746,0.589355,0
16230,-0.479004,-0.613281,0.586426,0
16250,-0.477051,-0.621094,0.592285,0
16270,-0.472656,-0.611816,0.598145,0
16290,-0.466309,-0.611328,0.594727,0
16310,-0.472656,-0.609863,0.602051,0
16330,-0.470703,-0.604004,0.587402,0
16350,-0.473633,-0.602051,0.591309,0
16370,-0.480957,-0.59375,0.601562,0
16390,-0.477051,-0.596191,0.59668,0
16410,-0.487305,-0.603027,0.601562,0
16430,-0.481934,-0.596191,0.604004,0
16450,-0.48291,-0.601074,0.602539,0
16470,-0.48291,-0.599121,0.601074,0
16490,-0.47998,-0.60498,0.604004,0
16510,-0.48584,-0.609863,0.597168,0
16530,-0.487305,-0.609375,0.594727,0
16550,-0.480469,-0.61084,0.598633,0
16570,-0.487305,-0.606445,0.591797,0
16590,-0.485352,-0.605957,0.595703,0
16610,-0.479004,-0.60498,0.593262,0
16630,-0.479492,-0.604004,0.591797,0
16650,-0.474121,-0.623535,0.594238,0
16670,-0.483398,-0.606934,0.585938,0
16690,-0.479492,-0.614258,0.583496,0
16710,-0.485352,-0.613281,0.591797,0
16730,-0.489746,-0.606934,0.589844,0
16750,-0.490723,-0.606445,0.595215,0
16770,-0.478027,-0.611328,0.596191,0
16790,-0.47168,-0.608887,0.589844,0
16810,-0.469727,-0.606934,0.581055,0
16830,-0.458496,-0.600098,0.578125,0
16850,-0.446777,-0.608398,0.575684,0
16870,-0.460938,-0.605957,0.580078,0
16890,-0.467773,-0.612793,0.59375,0
16910,-0.46875,-0.613281,0.591309,0
16930,-0.471191,-0.614746,0.584473,0
16950,-0.467773,-0.619629,0.571777,0
16970,-0.46582,-0.615234,0.578125,0
16990,-0.466797,-0.631348,0.577148,0
17010,-0.479004,-0.625488,0.593262,0
17030,-0.473633,-0.616211,0.591309,0
17050,-0.468262,-0.621582,0.594727,0
17070,-0.46582,-0.618164,0.594727,0
17090,-0.463867,-0.616211,0.594727,0
17110,-0.457031,-0.615234,0.592285,0
17130,-0.455566,-0.614746,0.600586,0
17150,-0.437988,-0.619629,0.572266,0
17170,-0.466309,-0.61084,0.592773,0
17190,-0.473145,-0.625977,0.583984,0
17210,-0.465332,-0.630371,0.59668,0
17230,-0.469238,-0.619141,0.602539,0
17250,-0.47168,-0.605469,0.597656,0
17270,-0.459961,-0.619629,0.595215,0
17290,-0.458984,-0.619141,0.601074,0
17310,-0.459473,-0.605957,0.599609,0
17330,-0.458496,-0.612793,0.602051,0
17350,-0.445801,-0.62793,0.599609,0
17370,-0.428223,-0.623535,0.590332,0
17390,-0.440918,-0.632324,0.591309,0
17410,-0.452148,-0.625,0.589355,0
17430,-0.452637,-0.625977,0.597656,0
17450,-0.446777,-0.631348,0.599609,0
17470,-0.43457,-0.633789,0.599121,0
17490,-0.430664,-0.637207,0.594727,0
17510,-0.438965,-0.618652,0.59668,0
17530,-0.443848,-0.625977,0.584961,0
17550,-0.448242,-0.623047,0.589844,0
17570,-0.442383,-0.631836,0.591797,0
17590,-0.446289,-0.645996,0.585449,0
17610,-0.447754,-0.619629,0.587891,0
17630,-0.45166,-0.61377,0.592285,0
17650,-0.455078,-0.625488,0.597656,0
17670,-0.45752,-0.625,0.608887,0
17690,-0.454102,-0.621582,0.60791,0
17710,-0.439941,-0.626465,0.609375,0
17730,-0.432617,-0.619629,0.603516,0
17750,-0.436035,-0.624023,0.598633,0
17770,-0.438477,-0.633789,0.588867,0
17790,-0.438965,-0.631348,0.598633,0
17810,-0.443359,-0.626465,0.604004,0
17830,-0.437988,-0.633789,0.595215,0
17840,-0.438477,-0.619141,0.591309,0
17860,-0.431641,-0.624512,0.591797,0
17880,-0.431641,-0.623535,0.594238,0
17900,-0.431641,-0.620605,0.586914,0
17920,-0.429199,-0.624023,0.589844,0
17940,-0.428223,-0.631836,0.601074,0
17960,-0.437012,-0.630371,0.59668,0
17980,-0.446777,-0.628906,0.600098,0
18000,-0.448242,-0.631836,0.592773,0
18020,-0.455566,-0.628418,0.59375,0
18040,-0.456543,-0.62793,0.596191,0
18060,-0.464355,-0.621094,0.592285,0
18080,-0.473145,-0.612793,0.595703,0
18100,-0.461914,-0.61377,0.602539,0
18120,-0.459473,-0.615234,0.603027,0
18140,-0.451172,-0.611816,0.602539,0
18160,-0.445312,-0.616699,0.602051,0
18180,-0.443848,-0.622559,0.599609,0
18200,-0.446777,-0.618652,0.590332,0
18220,-0.445801,-0.627441,0.598145,0
18240,-0.45459,-0.626465,0.589844,0
18260,-0.455566,-0.627441,0.585938,0
18280,-0.463379,-0.62207,0.596191,0
18300,-0.462891,-0.624512,0.587891,0
18320,-0.467285,-0.621582,0.589355,0
18340,-0.464355,-0.623535,0.591797,0
18360,-0.463867,-0.621582,0.586426,0
18380,-0.459961,-0.609863,0.588867,0
18400,-0.45166,-0.612793,0.589844,0
18420,-0.446777,-0.615723,0.59375,0
18440,-0.456055,-0.620605,0.607422,0
18460,-0.456543,-0.619629,0.601074,0
18480,-0.453613,-0.624023,0.59668,0
18500,-0.453613,-0.62207,0.593262,0
18520,-0.454102,-0.623047,0.585449,0
18540,-0.456055,-0.628418,0.597168,0
18560,-0.458984,-0.628906,0.594238,0
18580,-0.456055,-0.62207,0.591309,0
18600,-0.459473,-0.625488,0.591797,0
18620,-0.459473,-0.62207,0.589844,0
18640,-0.451172,-0.621094,0.592773,0
18660,-0.457031,-0.617676,0.590332,0
18670,-0.459473,-0.619629,0.587891,0
18690,-0.455078,-0.619141,0.587891,0
18710,-0.461914,-0.625,0.594238,0
18730,-0.460449,-0.627441,0.595215,0
18750,-0.459473,-0.62207,0.595703,0
18770,-0.456055,-0.625977,0.588379,0
18790,-0.456543,-0.62207,0.595703,0
18810,-0.458008,-0.620117,0.594238,0
18830,-0.453613,-0.619141,0.59082,0
18850,-0.463867,-0.617676,0.595215,0
18870,-0.459473,-0.624023,0.592773,0
18890,-0.462891,-0.620605,0.596191,0
18940,-0.463379,-0.620605,0.589355,0
18960,-0.460938,-0.625,0.586914,0
18980,-0.460449,-0.622559,0.584473,0
18990,-0.459961,-0.623535,0.590332,0
19010,-0.458984,-0.619629,0.592285,0
19030,-0.468262,-0.622559,0.59082,0
19050,-0.467285,-0.619629,0.586914,0
19070,-0.464355,-0.617188,0.592285,0
19090,-0.472168,-0.626953,0.589844,0
19110,-0.463379,-0.619141,0.597656,0
19130,-0.466797,-0.621582,0.585938,0
19150,-0.464844,-0.614258,0.59668,0
19170,-0.464844,-0.614746,0.583984,0
19190,-0.462891,-0.616211,0.588379,0
19210,-0.459473,-0.617188,0.597168,0
19230,-0.469238,-0.623047,0.597656,0
19270,-0.467773,-0.614746,0.588867,0
19290,-0.467285,-0.618652,0.58252,0
19310,-0.467285,-0.61377,0.579102,0
19330,-0.464355,-0.62207,0.584473,0
19350,-0.469238,-0.619141,0.591309,0
19370,-0.46582,-0.612793,0.592285,0
19390,-0.466309,-0.621582,0.591309,0
19410,-0.466797,-0.615723,0.585938,0
19430,-0.466797,-0.624023,0.580566,0
19450,-0.466797,-0.616699,0.582031,0
19470,-0.463867,-0.615723,0.580078,0
19490,-0.463379,-0.616699,0.596191,0
19510,-0.464844,-0.611816,0.588867,0
19530,-0.466309,-0.617676,0.588867,0
19560,-0.461914,-0.622559,0.584473,0
19580,-0.465332,-0.615723,0.589355,0
19600,-0.466797,-0.616211,0.586426,0
19620,-0.467773,-0.622559,0.58252,0
19640,-0.469727,-0.61084,0.594238,0
19660,-0.463379,-0.620605,0.588379,0
19680,-0.47168,-0.619629,0.592285,0
19700,-0.466797,-0.615723,0.589355,0
19720,-0.467285,-0.62207,0.590332,0
19740,-0.467773,-0.613281,0.589844,0
19760,-0.464844,-0.616699,0.589355,0
19780,-0.460938,-0.619629,0.585938,0
19800,-0.468262,-0.618652,0.592285,0
19810,-0.474121,-0.616211,0.592773,0
19830,-0.474121,-0.616699,0.589355,0
19850,-0.477051,-0.613281,0.586426,0
19870,-0.474121,-0.61377,0.584473,0
19910,-0.475586,-0.61084,0.585449,0
19930,-0.469727,-0.616699,0.588867,0
19950,-0.473145,-0.609375,0.587402,0
19970,-0.469727,-0.612305,0.601562,0
19990,-0.475098,-0.616211,0.604492,0
20010,-0.473633,-0.613281,0.59375,0
20030,-0.473633,-0.621582,0.583984,0
20050,-0.471191,-0.617188,0.58252,0
20070,-0.466309,-0.617188,0.592285,0
20090,-0.469727,-0.625977,0.593262,0
20110,-0.468262,-0.618164,0.591309,0
20130,-0.470215,-0.616211,0.598633,0
20150,-0.472168,-0.619141,0.59082,0
20170,-0.472168,-0.611816,0.592285,0
20190,-0.475098,-0.618652,0.588867,0
20210,-0.471191,-0.609375,0.588867,0
20230,-0.466309,-0.613281,0.584473,0
20250,-0.472656,-0.616699,0.588867,0
20270,-0.471191,-0.61084,0.588867,0
20290,-0.46875,-0.618652,0.589844,0
20310,-0.472168,-0.615723,0.591797,0
20330,-0.472168,-0.612793,0.587402,0
20350,-0.466309,-0.61377,0.589844,0
20370,-0.469727,-0.615234,0.589355,0
20390,-0.470703,-0.614746,0.592773,0
20410,-0.46875,-0.614746,0.589844,0
20430,-0.467773,-0.619141,0.59375,0
20450,-0.470215,-0.612793,0.592773,0
20470,-0.471191,-0.618164,0.592773,0
20490,-0.468262,-0.612793,0.589844,0
20510,-0.469238,-0.614746,0.588867,0
20530,-0.469727,-0.618652,0.587891,0
20550,-0.472168,-0.61377,0.587402,0
20570,-0.471191,-0.617188,0.589844,0
20580,-0.471191,-0.615234,0.591309,0
20600,-0.470703,-0.608398,0.585938,0
20620,-0.473145,-0.616699,0.590332,0
20640,-0.473145,-0.615234,0.591797,0
20660,-0.474121,-0.615234,0.591797,0
20680,-0.472168,-0.616211,0.588379,0
20690,-0.470215,-0.611328,0.591797,0
20710,-0.473633,-0.615234,0.588867,0
20730,-0.464844,-0.611816,0.584961,0
20750,-0.466797,-0.615234,0.581055,0
20770,-0.466309,-0.612793,0.591309,0
20780,-0.474609,-0.618164,0.601074,0
20800,-0.475098,-0.616211,0.59082,0
20820,-0.47168,-0.618164,0.589844,0
20840,-0.467773,-0.616211,0.583496,0
20860,-0.467773,-0.617676,0.584961,0
20880,-0.46582,-0.615723,0.589355,0
20900,-0.474121,-0.620117,0.589844,0
20920,-0.472656,-0.615234,0.587402,0
20940,-0.475586,-0.617676,0.59082,0
20960,-0.473633,-0.616699,0.589844,0
20970,-0.470703,-0.617676,0.581055,0
20990,-0.473145,-0.618652,0.585449,0
21010,-0.469238,-0.61377,0.586426,0
21020,-0.471191,-0.615234,0.591309,0
21040,-0.471191,-0.614746,0.59082,0
21060,-0.472168,-0.619629,0.59375,0
21090,-0.472656,-0.619141,0.593262,0
21110,-0.470215,-0.615234,0.585449,0
21130,-0.471191,-0.614258,0.589355,0
21150,-0.470703,-0.618164,0.586914,0
21170,-0.473145,-0.615234,0.591797,0
21190,-0.473145,-0.62207,0.588867,0
21210,-0.472656,-0.614258,0.591309,0
21230,-0.469727,-0.612793,0.594238,0
21250,-0.470703,-0.617188,0.585938,0
21280,-0.470703,-0.616211,0.588379,0
21300,-0.468262,-0.613281,0.587891,0
21320,-0.472168,-0.619629,0.588867,0
21340,-0.47168,-0.614746,0.591797,0
21360,-0.473633,-0.617188,0.594238,0
21380,-0.47168,-0.621582,0.593262,0
21400,-0.476074,-0.616699,0.592285,0
21420,-0.472168,-0.619629,0.590332,0
21440,-0.475098,-0.615234,0.586426,0
21460,-0.473633,-0.611328,0.581055,0
21480,-0.472656,-0.618652,0.587402,0
21500,-0.47168,-0.608887,0.581055,0
21520,-0.46875,-0.61084,0.583984,0
21540,-0.477051,-0.608887,0.59375,0
21550,-0.477539,-0.617676,0.599609,0
21570,-0.474121,-0.616211,0.588379,0
21590,-0.478027,-0.614746,0.592285,0
21610,-0.475098,-0.614746,0.579102,0
21630,-0.46875,-0.615723,0.575684,0
21650,-0.472168,-0.615234,0.586426,0
21670,-0.478027,-0.61377,0.586426,0
21690,-0.480957,-0.612305,0.589355,0
21710,-0.474609,-0.619141,0.587891,0
21730,-0.476074,-0.611328,0.582031,0
21750,-0.475586,-0.615723,0.583008,0
21770,-0.474121,-0.610352,0.579102,0
21790,-0.470215,-0.609375,0.578125,0
21810,-0.477051,-0.614258,0.585938,0
21830,-0.480469,-0.61084,0.587402,0
21850,-0.475098,-0.611328,0.58252,0
21870,-0.47998,-0.612305,0.588867,0
21890,-0.477539,-0.608398,0.57959,0
21910,-0.476074,-0.61377,0.582031,0
21930,-0.474121,-0.612305,0.587891,0
21950,-0.477051,-0.614258,0.590332,0
21970,-0.472656,-0.616699,0.581055,0
21990,-0.475586,-0.616699,0.586914,0
22000,-0.474121,-0.624023,0.585449,0
22020,-0.473145,-0.615234,0.587891,0
22040,-0.476074,-0.619141,0.583008,0
22060,-0.472656,-0.618164,0.581055,0
22080,-0.470703,-0.611816,0.583008,0
22100,-0.47168,-0.620117,0.583496,0
22120,-0.471191,-0.610352,0.583496,0
22150,-0.478516,-0.618164,0.583984,0
22170,-0.474609,-0.61084,0.588379,0
22190,-0.477539,-0.616211,0.586914,0
22210,-0.47168,-0.611816,0.591797,0
22230,-0.476562,-0.619141,0.580566,0
22250,-0.469238,-0.609863,0.580078,0
22270,-0.467285,-0.609375,0.583496,0
22290,-0.470703,-0.614258,0.599121,0
22310,-0.472168,-0.609375,0.599121,0
22330,-0.479492,-0.621582,0.598633,0
22350,-0.476074,-0.614258,0.592285,0
22370,-0.469238,-0.616699,0.587891,0
22390,-0.471191,-0.623047,0.580566,0
22410,-0.464844,-0.615234,0.585938,0
22430,-0.470215,-0.619141,0.592773,0
22450,-0.471191,-0.614258,0.586426,0
22470,-0.470215,-0.620117,0.589844,0
22490,-0.474121,-0.620605,0.589844,0
22510,-0.474609,-0.61377,0.59082,0
22530,-0.473145,-0.619629,0.587402,0
22550,-0.473145,-0.612793,0.584961,0
22570,-0.467285,-0.618652,0.587402,0
22590,-0.474609,-0.611328,0.591309,0
22610,-0.470703,-0.609375,0.592285,0
22630,-0.474121,-0.620117,0.597168,0
22650,-0.470215,-0.616211,0.591309,0
22670,-0.471191,-0.614746,0.589355,0
22690,-0.469727,-0.611816,0.594727,0
22710,-0.46875,-0.611328,0.591797,0
22730,-0.473145,-0.621094,0.592285,0
22750,-0.469727,-0.61084,0.585449,0
22770,-0.468262,-0.615234,0.588867,0
22790,-0.467773,-0.611816,0.588867,0
22810,-0.46875,-0.615723,0.584961,0
22830,-0.474609,-0.620605,0.592773,0
22850,-0.474609,-0.615723,0.586426,0
22870,-0.469238,-0.612305,0.576172,0
22890,-0.463867,-0.603027,0.573242,0
22910,-0.45459,-0.617188,0.580078,0
22930,-0.469727,-0.618652,0.595703,0
22950,-0.477539,-0.605957,0.598633,0
22970,-0.48291,-0.617676,0.593262,0
22990,-0.477539,-0.622559,0.583496,0
23010,-0.466797,-0.624512,0.57666,0
23030,-0.470703,-0.616699,0.59082,0
23050,-0.467285,-0.61377,0.597168,0
23070,-0.46875,-0.616211,0.594238,0
23090,-0.46875,-0.614258,0.588867,0
23110,-0.468262,-0.620605,0.598633,0
23130,-0.478516,-0.618652,0.586426,0
23150,-0.478027,-0.60498,0.583008,0
23180,-0.486816,-0.597656,0.586426,0
23200,-0.482422,-0.604492,0.583496,0
23220,-0.482422,-0.610352,0.583008,0
23240,-0.479004,-0.609863,0.588867,0
23260,-0.477539,-0.61377,0.587891,0
23280,-0.469238,-0.608887,0.586914,0
23300,-0.46875,-0.615234,0.59082,0
23320,-0.470215,-0.62793,0.59082,0
23340,-0.473633,-0.625488,0.585938,0
23360,-0.474609,-0.624023,0.586426,0
23380,-0.468262,-0.617188,0.581055,0
23400,-0.473633,-0.612793,0.587891,0
23420,-0.474609,-0.612305,0.590332,0
23440,-0.478516,-0.613281,0.599121,0
23470,-0.478516,-0.603027,0.588379,0
23490,-0.476562,-0.600098,0.59668,0
23510,-0.478027,-0.598633,0.59375,0
23530,-0.483887,-0.596191,0.598633,0
23550,-0.480957,-0.60498,0.596191,0
23570,-0.487793,-0.60498,0.596191,0
23590,-0.48584,-0.606934,0.595703,0
23610,-0.480957,-0.613281,0.593262,0
23630,-0.481934,-0.610352,0.586914,0
23650,-0.486328,-0.61084,0.579102,0
23670,-0.480957,-0.605957,0.585938,0
23690,-0.480957,-0.606445,0.586426,0
23710,-0.487793,-0.609375,0.587891,0
23730,-0.487305,-0.60791,0.593262,0
23750,-0.484375,-0.611816,0.592773,0
23770,-0.484375,-0.612305,0.597656,0
23790,-0.480469,-0.609375,0.591797,0
23810,-0.479492,-0.606934,0.587402,0
23830,-0.479004,-0.605957,0.586914,0
23850,-0.482422,-0.61084,0.586914,0
23870,-0.487793,-0.611816,0.590332,0
23890,-0.484863,-0.613281,0.578125,0
23900,-0.48291,-0.605957,0.57666,0
23920,-0.479492,-0.595215,0.577148,0
23940,-0.484375,-0.604004,0.600586,0
23960,-0.492676,-0.604492,0.594727,0
23980,-0.492676,-0.61084,0.59375,0
24000,-0.485352,-0.608887,0.579102,0
24020,-0.476562,-0.612305,0.577637,0
24040,-0.475586,-0.616211,0.581055,0
24060,-0.476562,-0.607422,0.584473,0
24080,-0.481934,-0.613281,0.59082,0
24100,-0.482422,-0.61084,0.592285,0
24120,-0.484375,-0.620605,0.586914,0
24140,-0.487305,-0.617676,0.581055,0
24160,-0.490234,-0.611328,0.575195,0
24180,-0.489746,-0.61084,0.563477,0
24200,-0.479004,-0.604004,0.569824,0
24220,-0.482422,-0.60498,0.584961,0
24240,-0.485352,-0.605469,0.59375,0
24260,-0.483887,-0.602051,0.589844,0
24280,-0.485352,-0.610352,0.591309,0
24300,-0.481934,-0.607422,0.583984,0
24320,-0.478027,-0.608887,0.582031,0
24340,-0.481934,-0.604492,0.583008,0
24360,-0.480469,-0.611816,0.584961,0
24380,-0.48291,-0.616699,0.586914,0
24400,-0.486328,-0.619629,0.580566,0
24420,-0.485352,-0.618652,0.578125,0
24440,-0.490234,-0.614258,0.580566,0
24460,-0.489746,-0.612793,0.569824,0
24480,-0.48584,-0.609375,0.571777,0
24500,-0.478516,-0.60791,0.574707,0
24520,-0.479004,-0.607422,0.570801,0
24540,-0.490234,-0.60791,0.586426,0
24560,-0.487305,-0.61084,0.583496,0
24580,-0.489746,-0.610352,0.57959,0
24600,-0.487305,-0.605957,0.584961,0
24620,-0.487793,-0.612305,0.585938,0
24640,-0.488281,-0.610352,0.583496,0
24660,-0.489258,-0.620117,0.583496,0
24680,-0.489746,-0.620117,0.576172,0
24700,-0.480469,-0.612793,0.566406,0
24720,-0.486328,-0.61084,0.577148,0
24740,-0.489258,-0.608887,0.582031,0
24760,-0.490234,-0.611816,0.586426,0
24780,-0.489746,-0.608398,0.584961,0
24800,-0.493164,-0.612793,0.578125,0
24820,-0.48877,-0.61084,0.570312,0
24840,-0.483887,-0.610352,0.577148,0
24860,-0.478027,-0.612305,0.577148,0
24880,-0.488281,-0.61377,0.589355,0
24900,-0.48584,-0.611328,0.583984,0
24920,-0.484375,-0.614746,0.581543,0
24940,-0.484863,-0.61377,0.57666,0
24960,-0.484863,-0.617676,0.583008,0
24980,-0.491211,-0.614258,0.575195,0
25000,-0.48291,-0.61377,0.575195,0
25020,-0.480957,-0.615234,0.587891,0
25040,-0.484375,-0.610352,0.583496,0
25060,-0.48584,-0.61084,0.577148,0
25080,-0.485352,-0.612305,0.580078,0
25100,-0.481934,-0.604492,0.581543,0
25130,-0.483398,-0.607422,0.581543,0
25150,-0.482422,-0.613281,0.586426,0
25170,-0.481934,-0.614258,0.583008,0
25190,-0.484863,-0.611816,0.588379,0
25210,-0.486328,-0.61377,0.584961,0
25230,-0.48291,-0.614746,0.586914,0
25250,-0.480469,-0.609863,0.583496,0
25270,-0.480957,-0.610352,0.585449,0
25290,-0.481445,-0.606934,0.587891,0
25310,-0.47998,-0.615234,0.587402,0
25330,-0.481445,-0.60791,0.591797,0
25350,-0.480957,-0.611816,0.587402,0
25370,-0.47998,-0.608887,0.585938,0
25390,-0.484863,-0.606934,0.588379,0
25410,-0.480957,-0.612305,0.586426,0
25430,-0.482422,-0.604492,0.587891,0
25450,-0.483398,-0.609375,0.584473,0
25470,-0.481445,-0.606934,0.586914,0
25490,-0.478516,-0.611816,0.591797,0
25510,-0.476562,-0.610352,0.586426,0
25530,-0.475098,-0.604004,0.583984,0
25550,-0.478516,-0.611328,0.586426,0
25570,-0.478027,-0.607422,0.596191,0
25590,-0.481934,-0.606934,0.59375,0
25610,-0.487305,-0.614746,0.591797,0
25630,-0.47998,-0.60791,0.588867,0
25640,-0.47998,-0.606934,0.584961,0
25670,-0.47998,-0.60791,0.594238,0
25690,-0.478027,-0.614258,0.585449,0
25710,-0.47998,-0.607422,0.585449,0
25730,-0.485352,-0.603516,0.591797,0
25750,-0.481934,-0.60791,0.592773,0
25770,-0.485352,-0.604004,0.592285,0
25790,-0.483398,-0.605957,0.589844,0
25810,-0.482422,-0.606445,0.597168,0
25830,-0.477539,-0.603516,0.593262,0
25850,-0.479492,-0.607422,0.597656,0
25870,-0.482422,-0.600586,0.595215,0
25880,-0.481445,-0.603027,0.59375,0
25900,-0.482422,-0.602051,0.591797,0
25920,-0.482422,-0.603516,0.595215,0
25940,-0.480469,-0.607422,0.588867,0
25960,-0.478516,-0.597168,0.590332,0
25980,-0.480469,-0.603027,0.593262,0
25990,-0.48584,-0.600586,0.595215,0
26010,-0.48291,-0.602539,0.592285,0
26030,-0.484375,-0.603516,0.599121,0
26050,-0.481934,-0.601562,0.592773,0
26070,-0.482422,-0.604004,0.594238,0
26090,-0.481445,-0.602539,0.589355,0
26110,-0.480469,-0.600098,0.593262,0
26130,-0.481934,-0.61084,0.593262,0
26150,-0.47998,-0.606445,0.596191,0
26170,-0.480957,-0.604004,0.593262,0
26180,-0.479492,-0.601562,0.597168,0
26200,-0.48291,-0.603516,0.595215,0
26220,-0.484375,-0.600098,0.600586,0
26240,-0.48291,-0.597656,0.594238,0
26260,-0.483398,-0.599121,0.595215,0
26280,-0.483398,-0.598145,0.596191,0
26300,-0.481445,-0.601562,0.600098,0
26320,-0.483887,-0.601562,0.594727,0
26340,-0.481934,-0.597168,0.598633,0
26360,-0.480957,-0.603027,0.589355,0
26380,-0.478516,-0.597656,0.585938,0
26400,-0.478516,-0.602539,0.597168,0
26420,-0.485352,-0.605469,0.604004,0
26440,-0.481934,-0.60498,0.595703,0
26460,-0.48291,-0.61377,0.591797,0
26480,-0.482422,-0.602051,0.587891,0
26500,-0.480957,-0.608398,0.584473,0
26520,-0.479004,-0.606934,0.594238,0
26540,-0.47998,-0.604492,0.585449,0
26560,-0.483887,-0.598633,0.592773,0
26580,-0.482422,-0.602539,0.600098,0
26600,-0.48584,-0.604004,0.594238,0
26620,-0.483398,-0.603516,0.592773,0
26640,-0.481934,-0.599609,0.587402,0
26660,-0.482422,-0.605469,0.586914,0
26680,-0.477051,-0.600098,0.586426,0
26700,-0.47998,-0.603027,0.594727,0
26720,-0.481934,-0.601562,0.59375,0
26740,-0.483887,-0.604492,0.598145,0
26760,-0.487305,-0.605957,0.59082,0
26780,-0.481445,-0.598633,0.586914,0
26800,-0.481934,-0.602539,0.588379,0
26820,-0.483887,-0.600586,0.589355,0
26840,-0.491699,-0.602051,0.599121,0
26860,-0.48584,-0.604492,0.587891,0
26880,-0.488281,-0.600586,0.595215,0
26900,-0.483887,-0.60498,0.591309,0
26920,-0.481934,-0.605469,0.594238,0
26940,-0.483887,-0.603027,0.589844,0
26960,-0.487793,-0.604004,0.596191,0
26980,-0.481934,-0.60791,0.587891,0
27000,-0.485352,-0.602539,0.592285,0
27020,-0.480469,-0.60498,0.591797,0
27040,-0.482422,-0.605957,0.59082,0
27060,-0.48877,-0.603027,0.592285,0
27080,-0.487793,-0.595215,0.590332,0
27100,-0.48584,-0.601562,0.588379,0
27120,-0.492676,-0.597656,0.593262,0
27140,-0.48877,-0.602051,0.591309,0
27160,-0.487305,-0.601074,0.592285,0
27180,-0.48877,-0.598145,0.588379,0
27200,-0.484863,-0.599609,0.589355,0
27220,-0.489258,-0.599121,0.591797,0
27240,-0.488281,-0.594727,0.581543,0
27260,-0.488281,-0.598145,0.583984,0
27280,-0.489258,-0.599121,0.593262,0
27300,-0.496094,-0.607422,0.599121,0
27320,-0.494629,-0.605469,0.586426,0
27340,-0.490723,-0.59375,0.584473,0
27360,-0.484863,-0.596191,0.580078,0
27380,-0.48584,-0.597656,0.587891,0
27400,-0.490723,-0.60498,0.589844,0
27420,-0.493164,-0.602539,0.591309,0
27440,-0.494141,-0.606934,0.589355,0
27460,-0.494629,-0.607422,0.587402,0
27480,-0.48877,-0.602051,0.581543,0
27500,-0.490234,-0.608887,0.587402,0
27520,-0.48584,-0.599609,0.581543,0
27540,-0.481934,-0.600098,0.58252,0
27570,-0.481934,-0.603516,0.589355,0
27590,-0.487793,-0.60498,0.588379,0
27610,-0.487793,-0.604004,0.585938,0
27630,-0.491699,-0.604004,0.583984,0
27650,-0.487793,-0.601562,0.585449,0
27670,-0.483887,-0.600586,0.587891,0
27690,-0.490234,-0.604492,0.598633,0
27710,-0.489746,-0.601562,0.588379,0
27730,-0.48584,-0.601562,0.595703,0
27750,-0.484863,-0.602539,0.595703,0
27770,-0.487305,-0.604004,0.598145,0
27790,-0.48584,-0.60791,0.590332,0
27810,-0.484375,-0.603027,0.599609,0
27830,-0.483887,-0.608398,0.592285,0
27850,-0.481934,-0.601562,0.587891,0
27870,-0.486328,-0.604492,0.587891,0
27890,-0.487305,-0.611328,0.584473,0
27910,-0.490723,-0.601074,0.595215,0
27930,-0.48584,-0.604492,0.587402,0
27950,-0.485352,-0.602051,0.587891,0
27970,-0.484863,-0.602539,0.585449,0
27990,-0.481445,-0.60498,0.591309,0
28010,-0.486816,-0.601074,0.594238,0
28030,-0.483887,-0.601074,0.583496,0
28050,-0.481934,-0.598145,0.585938,0
28070,-0.478027,-0.594238,0.595703,0
28090,-0.47998,-0.594238,0.605957,0
28110,-0.477539,-0.581055,0.599609,0
28130,-0.48291,-0.593262,0.59668,0
28150,-0.487793,-0.594727,0.587402,0
28170,-0.490723,-0.601074,0.596191,0
28190,-0.476074,-0.614746,0.59375,0
28210,-0.476074,-0.609863,0.584473,0
28230,-0.493164,-0.617676,0.588379,0
28250,-0.493652,-0.619629,0.597168,0
28270,-0.492188,-0.606934,0.580078,0
28290,-0.493652,-0.609375,0.595703,0
28310,-0.495605,-0.598145,0.59082,0
28330,-0.491699,-0.604004,0.589844,0
28350,-0.470215,-0.590332,0.597656,0
28360,-0.477051,-0.59668,0.600586,0
28380,-0.474121,-0.59668,0.600098,0
28400,-0.482422,-0.601074,0.595703,0
28420,-0.480957,-0.596191,0.59375,0
28440,-0.480957,-0.597168,0.592285,0
28460,-0.477539,-0.595215,0.591797,0
28480,-0.479492,-0.600098,0.59668,0
28500,-0.485352,-0.600586,0.594727,0
28520,-0.48877,-0.603516,0.603027,0
28540,-0.493652,-0.600586,0.600586,0
28560,-0.473145,-0.595215,0.599609,0
28580,-0.47168,-0.594238,0.601562,0
28600,-0.473145,-0.597656,0.59668,0
28620,-0.470703,-0.600098,0.59668,0
28640,-0.468262,-0.601074,0.606934,0
28660,-0.470215,-0.597168,0.605469,0
28680,-0.472656,-0.60498,0.600586,0
28700,-0.478516,-0.601074,0.600098,0
28720,-0.476074,-0.59375,0.604004,0
28740,-0.478027,-0.598145,0.604004,0
28760,-0.477051,-0.59375,0.599609,0
28780,-0.473633,-0.591309,0.607422,0
28800,-0.475098,-0.59668,0.601074,0
28820,-0.476562,-0.59375,0.603027,0
28840,-0.473145,-0.596191,0.603027,0
28860,-0.472656,-0.597168,0.604004,0
28880,-0.469238,-0.593262,0.603516,0
28900,-0.476074,-0.594727,0.603516,0
28920,-0.470703,-0.588867,0.607422,0
28940,-0.478516,-0.603027,0.628418,0
28960,-0.470703,-0.59668,0.601562,0
28980,-0.475586,-0.589355,0.598633,0
29000,-0.468262,-0.589355,0.599121,0
29020,-0.464844,-0.587891,0.606934,0
29040,-0.469727,-0.603027,0.611328,0
29060,-0.468262,-0.594727,0.608887,0
29080,-0.475586,-0.594238,0.60791,0
29100,-0.478516,-0.594238,0.604004,0
29120,-0.472656,-0.592285,0.609863,0
29140,-0.478027,-0.592285,0.603027,0
29160,-0.473145,-0.59082,0.604492,0
29180,-0.469727,-0.589355,0.602051,0
29200,-0.464844,-0.59375,0.602051,0
29220,-0.46875,-0.596191,0.609375,0
29240,-0.475098,-0.592285,0.611328,0
29260,-0.473145,-0.594238,0.605469,0
29270,-0.478027,-0.595215,0.611328,0
29290,-0.473145,-0.59668,0.601562,0
29310,-0.473633,-0.598145,0.605469,0
29330,-0.473633,-0.595703,0.602051,0
29350,-0.474609,-0.593262,0.604492,0
29370,-0.478027,-0.595703,0.603516,0
29390,-0.478516,-0.598145,0.610352,0
29410,-0.476074,-0.599121,0.605957,0
29430,-0.477051,-0.599121,0.598145,0
29450,-0.477539,-0.589844,0.605469,0
29470,-0.475098,-0.600586,0.60498,0
29490,-0.475586,-0.591309,0.600586,0
29510,-0.476074,-0.594727,0.599609,0
29530,-0.478516,-0.598145,0.61084,0
29550,-0.477051,-0.592285,0.604492,0
29570,-0.478516,-0.596191,0.608398,0
29590,-0.479492,-0.600098,0.605469,0
29610,-0.478027,-0.598633,0.605957,0
29630,-0.475098,-0.594727,0.600098,0
29650,-0.475586,-0.59668,0.606445,0
29670,-0.479492,-0.597656,0.60498,0
29690,-0.478027,-0.597168,0.603516,0
29710,-0.476562,-0.598145,0.606934,0
29710,-0.472168,-0.599121,0.600586,0
29730,-0.475098,-0.598633,0.603516,0
29770,-0.475586,-0.592773,0.600586,0
29810,-0.479004,-0.600098,0.608887,0
29830,-0.483398,-0.590332,0.606445,0
29850,-0.479492,-0.602539,0.601074,0
29870,-0.480469,-0.59375,0.595215,0
29890,-0.475098,-0.599609,0.600586,0
29910,-0.469727,-0.600098,0.598633,0
29930,-0.473145,-0.601074,0.601562,0
29950,-0.479004,-0.606934,0.596191,0
29970,-0.47998,-0.594727,0.604004,0
29990,-0.48291,-0.602051,0.599121,0
30010,-0.481934,-0.599121,0.607422,0
30030,-0.48291,-0.596191,0.601074,0
30050,-0.483887,-0.602051,0.594238,0
30070,-0.480957,-0.594727,0.595215,0
30090,-0.479004,-0.596191,0.597168,0
30110,-0.481445,-0.588867,0.594727,0
30130,-0.475098,-0.584961,0.600098,0
30150,-0.476562,-0.590332,0.601074,0
30170,-0.481934,-0.59082,0.593262,0
30190,-0.48291,-0.595703,0.599121,0
30210,-0.48291,-0.599121,0.589355,0
30230,-0.478027,-0.603516,0.592773,0
30250,-0.481445,-0.609375,0.595215,0
30270,-0.478027,-0.60498,0.595215,0
30290,-0.480469,-0.609375,0.598145,0
30310,-0.476074,-0.60791,0.596191,0
30330,-0.483887,-0.604004,0.592773,0
30350,-0.480469,-0.600586,0.594727,0
30370,-0.479492,-0.59668,0.589844,0
30390,-0.48291,-0.597168,0.595215,0
30410,-0.477539,-0.592285,0.595215,0
30430,-0.479004,-0.594238,0.601074,0
30450,-0.47998,-0.590332,0.596191,0
30470,-0.479004,-0.594238,0.593262,0
30490,-0.484863,-0.599121,0.600586,0
30510,-0.482422,-0.594238,0.594727,0
30530,-0.479492,-0.60498,0.596191,0
30550,-0.480957,-0.602539,0.592285,0
30570,-0.477051,-0.602051,0.589844,0
30590,-0.481445,-0.603027,0.599609,0
30610,-0.480469,-0.599121,0.587891,0
30630,-0.472168,-0.597656,0.59668,0
30650,-0.475098,-0.598145,0.600586,0
30670,-0.480469,-0.600586,0.60498,0
30690,-0.48584,-0.59668,0.598633,0
30710,-0.487305,-0.59375,0.59668,0
30730,-0.482422,-0.598145,0.59668,0
30750,-0.474609,-0.601562,0.589844,0
30770,-0.474121,-0.601562,0.591309,0
30790,-0.477051,-0.602539,0.598633,0
30810,-0.47998,-0.600098,0.595703,0
30830,-0.483887,-0.605957,0.598145,0
30850,-0.478516,-0.601074,0.599609,0
30870,-0.478027,-0.603516,0.601074,0
30890,-0.479004,-0.601562,0.592285,0
30910,-0.476074,-0.600098,0.589355,0
30930,-0.478027,-0.602051,0.598633,0
30950,-0.470703,-0.599121,0.602539,0
30970,-0.477539,-0.601074,0.598633,0
30990,-0.47998,-0.605957,0.596191,0
31010,-0.482422,-0.598633,0.602051,0
31030,-0.478027,-0.602539,0.593262,0
31050,-0.477539,-0.598633,0.600586,0
31070,-0.474609,-0.598145,0.598145,0
31090,-0.478516,-0.600586,0.599609,0
31110,-0.477539,-0.598633,0.605957,0
31130,-0.47998,-0.601562,0.603516,0
31150,-0.481445,-0.602051,0.606934,0
31170,-0.476562,-0.599121,0.600098,0
31190,-0.472168,-0.600586,0.601562,0
31210,-0.473145,-0.601074,0.599121,0
31230,-0.478027,-0.603027,0.598145,0
31240,-0.473145,-0.602051,0.59668,0
31260,-0.47168,-0.602051,0.600098,0
31280,-0.478027,-0.600098,0.599609,0
31290,-0.476562,-0.594727,0.599609,0
31310,-0.475098,-0.602051,0.599121,0
31330,-0.477539,-0.59668,0.597656,0
31350,-0.476074,-0.599609,0.603027,0
31370,-0.479004,-0.596191,0.603027,0
31390,-0.474121,-0.601562,0.599121,0
31410,-0.478027,-0.601562,0.596191,0
31430,-0.474121,-0.600098,0.603516,0
31450,-0.478027,-0.599121,0.603516,0
31470,-0.474121,-0.600586,0.601562,0
31480,-0.46875,-0.595215,0.59668,0
31500,-0.478027,-0.596191,0.601562,0
31520,-0.48291,-0.599609,0.609375,0
31540,-0.477051,-0.599121,0.603516,0
31560,-0.480469,-0.602051,0.601562,0
31580,-0.471191,-0.603027,0.589844,0
31600,-0.47168,-0.604004,0.59375,0
31620,-0.471191,-0.599121,0.600098,0
31640,-0.476562,-0.602051,0.605469,0
31660,-0.477051,-0.598145,0.598633,0
31680,-0.476074,-0.599609,0.598633,0
31700,-0.480957,-0.602539,0.602051,0
31720,-0.476074,-0.597656,0.598145,0
31730,-0.475586,-0.605957,0.593262,0
31750,-0.476074,-0.597168,0.595215,0
31770,-0.46875,-0.59668,0.600586,0
31790,-0.47998,-0.595215,0.604004,0
31810,-0.473633,-0.600098,0.602539,0
31830,-0.476562,-0.599609,0.604004,0
31850,-0.478516,-0.604492,0.599121,0
31870,-0.474121,-0.598145,0.593262,0
31890,-0.471191,-0.598145,0.598633,0
31900,-0.478516,-0.593262,0.604492,0
31920,-0.476074,-0.599121,0.598633,0
31940,-0.474121,-0.598145,0.60498,0
31950,-0.476562,-0.603027,0.598633,0
31970,-0.474121,-0.595703,0.599609,0
31990,-0.476562,-0.603516,0.596191,0
32010,-0.472168,-0.602051,0.598145,0
32030,-0.475586,-0.600098,0.604004,0
32050,-0.474121,-0.601562,0.597656,0
32070,-0.474609,-0.597168,0.605469,0
32090,-0.480469,-0.604492,0.602051,0
32110,-0.477051,-0.594238,0.594727,0
32130,-0.475586,-0.599121,0.593262,0
32150,-0.472656,-0.600098,0.597656,0
32170,-0.473145,-0.601074,0.601562,0
32190,-0.479492,-0.606445,0.594727,0
32210,-0.479492,-0.601074,0.600098,0
32230,-0.479004,-0.600098,0.593262,0
32250,-0.478516,-0.601562,0.600586,0
32270,-0.477051,-0.59668,0.601074,0
32290,-0.473633,-0.60498,0.598145,0
32310,-0.472656,-0.59668,0.595703,0
32330,-0.472168,-0.603027,0.600586,0
32350,-0.479492,-0.603516,0.607422,0
32370,-0.482422,-0.601562,0.599609,0
32390,-0.48584,-0.606934,0.59668,0
32410,-0.472168,-0.598633,0.59375,0
32430,-0.468262,-0.602539,0.591797,0
32450,-0.474121,-0.598633,0.597168,0
32470,-0.476074,-0.599121,0.601562,0
32490,-0.480957,-0.601562,0.597168,0
32510,-0.478027,-0.595703,0.595215,0
32530,-0.480957,-0.600586,0.601562,0
32550,-0.476074,-0.599121,0.596191,0
32570,-0.477051,-0.603516,0.592285,0
32590,-0.474121,-0.604004,0.596191,0
32610,-0.476074,-0.598145,0.594238,0
32630,-0.474121,-0.603027,0.600098,0
32650,-0.480469,-0.59668,0.602539,0
32670,-0.480469,-0.594238,0.600098,0
32690,-0.480469,-0.603516,0.593262,0
32710,-0.480469,-0.594238,0.600098,0
32730,-0.477051,-0.600586,0.596191,0
32760,-0.480469,-0.597168,0.597168,0
32780,-0.481445,-0.602051,0.600098,0
32800,-0.481934,-0.599609,0.597656,0
32820,-0.480957,-0.601074,0.599121,0
32840,-0.479492,-0.598633,0.600098,0
32860,-0.478516,-0.604004,0.596191,0
32880,-0.483398,-0.605469,0.595215,0
32900,-0.48291,-0.597168,0.600098,0
32920,-0.482422,-0.598145,0.600586,0
32940,-0.479492,-0.599121,0.599609,0
32960,-0.483398,-0.605469,0.595215,0
32980,-0.485352,-0.603027,0.589355,0
33000,-0.481934,-0.594727,0.589355,0
33020,-0.483398,-0.605469,0.597168,0
33040,-0.481445,-0.597168,0.589844,0
33060,-0.485352,-0.602539,0.593262,0
33080,-0.481934,-0.609375,0.585938,0
33100,-0.481445,-0.598633,0.589355,0
33120,-0.484863,-0.606445,0.59082,0
33140,-0.484375,-0.600098,0.580078,0
33160,-0.480957,-0.599609,0.585938,0
33180,-0.487305,-0.598633,0.586426,0
33200,-0.484863,-0.60498,0.592773,0
33220,-0.487793,-0.611328,0.594727,0
33230,-0.492676,-0.597656,0.583496,0
33250,-0.490234,-0.604492,0.58252,0
33250,-0.484863,-0.603516,0.57373,0
33270,-0.485352,-0.60791,0.581543,0
33290,-0.491211,-0.614258,0.587402,0
33310,-0.484375,-0.607422,0.583984,0
33330,-0.484375,-0.613281,0.586426,0
33350,-0.482422,-0.609863,0.583984,0
33370,-0.48291,-0.608887,0.58252,0
33390,-0.484375,-0.611328,0.587891,0
33410,-0.486816,-0.603516,0.584961,0
33430,-0.483398,-0.60498,0.583008,0
33450,-0.479004,-0.602539,0.590332,0
33470,-0.47998,-0.596191,0.584473,0
33490,-0.48584,-0.608398,0.591797,0
33510,-0.488281,-0.601562,0.586914,0
33530,-0.494141,-0.608887,0.587402,0
33550,-0.487793,-0.605469,0.58252,0
33570,-0.482422,-0.609375,0.587402,0
33590,-0.486328,-0.608398,0.587402,0
33610,-0.486816,-0.609375,0.590332,0
33630,-0.486328,-0.608887,0.583496,0
33640,-0.483887,-0.607422,0.592285,0
33660,-0.48584,-0.611816,0.583496,0
33680,-0.479004,-0.612305,0.577637,0
33700,-0.478516,-0.601074,0.585938,0
33720,-0.483398,-0.608887,0.577637,0
33740,-0.479004,-0.609863,0.587402,0
33760,-0.481934,-0.606445,0.589355,0
33780,-0.487305,-0.60791,0.597168,0
33800,-0.48584,-0.605469,0.585449,0
33820,-0.484375,-0.615723,0.592285,0
33840,-0.484375,-0.609863,0.59082,0
33860,-0.483398,-0.614746,0.587891,0
33880,-0.47998,-0.604492,0.589844,0
33900,-0.474609,-0.601562,0.589844,0
33920,-0.477051,-0.604492,0.594727,0
33940,-0.476562,-0.599121,0.594238,0
33960,-0.479004,-0.599609,0.587891,0
33980,-0.478516,-0.600098,0.591309,0
34000,-0.474609,-0.598633,0.585449,0
34020,-0.485352,-0.60791,0.603027,0
34040,-0.484375,-0.609375,0.598633,0
34060,-0.481934,-0.612305,0.591309,0
34080,-0.483887,-0.605957,0.586426,0
34100,-0.477051,-0.610352,0.584473,0
34120,-0.47998,-0.611816,0.588379,0
34140,-0.478516,-0.609863,0.597168,0
34160,-0.481445,-0.60791,0.59375,0
34180,-0.479492,-0.606934,0.596191,0
34200,-0.479492,-0.607422,0.594727,0
34220,-0.483398,-0.608398,0.59375,0
34240,-0.478516,-0.602051,0.592285,0
34260,-0.480469,-0.60791,0.594727,0
34280,-0.472656,-0.600098,0.588867,0
34290,-0.476074,-0.605957,0.594238,0
34310,-0.477051,-0.604004,0.595215,0
34330,-0.476074,-0.602539,0.59375,0
34350,-0.480957,-0.609375,0.594238,0
34370,-0.483887,-0.603516,0.59082,0
34390,-0.477051,-0.606445,0.591309,0
34410,-0.478516,-0.601074,0.587402,0
34430,-0.479004,-0.601562,0.588867,0
34450,-0.478027,-0.608398,0.591309,0
34470,-0.479492,-0.605469,0.591797,0
34490,-0.48291,-0.609863,0.594238,0
34510,-0.480469,-0.609863,0.588379,0
34530,-0.478027,-0.606445,0.585938,0
34550,-0.477539,-0.609863,0.593262,0
34560,-0.47998,-0.608398,0.585938,0
34580,-0.480957,-0.604004,0.590332,0
34600,-0.479492,-0.607422,0.587402,0
34620,-0.481445,-0.602051,0.590332,0
34640,-0.481934,-0.610352,0.587891,0
34660,-0.482422,-0.604004,0.593262,0
34680,-0.47998,-0.605469,0.590332,0
34700,-0.477051,-0.60498,0.591309,0
34720,-0.476562,-0.603027,0.591309,0
34740,-0.481934,-0.604492,0.588867,0
34760,-0.480469,-0.604004,0.591309,0
34780,-0.48584,-0.604004,0.586426,0
34800,-0.480957,-0.604004,0.583008,0
34820,-0.481445,-0.60498,0.595703,0
34840,-0.482422,-0.611816,0.584961,0
34870,-0.478516,-0.60791,0.592773,0
34890,-0.487305,-0.601074,0.599609,0
34910,-0.483398,-0.60791,0.589355,0
34930,-0.48584,-0.607422,0.588867,0
34950,-0.477539,-0.606445,0.577637,0
34970,-0.476074,-0.612305,0.587891,0
34990,-0.477051,-0.608887,0.587891,0
35010,-0.480469,-0.608398,0.587891,0
35030,-0.481445,-0.603516,0.592773,0
35050,-0.477539,-0.60791,0.591797,0
35070,-0.483398,-0.608887,0.589844,0
35090,-0.481934,-0.604492,0.585938,0
35110,-0.478516,-0.607422,0.594727,0
35130,-0.478516,-0.611328,0.589844,0
35150,-0.480957,-0.606934,0.588867,0
35170,-0.479004,-0.608398,0.598633,0
35190,-0.487305,-0.599609,0.597168,0
35210,-0.48291,-0.606934,0.607422,0
35230,-0.466797,-0.615234,0.582031,0
35250,-0.484375,-0.59082,0.594238,0
35270,-0.483398,-0.605957,0.583008,0
35290,-0.475098,-0.606934,0.59668,0
35310,-0.474609,-0.587402,0.589355,0
35330,-0.479492,-0.60791,0.592285,0
35350,-0.482422,-0.595703,0.59668,0
35370,-0.482422,-0.608887,0.59375,0
35390,-0.476562,-0.606445,0.590332,0
35410,-0.481934,-0.604492,0.591797,0
35430,-0.476562,-0.611328,0.590332,0
35450,-0.477539,-0.612793,0.593262,0
35470,-0.480957,-0.603027,0.59375,0
35490,-0.480469,-0.602051,0.592285,0
35510,-0.483887,-0.60498,0.59375,0
35530,-0.481445,-0.604004,0.594238,0
35550,-0.481445,-0.597656,0.586914,0
35570,-0.482422,-0.601562,0.600098,0
35590,-0.480469,-0.600098,0.598633,0
35610,-0.480469,-0.602539,0.594727,0
35630,-0.484863,-0.597656,0.589844,0
35650,-0.479004,-0.598145,0.600098,0
35670,-0.480957,-0.600586,0.597168,0
35690,-0.476562,-0.600586,0.597168,0
35710,-0.477051,-0.600098,0.596191,0
35730,-0.478516,-0.595703,0.589844,0
35750,-0.475098,-0.595215,0.589355,0
35770,-0.480469,-0.602051,0.602051,0
35790,-0.482422,-0.597656,0.605469,0
35810,-0.481934,-0.603516,0.595215,0
35830,-0.484375,-0.593262,0.597168,0
35850,-0.479492,-0.594238,0.592773,0
35870,-0.479004,-0.604492,0.594238,0
35890,-0.479492,-0.600586,0.599609,0
35910,-0.48291,-0.602051,0.601562,0
35930,-0.481934,-0.600098,0.595215,0
35950,-0.481445,-0.604492,0.592773,0
35970,-0.483398,-0.600586,0.591309,0
35990,-0.482422,-0.59668,0.594238,0
36010,-0.48291,-0.603516,0.593262,0
36030,-0.480469,-0.596191,0.587891,0
36050,-0.477051,-0.59668,0.597656,0
36070,-0.482422,-0.595703,0.602051,0
36090,-0.480469,-0.598633,0.600586,0
36110,-0.479004,-0.598145,0.604492,0
36130,-0.47998,-0.599121,0.597168,0
36150,-0.477051,-0.601074,0.594238,0
36170,-0.47998,-0.60498,0.595703,0
36190,-0.479492,-0.596191,0.598145,0
36210,-0.477051,-0.604004,0.59668,0
36230,-0.483887,-0.598633,0.601074,0
36250,-0.484375,-0.598145,0.597656,0
36270,-0.484863,-0.602539,0.591309,0
36290,-0.476074,-0.602051,0.598633,0
36310,-0.481934,-0.605469,0.587891,0
36330,-0.474609,-0.598633,0.59375,0
36350,-0.477539,-0.600586,0.59082,0
36370,-0.478027,-0.598145,0.595703,0
36390,-0.480469,-0.601074,0.594727,0
36410,-0.481445,-0.601562,0.594727,0
36430,-0.485352,-0.59375,0.601562,0
36450,-0.479492,-0.600586,0.593262,0
36470,-0.478027,-0.599609,0.594238,0
36490,-0.478516,-0.601074,0.59668,0
36510,-0.480469,-0.604004,0.598145,0
36530,-0.476562,-0.599121,0.589355,0
36540,-0.476074,-0.602051,0.594727,0
36560,-0.473145,-0.598633,0.601562,0
36580,-0.474609,-0.594727,0.602539,0
36600,-0.480957,-0.601074,0.606445,0
36620,-0.47998,-0.598633,0.606445,0
36640,-0.481934,-0.599609,0.598633,0
36660,-0.474121,-0.59668,0.594727,0
36680,-0.477539,-0.605957,0.589355,0
36700,-0.478027,-0.608398,0.59668,0
36720,-0.481934,-0.597656,0.595215,0
36740,-0.47998,-0.606445,0.600586,0
36760,-0.479492,-0.598145,0.594727,0
36780,-0.475586,-0.602051,0.597656,0
36800,-0.476562,-0.59375,0.604004,0
36820,-0.479004,-0.601074,0.59082,0
36840,-0.473145,-0.600586,0.599121,0
36860,-0.476562,-0.595703,0.603516,0
36880,-0.476562,-0.601074,0.597168,0
36900,-0.478516,-0.598145,0.601074,0
36920,-0.480957,-0.604492,0.599609,0
36940,-0.477051,-0.598633,0.601074,0
36960,-0.472656,-0.603516,0.595215,0
36980,-0.475098,-0.599121,0.600586,0
37000,-0.475098,-0.599609,0.599609,0
37020,-0.478516,-0.600098,0.602539,0
37040,-0.474609,-0.600586,0.600098,0
37060,-0.474609,-0.601562,0.606445,0
37080,-0.474609,-0.603027,0.597168,0
37100,-0.473145,-0.603516,0.593262,0
37120,-0.477051,-0.603516,0.59668,0
37140,-0.473145,-0.601562,0.596191,0
37160,-0.473633,-0.601074,0.59375,0
37180,-0.479492,-0.599121,0.597656,0
37200,-0.473633,-0.598633,0.598633,0
37220,-0.47998,-0.606445,0.60498,0
37240,-0.473145,-0.599121,0.594238,0
37260,-0.473145,-0.598633,0.594238,0
37280,-0.475586,-0.600098,0.601074,0
37300,-0.477539,-0.601074,0.598145,0
37320,-0.477051,-0.602539,0.593262,0
37340,-0.476074,-0.59668,0.595703,0
37360,-0.475098,-0.602051,0.601562,0
37380,-0.475586,-0.598633,0.598145,0
37400,-0.473633,-0.596191,0.594238,0
37420,-0.471191,-0.600098,0.594238,0
37440,-0.47168,-0.598145,0.602539,0
37470,-0.479004,-0.601562,0.602051,0
37490,-0.477539,-0.59668,0.593262,0
37510,-0.473633,-0.60498,0.589844,0
37530,-0.470703,-0.601562,0.59668,0
37560,-0.47998,-0.600098,0.602539,0
37580,-0.476074,-0.602051,0.601562,0
37600,-0.476562,-0.598633,0.60498,0
37620,-0.474121,-0.600586,0.596191,0
37640,-0.474609,-0.602051,0.595703,0
37660,-0.474121,-0.600586,0.599121,0
37680,-0.472656,-0.599609,0.600586,0
37700,-0.472656,-0.59668,0.595215,0
37720,-0.474121,-0.595703,0.60498,0
37740,-0.474609,-0.599609,0.600098,0
37760,-0.480957,-0.599121,0.600098,0
37780,-0.479492,-0.601074,0.596191,0
37800,-0.476074,-0.600586,0.600098,0
37820,-0.471191,-0.596191,0.595215,0
37840,-0.473145,-0.597168,0.602051,0
37860,-0.47168,-0.597656,0.601074,0
37880,-0.471191,-0.602539,0.601562,0
37900,-0.477539,-0.601562,0.607422,0
37920,-0.476074,-0.602051,0.600098,0
37940,-0.475586,-0.605469,0.597656,0
37960,-0.47168,-0.602539,0.600586,0
37980,-0.472656,-0.603516,0.596191,0
38000,-0.477051,-0.597168,0.597168,0
38020,-0.473145,-0.601074,0.600098,0
38040,-0.48291,-0.598633,0.604492,0
38060,-0.481934,-0.59668,0.599121,0
38080,-0.474609,-0.600586,0.59668,0
38100,-0.476562,-0.59668,0.600098,0
38120,-0.476562,-0.598145,0.591309,0
38140,-0.478027,-0.600586,0.601074,0
38160,-0.474609,-0.594727,0.603027,0
38180,-0.47998,-0.601562,0.597656,0
38200,-0.477051,-0.600098,0.598633,0
38220,-0.475586,-0.594727,0.594238,0
38240,-0.474121,-0.60791,0.601562,0
38260,-0.474609,-0.602051,0.59375,0
38280,-0.474609,-0.604492,0.595215,0
38300,-0.475586,-0.600098,0.595703,0
38320,-0.476562,-0.600098,0.603027,0
38340,-0.481934,-0.602051,0.601074,0
38360,-0.479004,-0.600586,0.599609,0
38380,-0.474609,-0.605469,0.598633,0
38400,-0.470703,-0.602051,0.59668,0
38420,-0.46875,-0.602051,0.597168,0
38440,-0.477051,-0.599121,0.594238,0
38460,-0.479492,-0.596191,0.599121,0
38480,-0.479004,-0.596191,0.602051,0
38500,-0.477051,-0.603516,0.598633,0
38520,-0.479492,-0.600586,0.595703,0
38540,-0.475586,-0.605957,0.600098,0
38560,-0.477539,-0.602051,0.600586,0
38570,-0.470703,-0.603027,0.594727,0
38590,-0.471191,-0.597168,0.603027,0
38610,-0.476074,-0.595703,0.597656,0
38630,-0.477051,-0.603516,0.598145,0
38650,-0.478516,-0.594727,0.600098,0
38670,-0.480957,-0.604004,0.597656,0
38690,-0.477539,-0.59668,0.594727,0
38710,-0.473145,-0.598145,0.592285,0
38730,-0.479004,-0.600586,0.597656,0
38750,-0.479004,-0.603027,0.601562,0
38770,-0.482422,-0.605957,0.597656,0
38790,-0.480469,-0.597168,0.595703,0
38810,-0.472656,-0.603516,0.598145,0
38830,-0.478516,-0.598633,0.594727,0
38850,-0.479004,-0.59668,0.592285,0
38870,-0.479492,-0.604492,0.594238,0
38890,-0.477539,-0.601074,0.594238,0
38910,-0.479492,-0.602051,0.59668,0
38930,-0.481445,-0.604004,0.591797,0
38950,-0.480469,-0.598633,0.596191,0
38970,-0.47998,-0.604004,0.59668,0
38990,-0.47998,-0.598633,0.600098,0
39010,-0.483887,-0.600586,0.591309,0
39030,-0.488281,-0.59375,0.605957,0
39050,-0.477539,-0.586426,0.598633,0
39070,-0.473145,-0.592773,0.600586,0
39090,-0.47168,-0.594727,0.600586,0
39110,-0.481445,-0.596191,0.59375,0
39130,-0.476562,-0.600586,0.587402,0
39150,-0.479492,-0.59082,0.600586,0
39170,-0.47998,-0.601074,0.603027,0
39190,-0.478027,-0.595703,0.61084,0
39210,-0.486328,-0.598633,0.600098,0
39230,-0.483398,-0.597656,0.595215,0
39250,-0.477539,-0.592773,0.589844,0
39270,-0.479004,-0.598145,0.59082,0
39290,-0.476074,-0.598145,0.601074,0
39310,-0.486328,-0.603516,0.60498,0
39330,-0.485352,-0.599121,0.602051,0
39350,-0.484375,-0.597656,0.599609,0
39370,-0.481445,-0.602539,0.593262,0
39390,-0.479004,-0.599121,0.597168,0
39410,-0.477539,-0.601562,0.594727,0
39430,-0.478516,-0.595215,0.594238,0
39450,-0.475586,-0.592773,0.596191,0
39470,-0.47998,-0.595215,0.594727,0
39500,-0.479004,-0.598633,0.604004,0
39520,-0.479004,-0.602539,0.591797,0
39540,-0.478516,-0.602051,0.590332,0
39560,-0.484863,-0.599121,0.59082,0
39580,-0.478027,-0.596191,0.59375,0
39600,-0.480957,-0.605469,0.59375,0
39620,-0.480957,-0.589355,0.609375,0
39640,-0.476562,-0.600098,0.592285,0
39670,-0.481934,-0.598633,0.601562,0
39690,-0.475098,-0.612305,0.59668,0
39710,-0.483887,-0.602051,0.599121,0
39730,-0.48584,-0.604004,0.59668,0
39750,-0.481445,-0.601074,0.59375,0
39770,-0.478027,-0.591797,0.60791,0
39790,-0.48584,-0.594238,0.597656,0
39810,-0.482422,-0.591797,0.601074,0
39830,-0.47998,-0.592285,0.600098,0
39850,-0.482422,-0.594238,0.606445,0
39870,-0.482422,-0.594727,0.601562,0
39890,-0.483887,-0.602051,0.602539,0
39910,-0.484375,-0.597168,0.602539,0
39920,-0.476562,-0.599609,0.597168,0
39940,-0.471191,-0.588379,0.593262,0
39960,-0.472168,-0.586426,0.601074,0
39980,-0.475586,-0.595215,0.606445,0
40000,-0.484375,-0.591309,0.616211,0
40020,-0.48584,-0.599121,0.605469,0
40040,-0.479492,-0.598145,0.602539,0
40060,-0.48291,-0.603027,0.594727,0
40080,-0.500488,-0.634277,0.587891,0
40100,-0.500488,-0.610352,0.603027,0
40120,-0.510254,-0.651367,0.601074,0
40140,-0.508789,-0.633301,0.604004,0
40160,-0.503418,-0.615723,0.652344,0
40190,-0.40332,-0.584473,0.667969,0
40200,-0.395996,-0.594727,0.658691,0
40220,-0.404785,-0.601562,0.636719,0
40240,-0.407715,-0.583496,0.63623,0
40260,-0.384766,-0.59082,0.657715,0
40280,-0.32373,-0.615723,0.630859,0
40300,-0.34082,-0.652344,0.618164,0
40320,-0.360352,-0.673828,0.629883,0
40340,-0.359375,-0.679688,0.629883,0
40360,-0.378418,-0.672363,0.641602,0
40380,-0.366699,-0.665527,0.625,0
40400,-0.357422,-0.681641,0.635742,0
40420,-0.342773,-0.682617,0.624512,0
40440,-0.343262,-0.700684,0.62207,0
40460,-0.340332,-0.696289,0.622559,0
40480,-0.340332,-0.676758,0.62207,0
40500,-0.338379,-0.67334,0.635254,0
40520,-0.316406,-0.673828,0.625,0
40540,-0.302734,-0.684082,0.628906,0
40560,-0.283691,-0.6875,0.621094,0
40580,-0.265625,-0.682129,0.612793,0
40600,-0.251953,-0.682617,0.630371,0
40620,-0.231934,-0.674805,0.614746,0
40640,-0.209473,-0.686523,0.616699,0
40660,-0.189941,-0.6875,0.608398,0
40680,-0.188965,-0.699707,0.611816,0
40700,-0.17334,-0.698242,0.609375,0
40720,-0.152832,-0.703613,0.604492,0
40740,-0.142578,-0.717285,0.598633,0
40760,-0.126953,-0.719238,0.595215,0
40780,-0.113281,-0.729004,0.606445,0
40800,-0.0932617,-0.730957,0.613281,0
40820,-0.0649414,-0.733398,0.602051,0
40840,-0.0473633,-0.741211,0.589355,0
40860,-0.0390625,-0.73584,0.611816,0
40880,-0.0371094,-0.763672,0.615723,0
40900,-0.00341797,-0.771973,0.586914,0
40920,0.0356445,-0.779297,0.579102,0
40940,-0.0166016,-0.785156,0.558105,0
40960,0.00830078,-0.768066,0.559082,0
40980,0.0131836,-0.755859,0.57666,0
41000,0.012207,-0.709473,0.562012,0
41020,0.019043,-0.722656,0.584961,0
41040,0.0366211,-0.724121,0.558594,0
41060,0.0288086,-0.725586,0.516602,0
41080,0.0625,-0.708008,0.51416,0
41100,0.134277,-0.726562,0.505859,0
41120,0.126465,-0.782227,0.561035,0
41140,0.109375,-0.855469,0.592285,0
41160,0.0595703,-0.889648,0.554688,0
41180,0.0664062,-0.892578,0.541504,0
41200,0.0561523,-0.885742,0.53125,0
41220,0.059082,-0.871582,0.506836,0
41240,0.0654297,-0.878418,0.508789,0
41260,0.0571289,-0.875,0.484375,0
41280,0.0307617,-0.848145,0.493652,0
41300,0.0649414,-0.867676,0.47168,0
41320,0.0839844,-0.854492,0.459473,0
41340,0.0805664,-0.85791,0.475098,0
41360,0.0927734,-0.840332,0.463867,0
41380,0.078125,-0.819824,0.44043,0
41400,0.0522461,-0.807129,0.45459,0
41420,0.0805664,-0.794434,0.490723,0
41440,0.0976562,-0.802246,0.468262,0
41460,0.116699,-0.818848,0.446289,0
41480,0.097168,-0.831055,0.429688,0
41500,0.115723,-0.822754,0.419922,0
41520,0.116699,-0.80957,0.431152,0
41540,0.104004,-0.817383,0.437012,0
41560,0.0883789,-0.836914,0.439941,0
41580,0.10498,-0.863281,0.414062,0
41600,0.124512,-0.846191,0.425293,0
41620,0.129883,-0.822266,0.410156,0
41640,0.124023,-0.82373,0.427734,0
41660,0.124512,-0.845703,0.418457,0
41680,0.130859,-0.843262,0.416504,0
41700,0.129395,-0.822266,0.409668,0
41720,0.144531,-0.812012,0.424805,0
41740,0.155762,-0.837891,0.433594,0
41760,0.166992,-0.848633,0.415039,0
41780,0.167969,-0.840332,0.41748,0
41800,0.165039,-0.82959,0.431641,0
41820,0.190918,-0.837402,0.422363,0
41840,0.191895,-0.833008,0.434082,0
41860,0.205078,-0.84668,0.421387,0
41870,0.192871,-0.845215,0.445801,0
41890,0.180176,-0.821289,0.452148,0
41910,0.200195,-0.822266,0.464355,0
41930,0.212891,-0.841797,0.443359,0
41950,0.197754,-0.830078,0.463379,0
41970,0.197266,-0.804199,0.493164,0
41990,0.240723,-0.814453,0.463379,0
42010,0.229492,-0.786621,0.466309,0
42030,0.209961,-0.800293,0.449219,0
42050,0.203613,-0.805176,0.457031,0
42070,0.19873,-0.792969,0.469727,0
42090,0.209473,-0.79248,0.470215,0
42110,0.229492,-0.814941,0.485352,0
42130,0.254883,-0.846191,0.474609,0
42150,0.27002,-0.867676,0.46875,0
42170,0.278809,-0.869141,0.480957,0
42190,0.290039,-0.869629,0.513672,0
42210,0.329102,-0.913086,0.473633,0
42230,0.330566,-0.869629,0.513672,0
42250,0.298828,-0.83252,0.590332,0
42270,0.363281,-0.844727,0.530762,0
42290,0.363281,-0.889648,0.42334,0
42310,0.349609,-0.901855,0.387695,0
42330,0.318848,-0.873047,0.370605,0
42350,0.286621,-0.871582,0.375977,0
42370,0.258789,-0.836914,0.393555,0
42390,0.246582,-0.82666,0.390137,0
42410,0.256348,-0.814453,0.366211,0
42430,0.291016,-0.79248,0.351562,0
42450,0.269531,-0.731934,0.387207,0
42470,0.249023,-0.719238,0.367676,0
42490,0.239258,-0.729492,0.340332,0
42510,0.225586,-0.770508,0.337402,0
42530,0.201172,-0.78125,0.373535,0
42550,0.187988,-0.762207,0.389648,0
42570,0.193359,-0.762695,0.376465,0
42590,0.206055,-0.775879,0.378906,0
42610,0.238281,-0.783203,0.377441,0
42630,0.238281,-0.827148,0.424316,0
42650,0.233887,-0.858398,0.445312,0
42670,0.205078,-0.879883,0.484375,0
42690,0.176758,-0.891113,0.469727,0
42710,0.20459,-0.88916,0.477539,0
42730,0.182129,-0.868164,0.445312,0
42750,0.188965,-0.84082,0.436523,0
42770,0.211426,-0.879395,0.397461,0
42790,0.230957,-0.874023,0.394531,0
42810,0.230957,-0.867676,0.406738,0
42830,0.243652,-0.87793,0.448242,0
42850,0.331543,-0.893066,0.455566,0
42870,0.375488,-0.87793,0.483398,0
42890,0.40332,-0.864746,0.45459,0
42910,0.450195,-0.849609,0.45752,0
42930,0.458008,-0.826172,0.401367,0
42950,0.446777,-0.801758,0.364258,0
42970,0.378418,-0.791016,0.367188,0
42990,0.333008,-0.768555,0.347656,0
43010,0.319824,-0.792969,0.302734,0
43030,0.276855,-0.743652,0.291992,0
43050,0.241699,-0.745605,0.282715,0
43070,0.228516,-0.765137,0.240234,0
43090,0.19873,-0.78418,0.187988,0
43110,0.143066,-0.777344,0.148926,0
43130,0.100098,-0.746094,0.120605,0
43150,0.0678711,-0.745117,0.134766,0
43170,0.0107422,-0.742676,0.155273,0
43190,-0.0463867,-0.751465,0.122559,0
43210,-0.0908203,-0.79834,0.0698242,0
43230,-0.0117188,-0.805176,0.0449219,0
43250,0.0605469,-0.817383,0.0532227,0
43270,0.034668,-0.812988,0.132324,0
43290,-0.0117188,-0.780762,0.179688,0
43310,-0.0644531,-0.766602,0.166016,0
43330,-0.0600586,-0.768066,0.268555,0
43350,-0.0141602,-0.816895,0.388184,0
43370,0.0488281,-0.869141,0.495605,0
43390,0.0151367,-0.902832,0.520996,0
43410,0.0258789,-0.981934,0.48877,0
43430,0.0585938,-1.04199,0.564453,0
43450,0.0776367,-1.10498,0.617676,0
43470,0.046875,-1.10938,0.569824,0
43490,0.0351562,-1.13232,0.547363,0
43510,0.0625,-1.1709,0.505859,0
43530,0.00292969,-1.13135,0.538086,0
43550,-0.0625,-1.09766,0.504883,0
43570,-0.0869141,-1.05908,0.518066,0
43590,-0.0859375,-1.00586,0.500977,0
43610,-0.0947266,-0.960449,0.499512,0
43630,-0.15918,-0.941406,0.526855,0
43650,-0.170898,-0.935059,0.456543,0
43670,-0.190918,-0.922363,0.462891,0
43690,-0.233398,-0.853516,0.500488,0
43710,-0.248047,-0.782715,0.500488,0
43730,-0.277344,-0.790039,0.490234,0
43750,-0.276855,-0.805176,0.490723,0
43770,-0.296387,-0.812988,0.458008,0
43790,-0.337891,-0.82666,0.45752,0
43810,-0.352051,-0.852051,0.471191,0
43830,-0.361328,-0.840332,0.462402,0
43850,-0.350586,-0.784668,0.461914,0
43870,-0.389648,-0.730957,0.516113,0
43890,-0.334473,-0.754395,0.557129,0
43910,-0.290039,-0.710449,0.55127,0
43930,-0.285156,-0.73291,0.556641,0
43950,-0.284668,-0.753418,0.594727,0
43970,-0.240234,-0.778809,0.598145,0
43990,-0.25293,-0.778809,0.652344,0
44010,-0.165039,-0.876953,0.625488,0
44030,-0.0551758,-0.998047,0.533203,0
44050,0.0493164,-0.965332,0.424316,0
44070,0.0297852,-0.920898,0.408691,0
44090,0.0996094,-0.968262,0.549316,0
44110,0.0541992,-0.884277,0.674805,0
44130,0.144531,-0.898438,0.597168,0
44150,0.0898438,-0.694336,0.571289,0
44170,0.123535,-0.589844,0.59668,0
44190,0.156738,-0.588379,0.650879,0
44210,0.178223,-0.673828,0.637207,0
44230,0.0947266,-0.706055,0.620117,0
44250,0.0551758,-0.727051,0.561035,0
44270,-0.0126953,-0.743164,0.568848,0
44290,-0.0395508,-0.722656,0.582031,0
44310,-0.177246,-0.720215,0.54834,0
44330,-0.533691,-0.695312,0.44043,0
44350,-0.151367,-0.803223,0.469238,0
44370,-0.0400391,-0.937012,0.541504,0
44390,-0.178711,-0.701172,0.535156,0
44410,0.0380859,-0.730469,0.536621,0
44430,0.0185547,-0.713379,0.571777,0
44450,-0.116211,-0.687012,0.571777,0
44470,0.0185547,-0.77832,0.620117,0
44490,0.0302734,-0.76416,0.600586,0
44510,0.0527344,-0.743652,0.56543,0
44530,0.0742188,-0.735352,0.538086,0
44550,0.0615234,-0.689941,0.56543,0
44570,0.0571289,-0.711426,0.566895,0
44590,0.0532227,-0.785156,0.606934,0
44610,0.0717773,-0.806641,0.588379,0
44630,0.0654297,-0.783691,0.615723,0
44650,0.0605469,-0.80127,0.647949,0
44670,0.0537109,-0.826172,0.641602,0
44690,0.0629883,-0.833008,0.611816,0
44710,0.0917969,-0.799316,0.57959,0
44730,0.117676,-0.797852,0.615234,0
44750,0.090332,-0.80127,0.585938,0
44770,0.0219727,-0.790039,0.587402,0
44790,0.0727539,-0.734863,0.583984,0
44810,0.0830078,-0.710449,0.576172,0
44830,0.0698242,-0.696289,0.61377,0
44850,0.0566406,-0.717773,0.626465,0
44870,0.119141,-0.745117,0.594727,0
44890,0.0898438,-0.755859,0.540527,0
44910,0.10791,-0.78418,0.549805,0
44930,0.120117,-0.79834,0.549805,0
44950,0.151855,-0.806152,0.522461,0
44970,0.165527,-0.810547,0.496094,0
44990,0.150879,-0.844727,0.513184,0
45010,0.143066,-0.836426,0.512695,0
45030,0.14209,-0.817871,0.531738,0
45050,0.132812,-0.818848,0.523438,0
45070,0.166504,-0.800293,0.513184,0
45090,0.15918,-0.794922,0.507812,0
45110,0.15918,-0.779785,0.498535,0
45130,0.131836,-0.770508,0.487305,0
45150,0.119629,-0.755859,0.46582,0
45170,0.123535,-0.730957,0.475098,0
45190,0.110352,-0.742188,0.496094,0
45210,0.11377,-0.733887,0.512695,0
45230,0.125977,-0.727051,0.502441,0
45250,0.12793,-0.726074,0.518555,0
45270,0.132812,-0.739746,0.530762,0
45290,0.115723,-0.757812,0.517578,0
45310,0.103027,-0.762695,0.487305,0
45330,0.10791,-0.781738,0.5,0
45340,0.101562,-0.790527,0.50293,0
45360,0.119629,-0.798828,0.485352,0
45380,0.14209,-0.813477,0.462402,0
45400,0.151855,-0.81543,0.470703,0
45420,0.154297,-0.808105,0.465332,0
45440,0.162109,-0.812988,0.484863,0
45460,0.172363,-0.808594,0.495605,0
45480,0.174316,-0.803223,0.499023,0
45500,0.168945,-0.792969,0.508789,0
45520,0.18457,-0.794434,0.515625,0
45540,0.187988,-0.789062,0.516113,0
45560,0.19043,-0.802734,0.536621,0
45580,0.179688,-0.803711,0.541504,0
45600,0.209961,-0.800293,0.546875,0
45620,0.193848,-0.804688,0.546387,0
45640,0.208984,-0.819824,0.552246,0
45660,0.20166,-0.820801,0.544922,0
45680,0.20166,-0.817383,0.52832,0
45700,0.217773,-0.798828,0.537109,0
45720,0.222168,-0.790527,0.54248,0
45740,0.233398,-0.781738,0.536133,0
45760,0.233887,-0.751465,0.526367,0
45780,0.246094,-0.752441,0.52832,0
45800,0.245117,-0.736816,0.551758,0
45820,0.242676,-0.722168,0.561035,0
45840,0.248535,-0.6875,0.562012,0
45860,0.256836,-0.657715,0.565918,0
45880,0.270996,-0.649414,0.556641,0
45900,0.300781,-0.654785,0.550293,0
45920,0.327637,-0.649902,0.528809,0
45940,0.32959,-0.673828,0.513672,0
45960,0.346191,-0.680176,0.529297,0
45980,0.333008,-0.678711,0.543945,0
46000,0.347168,-0.680176,0.559082,0
46020,0.355469,-0.684082,0.574219,0
46040,0.354492,-0.679688,0.558594,0
46060,0.353027,-0.692383,0.541016,0
46080,0.33252,-0.69043,0.539062,0
46100,0.325684,-0.693848,0.530273,0
46120,0.294434,-0.698242,0.553711,0
46140,0.279785,-0.702148,0.561523,0
46160,0.27832,-0.696777,0.579102,0
46180,0.279297,-0.707031,0.580566,0
46200,0.273438,-0.719727,0.586914,0
46220,0.246094,-0.727539,0.567383,0
46240,0.229492,-0.741699,0.556641,0
46260,0.231934,-0.761719,0.577148,0
46280,0.214844,-0.76416,0.57666,0
46300,0.237793,-0.754883,0.574707,0
46320,0.226074,-0.771973,0.550781,0
46340,0.201172,-0.780273,0.526367,0
46360,0.208496,-0.791504,0.532715,0
46380,0.212891,-0.797363,0.539062,0
46400,0.208496,-0.804199,0.545898,0
46420,0.212891,-0.809082,0.522461,0
46440,0.240723,-0.800781,0.518066,0
46460,0.225586,-0.807129,0.519531,0
46480,0.221191,-0.805664,0.508301,0
46500,0.23877,-0.796387,0.515625,0
46520,0.23291,-0.794434,0.475586,0
46540,0.226562,-0.779785,0.479004,0
46560,0.195801,-0.771973,0.48877,0
46580,0.20752,-0.765137,0.495117,0
46600,0.18457,-0.767578,0.494141,0
46620,0.208008,-0.766602,0.489258,0
46640,0.182617,-0.753906,0.475098,0
46660,0.189453,-0.769043,0.47168,0
46680,0.205566,-0.769531,0.470215,0
46700,0.207031,-0.766602,0.48877,0
46720,0.242188,-0.796875,0.466309,0
46740,0.237305,-0.803223,0.470703,0
46760,0.274414,-0.809082,0.450684,0
46780,0.290039,-0.824707,0.458008,0
46800,0.250488,-0.832031,0.443848,0
46820,0.248047,-0.82666,0.458008,0
46840,0.236328,-0.832031,0.460938,0
46860,0.211914,-0.837891,0.43457,0
46880,0.192383,-0.842285,0.428711,0
46900,0.168457,-0.838379,0.43457,0
46920,0.156738,-0.829102,0.431152,0
46940,0.17627,-0.836426,0.433594,0
46960,0.17334,-0.84082,0.415527,0
46980,0.161133,-0.82666,0.414062,0
47000,0.161621,-0.837891,0.414062,0
47020,0.155762,-0.837402,0.418457,0
47040,0.148438,-0.82373,0.412598,0
47060,0.153809,-0.828613,0.419434,0
47080,0.150879,-0.82959,0.435059,0
47100,0.158691,-0.845703,0.409668,0
47120,0.193848,-0.836426,0.40918,0
47140,0.196777,-0.813477,0.425293,0
47160,0.195801,-0.815918,0.448242,0
47180,0.202637,-0.812988,0.460449,0
47200,0.21875,-0.814941,0.479004,0
47220,0.225586,-0.827148,0.481934,0
47240,0.23877,-0.835449,0.460938,0
47260,0.243652,-0.846191,0.4375,0
47280,0.250977,-0.844727,0.427734,0
47300,0.246582,-0.84668,0.42627,0
47320,0.256836,-0.844238,0.42041,0
47330,0.256348,-0.844727,0.431641,0
47350,0.25293,-0.845703,0.441406,0
47370,0.234863,-0.824707,0.447266,0
47390,0.224121,-0.830078,0.459473,0
47410,0.235352,-0.836914,0.447754,0
47430,0.223633,-0.819824,0.433594,0
47450,0.217773,-0.805176,0.419434,0
47470,0.224121,-0.789062,0.426758,0
47490,0.221191,-0.788574,0.429199,0
47510,0.217285,-0.808594,0.430664,0
47530,0.224609,-0.810547,0.426758,0
47550,0.229004,-0.821289,0.427246,0
47570,0.241211,-0.81543,0.427734,0
47590,0.251953,-0.828613,0.417969,0
47610,0.250488,-0.833008,0.435547,0
47630,0.239258,-0.827637,0.438965,0
47650,0.228516,-0.82959,0.441895,0
47670,0.246094,-0.820801,0.442383,0
47690,0.246582,-0.824707,0.455078,0
47710,0.241699,-0.825195,0.44043,0
47730,0.234375,-0.820312,0.436035,0
47750,0.219727,-0.818359,0.437988,0
47770,0.226562,-0.81543,0.426758,0
47790,0.21875,-0.819824,0.436523,0
47810,0.1875,-0.800293,0.445801,0
47830,0.186035,-0.801758,0.447266,0
47850,0.189941,-0.799805,0.447754,0
47870,0.187988,-0.806152,0.438477,0
47890,0.188965,-0.813965,0.427734,0
47910,0.203125,-0.809082,0.436035,2000
47930,0.206055,-0.8125,0.443359,0
47950,0.200684,-0.82959,0.431641,0
47970,0.234375,-0.83252,0.432129,0
47990,0.207031,-0.813965,0.428711,0
48010,0.211426,-0.835938,0.427734,0
48030,0.206055,-0.837891,0.445801,0
48050,0.210938,-0.825195,0.448242,0
48070,0.211914,-0.822754,0.431152,0
48090,0.20752,-0.821777,0.419434,0
48110,0.205566,-0.82373,0.433594,0
48130,0.202148,-0.819824,0.44043,0
48150,0.215332,-0.818359,0.43457,0
48170,0.213379,-0.815918,0.430664,0
48190,0.20752,-0.825684,0.43457,0
48210,0.206055,-0.81543,0.43457,0
48230,0.208008,-0.830078,0.430664,0
48250,0.201172,-0.847168,0.420898,0
48270,0.204102,-0.835449,0.414551,0
48290,0.208008,-0.820312,0.423828,0
48310,0.23584,-0.79541,0.416016,0
48330,0.220703,-0.796387,0.435059,0
48350,0.253418,-0.816895,0.431641,0
48370,0.266602,-0.831055,0.422852,0
48390,0.262695,-0.84082,0.409668,0
48410,0.239258,-0.83252,0.412598,0
48430,0.242188,-0.822266,0.422363,0
48450,0.23584,-0.830078,0.418457,0
48470,0.240234,-0.821289,0.431152,0
48490,0.233887,-0.833008,0.433105,0
48510,0.259766,-0.836914,0.430664,0
48530,0.244629,-0.839355,0.438477,0
48550,0.248535,-0.822266,0.427734,0
48570,0.256348,-0.8125,0.416504,0
48590,0.261719,-0.825195,0.429688,0
48610,0.274414,-0.809082,0.425781,0
48630,0.269531,-0.803223,0.425781,0
48650,0.27832,-0.790527,0.428711,0
48670,0.262207,-0.79248,0.397949,0
48690,0.296875,-0.80127,0.415039,0
48710,0.295898,-0.783691,0.439453,0
48730,0.290039,-0.794922,0.432129,0
48750,0.304688,-0.811523,0.408691,0
48770,0.323242,-0.814453,0.419434,0
48790,0.348145,-0.836426,0.375,0
48810,0.378418,-0.840332,0.402832,0
48830,0.381348,-0.836914,0.421387,0
48850,0.377441,-0.831543,0.408691,0
48870,0.359375,-0.806152,0.402344,0
48890,0.351074,-0.797852,0.417969,0
48910,0.348145,-0.791992,0.407227,0
48930,0.367188,-0.786621,0.404785,0
48950,0.377441,-0.79834,0.389648,0
48970,0.38916,-0.790527,0.37793,0
48990,0.380371,-0.787109,0.395996,0
49010,0.371094,-0.776855,0.391602,0
49030,0.358398,-0.778809,0.416992,0
49050,0.371094,-0.762695,0.400879,0
49070,0.380859,-0.763184,0.397949,0
49090,0.367676,-0.76123,0.406738,0
49110,0.378418,-0.770996,0.411621,0
49130,0.385254,-0.771484,0.420898,0
49150,0.390625,-0.766113,0.40918,0
49170,0.404297,-0.77002,0.400391,0
49190,0.412109,-0.763184,0.416504,0
49210,0.416504,-0.762207,0.40625,0
49230,0.436035,-0.756348,0.40332,0
49250,0.447266,-0.748535,0.400879,0
49270,0.45459,-0.757324,0.404297,0
49290,0.450195,-0.757324,0.409668,0
49310,0.45752,-0.748535,0.414551,0
49330,0.455078,-0.740723,0.419922,0
49350,0.438965,-0.742676,0.40918,0
49370,0.451172,-0.735352,0.41748,0
49390,0.461426,-0.730957,0.418457,0
49410,0.45752,-0.734375,0.422852,0
49430,0.462402,-0.736328,0.428711,0
49450,0.480469,-0.729492,0.42334,0
49470,0.476562,-0.723633,0.431641,0
49490,0.486816,-0.723633,0.434082,0
49510,0.479492,-0.715332,0.423828,0
49530,0.481934,-0.716797,0.430664,0
49550,0.482422,-0.718262,0.428223,0
49570,0.483398,-0.716309,0.427246,0
49590,0.513184,-0.726074,0.429688,0
49610,0.477539,-0.719727,0.430664,0
49630,0.518066,-0.745117,0.416504,0
49650,0.502441,-0.725586,0.451172,0
49670,0.499023,-0.748047,0.442871,0
49690,0.506348,-0.752441,0.453613,0
49710,0.514648,-0.76123,0.465332,0
49730,0.459473,-0.720215,0.465332,0
49750,0.504395,-0.723633,0.475098,0
49770,0.487305,-0.755371,0.480957,0
49790,0.431152,-0.765625,0.492676,0
49810,0.431641,-0.73584,0.496582,0
49830,0.388184,-0.715332,0.481445,0
49850,0.354492,-0.715332,0.463867,0
49870,0.321289,-0.719727,0.48877,0
49890,0.313965,-0.723145,0.480957,0
49910,0.332031,-0.735352,0.501465,0
49930,0.34082,-0.750977,0.495117,0
49950,0.309082,-0.746094,0.500977,0
49970,0.328613,-0.754883,0.47998,0
49990,0.35791,-0.746094,0.472656,0
50010,0.345215,-0.749512,0.488281,0
50030,0.343262,-0.749023,0.484863,0
50050,0.325195,-0.742188,0.464844,0
50070,0.329102,-0.731445,0.486816,0
50090,0.350098,-0.744141,0.461426,0
50110,0.337402,-0.737305,0.469238,0
50130,0.337402,-0.73877,0.464355,0
50150,0.350586,-0.739746,0.466797,0
50170,0.344238,-0.745117,0.472168,0
50190,0.341797,-0.734863,0.462402,0
50210,0.31543,-0.740234,0.489746,0
50230,0.297852,-0.74707,0.490723,0
50250,0.305176,-0.733887,0.486816,0
50270,0.287109,-0.732422,0.487305,0
50290,0.304199,-0.719727,0.475586,0
50310,0.287109,-0.723145,0.5,0
50330,0.273438,-0.727051,0.484375,0
50350,0.276367,-0.750488,0.50293,0
50370,0.271973,-0.752441,0.530273,0
50390,0.279297,-0.733887,0.537109,0
50410,0.265625,-0.759766,0.515137,0
50430,0.231445,-0.777344,0.453613,0
50450,0.256836,-0.787109,0.436035,0
50470,0.272461,-0.797363,0.436035,0
50490,0.264648,-0.818359,0.437988,0
50510,0.254395,-0.840332,0.43457,0
50530,0.233398,-0.877441,0.414551,0
50550,0.194824,-0.87793,0.39209,0
50570,0.153809,-0.853027,0.383789,0
50590,0.108887,-0.842773,0.364258,0
50610,0.0976562,-0.833496,0.337891,0
50630,0.106934,-0.825195,0.324707,0
50650,0.137695,-0.797363,0.322266,0
50670,0.136719,-0.817871,0.312012,0
50690,0.133301,-0.834473,0.292969,0
50710,0.139648,-0.849121,0.283691,0
50730,0.156738,-0.858887,0.285156,0
50750,0.186035,-0.839355,0.291504,0
50770,0.194824,-0.844238,0.285156,0
50780,0.200195,-0.859863,0.26709,0
50800,0.215332,-0.887207,0.262207,0
50820,0.253906,-0.875,0.291016,0
50840,0.283691,-0.867676,0.305664,0
50860,0.326172,-0.86377,0.300781,0
50880,0.355469,-0.871094,0.269043,0
50900,0.401855,-0.88623,0.266113,0
50920,0.410645,-0.895508,0.283203,0
50940,0.45166,-0.931152,0.233398,0
50960,0.430176,-0.890137,0.243164,0
50980,0.453125,-0.869629,0.260254,0
51000,0.476074,-0.848145,0.225586,0
51020,0.512207,-0.84375,0.195312,0
51040,0.550293,-0.850098,0.242676,0
51060,0.546875,-0.837891,0.203125,0
51080,0.591309,-0.830078,0.20166,0
51100,0.604004,-0.817383,0.211914,0
51120,0.602051,-0.791016,0.19873,0
51140,0.632812,-0.772949,0.177734,0
51160,0.644531,-0.781738,0.191406,0
51180,0.640625,-0.749512,0.200684,0
51200,0.650391,-0.727539,0.218262,0
51220,0.645508,-0.700684,0.208984,0
51240,0.652832,-0.699707,0.216797,0
51260,0.679199,-0.690918,0.228516,0
51280,0.660645,-0.658203,0.243164,0
51300,0.680176,-0.647949,0.254395,0
51320,0.679199,-0.635742,0.270996,0
51340,0.666992,-0.618164,0.277344,0
51360,0.683105,-0.620605,0.271973,0
51380,0.721191,-0.619141,0.293945,0
51400,0.699219,-0.618164,0.291992,0
51420,0.735352,-0.606934,0.296875,0
51440,0.731445,-0.617676,0.330078,0
51460,0.722656,-0.650879,0.32666,0
51480,0.719727,-0.648438,0.325195,0
51500,0.757812,-0.640625,0.376953,0
51520,0.762695,-0.643066,0.37207,0
51540,0.770996,-0.669922,0.390625,0
51560,0.708984,-0.668457,0.437988,0
51580,0.70459,-0.655762,0.416992,0
51600,0.663086,-0.679688,0.438965,0
51620,0.648926,-0.63623,0.447266,0
51640,0.611328,-0.629395,0.479004,0
51660,0.591797,-0.671875,0.467773,0
51680,0.524902,-0.648438,0.475586,0
51700,0.505859,-0.633301,0.475098,0
51720,0.471191,-0.611328,0.484375,0
51740,0.474609,-0.626953,0.47998,0
51760,0.452637,-0.655762,0.467773,0
51780,0.411621,-0.631836,0.463867,0
51800,0.415527,-0.625977,0.47998,0
51820,0.405273,-0.630859,0.466309,0
51840,0.398438,-0.643555,0.438477,0
51860,0.379883,-0.661133,0.431641,0
51880,0.343262,-0.668457,0.422363,0
51900,0.319336,-0.662109,0.419434,0
51920,0.344238,-0.691895,0.400391,0
51940,0.362793,-0.713867,0.400879,0
51960,0.385742,-0.706055,0.404297,0
51980,0.376953,-0.720215,0.387695,0
52000,0.373047,-0.762695,0.363281,0
52020,0.38916,-0.802734,0.350098,0
52040,0.357422,-0.805664,0.338867,0
52060,0.351562,-0.790039,0.304688,0
52080,0.350098,-0.818848,0.292969,0
52100,0.319824,-0.810059,0.272461,0
52120,0.312012,-0.798828,0.268555,0
52140,0.256348,-0.810059,0.255371,0
52160,0.224121,-0.794922,0.231934,0
52180,0.23584,-0.79248,0.191406,0
52200,0.256348,-0.79541,0.166992,0
52220,0.294434,-0.806152,0.165527,0
52240,0.320312,-0.820801,0.162598,0
52260,0.338867,-0.83252,0.163086,0
52280,0.361328,-0.862305,0.14502,0
52300,0.410645,-0.884277,0.133301,0
52320,0.447266,-0.870605,0.143066,0
52340,0.447266,-0.888672,0.124512,0
52360,0.44873,-0.864258,0.12793,0
52380,0.470703,-0.865234,0.0908203,0
52400,0.543457,-0.867188,0.097168,0
52420,0.531738,-0.855469,0.074707,0
52440,0.59082,-0.875977,0.050293,0
52460,0.663086,-0.89209,0.0380859,0
52480,0.628906,-0.844238,0.0415039,0
52500,0.662109,-0.810059,0.0117188,0
52520,0.775879,-0.779785,0.0356445,0
52540,0.739746,-0.769043,0.0107422,0
52560,0.709473,-0.730469,0.0166016,0
52580,0.764648,-0.71875,0.00146484,0
52600,0.800781,-0.651367,0.00927734,0
52620,0.804199,-0.589355,0.00439453,0
52640,0.816406,-0.563477,0.0146484,0
52660,0.846191,-0.535156,0.00537109,0
52680,0.842773,-0.50293,0.0283203,0
52700,0.861816,-0.474121,0.0302734,0
52720,0.89502,-0.455566,0.0395508,0
52740,0.883789,-0.477051,-0.0356445,0
52750,0.904297,-0.40918,0.0581055,0
52770,0.930176,-0.39209,0.0717773,0
52780,0.962402,-0.369629,0.119629,0
52800,0.996094,-0.342285,0.138184,0
52820,0.974121,-0.341797,0.174316,0
52840,0.980469,-0.335449,0.195801,0
52860,1.01904,-0.344238,0.225586,0
52880,1.00098,-0.36084,0.257324,0
52900,0.916992,-0.363281,0.301758,0
52920,0.914551,-0.382324,0.302734,0
52940,0.95166,-0.406738,0.331543,0
52960,0.914551,-0.392578,0.342773,0
52980,0.794434,-0.376465,0.419434,0
53000,0.775879,-0.397461,0.420898,0
53020,0.818848,-0.435059,0.462891,0
53040,0.765625,-0.470215,0.456055,0
53060,0.646973,-0.480469,0.457031,0
53080,0.648438,-0.487305,0.48291,0
53100,0.645996,-0.482422,0.478027,0
53120,0.595215,-0.48291,0.450195,0
53140,0.535156,-0.503906,0.461426,0
53160,0.486816,-0.503906,0.473633,0
53180,0.481934,-0.519531,0.516113,0
53200,0.533203,-0.577148,0.485352,0
53220,0.515137,-0.577637,0.445312,0
53240,0.498535,-0.525391,0.464355,0
53260,0.50293,-0.583008,0.435059,0
53280,0.516113,-0.654297,0.416016,0
53300,0.479004,-0.665527,0.374023,0
53320,0.44043,-0.687988,0.357422,0
53340,0.435547,-0.670898,0.361328,0
53360,0.425293,-0.692383,0.322754,0
53380,0.415527,-0.673828,0.288574,0
53400,0.433594,-0.6875,0.277344,0
53420,0.425293,-0.719727,0.237793,0
53440,0.426758,-0.746094,0.178711,0
53460,0.435547,-0.754883,0.162109,0
53480,0.45459,-0.757324,0.12793,0
53500,0.466309,-0.761719,0.097168,0
53520,0.484863,-0.771973,0.0625,0
53540,0.498535,-0.775879,0.0332031,0
53560,0.549805,-0.816406,0.0249023,0
53580,0.581055,-0.844238,0.0205078,0
53600,0.579102,-0.805176,0.0205078,0
53620,0.580566,-0.811035,-0.0366211,0
53640,0.596191,-0.790039,-0.0454102,0
53660,0.639648,-0.776855,-0.0444336,0
53680,0.675293,-0.768555,-0.0288086,0
53700,0.692383,-0.764648,-0.0410156,0
53720,0.677734,-0.745605,-0.0444336,0
53740,0.668945,-0.709961,-0.0371094,0
53760,0.700684,-0.689941,-0.0463867,0
53780,0.73584,-0.700684,-0.0527344,0
53800,0.764648,-0.663086,-0.0512695,0
53820,0.804199,-0.662109,-0.034668,0
53840,0.833496,-0.641602,-0.0400391,2001
53860,0.873047,-0.637695,-0.0610352,0
53880,0.854004,-0.605957,-0.0166016,0
53900,0.875,-0.57666,-0.0136719,0
53920,0.869141,-0.548828,-0.0126953,0
53940,0.864746,-0.535645,0.0136719,0
53960,0.807617,-0.514648,0.0131836,0
53980,0.772949,-0.504395,-0.00976562,0
54000,0.746582,-0.490234,-0.00585938,0
54020,0.71582,-0.462402,0.0146484,0
54040,0.70166,-0.437012,-0.00683594,0
54060,0.657227,-0.457031,-0.0439453,0
54080,0.580078,-0.476074,-0.0390625,0
54100,0.555176,-0.506836,-0.0273438,0
54120,0.522461,-0.506348,-0.0537109,0
54140,0.52832,-0.492676,-0.0141602,0
54160,0.479492,-0.511719,0.0273438,0
54180,0.495605,-0.520508,0.0371094,0
54200,0.485352,-0.53125,0.0258789,0
54220,0.53418,-0.51709,0.0224609,0
54240,0.628906,-0.561035,0.0722656,0
54260,0.594727,-0.592773,0.090332,0
54280,0.61084,-0.586426,0.0961914,0
54300,0.697754,-0.603516,0.154785,0
54320,0.719727,-0.640625,0.199707,0
54340,0.659668,-0.664062,0.228027,0
54360,0.756348,-0.70166,0.179199,0
54380,0.787598,-0.728516,0.246582,0
54400,0.689453,-0.727539,0.28125,0
54420,0.658203,-0.756836,0.301758,0
54440,0.741699,-0.848633,0.26709,0
54460,0.751953,-0.88916,0.319336,0
54480,0.725586,-0.891113,0.349121,0
54500,0.678711,-0.92334,0.377441,0
54520,0.668457,-0.962891,0.328125,0
54540,0.600098,-0.964355,0.36084,0
54560,0.538086,-0.955078,0.392578,0
54580,0.489746,-0.934082,0.399902,0
54600,0.48584,-0.947266,0.354492,0
54620,0.453125,-0.925781,0.397461,0
54640,0.395508,-0.911133,0.431152,0
54660,0.367188,-0.914062,0.414551,0
54680,0.324219,-0.906738,0.437012,0
54700,0.288574,-0.890137,0.44873,0
54720,0.243652,-0.865723,0.461914,0
54740,0.233398,-0.853027,0.439941,0
54760,0.231934,-0.851074,0.450195,0
54780,0.206055,-0.827637,0.441406,0
54800,0.205078,-0.822266,0.433105,0
54820,0.197266,-0.813477,0.439453,0
54840,0.197754,-0.828613,0.4375,0
54860,0.187988,-0.820312,0.451172,0
54880,0.205566,-0.810547,0.433105,0
54900,0.216309,-0.837891,0.43457,0
54920,0.21875,-0.829102,0.427246,0
54940,0.208496,-0.82959,0.431641,0
54960,0.216309,-0.827148,0.427246,0
54980,0.217285,-0.834473,0.429688,0
55000,0.204102,-0.854492,0.428223,0
55020,0.206055,-0.837891,0.433594,0
55040,0.222168,-0.84375,0.433105,0
55060,0.194824,-0.841797,0.431641,0
55080,0.19043,-0.837891,0.436035,0
55100,0.194824,-0.842773,0.447754,0
55120,0.196777,-0.822754,0.449219,0
55140,0.193848,-0.819336,0.438965,0
55160,0.185059,-0.822266,0.438477,0
55180,0.182617,-0.808594,0.444824,0
55200,0.177734,-0.81543,0.445801,0
55220,0.187988,-0.813965,0.444336,0
55240,0.16748,-0.808594,0.451172,2000
55260,0.126465,-0.806641,0.448242,0
55280,0.123047,-0.810547,0.455566,0
55300,0.126953,-0.833008,0.452637,0
55320,0.132812,-0.822754,0.440918,0
55340,0.147461,-0.80957,0.437988,0
55360,0.168945,-0.833496,0.450684,0
55380,0.188477,-0.84375,0.450684,0
55400,0.1875,-0.853027,0.447754,0
55420,0.181641,-0.833984,0.431641,0
55440,0.169434,-0.827637,0.445801,0
55460,0.182617,-0.841309,0.411133,0
55480,0.194824,-0.852539,0.405762,0
55500,0.179199,-0.833008,0.422363,0
55520,0.188477,-0.831055,0.428223,0
55540,0.185059,-0.810547,0.431641,0
55560,0.176758,-0.814941,0.440918,0
55580,0.185059,-0.827148,0.428711,0
55600,0.197266,-0.822754,0.429199,0
55620,0.205078,-0.820801,0.408203,0
55640,0.189453,-0.819824,0.429199,0
55660,0.197266,-0.818848,0.425781,0
55680,0.223145,-0.810547,0.420898,0
55700,0.224609,-0.823242,0.417969,0
55720,0.23584,-0.847656,0.396973,0
55740,0.252441,-0.853027,0.414551,0
55760,0.227539,-0.822266,0.426758,0
55780,0.241211,-0.816895,0.43457,0
55800,0.245117,-0.836426,0.439941,0
55820,0.257324,-0.831055,0.443359,0
55840,0.257324,-0.818359,0.445801,0
55860,0.269043,-0.829102,0.438965,0
55880,0.287109,-0.822266,0.433594,0
55900,0.286621,-0.824707,0.422852,0
55920,0.307617,-0.823242,0.416016,0
55940,0.32959,-0.822266,0.430176,0
55960,0.324219,-0.814453,0.42334,0
55980,0.353027,-0.816406,0.404297,0
56000,0.334473,-0.813477,0.415527,0
56020,0.348633,-0.822754,0.411621,0
56040,0.345703,-0.82666,0.408203,0
56060,0.35791,-0.813477,0.414062,0
56080,0.374512,-0.817871,0.422852,0
56100,0.374512,-0.812988,0.420898,0
56120,0.374512,-0.800781,0.416992,0
56140,0.397461,-0.814941,0.418457,0
56160,0.402344,-0.807129,0.425781,0
56180,0.402832,-0.78125,0.418945,0
56190,0.403809,-0.77002,0.424316,0
56210,0.407227,-0.770508,0.429199,0
56230,0.414551,-0.785645,0.438477,0
56250,0.40625,-0.771484,0.436035,0
56270,0.415039,-0.763184,0.435059,0
56290,0.414062,-0.744141,0.446289,0
56310,0.449219,-0.740234,0.439453,0
56330,0.436035,-0.742676,0.456543,0
56350,0.388672,-0.746582,0.455078,0
56370,0.428711,-0.74707,0.45459,0
56390,0.446289,-0.737793,0.469727,0
56410,0.473633,-0.744141,0.449707,0
56430,0.468262,-0.752441,0.454102,0
56450,0.42627,-0.782227,0.434082,0
56470,0.434082,-0.827148,0.438965,0
56490,0.455566,-0.807617,0.479004,0
56510,0.423828,-0.805176,0.474609,0
56530,0.449219,-0.82959,0.474121,0
56550,0.388672,-0.833984,0.490234,0
56570,0.377441,-0.835449,0.431152,0
56590,0.394043,-0.829102,0.445801,0
56610,0.414551,-0.851562,0.458496,0
56630,0.357422,-0.836426,0.490723,0
56650,0.346191,-0.860352,0.496094,0
56670,0.321289,-0.834961,0.474121,0
56690,0.275391,-0.847168,0.494141,0
56710,0.255859,-0.828125,0.477051,0
56730,0.214844,-0.816895,0.443359,0
56750,0.213379,-0.76709,0.436523,0
56770,0.15918,-0.729492,0.45459,0
56790,0.125977,-0.753906,0.427734,0
56810,0.146973,-0.754883,0.429199,0
56830,0.148438,-0.782715,0.416016,0
56850,0.155762,-0.779297,0.390625,0
56870,0.181152,-0.784668,0.39209,0
56890,0.178711,-0.783203,0.385742,0
56910,0.175781,-0.774414,0.362305,0
56930,0.192871,-0.786621,0.36377,0
56950,0.202637,-0.799805,0.357422,0
56970,0.208984,-0.819336,0.36084,0
56990,0.207031,-0.825684,0.349121,0
57010,0.21582,-0.827148,0.337891,0
57030,0.210449,-0.841797,0.326172,0
57050,0.21582,-0.831055,0.312988,0
57070,0.224609,-0.854004,0.307129,0
57090,0.258789,-0.861328,0.312988,0
57110,0.275391,-0.882324,0.316406,0
57130,0.265137,-0.896484,0.338379,0
57150,0.286621,-0.902832,0.330078,0
57170,0.270996,-0.912598,0.303711,0
57190,0.239746,-0.901855,0.28418,0
57210,0.22998,-0.921387,0.254883,0
57230,0.236816,-0.912598,0.237305,0
57250,0.223145,-0.908203,0.23291,0
57270,0.203125,-0.90332,0.237793,0
57290,0.197266,-0.900391,0.226562,0
57310,0.178711,-0.92041,0.214844,0
57330,0.178711,-0.916504,0.211426,0
57350,0.165527,-0.90332,0.196777,0
57370,0.154297,-0.904785,0.181641,0
57390,0.163086,-0.891113,0.15918,0
57410,0.175781,-0.903809,0.146973,0
57430,0.189453,-0.90332,0.146973,0
57450,0.202637,-0.910645,0.152344,0
57470,0.219727,-0.92334,0.155762,0
57490,0.263184,-0.912598,0.173828,0
57510,0.286621,-0.916016,0.195312,0
57530,0.299805,-0.928711,0.181641,0
57550,0.303223,-0.923828,0.158203,0
57570,0.318359,-0.902832,0.143066,0
57590,0.309082,-0.901855,0.145508,0
57610,0.330078,-0.899414,0.135742,0
57630,0.327148,-0.889648,0.135742,0
57650,0.320312,-0.891602,0.126953,0
57670,0.379883,-0.882324,0.129395,0
57690,0.395996,-0.868164,0.144531,0
57710,0.382812,-0.874512,0.121582,0
57730,0.416016,-0.902344,0.0859375,0
57750,0.462891,-0.903809,0.100098,0
57770,0.505371,-0.886719,0.146973,0
57790,0.459961,-0.854492,0.123047,0
57810,0.461914,-0.838867,0.100098,0
57830,0.495605,-0.849609,0.129395,0
57850,0.549316,-0.874023,0.12793,0
57870,0.53125,-0.861328,0.131836,0
57890,0.558594,-0.831543,0.13916,0
57910,0.573242,-0.853027,0.123535,0
57930,0.574707,-0.841797,0.134766,0
57950,0.565918,-0.811523,0.141602,0
57970,0.571777,-0.812988,0.131836,0
57990,0.575684,-0.806641,0.152344,0
58010,0.570801,-0.803223,0.171387,0
58030,0.591797,-0.790527,0.163574,0
58050,0.611816,-0.76416,0.188965,0
58070,0.618652,-0.751953,0.20459,0
58090,0.626465,-0.727051,0.211426,0
58110,0.641113,-0.731445,0.233398,0
58130,0.661133,-0.713379,0.246094,0
58150,0.669922,-0.672852,0.243652,0
58170,0.679199,-0.630371,0.236816,0
58180,0.695801,-0.62207,0.258789,0
58200,0.691895,-0.635254,0.27002,0
58220,0.674316,-0.624023,0.251465,0
58240,0.696289,-0.636719,0.254395,0
58260,0.700684,-0.623535,0.291992,0
58280,0.708496,-0.599121,0.30127,0
58300,0.714355,-0.609375,0.338867,0
58320,0.697266,-0.62793,0.358887,0
58340,0.696289,-0.618652,0.345703,0
58360,0.69873,-0.625488,0.368652,0
58380,0.706055,-0.624023,0.393066,0
58400,0.677734,-0.664062,0.396973,0
58420,0.654297,-0.642578,0.436035,0
58440,0.689453,-0.660645,0.416016,0
58460,0.631836,-0.652832,0.45459,0
58480,0.609863,-0.618652,0.489746,0
58500,0.625977,-0.640137,0.515625,0
58520,0.594727,-0.677246,0.526855,0
58540,0.531738,-0.663086,0.533203,0
58560,0.533691,-0.65332,0.541992,0
58580,0.512207,-0.656738,0.530273,0
58600,0.460938,-0.651367,0.51709,0
58620,0.424805,-0.644043,0.48877,0
58640,0.398926,-0.635254,0.503906,0
58660,0.339355,-0.62207,0.49707,0
58680,0.341797,-0.625977,0.471191,0
58700,0.32373,-0.635742,0.466309,0
58720,0.317871,-0.67041,0.437012,0
58740,0.333008,-0.695312,0.43457,0
58760,0.325684,-0.68457,0.419922,0
58780,0.330566,-0.719238,0.39502,0
58800,0.331055,-0.73291,0.389648,0
58820,0.352051,-0.726562,0.37793,0
58840,0.380371,-0.748047,0.363281,0
58860,0.378906,-0.788086,0.322266,0
58880,0.389648,-0.812012,0.294922,0
58900,0.381836,-0.813965,0.279785,0
58920,0.362793,-0.815918,0.268066,0
58940,0.374512,-0.821289,0.26123,0
58960,0.359863,-0.824219,0.236328,0
58980,0.339355,-0.833008,0.220703,0
59000,0.33252,-0.838867,0.217285,0
59020,0.305176,-0.82373,0.178711,0
59040,0.282715,-0.852051,0.157715,0
59060,0.287109,-0.87793,0.129883,0
59080,0.274414,-0.883301,0.106934,0
59100,0.27832,-0.896484,0.109863,0
59120,0.300781,-0.890137,0.118164,0
59140,0.316895,-0.900391,0.108398,0
59160,0.341797,-0.910645,0.0874023,0
59180,0.367676,-0.908691,0.0849609,0
59200,0.387695,-0.940918,0.0874023,0
59220,0.446289,-0.95459,0.0795898,0
59240,0.499512,-0.965332,0.0678711,0
59260,0.484375,-0.946289,0.0556641,0
59280,0.508301,-0.911133,0.0429688,0
59300,0.522949,-0.908203,0.0322266,0
59320,0.543457,-0.907715,-0.00732422,0
59340,0.537109,-0.88623,-0.0185547,0
59360,0.522461,-0.836914,-0.019043,0
59380,0.555176,-0.831543,-0.050293,0
59400,0.554688,-0.834473,-0.050293,0
59420,0.589355,-0.821777,-0.0727539,0
59440,0.551758,-0.780762,-0.0620117,0
59460,0.578613,-0.749512,-0.0561523,0
59480,0.621582,-0.710449,-0.0678711,0
59500,0.643066,-0.70752,-0.0859375,0
59520,0.646484,-0.675293,-0.0849609,0
59540,0.681641,-0.675293,-0.081543,0
59560,0.704102,-0.651367,-0.0844727,0
59580,0.746582,-0.63623,-0.0766602,0
59600,0.761719,-0.614746,-0.0610352,0
59620,0.797852,-0.619629,-0.0415039,0
59640,0.814941,-0.603516,-0.0200195,0
59660,0.803711,-0.597656,0.00439453,0
59680,0.804199,-0.55127,0.0205078,0
59700,0.857422,-0.510254,0.0444336,0
59720,0.913086,-0.501465,0.0786133,0
59740,0.911621,-0.532227,0.121582,0
59760,0.891113,-0.52832,0.139648,0
59780,0.880859,-0.540527,0.14502,0
59800,0.869141,-0.488281,0.193848,0
59820,0.883301,-0.476074,0.23584,0
59840,0.885254,-0.472168,0.267578,0
59860,0.869629,-0.526855,0.264648,0
59880,0.8125,-0.524414,0.311523,0
59900,0.80957,-0.49707,0.340332,0
59920,0.768555,-0.492188,0.349609,0
59940,0.733887,-0.511719,0.368652,0
59960,0.728516,-0.551758,0.394531,0
59980,0.694824,-0.541992,0.407227,0
60000,0.587891,-0.518066,0.431641,0
60020,0.593262,-0.489258,0.431152,0
60040,0.64502,-0.571777,0.416504,0
60060,0.62207,-0.600098,0.376465,0
60080,0.529297,-0.535156,0.446289,0
60100,0.537109,-0.534668,0.435059,0
60120,0.509766,-0.606934,0.42627,0
60140,0.489746,-0.649414,0.397949,0
60160,0.475098,-0.659668,0.407715,0
60180,0.44873,-0.65625,0.390625,0
60200,0.475098,-0.712402,0.364258,0
60220,0.478516,-0.711426,0.343262,0
60240,0.479492,-0.731445,0.310547,0
60260,0.46875,-0.734375,0.27832,0
60280,0.470703,-0.762695,0.216309,0
60300,0.494141,-0.825195,0.165527,0
60320,0.51123,-0.786133,0.169922,0
60340,0.486328,-0.746094,0.15918,0
60360,0.520996,-0.754395,0.113281,0
60380,0.555176,-0.803223,0.102539,0
60400,0.53125,-0.78125,0.0756836,0
60420,0.525879,-0.805176,0.0253906,0
60440,0.510742,-0.859863,-0.00195312,0
60460,0.494629,-0.827637,-0.0151367,0
60480,0.482422,-0.828125,-0.0317383,0
60500,0.459961,-0.813477,-0.0537109,0
60520,0.443848,-0.808105,-0.0634766,0
60540,0.431641,-0.838379,-0.0820312,0
60560,0.44873,-0.859863,-0.108398,0
60580,0.451172,-0.888184,-0.107422,0
60600,0.467773,-0.873047,-0.107422,0
60620,0.505371,-0.869629,-0.106445,0
60640,0.544922,-0.877441,-0.141113,0
60660,0.564941,-0.886719,-0.13916,0
60680,0.574219,-0.859863,-0.138672,0
60700,0.619629,-0.834473,-0.132812,0
60720,0.646973,-0.817383,-0.127441,0
60740,0.663574,-0.840332,-0.159668,0
60760,0.65625,-0.800781,-0.16748,0
60780,0.686523,-0.779785,-0.133301,0
60800,0.705078,-0.74707,-0.170898,0
60820,0.708496,-0.722168,-0.170898,0
60840,0.708008,-0.704102,-0.162109,0
60860,0.727539,-0.675293,-0.173828,0
60880,0.718262,-0.657715,-0.196289,0
60900,0.734375,-0.663086,-0.194336,0
60920,0.730957,-0.660645,-0.203613,0
60940,0.737793,-0.645996,-0.196289,2001
60960,0.741211,-0.662598,-0.228027,0
60980,0.709961,-0.657227,-0.206055,0
61000,0.660156,-0.583984,-0.197266,0
61020,0.668457,-0.55957,-0.229004,0
61040,0.701172,-0.588867,-0.229004,0
61060,0.692871,-0.563477,-0.163086,0
61080,0.70459,-0.552734,-0.15625,0
61100,0.657227,-0.532227,-0.137207,0
61120,0.618164,-0.520508,-0.130859,0
61140,0.550781,-0.499023,-0.128418,0
61160,0.506836,-0.525879,-0.127441,0
61180,0.438477,-0.54541,-0.105469,0
61200,0.403809,-0.566406,-0.125488,0
61220,0.350098,-0.557617,-0.0922852,0
61240,0.377441,-0.574219,-0.0678711,0
61260,0.431641,-0.635742,-0.0585938,0
61280,0.480957,-0.681641,-0.0366211,0
61300,0.510742,-0.721191,-0.0131836,0
61320,0.591797,-0.724609,0.0170898,0
61340,0.628418,-0.759766,0.0415039,0
61360,0.624023,-0.841797,0.0595703,0
61380,0.633301,-0.884277,0.0766602,0
61400,0.614746,-0.859375,0.0830078,0
61420,0.580566,-0.871582,0.134766,0
61440,0.569336,-0.90332,0.135254,0
61460,0.536621,-0.903809,0.141113,0
61480,0.532227,-0.94043,0.172363,0
61500,0.533691,-1.00098,0.193359,0
61520,0.57959,-1.06201,0.194824,0
61540,0.552246,-1.07373,0.187012,0
61560,0.546875,-1.07373,0.173828,0
61580,0.525391,-1.07764,0.193359,0
61600,0.494141,-1.06592,0.178711,0
61620,0.413086,-1.05859,0.204102,0
61630,0.381348,-1.021,0.207031,0
61650,0.34668,-1.02246,0.226562,0
61670,0.327637,-0.996582,0.241699,0
61690,0.293945,-0.990723,0.240234,0
61710,0.276855,-0.992676,0.264648,0
61730,0.233398,-0.977051,0.306641,0
61750,0.194336,-0.977539,0.306641,0
61770,0.184082,-0.947266,0.291504,0
61790,0.162109,-0.937012,0.288086,0
61810,0.147461,-0.919434,0.309082,0
61830,0.152344,-0.914062,0.300293,0
61850,0.150879,-0.907715,0.318359,0
61870,0.166504,-0.903809,0.331543,0
61890,0.147461,-0.892578,0.323242,0
61910,0.154785,-0.893066,0.319336,0
61930,0.165039,-0.89209,0.333496,0
61950,0.156738,-0.914551,0.318359,0
61970,0.139648,-0.919922,0.318359,0
61990,0.148926,-0.914062,0.313965,0
62010,0.14502,-0.914062,0.307129,0
62030,0.154297,-0.925781,0.337402,0
62050,0.13916,-0.919434,0.312988,0
62070,0.121094,-0.904785,0.334473,0
62090,0.0927734,-0.883301,0.317871,2000
62110,0.0712891,-0.889648,0.34082,0
62130,0.0649414,-0.885254,0.342285,0
62150,0.0234375,-0.85498,0.322754,0
62170,-0.00244141,-0.865234,0.334473,0
62190,0.0244141,-0.893555,0.334961,0
62210,0.0444336,-0.899902,0.34082,0
62230,0.0424805,-0.882812,0.362305,0
62250,0.0654297,-0.895508,0.366699,0
62270,0.103027,-0.920898,0.333496,0
62290,0.108398,-0.924316,0.327148,0
62310,0.108887,-0.907227,0.335449,0
62330,0.140137,-0.894531,0.347168,0
62350,0.174805,-0.90918,0.32666,0
62370,0.190918,-0.928223,0.314453,0
62390,0.17334,-0.914062,0.32666,0
62410,0.184082,-0.867188,0.32959,0
62430,0.174805,-0.845215,0.331543,0
62450,0.131348,-0.833984,0.356934,0
62470,0.159668,-0.854004,0.375488,0
62490,0.138672,-0.867676,0.382324,0
62510,0.145996,-0.870605,0.366699,0
62530,0.17334,-0.865234,0.359375,0
62550,0.208008,-0.883301,0.355469,0
62570,0.216309,-0.871582,0.377441,0
62590,0.229004,-0.880371,0.374512,0
62610,0.216797,-0.862305,0.385254,0
62630,0.224121,-0.854004,0.415039,0
62650,0.260742,-0.858887,0.412109,0
62670,0.280762,-0.862793,0.369629,0
62690,0.317871,-0.868652,0.381348,0
62710,0.314941,-0.857422,0.403809,0
62730,0.337891,-0.852539,0.407227,0
62750,0.347168,-0.866211,0.418457,0
62770,0.350586,-0.841797,0.418945,0
62790,0.352051,-0.827637,0.419922,0
62810,0.355469,-0.826172,0.423828,0
62830,0.373047,-0.810547,0.407715,0
62850,0.387695,-0.821777,0.415039,0
62870,0.38623,-0.791504,0.42334,0
62890,0.396973,-0.809082,0.42627,0
62910,0.423828,-0.79541,0.430664,0
62930,0.446777,-0.794434,0.436035,0
62950,0.445312,-0.796387,0.444336,0
62970,0.433594,-0.762695,0.461914,0
62990,0.436523,-0.737305,0.451172,0
63010,0.416992,-0.724121,0.492188,0
63030,0.416016,-0.722168,0.48877,0
63050,0.394531,-0.713867,0.519043,0
63070,0.383789,-0.69043,0.524902,0
63090,0.424316,-0.729004,0.523926,0
63110,0.364258,-0.727051,0.536133,0
63130,0.34082,-0.729004,0.533203,0
63150,0.348145,-0.763672,0.505859,0
63170,0.351074,-0.730957,0.527832,0
63190,0.390625,-0.72998,0.561035,0
63210,0.404297,-0.731934,0.57373,0
63230,0.378418,-0.754395,0.533691,0
63250,0.325684,-0.752441,0.539062,0
63270,0.333496,-0.719238,0.543945,0
63290,0.312988,-0.709961,0.550293,0
63310,0.311035,-0.71875,0.538086,0
63330,0.29834,-0.691895,0.541504,0
63350,0.290039,-0.677734,0.546387,0
63370,0.308105,-0.673828,0.580078,0
63390,0.294922,-0.658203,0.573242,0
63410,0.285645,-0.691895,0.580078,0
63430,0.294922,-0.688965,0.571289,0
63450,0.272949,-0.728516,0.599121,0
63470,0.249023,-0.711426,0.604004,0
63490,0.257324,-0.736328,0.59668,0
63510,0.266602,-0.740723,0.57666,0
63530,0.286133,-0.740234,0.550781,0
63550,0.263672,-0.748047,0.544434,0
63570,0.234863,-0.721191,0.543945,0
63590,0.237305,-0.71875,0.531738,0
63610,0.220703,-0.740723,0.508301,0
63630,0.188965,-0.75,0.500977,0
63640,0.180176,-0.717285,0.516113,0
63660,0.201172,-0.688965,0.510742,0
63680,0.175293,-0.695312,0.523926,0
63700,0.203613,-0.711914,0.522949,0
63720,0.23877,-0.720703,0.540527,0
63740,0.241211,-0.744629,0.565918,0
63760,0.217773,-0.765625,0.54541,0
63780,0.210938,-0.749512,0.511719,0
63800,0.217773,-0.734375,0.455566,0
63820,0.241699,-0.736816,0.43457,0
63840,0.25293,-0.74707,0.443359,0
63860,0.253906,-0.777344,0.400879,0
63880,0.259766,-0.791016,0.392578,0
63900,0.253418,-0.795898,0.378906,0
63920,0.266113,-0.814453,0.367188,0
63940,0.29834,-0.825684,0.365234,0
63960,0.320801,-0.842285,0.333008,0
63980,0.331543,-0.862793,0.31543,0
64000,0.32959,-0.834961,0.311523,0
64020,0.32959,-0.862305,0.301758,0
64040,0.322266,-0.875,0.300781,0
64060,0.319336,-0.870117,0.302246,0
64080,0.299805,-0.865234,0.310059,0
64100,0.288574,-0.879395,0.276855,0
64120,0.29541,-0.883789,0.28418,0
64140,0.282715,-0.852539,0.276367,0
64160,0.319336,-0.855469,0.28418,0
64180,0.337891,-0.869629,0.274902,0
64200,0.360352,-0.88916,0.26709,0
64220,0.369629,-0.885742,0.251953,0
64240,0.40625,-0.871094,0.243164,0
64260,0.408203,-0.850098,0.251953,0
64280,0.463867,-0.831543,0.230469,0
64300,0.445312,-0.849121,0.212891,0
64320,0.469238,-0.833984,0.211914,0
64340,0.495605,-0.805664,0.196289,0
64360,0.505371,-0.79834,0.189453,0
64380,0.526367,-0.792969,0.194336,0
64400,0.538574,-0.78418,0.197754,0
64420,0.514648,-0.763184,0.212402,0
64440,0.559082,-0.765625,0.213867,0
64460,0.584961,-0.728027,0.188477,0
64480,0.632812,-0.708984,0.19043,0
64500,0.623047,-0.689941,0.225098,0
64520,0.63623,-0.680664,0.236816,0
64540,0.674805,-0.645508,0.219238,0
64560,0.674805,-0.651855,0.225586,0
64580,0.697754,-0.632324,0.225098,0
64600,0.72168,-0.603027,0.23584,0
64620,0.75293,-0.597168,0.256348,0
64640,0.783203,-0.57959,0.253418,0
64660,0.782715,-0.56543,0.253906,0
64680,0.788086,-0.543945,0.273926,0
64700,0.800781,-0.544434,0.291016,0
64720,0.836426,-0.554199,0.314941,0
64740,0.825684,-0.553223,0.298828,0
64760,0.805664,-0.54248,0.323242,0
64780,0.789062,-0.546387,0.367188,0
64800,0.790039,-0.532227,0.365723,0
64820,0.796387,-0.527344,0.397461,0
64840,0.777344,-0.546875,0.422363,0
64860,0.747559,-0.563965,0.418457,0
64880,0.692383,-0.549316,0.441895,0
64900,0.699219,-0.529785,0.454102,0
64920,0.669922,-0.541016,0.464355,0
64940,0.656738,-0.540039,0.483398,0
64960,0.594238,-0.555176,0.47168,0
64980,0.575195,-0.561035,0.53125,0
65000,0.553711,-0.565918,0.519531,0
65020,0.559082,-0.583496,0.503418,0
65040,0.571777,-0.614746,0.485352,0
65060,0.544434,-0.58252,0.555176,0
65080,0.521484,-0.560059,0.51416,0
65100,0.486328,-0.569824,0.491699,0
65120,0.466797,-0.577637,0.501953,0
65140,0.45752,-0.593262,0.580078,0
65160,0.431152,-0.583496,0.57373,0
65180,0.432129,-0.639648,0.544434,0
65200,0.431152,-0.654297,0.501953,0
65220,0.387695,-0.692871,0.462891,0
65240,0.347168,-0.668457,0.430176,0
65260,0.324219,-0.62793,0.398926,0
65280,0.311035,-0.65625,0.379883,0
65300,0.333984,-0.722168,0.330078,0
65320,0.295898,-0.706543,0.340332,0
65340,0.303711,-0.684082,0.344727,0
65360,0.321289,-0.750977,0.312012,0
65380,0.350586,-0.789551,0.300293,0
65400,0.409668,-0.789062,0.299805,0
65420,0.389648,-0.824219,0.287598,0
65440,0.387207,-0.821289,0.257812,0
65460,0.40625,-0.817871,0.255371,0
65480,0.422363,-0.787109,0.24707,0
65500,0.426758,-0.813965,0.22998,0
65520,0.429688,-0.878906,0.22168,0
65540,0.44873,-0.87793,0.1875,0
65560,0.470703,-0.868652,0.177734,0
65580,0.50293,-0.869141,0.139648,0
65600,0.52832,-0.852539,0.154297,0
65620,0.553223,-0.851562,0.124512,0
65640,0.586914,-0.883301,0.0908203,0
65660,0.582031,-0.878418,0.0688477,0
65680,0.614258,-0.861328,0.0537109,0
65700,0.623535,-0.828613,0.0302734,0
65720,0.623535,-0.806641,0.00878906,0
65740,0.662598,-0.806152,-0.0185547,0
65760,0.673828,-0.763184,-0.0273438,0
65780,0.672363,-0.743164,-0.0556641,0
65800,0.661133,-0.69873,-0.0615234,0
65820,0.679688,-0.680664,-0.0717773,0
65840,0.695801,-0.631348,-0.0576172,0
65860,0.6875,-0.633301,-0.0458984,0
65880,0.717285,-0.624512,-0.0644531,0
65900,0.726074,-0.608887,-0.0424805,0
65920,0.753906,-0.572754,-0.0283203,0
65940,0.786621,-0.536621,-0.0195312,0
65960,0.805664,-0.535645,0.00634766,0
65980,0.824707,-0.53125,0.019043,0
66000,0.839844,-0.493164,0.0419922,0
66020,0.857422,-0.473145,0.0571289,0
