Timestamp, Acceleration x, Acceleration y, Acceleration z, Marker
50,-0.367676,-0.877441,0.289551,0
70,-0.361328,-0.876953,0.286133,0
90,-0.365234,-0.877441,0.294434,0
110,-0.378418,-0.873535,0.307129,0
130,-0.388184,-0.877441,0.301758,0
150,-0.384277,-0.870605,0.289551,0
170,-0.381348,-0.871094,0.29248,0
180,-0.388184,-0.858887,0.285156,0
180,-0.391113,-0.856934,0.291016,0
220,-0.390137,-0.855469,0.289062,0
240,-0.383789,-0.859863,0.288086,0
260,-0.375,-0.865234,0.291016,0
280,-0.367676,-0.861816,0.290039,0
300,-0.368164,-0.853516,0.290039,0
320,-0.369141,-0.850586,0.29541,0
340,-0.369629,-0.856934,0.287598,0
360,-0.377441,-0.862305,0.289551,0
380,-0.379883,-0.874023,0.289551,0
400,-0.395508,-0.889648,0.300293,0
420,-0.390137,-0.874023,0.294922,0
440,-0.39209,-0.852539,0.29541,0
460,-0.387695,-0.846191,0.283203,0
480,-0.380371,-0.853516,0.291992,0
500,-0.382324,-0.860352,0.297852,0
520,-0.388672,-0.859863,0.30127,0
540,-0.386719,-0.864258,0.297852,0
560,-0.38916,-0.849121,0.289062,0
580,-0.37793,-0.838867,0.279785,0
600,-0.367676,-0.852539,0.287598,0
620,-0.37207,-0.864746,0.29541,0
640,-0.376953,-0.871094,0.299316,0
660,-0.375,-0.877441,0.295898,0
680,-0.374512,-0.864258,0.29541,0
700,-0.380371,-0.856445,0.290527,0
720,-0.388184,-0.853027,0.298828,0
740,-0.393066,-0.852051,0.29248,0
760,-0.388184,-0.844727,0.283203,0
780,-0.387695,-0.855469,0.282715,0
800,-0.383301,-0.862305,0.289062,0
820,-0.385742,-0.866211,0.294434,0
840,-0.378906,-0.869629,0.294922,0
860,-0.376465,-0.864746,0.289062,0
880,-0.37207,-0.866699,0.291016,0
900,-0.379883,-0.862793,0.294922,0
920,-0.390137,-0.85498,0.29248,0
940,-0.388672,-0.849609,0.286621,0
960,-0.388672,-0.852539,0.287598,0
980,-0.389648,-0.848633,0.286621,0
1000,-0.388672,-0.84375,0.285156,0
1020,-0.384277,-0.847656,0.285645,0
1040,-0.382324,-0.854004,0.289062,0
1060,-0.38916,-0.856934,0.29541,0
1080,-0.386719,-0.862793,0.288574,0
1100,-0.381836,-0.864258,0.294434,0
1120,-0.386719,-0.863281,0.286133,0
1140,-0.385254,-0.861816,0.283203,0
1160,-0.382324,-0.866211,0.282227,0
1180,-0.386719,-0.859375,0.292969,0
1200,-0.385254,-0.85791,0.289551,0
1220,-0.390625,-0.860352,0.281738,0
1240,-0.384766,-0.866211,0.290039,0
1260,-0.384277,-0.870605,0.291016,0
1280,-0.39209,-0.871582,0.290039,0
1300,-0.393066,-0.857422,0.294922,0
1320,-0.38623,-0.838379,0.285156,0
1340,-0.381836,-0.830078,0.284668,0
1360,-0.387207,-0.825684,0.287598,0
1380,-0.391113,-0.825684,0.299316,0
1400,-0.384766,-0.836426,0.30127,0
1420,-0.386719,-0.849609,0.310547,0
1440,-0.384277,-0.85791,0.301758,0
1460,-0.378418,-0.865723,0.291504,0
1480,-0.373047,-0.868164,0.284668,0
1500,-0.369629,-0.86084,0.28418,0
1520,-0.364258,-0.860352,0.288574,0
1540,-0.369141,-0.857422,0.296875,0
1560,-0.366211,-0.848145,0.296875,0
1580,-0.364258,-0.842285,0.300293,0
1600,-0.359863,-0.847656,0.308594,0
1620,-0.365234,-0.855469,0.317871,0
1630,-0.372559,-0.85498,0.322754,0
1650,-0.371094,-0.858398,0.338867,0
1670,-0.364746,-0.857422,0.324707,0
1690,-0.359863,-0.85791,0.325195,0
1710,-0.366699,-0.870117,0.336426,0
1730,-0.369629,-0.884277,0.345215,0
1750,-0.377441,-0.878906,0.336914,0
1770,-0.373535,-0.870117,0.333984,0
1790,-0.376465,-0.858887,0.325684,0
1810,-0.390625,-0.85498,0.32373,0
1830,-0.395508,-0.85791,0.325684,0
1850,-0.386719,-0.839844,0.325195,0
1870,-0.375,-0.827637,0.318848,0
1890,-0.37793,-0.824707,0.326172,0
1910,-0.379395,-0.818359,0.314453,0
1930,-0.371582,-0.818359,0.313477,0
1950,-0.360352,-0.821289,0.308594,0
1970,-0.363281,-0.831543,0.312012,0
1990,-0.368652,-0.850586,0.313477,0
2010,-0.373535,-0.861328,0.310059,0
2030,-0.369629,-0.855469,0.293457,0
2050,-0.367676,-0.849609,0.299316,0
2070,-0.373047,-0.864746,0.313477,0
2090,-0.382812,-0.868164,0.318848,0
2110,-0.385254,-0.871094,0.326172,0
2130,-0.38623,-0.886719,0.331055,0
2150,-0.384766,-0.899902,0.320312,0
2170,-0.37793,-0.877441,0.296387,0
2190,-0.352051,-0.841797,0.270996,0
2210,-0.359863,-0.842285,0.313477,0
2230,-0.365723,-0.836914,0.327148,0
2250,-0.365234,-0.82959,0.323242,0
2270,-0.368164,-0.838379,0.347656,0
2290,-0.365723,-0.839844,0.347656,0
2310,-0.370117,-0.840332,0.328125,0
2330,-0.367188,-0.842285,0.335449,0
2350,-0.377441,-0.84375,0.330566,0
2370,-0.374512,-0.854492,0.316406,0
2390,-0.375488,-0.845703,0.30957,0
2410,-0.379395,-0.841797,0.308594,0
2430,-0.390137,-0.853027,0.32666,0
2450,-0.398926,-0.854492,0.324219,0
2470,-0.395508,-0.841797,0.30957,0
2490,-0.375977,-0.827637,0.294434,0
2510,-0.375,-0.830566,0.310547,0
2530,-0.384277,-0.83252,0.319336,0
2550,-0.383301,-0.834473,0.316895,0
2570,-0.381348,-0.848145,0.313477,0
2590,-0.378418,-0.85791,0.309082,0
2610,-0.382812,-0.856445,0.306152,0
2630,-0.384277,-0.852051,0.307129,0
2650,-0.378418,-0.844727,0.302246,0
2670,-0.383789,-0.844727,0.31543,0
2690,-0.378418,-0.836914,0.32373,0
2710,-0.381836,-0.848145,0.330566,0
2730,-0.375,-0.858398,0.34375,0
2750,-0.384277,-0.856445,0.32666,0
2770,-0.387207,-0.852051,0.318848,0
2790,-0.394531,-0.853027,0.317383,0
2810,-0.387207,-0.847168,0.306152,0
2830,-0.390625,-0.845215,0.305664,0
2850,-0.386719,-0.843262,0.316406,0
2870,-0.388672,-0.847168,0.307617,0
2890,-0.382812,-0.847168,0.305664,0
2910,-0.374023,-0.841797,0.306152,0
2930,-0.375,-0.856934,0.316406,0
2950,-0.378906,-0.853027,0.326172,0
2970,-0.35791,-0.883301,0.319336,0
2990,-0.383789,-0.828613,0.341797,0
3010,-0.377441,-0.816406,0.338379,0
3030,-0.361816,-0.839355,0.317871,0
3050,-0.385254,-0.845215,0.335449,0
3070,-0.37793,-0.812988,0.336914,0
3090,-0.382324,-0.838867,0.324707,0
3110,-0.377441,-0.857422,0.321777,0
3130,-0.370117,-0.859375,0.327148,0
3150,-0.363281,-0.844238,0.319336,0
3170,-0.349121,-0.848633,0.308594,0
3190,-0.36084,-0.822266,0.325684,0
3210,-0.356445,-0.828613,0.325195,0
3230,-0.359863,-0.851074,0.330078,0
3250,-0.366211,-0.864258,0.337891,0
3270,-0.358887,-0.859375,0.352051,0
3290,-0.356445,-0.86377,0.353027,0
3310,-0.364746,-0.86084,0.336914,0
3330,-0.36084,-0.851074,0.327637,0
3350,-0.370117,-0.838867,0.321777,0
3370,-0.384277,-0.84668,0.328125,0
3390,-0.377441,-0.847656,0.33252,0
3410,-0.365723,-0.844238,0.322266,0
3430,-0.35498,-0.833984,0.330566,0
3450,-0.358398,-0.835449,0.328613,0
3470,-0.353516,-0.846191,0.349609,0
3490,-0.352539,-0.854492,0.352539,0
3510,-0.354004,-0.848145,0.347656,0
3530,-0.351074,-0.829102,0.342285,0
3550,-0.349121,-0.82959,0.348145,0
3570,-0.36084,-0.833496,0.344727,0
3590,-0.365234,-0.838867,0.347168,0
3610,-0.350586,-0.844238,0.34375,0
3630,-0.350586,-0.849121,0.350586,0
3650,-0.350586,-0.849609,0.353516,0
3670,-0.344727,-0.848633,0.355957,0
3690,-0.344727,-0.84668,0.370605,0
3710,-0.346191,-0.849121,0.373535,0
3730,-0.347656,-0.862305,0.376465,0
3750,-0.353516,-0.86377,0.370117,0
3770,-0.36084,-0.848145,0.350586,0
3790,-0.366211,-0.837891,0.349609,0
3810,-0.367188,-0.838867,0.347656,0
3830,-0.37207,-0.83252,0.338379,0
3850,-0.363281,-0.829102,0.330078,0
3870,-0.354492,-0.827637,0.322266,0
3890,-0.351562,-0.822266,0.327148,0
3910,-0.35498,-0.828613,0.330566,0
3930,-0.365723,-0.84375,0.338379,0
3950,-0.361816,-0.85791,0.347168,0
3970,-0.35791,-0.866699,0.34375,0
3990,-0.356934,-0.876953,0.345215,0
4010,-0.355957,-0.879883,0.344238,0
4030,-0.347656,-0.85791,0.332031,0
4050,-0.336426,-0.855469,0.328125,0
4070,-0.32373,-0.850586,0.338379,0
4090,-0.324707,-0.845215,0.345703,0
4110,-0.326172,-0.84668,0.347168,0
4130,-0.326172,-0.844238,0.350586,0
4150,-0.338379,-0.837402,0.35791,0
4170,-0.342773,-0.842285,0.353027,0
4180,-0.350098,-0.837891,0.351562,0
4200,-0.354492,-0.833984,0.341309,0
4220,-0.361328,-0.830078,0.336426,0
4240,-0.358398,-0.829102,0.330078,0
4260,-0.366211,-0.831543,0.33252,0
4280,-0.355469,-0.846191,0.334473,0
4300,-0.344727,-0.840332,0.335938,0
4320,-0.355957,-0.850098,0.335449,0
4340,-0.34375,-0.846191,0.341797,0
4360,-0.354492,-0.853027,0.350098,0
4380,-0.345215,-0.851074,0.352051,0
4400,-0.335449,-0.852539,0.348633,0
4420,-0.34375,-0.856445,0.346191,0
4440,-0.349121,-0.860352,0.357422,0
4460,-0.350098,-0.859375,0.349121,0
4480,-0.353027,-0.851562,0.344238,0
4500,-0.353516,-0.84375,0.348145,0
4520,-0.35498,-0.842285,0.348633,0
4540,-0.345215,-0.833008,0.34668,0
4560,-0.351562,-0.85498,0.343262,0
4580,-0.34082,-0.872559,0.354492,0
4600,-0.334473,-0.853516,0.37207,0
4620,-0.341309,-0.844727,0.362793,0
4640,-0.342285,-0.849121,0.351074,0
4660,-0.342773,-0.841309,0.35791,0
4680,-0.337891,-0.82666,0.349609,0
4700,-0.342285,-0.814941,0.351562,0
4720,-0.345215,-0.820312,0.358398,0
4740,-0.345703,-0.836914,0.36084,0
4760,-0.340332,-0.84668,0.356934,0
4780,-0.33252,-0.851074,0.360352,0
4800,-0.334961,-0.859375,0.353516,0
4820,-0.339355,-0.852539,0.352539,0
4840,-0.347656,-0.856934,0.353516,0
4860,-0.354492,-0.843262,0.351562,0
4880,-0.359863,-0.858887,0.331055,0
4900,-0.349609,-0.839355,0.332031,0
4920,-0.350098,-0.836426,0.341309,0
4940,-0.353027,-0.848145,0.345703,0
4960,-0.358398,-0.853027,0.338867,0
4980,-0.347656,-0.851562,0.339355,0
5000,-0.353027,-0.860352,0.340332,0
5020,-0.358398,-0.844238,0.337402,0
5040,-0.35498,-0.844238,0.335449,0
5060,-0.362305,-0.842773,0.336426,0
5080,-0.353516,-0.833496,0.335449,0
5100,-0.351562,-0.848145,0.330078,0
5120,-0.354492,-0.848633,0.331543,0
5140,-0.358398,-0.847168,0.335449,0
5160,-0.357422,-0.847168,0.333008,0
5180,-0.353516,-0.850098,0.339355,0
5200,-0.325195,-0.849121,0.334473,0
5220,-0.35791,-0.85498,0.335449,0
5240,-0.369141,-0.864258,0.338379,0
5260,-0.32959,-0.824707,0.337402,0
5280,-0.393066,-0.861816,0.345703,0
5300,-0.412109,-0.844727,0.328125,0
5320,-0.289551,-0.821289,0.331055,0
5340,-0.318359,-0.822754,0.333008,0
5360,-0.347656,-0.841309,0.34375,0
5380,-0.315918,-0.852051,0.351074,0
5400,-0.364258,-0.885254,0.359863,0
5420,-0.351562,-0.861816,0.353516,0
5440,-0.348633,-0.845215,0.342773,0
5460,-0.359375,-0.833008,0.32959,0
5480,-0.356445,-0.835449,0.334473,0
5500,-0.355957,-0.853516,0.32666,0
5520,-0.354004,-0.849121,0.34082,0
5540,-0.354492,-0.850098,0.337402,0
5560,-0.345215,-0.845703,0.339355,0
5580,-0.344238,-0.845215,0.340332,0
5600,-0.347168,-0.848633,0.346191,0
5620,-0.345703,-0.852539,0.34375,0
5640,-0.338379,-0.855469,0.34375,0
5660,-0.34375,-0.854492,0.341309,0
5680,-0.342773,-0.849121,0.344727,0
5700,-0.352051,-0.84375,0.34668,0
5720,-0.349121,-0.842285,0.344238,0
5740,-0.345703,-0.848633,0.344238,0
5760,-0.345703,-0.850098,0.356445,0
5780,-0.351074,-0.847168,0.352051,0
5800,-0.348145,-0.849121,0.336426,0
5820,-0.342773,-0.847656,0.337402,0
5840,-0.350586,-0.850586,0.338867,0
5860,-0.353516,-0.848145,0.338379,0
5880,-0.351074,-0.844727,0.338867,0
5900,-0.350586,-0.845215,0.339844,0
5920,-0.349609,-0.848633,0.348633,0
5940,-0.348633,-0.848145,0.342773,0
5960,-0.345215,-0.84668,0.341797,0
5980,-0.34668,-0.84375,0.331543,0
6000,-0.341797,-0.848633,0.338379,0
6020,-0.34375,-0.853027,0.347168,0
6040,-0.358398,-0.848145,0.343262,0
6060,-0.349609,-0.856934,0.334473,0
6080,-0.344727,-0.855469,0.349609,0
6100,-0.347656,-0.852539,0.343262,0
6120,-0.348633,-0.860352,0.348633,0
6140,-0.347656,-0.866211,0.349609,0
6160,-0.356934,-0.861816,0.343262,0
6180,-0.358887,-0.845215,0.334473,0
6200,-0.355957,-0.827148,0.335449,0
6220,-0.349609,-0.827148,0.337402,0
6240,-0.352051,-0.838867,0.333496,0
6260,-0.345703,-0.847656,0.336914,0
6280,-0.338379,-0.858887,0.335938,0
6300,-0.333984,-0.858398,0.334961,0
6320,-0.336426,-0.855957,0.339355,0
6340,-0.334961,-0.851562,0.331055,0
6360,-0.36084,-0.854492,0.335449,0
6380,-0.351562,-0.84375,0.337891,0
6400,-0.358398,-0.844238,0.342773,0
6420,-0.36084,-0.842285,0.32959,0
6440,-0.355957,-0.845215,0.336426,0
6460,-0.358887,-0.850586,0.329102,0
6480,-0.361328,-0.854492,0.327148,0
6500,-0.358887,-0.850098,0.333496,0
6520,-0.355957,-0.840332,0.32959,0
6540,-0.359863,-0.840332,0.328613,0
6560,-0.351074,-0.846191,0.330566,0
6580,-0.348145,-0.843262,0.337891,0
6600,-0.353027,-0.854004,0.336426,0
6620,-0.347168,-0.857422,0.335449,0
6640,-0.347656,-0.858398,0.339355,0
6660,-0.351074,-0.860352,0.345215,0
6680,-0.35498,-0.855469,0.339355,0
6700,-0.352539,-0.852051,0.331543,0
6710,-0.356934,-0.850098,0.330566,0
6730,-0.360352,-0.846191,0.335449,0
6750,-0.354492,-0.847656,0.336914,0
6770,-0.347168,-0.838867,0.342285,0
6790,-0.361816,-0.844238,0.32959,0
6810,-0.359375,-0.845215,0.334961,0
6830,-0.394531,-0.850098,0.338867,0
6850,-0.341797,-0.852539,0.324707,0
6870,-0.323242,-0.832031,0.32666,0
6890,-0.323242,-0.84375,0.334961,0
6910,-0.257812,-0.853516,0.352051,0
6930,-0.345215,-0.866211,0.352539,0
6950,-0.449219,-0.849121,0.345703,0
6970,-0.332031,-0.856934,0.339844,0
6990,-0.303223,-0.844238,0.32666,0
7010,-0.382324,-0.836426,0.333496,0
7030,-0.346191,-0.847168,0.336914,0
7050,-0.343262,-0.858398,0.341309,0
7070,-0.372559,-0.846191,0.341309,0
7090,-0.350098,-0.841309,0.338379,0
7110,-0.346191,-0.855469,0.349609,0
7130,-0.398438,-0.818359,0.344238,0
7150,-0.313965,-0.841797,0.327148,0
7170,-0.316406,-0.876953,0.328613,0
7190,-0.355469,-0.872559,0.330078,0
7210,-0.351562,-0.863281,0.340332,0
7230,-0.351074,-0.852539,0.337891,0
7250,-0.359375,-0.838379,0.332031,0
7270,-0.355957,-0.841309,0.335938,0
7290,-0.335449,-0.814453,0.361328,0
7310,-0.391602,-0.880371,0.289551,0
7330,-0.352051,-0.836426,0.359375,0
7350,-0.353516,-0.857422,0.328125,0
7370,-0.361816,-0.842773,0.331055,0
7390,-0.353027,-0.840332,0.333008,0
7410,-0.368652,-0.837402,0.333008,0
7430,-0.368652,-0.855469,0.335449,0
7450,-0.354492,-0.866211,0.340332,0
7470,-0.364258,-0.870605,0.349121,0
7490,-0.365234,-0.860352,0.335938,0
7510,-0.356934,-0.853516,0.333496,0
7530,-0.353027,-0.848633,0.324707,0
7550,-0.356934,-0.839355,0.324707,0
7570,-0.354004,-0.844238,0.32959,0
7590,-0.350098,-0.844238,0.333008,0
7610,-0.351562,-0.84082,0.329102,0
7630,-0.347168,-0.839355,0.330566,0
7650,-0.350098,-0.838867,0.326172,0
7670,-0.355957,-0.841309,0.328613,0
7690,-0.353027,-0.844238,0.321777,0
7710,-0.361816,-0.847168,0.328613,0
7730,-0.369629,-0.847168,0.32666,0
7750,-0.37207,-0.85498,0.324707,0
7770,-0.366699,-0.85498,0.319336,0
7790,-0.368164,-0.852051,0.317383,0
7810,-0.366211,-0.852051,0.322266,0
7830,-0.364746,-0.853027,0.325195,0
7850,-0.356934,-0.855469,0.327637,0
7870,-0.354004,-0.849609,0.334473,0
7890,-0.354492,-0.847168,0.337402,0
7910,-0.358398,-0.847656,0.338379,0
7930,-0.353027,-0.850098,0.339844,0
7950,-0.348145,-0.854004,0.338867,0
7970,-0.352051,-0.855957,0.350586,0
7990,-0.355957,-0.855469,0.347656,0
8010,-0.352539,-0.850098,0.34668,0
8030,-0.351562,-0.844238,0.344727,0
8050,-0.354492,-0.847168,0.347168,0
8070,-0.352539,-0.851562,0.354004,0
8090,-0.348145,-0.854492,0.354004,0
8110,-0.348145,-0.851074,0.344727,0
8130,-0.348145,-0.838379,0.347168,0
8150,-0.350098,-0.834473,0.336426,0
8170,-0.350586,-0.824707,0.328613,0
8190,-0.35791,-0.833008,0.333496,0
8210,-0.364258,-0.849121,0.338867,0
8230,-0.361816,-0.852539,0.333984,0
8250,-0.351562,-0.859863,0.33252,0
8270,-0.351074,-0.865234,0.335449,0
8290,-0.370605,-0.857422,0.339844,0
8310,-0.356445,-0.86084,0.337402,0
8330,-0.339355,-0.855469,0.336426,0
8350,-0.349609,-0.857422,0.347168,0
8370,-0.367188,-0.858398,0.347656,0
8390,-0.341309,-0.862305,0.351074,0
8410,-0.355957,-0.858398,0.348633,0
8430,-0.355957,-0.841309,0.342773,0
8450,-0.357422,-0.837402,0.337891,0
8470,-0.366699,-0.830566,0.337891,0
8490,-0.364746,-0.828613,0.331055,0
8510,-0.361816,-0.828613,0.335938,0
8530,-0.360352,-0.830078,0.343262,0
8550,-0.357422,-0.842285,0.338867,0
8570,-0.359863,-0.846191,0.338379,0
8590,-0.36084,-0.848633,0.336426,0
8610,-0.355469,-0.845703,0.326172,0
8630,-0.353516,-0.850586,0.32373,0
8650,-0.358398,-0.861816,0.334961,0
8670,-0.35791,-0.860352,0.343262,0
8690,-0.349121,-0.861328,0.336914,0
8710,-0.353516,-0.856934,0.335938,0
8730,-0.354004,-0.845703,0.333496,0
8750,-0.367676,-0.838867,0.32666,0
8770,-0.372559,-0.837891,0.327148,0
8790,-0.376465,-0.836426,0.322266,0
8810,-0.373535,-0.845703,0.325684,0
8830,-0.375488,-0.84668,0.32959,0
8850,-0.368652,-0.847168,0.330078,0
8870,-0.369141,-0.842285,0.328613,0
8890,-0.366211,-0.845215,0.33252,0
8910,-0.358398,-0.84668,0.345215,0
8930,-0.356445,-0.844238,0.337402,0
8950,-0.356445,-0.836914,0.334473,0
8970,-0.356445,-0.837402,0.33252,0
8990,-0.355957,-0.839844,0.33252,0
9010,-0.363281,-0.837891,0.334473,0
9030,-0.361816,-0.844238,0.333496,0
9050,-0.354492,-0.851074,0.337891,0
9070,-0.364258,-0.855469,0.34375,0
9090,-0.363281,-0.867188,0.333008,0
9110,-0.355469,-0.860352,0.335938,0
9130,-0.35791,-0.848145,0.339355,0
9150,-0.366211,-0.838379,0.339355,0
9170,-0.366699,-0.834961,0.337402,0
9190,-0.365234,-0.837891,0.334473,0
9210,-0.362305,-0.840332,0.337891,0
9230,-0.353516,-0.845703,0.334961,0
9240,-0.352051,-0.84668,0.344238,0
9260,-0.35498,-0.853027,0.338379,0
9280,-0.353516,-0.851074,0.334961,0
9300,-0.35498,-0.850586,0.341797,0
9320,-0.360352,-0.842285,0.344238,0
9340,-0.361816,-0.844727,0.341797,0
9360,-0.360352,-0.848633,0.340332,0
9380,-0.362305,-0.848633,0.34668,0
9400,-0.360352,-0.84375,0.347168,0
9420,-0.358887,-0.844238,0.344238,0
9440,-0.36377,-0.84668,0.341797,0
9460,-0.359863,-0.844727,0.336914,0
9480,-0.36377,-0.846191,0.348145,0
9500,-0.361328,-0.847656,0.340332,0
9520,-0.357422,-0.845703,0.342285,0
9540,-0.356934,-0.847168,0.339844,0
9560,-0.355469,-0.84375,0.338379,0
9580,-0.35498,-0.848145,0.342773,0
9600,-0.358398,-0.851562,0.344727,0
9620,-0.359375,-0.849609,0.339355,0
9640,-0.358887,-0.849609,0.339355,0
9660,-0.361328,-0.84668,0.33252,0
9680,-0.359375,-0.847656,0.338867,0
9700,-0.365723,-0.84668,0.337402,0
9720,-0.363281,-0.843262,0.32666,0
9740,-0.36084,-0.846191,0.331055,0
9760,-0.357422,-0.845703,0.341309,0
9780,-0.35791,-0.84668,0.342773,0
9800,-0.366211,-0.845215,0.334961,0
9820,-0.358887,-0.847168,0.332031,0
9840,-0.361816,-0.840332,0.336426,0
9860,-0.366211,-0.848633,0.337891,0
9880,-0.362793,-0.85498,0.333496,0
9900,-0.358398,-0.846191,0.33252,0
9920,-0.360352,-0.841797,0.333008,0
9940,-0.364746,-0.84082,0.332031,0
9960,-0.362793,-0.852539,0.328125,0
9980,-0.361328,-0.84668,0.331055,0
10000,-0.360352,-0.84668,0.334473,0
10020,-0.358887,-0.847168,0.336426,0
10040,-0.362793,-0.849609,0.335938,0
10060,-0.365234,-0.842773,0.330078,0
10080,-0.364746,-0.844727,0.330078,0
10100,-0.363281,-0.844238,0.331543,0
10120,-0.368652,-0.845703,0.334473,0
10140,-0.367676,-0.847656,0.330566,0
10160,-0.361816,-0.847168,0.334473,0
10180,-0.368164,-0.84668,0.327637,0
10200,-0.363281,-0.84668,0.330566,0
10220,-0.366211,-0.851562,0.33252,0
10240,-0.361328,-0.84375,0.330078,0
10260,-0.367188,-0.848145,0.334473,0
10280,-0.366211,-0.844727,0.32959,0
10300,-0.364746,-0.847168,0.32959,0
10320,-0.364746,-0.845215,0.324707,0
10340,-0.36377,-0.845215,0.333496,0
10360,-0.362305,-0.851562,0.32666,0
10380,-0.362305,-0.851562,0.335449,0
10400,-0.362305,-0.851562,0.332031,0
10420,-0.364258,-0.84668,0.335449,0
10440,-0.366211,-0.854492,0.340332,0
10460,-0.366699,-0.847656,0.334473,0
10480,-0.367188,-0.842773,0.344238,0
10500,-0.362793,-0.843262,0.345703,0
10520,-0.366699,-0.839355,0.351562,0
10540,-0.360352,-0.845215,0.358398,0
10560,-0.353516,-0.838867,0.34375,0
10580,-0.358398,-0.834473,0.351074,0
10600,-0.352539,-0.859375,0.333984,0
10620,-0.34668,-0.878418,0.353027,0
10640,-0.361816,-0.869629,0.37793,0
10660,-0.370605,-0.853516,0.358398,0
10680,-0.366699,-0.84082,0.365723,0
10700,-0.352539,-0.806641,0.32959,0
10720,-0.349121,-0.815918,0.336426,0
10740,-0.334473,-0.852051,0.364258,0
10760,-0.353516,-0.87207,0.391113,0
10780,-0.359863,-0.82959,0.35498,0
10800,-0.366699,-0.798828,0.367188,0
10820,-0.31543,-0.81543,0.380371,0
10840,-0.333008,-0.832031,0.356445,0
10860,-0.34668,-0.851074,0.378418,0
10880,-0.32373,-0.87207,0.404785,0
10900,-0.339355,-0.850586,0.409668,0
10920,-0.364258,-0.851074,0.460449,0
10940,-0.387695,-0.886719,0.487305,0
10960,-0.436523,-0.919922,0.494629,0
10980,-0.449707,-0.931641,0.451172,0
11000,-0.484375,-0.8125,0.429688,0
11000,-0.350586,-0.828613,0.353027,0
11040,-0.375488,-0.827637,0.408691,0
11060,-0.316895,-0.817871,0.415527,0
11080,-0.318848,-0.762695,0.460938,0
11100,-0.135742,-0.71875,0.383301,0
11120,-0.134766,-0.935059,0.374512,0
11140,-0.123535,-0.908691,0.415527,0
11160,-0.17041,-0.758789,0.418457,0
11180,-0.03125,-0.760254,0.415039,0
11200,-0.00976562,-0.876953,0.442383,0
11220,-0.0644531,-0.877441,0.42334,0
11240,-0.0595703,-0.849121,0.442383,0
11260,-0.0078125,-0.821289,0.485352,0
11280,0.0864258,-0.747559,0.477051,0
11300,0.251465,-0.704102,0.498535,0
11300,0.0839844,-0.766602,0.48291,0
11320,0.0327148,-0.810547,0.452148,0
11340,0.118164,-0.844727,0.417969,0
11360,0.101074,-0.83252,0.416016,0
11380,0.175781,-0.904785,0.469238,0
11400,0.146973,-0.797852,0.115723,0
11420,0.198242,-0.905273,0.62793,0
11440,0.745117,-0.668945,0.239258,0
11460,0.133301,-0.724609,0.00878906,0
11500,-0.367188,-0.888184,0.154785,0
11520,-0.390137,-0.974609,0.295898,0
11540,-0.37207,-0.986816,0.276367,0
11560,-0.423828,-0.921875,0.0996094,0
11580,-0.0239258,-0.786621,-0.0302734,0
11600,1.04248,-0.690918,0.460938,0
11620,0.102051,-0.9375,0.610352,0
11640,0.135742,-0.755859,0.137207,0
11660,0.285645,-0.97168,0.742188,0
11680,0.225098,-0.780273,0.190918,0
11700,-0.610352,-1.02734,0.186523,0
11720,0.531738,-0.822266,0.724609,0
11740,0.280273,-0.664062,0.316895,0
11760,-0.555664,-0.970703,0.518555,0
11770,-0.239746,-0.902344,0.555664,0
11790,-0.239746,-0.90918,0.689941,0
11810,-0.0444336,-0.905273,0.585449,0
11830,-0.114258,-1.01953,0.262695,0
11850,0.0415039,-0.745117,0.354492,0
11870,0.0932617,-0.773926,0.262207,0
11890,0.0737305,-0.836426,0.193848,0
11910,0.0180664,-0.893555,0.241699,0
11930,-0.0405273,-0.900879,0.260742,0
11950,-0.119141,-0.852051,0.286133,0
11970,-0.20752,-0.945801,0.355469,0
11990,-0.227539,-0.975586,0.380371,0
12010,-0.246582,-0.90332,0.398438,0
12030,-0.229004,-0.837891,0.378418,0
12050,-0.137207,-0.836914,0.364258,0
12070,-0.178223,-0.930176,0.385742,0
12090,-0.0678711,-0.848145,0.358887,0
12110,0.00683594,-0.84375,0.32959,0
12130,0.0336914,-0.82959,0.349121,0
12150,0.00390625,-0.855957,0.364746,0
12170,-0.0424805,-0.887207,0.382324,0
12190,-0.0556641,-0.943359,0.411133,0
12210,-0.0219727,-0.942383,0.418945,0
12230,-0.0214844,-0.921387,0.413086,0
12250,-0.0380859,-0.886719,0.397461,0
12270,-0.111328,-0.879395,0.386719,0
12290,-0.106934,-0.956543,0.440918,0
12310,-0.14209,-0.956543,0.32373,0
12330,-0.0922852,-0.848633,0.311523,0
12350,-0.0932617,-0.762207,0.353516,0
12370,-0.105469,-0.805176,0.34668,0
12390,-0.151855,-0.902832,0.382812,0
12410,-0.153809,-0.977539,0.397461,0
12430,-0.115723,-0.969238,0.358398,0
12450,-0.138184,-0.884277,0.382324,0
12470,-0.119629,-0.869141,0.359863,0
12490,-0.123535,-0.868164,0.368652,0
12510,-0.0976562,-0.914551,0.365723,0
12530,-0.0834961,-0.899902,0.369141,0
12550,-0.0952148,-0.873047,0.364746,0
12570,-0.100098,-0.867188,0.36377,0
12590,-0.106934,-0.875488,0.360352,0
12610,-0.114258,-0.904297,0.376953,0
12630,-0.130859,-0.897949,0.383301,0
12650,-0.151367,-0.895996,0.380371,0
12670,-0.158203,-0.900879,0.384277,0
12690,-0.17334,-0.88916,0.382324,0
12710,-0.155762,-0.880371,0.365723,0
12730,-0.121094,-0.882324,0.344727,0
12750,-0.0717773,-0.871582,0.355469,0
12770,-0.0351562,-0.850586,0.375977,0
12790,-0.0268555,-0.859375,0.369629,0
12810,-0.0146484,-0.879395,0.363281,0
12830,-0.0180664,-0.895996,0.370605,0
12850,-0.027832,-0.901855,0.374512,0
12870,-0.0229492,-0.880371,0.393066,0
12890,-0.0224609,-0.875488,0.382812,0
12910,-0.0571289,-0.882324,0.39502,0
12930,-0.123047,-0.897949,0.410156,0
12950,-0.19873,-0.918457,0.42041,0
12970,-0.240234,-0.950684,0.425293,0
12990,-0.227051,-0.902832,0.381836,0
13010,-0.165527,-0.834473,0.362305,0
13030,-0.138672,-0.802734,0.369629,0
13050,-0.127441,-0.823242,0.382812,0
13070,-0.112305,-0.856934,0.382812,0
13090,-0.115723,-0.871094,0.380859,0
13110,-0.09375,-0.89502,0.399902,0
13130,-0.0820312,-0.898926,0.406738,0
13150,-0.0668945,-0.900391,0.401367,0
13170,-0.0576172,-0.88623,0.39209,0
13190,-0.0712891,-0.885742,0.395508,0
13210,-0.0644531,-0.879395,0.371094,0
13230,-0.0673828,-0.873047,0.385254,0
13250,-0.0795898,-0.883789,0.39209,0
13270,-0.0966797,-0.880371,0.390137,0
13290,-0.100098,-0.884766,0.401855,0
13310,-0.111328,-0.885742,0.411133,0
13330,-0.112793,-0.873047,0.403809,0
13350,-0.115723,-0.867188,0.406738,0
13370,-0.114746,-0.864746,0.404297,0
13390,-0.109863,-0.862793,0.39502,0
13410,-0.103027,-0.866699,0.394043,0
13430,-0.0913086,-0.873047,0.39209,0
13450,-0.0869141,-0.874023,0.396973,0
13470,-0.0917969,-0.884277,0.400391,0
13490,-0.09375,-0.879883,0.382324,0
13510,-0.101074,-0.881836,0.38623,0
13530,-0.105957,-0.884277,0.385254,0
13550,-0.106445,-0.87793,0.385742,0
13570,-0.114746,-0.878906,0.384766,0
13590,-0.113281,-0.87793,0.381348,0
13610,-0.114746,-0.878418,0.39209,0
13630,-0.114258,-0.871582,0.395508,0
13650,-0.107422,-0.874023,0.391602,0
13670,-0.108398,-0.867676,0.387695,0
13690,-0.113281,-0.871094,0.390137,0
13710,-0.100586,-0.882812,0.387207,0
13730,-0.106934,-0.880859,0.392578,0
13750,-0.111328,-0.882324,0.385742,0
13770,-0.103027,-0.875977,0.38623,0
13790,-0.0834961,-0.880859,0.390625,0
13810,-0.0932617,-0.875488,0.39209,0
13830,-0.105957,-0.874512,0.395508,0
13850,-0.104492,-0.875,0.386719,0
13870,-0.102051,-0.876465,0.390137,0
13890,-0.105469,-0.868652,0.389648,0
13910,-0.106934,-0.872559,0.391113,0
13930,-0.108887,-0.878906,0.393066,0
13950,-0.106934,-0.879883,0.386719,0
13970,-0.100098,-0.875977,0.383301,0
13990,-0.100586,-0.875977,0.390137,0
14010,-0.107422,-0.872559,0.390137,0
14030,-0.105957,-0.876953,0.391602,0
14050,-0.102051,-0.874023,0.390137,0
14070,-0.105957,-0.875488,0.388184,0
14090,-0.103516,-0.878418,0.385742,0
14110,-0.105957,-0.881348,0.385254,0
14130,-0.101562,-0.882324,0.380859,0
14150,-0.107422,-0.882324,0.385254,0
14170,-0.10791,-0.880371,0.391113,0
14190,-0.110352,-0.876953,0.384277,0
14210,-0.111816,-0.873047,0.385742,0
14230,-0.112793,-0.871582,0.384277,0
14250,-0.105957,-0.879883,0.391113,0
14270,-0.106934,-0.875,0.390137,0
14290,-0.113281,-0.880859,0.381836,0
14310,-0.109863,-0.881836,0.386719,0
14320,-0.106934,-0.882324,0.38916,0
14340,-0.110352,-0.876465,0.393555,0
14360,-0.106934,-0.881836,0.383789,0
14380,-0.10498,-0.883789,0.383301,0
14400,-0.107422,-0.874512,0.387207,0
14420,-0.106934,-0.870117,0.380859,0
14440,-0.10791,-0.867676,0.389648,0
14460,-0.110352,-0.871582,0.383301,0
14480,-0.111328,-0.876465,0.387207,0
14500,-0.106445,-0.879395,0.390137,0
14520,-0.112793,-0.878418,0.388672,0
14540,-0.116211,-0.880859,0.390625,0
14560,-0.114746,-0.886719,0.394531,0
14580,-0.10791,-0.878418,0.382812,0
14600,-0.109375,-0.872559,0.381348,0
14620,-0.11377,-0.875977,0.380371,0
14640,-0.112793,-0.875488,0.37793,0
14660,-0.111328,-0.878906,0.378418,0
14680,-0.112793,-0.884277,0.381836,0
14700,-0.114258,-0.885742,0.384766,0
14720,-0.115234,-0.890137,0.387207,0
14740,-0.114258,-0.881836,0.382324,0
14760,-0.108398,-0.874023,0.374512,0
14780,-0.116699,-0.875,0.378418,0
14800,-0.116211,-0.880371,0.380859,0
14820,-0.121094,-0.882324,0.381836,0
14840,-0.112793,-0.877441,0.378906,0
14860,-0.111816,-0.870605,0.387207,0
14880,-0.110352,-0.880371,0.375977,0
14900,-0.11377,-0.878418,0.379883,0
14920,-0.115234,-0.882324,0.382324,0
14940,-0.116211,-0.88623,0.380371,0
14960,-0.115234,-0.886719,0.384766,0
14980,-0.115234,-0.88623,0.383789,0
15000,-0.116211,-0.879883,0.381348,0
15020,-0.116699,-0.880371,0.381348,0
15040,-0.114746,-0.883301,0.381348,0
15060,-0.117188,-0.879395,0.383301,0
15080,-0.118164,-0.87793,0.378418,0
15100,-0.121582,-0.874512,0.382324,0
15120,-0.118164,-0.885254,0.382812,0
15140,-0.116699,-0.880371,0.384766,0
15160,-0.117188,-0.875488,0.383789,0
15180,-0.120605,-0.87793,0.382324,0
15200,-0.116211,-0.879883,0.378906,0
15220,-0.113281,-0.875977,0.371582,0
15240,-0.118164,-0.880859,0.376465,0
15260,-0.118164,-0.876953,0.378418,0
15280,-0.115723,-0.876465,0.376465,0
15300,-0.119629,-0.879883,0.377441,0
15320,-0.117188,-0.878906,0.382324,0
15340,-0.116699,-0.884766,0.386719,0
15360,-0.120605,-0.885742,0.376465,0
15380,-0.118652,-0.890625,0.380371,0
15400,-0.114258,-0.883301,0.380371,0
15420,-0.117676,-0.880371,0.379883,0
15440,-0.121582,-0.879395,0.37793,0
15460,-0.112793,-0.879883,0.382324,0
15480,-0.117676,-0.880859,0.381348,0
15500,-0.114746,-0.884277,0.37793,0
15520,-0.110352,-0.881836,0.376465,0
15540,-0.119629,-0.885254,0.379395,0
15560,-0.119629,-0.881836,0.379883,0
15580,-0.11377,-0.872559,0.380859,0
15600,-0.116699,-0.875977,0.381836,0
15620,-0.121582,-0.87793,0.375977,0
15640,-0.120117,-0.873047,0.383789,0
15660,-0.114746,-0.875,0.378906,0
15680,-0.121582,-0.875977,0.380859,0
15700,-0.117676,-0.881348,0.374512,0
15720,-0.114258,-0.881836,0.377441,0
15740,-0.115723,-0.888184,0.377441,0
15760,-0.11377,-0.889648,0.381836,0
15780,-0.11084,-0.885254,0.384277,0
15800,-0.115234,-0.879395,0.380371,0
15820,-0.118164,-0.874023,0.376953,0
15840,-0.121094,-0.873047,0.375488,0
15860,-0.119629,-0.876953,0.384277,0
15880,-0.125488,-0.887207,0.388184,0
15900,-0.121582,-0.885254,0.385742,0
15920,-0.115234,-0.879883,0.374512,0
15940,-0.112793,-0.875,0.369141,0
15960,-0.115234,-0.867676,0.372559,0
15980,-0.11377,-0.878418,0.386719,0
16000,-0.118164,-0.891602,0.39209,0
16020,-0.117188,-0.899902,0.387695,0
16040,-0.116211,-0.891602,0.383789,0
16060,-0.119141,-0.881348,0.376465,0
16080,-0.120117,-0.875488,0.37793,0
16100,-0.12207,-0.872559,0.382812,0
16120,-0.118652,-0.876465,0.373047,0
16140,-0.116211,-0.872559,0.381836,0
16160,-0.115234,-0.866211,0.370117,0
16180,-0.116699,-0.874512,0.374023,0
16200,-0.117676,-0.884277,0.388184,0
16220,-0.125,-0.891602,0.384766,0
16240,-0.120605,-0.894531,0.374023,0
16260,-0.118652,-0.887207,0.377441,0
16280,-0.119629,-0.881836,0.376953,0
16300,-0.123535,-0.880371,0.381836,0
16320,-0.111328,-0.881348,0.37793,0
16340,-0.117188,-0.870117,0.375,0
16360,-0.115723,-0.877441,0.374512,0
16380,-0.11377,-0.885254,0.375488,0
16400,-0.11377,-0.885254,0.377441,0
16420,-0.116699,-0.88916,0.37793,0
16440,-0.113281,-0.884766,0.364746,0
16460,-0.114746,-0.883789,0.383301,0
16480,-0.119629,-0.883301,0.37793,0
16500,-0.119141,-0.885254,0.380371,0
16520,-0.120605,-0.876953,0.379395,0
16540,-0.120605,-0.879395,0.378906,0
16560,-0.115234,-0.880371,0.375977,0
16580,-0.119141,-0.881836,0.37207,0
16600,-0.119629,-0.875977,0.371094,0
16620,-0.118652,-0.881836,0.371094,0
16640,-0.119629,-0.887695,0.37207,0
16660,-0.115234,-0.892578,0.370605,0
16680,-0.119141,-0.882812,0.374023,0
16700,-0.117676,-0.884277,0.367188,0
16720,-0.110352,-0.879883,0.374512,0
16740,-0.115723,-0.884766,0.373535,0
16760,-0.114746,-0.881348,0.368652,0
16780,-0.117188,-0.881836,0.375,0
16800,-0.12207,-0.891602,0.375488,0
16820,-0.120605,-0.882324,0.371094,0
16840,-0.122559,-0.887695,0.376465,0
16850,-0.120605,-0.885254,0.377441,0
16870,-0.120117,-0.881348,0.373047,0
16890,-0.114258,-0.881348,0.377441,0
16910,-0.116211,-0.880371,0.375488,0
16930,-0.111816,-0.879883,0.375977,0
16950,-0.117676,-0.879395,0.379883,0
16970,-0.116699,-0.880371,0.382324,0
16990,-0.115234,-0.88623,0.375,0
17010,-0.115723,-0.887695,0.385254,0
17030,-0.121582,-0.890137,0.390137,0
17050,-0.123047,-0.889648,0.373535,0
17070,-0.117188,-0.880859,0.378418,0
17090,-0.117676,-0.870605,0.380859,0
17110,-0.120117,-0.871582,0.373535,0
17130,-0.111328,-0.884277,0.371094,0
17150,-0.114746,-0.884277,0.37793,0
17170,-0.118164,-0.88623,0.374512,0
17190,-0.111816,-0.887695,0.368164,0
17210,-0.115234,-0.885254,0.366699,0
17230,-0.119141,-0.894531,0.367676,0
17250,-0.114746,-0.891602,0.358887,0
17270,-0.111328,-0.879883,0.37207,0
17290,-0.116211,-0.880371,0.383789,0
17310,-0.123535,-0.885742,0.381836,0
17330,-0.117676,-0.877441,0.369629,0
17350,-0.12207,-0.87793,0.368652,0
17370,-0.125,-0.888184,0.372559,0
17390,-0.126465,-0.88623,0.365234,0
17410,-0.120605,-0.890625,0.371094,0
17430,-0.120605,-0.891113,0.370117,0
17450,-0.121094,-0.887695,0.373535,0
17470,-0.116211,-0.891602,0.373535,0
17490,-0.115723,-0.88623,0.371094,0
17510,-0.118164,-0.884766,0.370117,0
17530,-0.126953,-0.880859,0.367188,0
17550,-0.121582,-0.893066,0.365234,0
17570,-0.114258,-0.886719,0.361328,0
17590,-0.108887,-0.875,0.366699,0
17610,-0.117676,-0.893555,0.374512,0
17630,-0.120605,-0.903809,0.375488,0
17650,-0.118652,-0.899902,0.372559,0
17670,-0.123047,-0.89209,0.370605,0
17690,-0.123535,-0.88623,0.370605,0
17710,-0.124512,-0.879395,0.369141,0
17730,-0.119629,-0.877441,0.372559,0
17750,-0.119629,-0.874512,0.372559,0
17770,-0.123047,-0.877441,0.373535,0
17790,-0.123535,-0.882812,0.365723,0
17810,-0.124023,-0.883301,0.359863,0
17830,-0.115723,-0.889648,0.370605,0
17850,-0.122559,-0.89209,0.380859,0
17870,-0.125488,-0.900879,0.375,0
17890,-0.119141,-0.896973,0.364746,0
17910,-0.123047,-0.894043,0.366211,0
17930,-0.124023,-0.88623,0.367676,0
17950,-0.121582,-0.883301,0.365234,0
17970,-0.12207,-0.881836,0.370605,0
17990,-0.120117,-0.892578,0.362305,0
18010,-0.118652,-0.891602,0.37207,0
18030,-0.115723,-0.890137,0.366211,0
18050,-0.121582,-0.89209,0.365723,0
18070,-0.124023,-0.891113,0.362305,0
18090,-0.121582,-0.875488,0.353516,0
18110,-0.120117,-0.869141,0.356445,0
18130,-0.130371,-0.875977,0.366699,0
18150,-0.12207,-0.881348,0.37207,0
18170,-0.111816,-0.889648,0.373535,0
18190,-0.119629,-0.892578,0.369629,0
18210,-0.125977,-0.886719,0.373047,0
18230,-0.122559,-0.890625,0.370605,0
18250,-0.126465,-0.89209,0.367676,0
18270,-0.125,-0.896484,0.375488,0
18290,-0.127441,-0.907227,0.37793,0
18310,-0.123535,-0.892578,0.374023,0
18330,-0.111328,-0.878906,0.358398,0
18350,-0.108887,-0.871582,0.368164,0
18370,-0.124512,-0.872559,0.36084,0
18390,-0.118652,-0.871582,0.367676,0
18410,-0.121094,-0.881836,0.380371,0
18430,-0.118652,-0.888672,0.366699,0
18450,-0.119141,-0.899414,0.368164,0
18470,-0.122559,-0.901855,0.372559,0
18490,-0.125977,-0.901367,0.362793,0
18510,-0.12793,-0.895508,0.362305,0
18530,-0.123047,-0.885742,0.355957,0
18550,-0.119629,-0.881348,0.359375,0
18570,-0.121582,-0.883789,0.364746,0
18590,-0.123047,-0.887207,0.364258,0
18610,-0.124512,-0.889648,0.36084,0
18630,-0.123535,-0.898438,0.366211,0
18650,-0.128418,-0.890137,0.368652,0
18670,-0.135742,-0.887695,0.369629,0
18690,-0.129883,-0.88623,0.363281,0
18710,-0.120605,-0.888672,0.35791,0
18730,-0.12793,-0.886719,0.362305,0
18750,-0.124512,-0.888184,0.362305,0
18770,-0.124512,-0.886719,0.362305,0
18790,-0.125488,-0.887207,0.366211,0
18810,-0.127441,-0.891602,0.367676,0
18830,-0.123047,-0.88916,0.363281,0
18850,-0.126953,-0.882324,0.351074,0
18870,-0.126953,-0.88623,0.354004,0
18890,-0.124512,-0.891113,0.354492,0
18910,-0.126465,-0.886719,0.365723,0
18930,-0.132812,-0.886719,0.362793,0
18950,-0.129883,-0.885254,0.365234,0
18970,-0.120605,-0.883789,0.364258,0
18990,-0.124023,-0.89209,0.366211,0
19010,-0.118652,-0.887207,0.374512,0
19030,-0.121094,-0.892578,0.367188,0
19050,-0.121094,-0.892578,0.369629,0
19070,-0.12207,-0.887207,0.366699,0
19090,-0.125488,-0.881836,0.365723,0
19110,-0.125977,-0.889648,0.366211,0
19130,-0.123047,-0.891113,0.361816,0
19150,-0.114746,-0.897949,0.366699,0
19170,-0.116211,-0.913574,0.373535,0
19190,-0.114746,-0.916504,0.361328,0
19210,-0.108887,-0.898926,0.352051,0
19230,-0.119141,-0.869629,0.367188,0
19250,-0.125488,-0.853516,0.375488,0
19270,-0.133301,-0.84082,0.374023,0
19290,-0.132324,-0.848633,0.376953,0
19310,-0.11377,-0.873047,0.372559,0
19330,-0.106934,-0.893555,0.370605,0
19350,-0.119141,-0.90625,0.370117,0
19370,-0.113281,-0.910645,0.37207,0
19390,-0.107422,-0.898926,0.371582,0
19400,-0.100586,-0.894531,0.360352,0
19420,-0.0947266,-0.887207,0.378418,0
19440,-0.111328,-0.878418,0.385254,0
19460,-0.12793,-0.878906,0.37207,0
19480,-0.121582,-0.883301,0.367676,0
19500,-0.116699,-0.881348,0.375977,0
19520,-0.114258,-0.878418,0.375488,0
19540,-0.114746,-0.883301,0.37793,0
19560,-0.112305,-0.885254,0.370117,0
19580,-0.112793,-0.875488,0.374023,0
19600,-0.112793,-0.874512,0.377441,0
19620,-0.114258,-0.880371,0.373535,0
19640,-0.11084,-0.881836,0.370117,0
19660,-0.112793,-0.88623,0.364746,0
19680,-0.10791,-0.893555,0.371582,0
19700,-0.103027,-0.890625,0.388672,0
19720,-0.105469,-0.873535,0.375,0
19740,-0.110352,-0.878418,0.383789,0
19760,-0.115723,-0.875977,0.380859,0
19780,-0.119629,-0.878906,0.374512,0
19800,-0.112305,-0.880859,0.370605,0
19820,-0.114746,-0.875,0.376953,0
19840,-0.111328,-0.884277,0.383301,0
19860,-0.0976562,-0.877441,0.375,0
19880,-0.100586,-0.876953,0.365234,0
19900,-0.109375,-0.894043,0.373535,0
19920,-0.109375,-0.871094,0.377441,0
19940,-0.103516,-0.883301,0.39502,0
19960,-0.0942383,-0.888184,0.404297,0
19980,-0.0913086,-0.890137,0.403809,0
20000,-0.0957031,-0.892578,0.390137,0
20020,-0.101074,-0.890137,0.382812,0
20040,-0.097168,-0.890625,0.376465,0
20060,-0.0966797,-0.892578,0.367188,0
20080,-0.106934,-0.878418,0.366211,0
20100,-0.111816,-0.875977,0.367676,0
20120,-0.106934,-0.870605,0.377441,0
20140,-0.0957031,-0.859863,0.386719,0
20160,-0.0859375,-0.871094,0.385254,0
20180,-0.0742188,-0.881348,0.397949,0
20200,-0.0722656,-0.88623,0.388184,0
20220,-0.0834961,-0.884766,0.384766,0
20240,-0.102539,-0.900391,0.391602,0
20260,-0.138184,-0.911621,0.387695,0
20280,-0.139648,-0.902832,0.382324,0
20300,-0.116211,-0.871582,0.375977,0
20320,-0.0996094,-0.851074,0.368164,0
20340,-0.0986328,-0.848145,0.368652,0
20360,-0.104492,-0.869629,0.390137,0
20380,-0.134277,-0.890625,0.397949,0
20400,-0.125,-0.893555,0.393555,0
20420,-0.104492,-0.895508,0.391602,0
20440,-0.0991211,-0.891113,0.382324,0
20460,-0.103516,-0.883789,0.380371,0
20480,-0.10498,-0.877441,0.381348,0
20500,-0.106934,-0.871582,0.385742,0
20520,-0.112793,-0.866699,0.381836,0
20540,-0.117188,-0.869141,0.385254,0
20560,-0.115234,-0.875977,0.380859,0
20580,-0.116699,-0.880859,0.370605,0
20600,-0.107422,-0.875,0.372559,0
20620,-0.103027,-0.886719,0.379395,0
20640,-0.105957,-0.885254,0.374512,0
20660,-0.105957,-0.878418,0.379883,0
20680,-0.108398,-0.879395,0.371582,0
20700,-0.108887,-0.887695,0.377441,0
20720,-0.112305,-0.888184,0.380859,0
20740,-0.106445,-0.883301,0.387695,0
20760,-0.104492,-0.878418,0.385742,0
20780,-0.102539,-0.88623,0.382812,0
20800,-0.0976562,-0.884277,0.383301,0
20820,-0.100098,-0.884277,0.38916,0
20840,-0.0976562,-0.876953,0.386719,0
20860,-0.0986328,-0.87793,0.391113,0
20880,-0.102539,-0.874023,0.393066,0
20900,-0.103027,-0.875977,0.391602,0
20920,-0.0961914,-0.877441,0.394043,0
20940,-0.104492,-0.875977,0.393555,0
20960,-0.103516,-0.875488,0.394043,0
20980,-0.103516,-0.879395,0.383789,0
21000,-0.106934,-0.882324,0.38623,0
21020,-0.108398,-0.882324,0.384277,0
21040,-0.10791,-0.883789,0.38623,0
21060,-0.108887,-0.880859,0.388184,0
21080,-0.108887,-0.875,0.376465,0
21100,-0.105957,-0.875977,0.388672,0
21120,-0.110352,-0.881836,0.384766,0
21140,-0.11084,-0.883789,0.383789,0
21160,-0.106445,-0.884766,0.379395,0
21180,-0.101562,-0.887695,0.383301,0
21200,-0.108887,-0.883789,0.379883,0
21220,-0.107422,-0.88623,0.376953,0
21240,-0.111328,-0.890137,0.381836,0
21260,-0.109863,-0.886719,0.384766,0
21280,-0.10791,-0.879883,0.378418,0
21300,-0.10791,-0.873535,0.382812,0
21320,-0.114258,-0.871582,0.383301,0
21340,-0.109863,-0.871094,0.378418,0
21360,-0.108398,-0.871094,0.379883,0
21380,-0.106934,-0.879395,0.381836,0
21400,-0.10791,-0.880371,0.374512,0
21420,-0.110352,-0.880859,0.370605,0
21440,-0.108887,-0.883301,0.380859,0
21460,-0.102051,-0.888184,0.382812,0
21480,-0.101074,-0.887695,0.378906,0
21500,-0.104492,-0.888672,0.382324,0
21520,-0.105957,-0.884766,0.385742,0
21540,-0.108887,-0.879395,0.375488,0
21560,-0.108887,-0.874512,0.380371,0
21580,-0.114258,-0.873535,0.376465,0
21600,-0.111816,-0.878906,0.385254,0
21620,-0.109863,-0.874512,0.390625,0
21640,-0.11377,-0.880371,0.378906,0
21660,-0.110352,-0.885742,0.385742,0
21680,-0.112793,-0.876465,0.390137,0
21700,-0.111816,-0.876465,0.382812,0
21720,-0.107422,-0.886719,0.380371,0
21740,-0.10791,-0.881348,0.379395,0
21760,-0.111328,-0.874023,0.37793,0
21780,-0.110352,-0.879883,0.379883,0
21800,-0.103027,-0.873047,0.379883,0
21820,-0.109375,-0.884277,0.383301,0
21840,-0.108887,-0.880371,0.375488,0
21860,-0.10791,-0.883301,0.374512,0
21880,-0.111328,-0.888184,0.377441,0
21900,-0.112793,-0.881348,0.370605,0
21920,-0.10498,-0.879883,0.381836,0
21940,-0.111816,-0.87793,0.382324,0
21950,-0.113281,-0.880859,0.382324,0
21970,-0.108887,-0.886719,0.381348,0
21990,-0.105469,-0.878418,0.379395,0
22010,-0.106445,-0.888184,0.378418,0
22030,-0.108398,-0.885254,0.383301,0
22050,-0.108398,-0.877441,0.385254,0
22070,-0.10498,-0.879395,0.383789,0
22090,-0.107422,-0.879883,0.381836,0
22110,-0.108887,-0.880859,0.384766,0
22130,-0.105957,-0.890625,0.382324,0
22150,-0.109375,-0.88623,0.381348,0
22170,-0.10791,-0.888672,0.375,0
22190,-0.104004,-0.879883,0.379883,0
22210,-0.111328,-0.875488,0.385254,0
22230,-0.108887,-0.880371,0.382324,0
22250,-0.108398,-0.880859,0.37793,0
22270,-0.112305,-0.87793,0.384766,0
22290,-0.112305,-0.875,0.378906,0
22310,-0.111816,-0.883789,0.385254,0
22330,-0.110352,-0.880859,0.382812,0
22350,-0.109863,-0.884766,0.376465,0
22370,-0.108887,-0.882324,0.381348,0
22390,-0.108887,-0.882324,0.376465,0
22410,-0.10791,-0.880859,0.379395,0
22430,-0.100098,-0.883301,0.381836,0
22450,-0.111816,-0.881348,0.384766,0
22470,-0.113281,-0.881836,0.373535,0
22490,-0.110352,-0.882324,0.375488,0
22510,-0.11084,-0.882324,0.376465,0
22530,-0.114746,-0.879395,0.384277,0
22550,-0.108398,-0.880859,0.38623,0
22570,-0.106445,-0.883789,0.375,0
22590,-0.105957,-0.879883,0.380371,0
22610,-0.108398,-0.880371,0.381348,0
22630,-0.111816,-0.880859,0.378906,0
22650,-0.105957,-0.88623,0.379395,0
22670,-0.109863,-0.886719,0.370605,0
22690,-0.109375,-0.885742,0.376465,0
22710,-0.116211,-0.878418,0.380371,0
22730,-0.115723,-0.875977,0.381348,0
22750,-0.111816,-0.882324,0.388672,0
22770,-0.106934,-0.882812,0.377441,0
22790,-0.10791,-0.880859,0.380859,0
22810,-0.104004,-0.881348,0.384766,0
22830,-0.11084,-0.88623,0.38623,0
22850,-0.109375,-0.885254,0.380859,0
22870,-0.112793,-0.880371,0.380371,0
22890,-0.110352,-0.881836,0.375488,0
22910,-0.111816,-0.882324,0.376953,0
22930,-0.109375,-0.87793,0.381348,0
22950,-0.11084,-0.886719,0.383301,0
22970,-0.107422,-0.884766,0.375488,0
22990,-0.109375,-0.881348,0.379883,0
23010,-0.113281,-0.881836,0.378418,0
23030,-0.112305,-0.880859,0.375488,0
23050,-0.111816,-0.885742,0.375488,0
23070,-0.111816,-0.891113,0.379395,0
23090,-0.110352,-0.88623,0.379395,0
23110,-0.109863,-0.880371,0.379395,0
23130,-0.112793,-0.887695,0.376465,0
23150,-0.117188,-0.884766,0.380859,0
23170,-0.112793,-0.878418,0.365723,0
23190,-0.109863,-0.87793,0.371094,0
23210,-0.113281,-0.885742,0.382324,0
23230,-0.116699,-0.878418,0.370605,0
23250,-0.110352,-0.880371,0.371094,0
23270,-0.110352,-0.889648,0.379883,0
23290,-0.119141,-0.880859,0.376953,0
23310,-0.115234,-0.88623,0.374023,0
23330,-0.111816,-0.894531,0.378906,0
23350,-0.114746,-0.886719,0.370605,0
23370,-0.114258,-0.882324,0.375977,0
23390,-0.111328,-0.87793,0.375,0
23410,-0.111816,-0.880859,0.375,0
23430,-0.104004,-0.884766,0.375977,0
23450,-0.11084,-0.887207,0.378418,0
23470,-0.111816,-0.891602,0.373535,0
23490,-0.116211,-0.886719,0.370117,0
23510,-0.111816,-0.886719,0.371582,0
23530,-0.112305,-0.879395,0.37793,0
23550,-0.115723,-0.880371,0.38623,0
23570,-0.116211,-0.881348,0.379883,0
23590,-0.114746,-0.884766,0.380371,0
23610,-0.116699,-0.883301,0.379395,0
23630,-0.114258,-0.883789,0.375,0
23650,-0.117188,-0.885254,0.371094,0
23670,-0.117676,-0.879395,0.37207,0
23690,-0.117188,-0.882324,0.375,0
23710,-0.119141,-0.876953,0.372559,0
23730,-0.111328,-0.879395,0.369629,0
23750,-0.111328,-0.881348,0.373535,0
23770,-0.111328,-0.89209,0.371582,0
23790,-0.116211,-0.893066,0.371094,0
23810,-0.115234,-0.892578,0.375488,0
23830,-0.112793,-0.882324,0.368164,0
23850,-0.111816,-0.875488,0.365723,0
23870,-0.123047,-0.87207,0.365723,0
23890,-0.125,-0.885742,0.375977,0
23910,-0.116211,-0.902344,0.37793,0
23930,-0.113281,-0.898438,0.383301,0
23950,-0.118164,-0.899902,0.378906,0
23970,-0.122559,-0.895996,0.371582,0
23990,-0.136719,-0.879883,0.365234,0
24010,-0.116211,-0.865723,0.367676,0
24030,-0.125977,-0.869629,0.371094,0
24050,-0.121582,-0.877441,0.368652,0
24070,-0.121582,-0.875,0.36377,0
24090,-0.116211,-0.883789,0.363281,0
24110,-0.121094,-0.879395,0.373047,0
24130,-0.126465,-0.890137,0.369629,0
24150,-0.116699,-0.890625,0.368652,0
24170,-0.114746,-0.885742,0.362793,0
24190,-0.115723,-0.884277,0.364746,0
24210,-0.112305,-0.890137,0.366699,0
24230,-0.11084,-0.887207,0.369629,0
24250,-0.109375,-0.88623,0.378418,0
24270,-0.11377,-0.886719,0.373047,0
24290,-0.112305,-0.89209,0.378906,0
24310,-0.120117,-0.879395,0.372559,0
24330,-0.117188,-0.881836,0.371094,0
24350,-0.112793,-0.880371,0.377441,0
24370,-0.119141,-0.876465,0.382812,0
24390,-0.121094,-0.880371,0.384766,0
24410,-0.116699,-0.883789,0.382812,0
24430,-0.11377,-0.879395,0.38916,0
24450,-0.115723,-0.880371,0.383301,0
24470,-0.111816,-0.880371,0.382324,0
24490,-0.116211,-0.881836,0.387207,0
24500,-0.110352,-0.882324,0.383789,0
24520,-0.112305,-0.88623,0.387207,0
24540,-0.116699,-0.880859,0.381836,0
24560,-0.108398,-0.883301,0.389648,0
24580,-0.109863,-0.887695,0.379883,0
24600,-0.107422,-0.883301,0.389648,0
24620,-0.106445,-0.879395,0.385742,0
24640,-0.105469,-0.880859,0.385254,0
24660,-0.109863,-0.881836,0.383789,0
24680,-0.113281,-0.881836,0.385254,0
24700,-0.11377,-0.880371,0.377441,0
24720,-0.114258,-0.876465,0.386719,0
24740,-0.110352,-0.879395,0.381348,0
24760,-0.111816,-0.881348,0.383789,0
24780,-0.112305,-0.885254,0.382812,0
24800,-0.11084,-0.883301,0.370117,0
24820,-0.111328,-0.882812,0.380859,0
24840,-0.115723,-0.881836,0.375977,0
24860,-0.117676,-0.878418,0.377441,0
24880,-0.11377,-0.879883,0.378418,0
24900,-0.111816,-0.887207,0.381836,0
24920,-0.116211,-0.885742,0.385254,0
24940,-0.115723,-0.882812,0.37793,0
24960,-0.115723,-0.879883,0.37793,0
24980,-0.115234,-0.88623,0.375,0
25000,-0.11377,-0.881836,0.369629,0
25020,-0.119141,-0.884277,0.373047,0
25040,-0.116211,-0.878418,0.374512,0
25060,-0.113281,-0.878906,0.375488,0
25080,-0.114746,-0.880371,0.375488,0
25100,-0.11084,-0.883301,0.367188,0
25120,-0.117188,-0.886719,0.369629,0
25140,-0.115723,-0.883789,0.368652,0
25160,-0.11084,-0.888184,0.365723,0
25180,-0.116699,-0.882324,0.372559,0
25200,-0.121094,-0.876953,0.376953,0
25220,-0.118164,-0.881348,0.382324,0
25240,-0.116699,-0.878906,0.375,0
25260,-0.116211,-0.880859,0.370117,0
25280,-0.117188,-0.894043,0.371582,0
25300,-0.115234,-0.890137,0.374023,0
25320,-0.118164,-0.881348,0.371094,0
25340,-0.115723,-0.88623,0.375,0
25360,-0.113281,-0.885254,0.375,0
25380,-0.115234,-0.877441,0.378418,0
25400,-0.117188,-0.883301,0.374023,0
25420,-0.116699,-0.891113,0.378906,0
25440,-0.113281,-0.884277,0.368652,0
25460,-0.11377,-0.886719,0.37207,0
25480,-0.120117,-0.88623,0.374512,0
25500,-0.117676,-0.888672,0.375488,0
25520,-0.115234,-0.883789,0.374512,0
25540,-0.114258,-0.887695,0.374512,0
25560,-0.11377,-0.883789,0.374512,0
25580,-0.113281,-0.883301,0.37793,0
25600,-0.115234,-0.883301,0.368164,0
25620,-0.118652,-0.882812,0.375488,0
25640,-0.115234,-0.887207,0.376465,0
25660,-0.115234,-0.881348,0.382324,0
25680,-0.115723,-0.881348,0.379883,0
25700,-0.111328,-0.881348,0.375977,0
25720,-0.109375,-0.889648,0.376953,0
25740,-0.116699,-0.882812,0.382812,0
25760,-0.121094,-0.87793,0.376465,0
25780,-0.112305,-0.889648,0.37207,0
25800,-0.112793,-0.883789,0.374512,0
25820,-0.116211,-0.881836,0.37207,0
25840,-0.115723,-0.884766,0.374512,0
25860,-0.114258,-0.884277,0.375488,0
25880,-0.117188,-0.878418,0.369629,0
25900,-0.116699,-0.880371,0.376953,0
25920,-0.119141,-0.881836,0.375977,0
25940,-0.115234,-0.888184,0.377441,0
25960,-0.111816,-0.890137,0.371582,0
25980,-0.111328,-0.888672,0.377441,0
26000,-0.117676,-0.876953,0.380371,0
26020,-0.116699,-0.879395,0.371582,0
26040,-0.116211,-0.882812,0.373535,0
26060,-0.111816,-0.880371,0.375,0
26080,-0.113281,-0.884766,0.378906,0
26100,-0.11377,-0.890137,0.377441,0
26120,-0.118164,-0.880859,0.381348,0
26140,-0.115723,-0.880859,0.379883,0
26160,-0.117188,-0.884277,0.375488,0
26180,-0.116211,-0.885254,0.376465,0
26200,-0.11084,-0.883789,0.380859,0
26220,-0.114746,-0.884277,0.375488,0
26240,-0.116699,-0.887695,0.375977,0
26260,-0.115234,-0.883789,0.379395,0
26280,-0.115723,-0.890137,0.375488,0
26300,-0.120605,-0.884277,0.382812,0
26320,-0.117188,-0.883789,0.375488,0
26340,-0.117188,-0.883301,0.379395,0
26360,-0.116211,-0.884766,0.376465,0
26380,-0.11084,-0.881836,0.374023,0
26400,-0.113281,-0.882812,0.375,0
26420,-0.119141,-0.881348,0.378906,0
26440,-0.112305,-0.884766,0.372559,0
26460,-0.115234,-0.886719,0.375977,0
26480,-0.114258,-0.888672,0.374512,0
26500,-0.115234,-0.884277,0.375,0
26520,-0.117188,-0.880859,0.376953,0
26540,-0.113281,-0.884766,0.37207,0
26560,-0.108887,-0.885742,0.374512,0
26580,-0.119141,-0.875,0.382812,0
26600,-0.121582,-0.885742,0.370605,0
26620,-0.115723,-0.891602,0.374023,0
26640,-0.113281,-0.882812,0.373047,0
26660,-0.118164,-0.882324,0.375488,0
26680,-0.117188,-0.885742,0.377441,0
26700,-0.117676,-0.877441,0.374512,0
26720,-0.11377,-0.882324,0.378906,0
26740,-0.112305,-0.88623,0.372559,0
26760,-0.113281,-0.887207,0.375488,0
26780,-0.116211,-0.890625,0.370605,0
26800,-0.116211,-0.886719,0.368652,0
26820,-0.104492,-0.880859,0.377441,0
26840,-0.115234,-0.875,0.380371,0
26860,-0.121094,-0.880371,0.381836,0
26880,-0.114746,-0.879395,0.376953,0
26900,-0.11377,-0.882324,0.375,0
26920,-0.114746,-0.89209,0.375977,0
26940,-0.115723,-0.893066,0.372559,0
26960,-0.115723,-0.879883,0.379883,0
26980,-0.115234,-0.880371,0.374512,0
27000,-0.114258,-0.880859,0.381836,0
27020,-0.119141,-0.882812,0.377441,0
27040,-0.111328,-0.882324,0.374512,0
27050,-0.115234,-0.88623,0.380371,0
27070,-0.111816,-0.882812,0.370605,0
27090,-0.113281,-0.888184,0.365723,0
27110,-0.117188,-0.888184,0.379883,0
27130,-0.112305,-0.88623,0.380371,0
27150,-0.116211,-0.885254,0.387695,0
27170,-0.116699,-0.882324,0.380371,0
27190,-0.11084,-0.887695,0.375,0
27210,-0.115723,-0.888184,0.379883,0
27230,-0.118164,-0.885742,0.372559,0
27250,-0.116211,-0.88623,0.372559,0
27270,-0.116211,-0.875,0.370605,0
27290,-0.116211,-0.879395,0.372559,0
27310,-0.110352,-0.879395,0.371582,0
27330,-0.114746,-0.87793,0.372559,0
27350,-0.11377,-0.883789,0.374512,0
27370,-0.119141,-0.887207,0.374512,0
27390,-0.117676,-0.882812,0.374512,0
27410,-0.119629,-0.882812,0.374023,0
27430,-0.118652,-0.884766,0.365723,0
27450,-0.110352,-0.890625,0.378906,0
27470,-0.117188,-0.887207,0.380859,0
27490,-0.119141,-0.890625,0.372559,0
27510,-0.114258,-0.888672,0.368652,0
27530,-0.11377,-0.884766,0.369141,0
27550,-0.123047,-0.882324,0.373047,0
27570,-0.117188,-0.87793,0.376953,0
27590,-0.110352,-0.87793,0.372559,0
27610,-0.112305,-0.879883,0.380859,0
27630,-0.117188,-0.882812,0.382812,0
27650,-0.117676,-0.881836,0.379395,0
27670,-0.114746,-0.890137,0.376465,0
27690,-0.114746,-0.887695,0.37207,0
27710,-0.11084,-0.882324,0.374512,0
27730,-0.117676,-0.877441,0.381348,0
27750,-0.117676,-0.879883,0.381836,0
27770,-0.11084,-0.883301,0.381348,0
27790,-0.11084,-0.882812,0.378906,0
27810,-0.11084,-0.885742,0.382812,0
27830,-0.114258,-0.885742,0.380859,0
27850,-0.111816,-0.883789,0.374512,0
27870,-0.113281,-0.882812,0.381348,0
27890,-0.11377,-0.883789,0.383789,0
27910,-0.114258,-0.881348,0.377441,0
27930,-0.11377,-0.881836,0.375977,0
27950,-0.11084,-0.88623,0.375488,0
27970,-0.113281,-0.883789,0.37793,0
27990,-0.114746,-0.881348,0.375977,0
28010,-0.115234,-0.885254,0.375,0
28030,-0.113281,-0.882812,0.378906,0
28050,-0.119141,-0.883789,0.380371,0
28070,-0.117188,-0.881348,0.378906,0
28090,-0.11084,-0.881348,0.376465,0
28110,-0.117188,-0.879395,0.376953,0
28130,-0.111328,-0.880371,0.375977,0
28150,-0.111328,-0.882324,0.380371,0
28170,-0.117676,-0.884766,0.376465,0
28190,-0.119141,-0.885254,0.377441,0
28210,-0.116211,-0.881836,0.376953,0
28230,-0.113281,-0.881836,0.379395,0
28250,-0.117188,-0.878418,0.380859,0
28270,-0.114258,-0.881836,0.373047,0
28290,-0.113281,-0.883301,0.380859,0
28310,-0.11377,-0.881836,0.37793,0
28330,-0.111816,-0.887207,0.365723,0
28350,-0.111816,-0.884766,0.37793,0
28370,-0.119141,-0.884766,0.382324,0
28390,-0.116699,-0.881348,0.377441,0
28410,-0.107422,-0.889648,0.379395,0
28430,-0.112793,-0.882812,0.376953,0
28450,-0.115723,-0.888184,0.376465,0
28470,-0.119141,-0.882324,0.37793,0
28490,-0.112305,-0.882324,0.374023,0
28510,-0.114746,-0.88623,0.374512,0
28530,-0.114258,-0.881348,0.382324,0
28550,-0.114258,-0.888672,0.385254,0
28570,-0.119141,-0.887695,0.370605,0
28590,-0.112305,-0.882812,0.371582,0
28610,-0.115234,-0.881348,0.375488,0
28630,-0.121094,-0.881836,0.373535,0
28650,-0.119629,-0.879883,0.379883,0
28670,-0.114746,-0.882812,0.376465,0
28690,-0.112793,-0.884766,0.369141,0
28710,-0.111816,-0.887695,0.369629,0
28730,-0.114258,-0.884766,0.373047,0
28750,-0.117188,-0.886719,0.375977,0
28770,-0.116211,-0.882324,0.371094,0
28790,-0.112305,-0.885254,0.371094,0
28810,-0.114258,-0.884277,0.375,0
28830,-0.109863,-0.88623,0.371582,0
28850,-0.118164,-0.88916,0.372559,0
28870,-0.119141,-0.88623,0.373535,0
28890,-0.115723,-0.882324,0.372559,0
28910,-0.119141,-0.881348,0.373535,0
28930,-0.111816,-0.883789,0.374023,0
28950,-0.114746,-0.885742,0.369141,0
28970,-0.116699,-0.882324,0.378906,0
28990,-0.116211,-0.887695,0.376465,0
29010,-0.120117,-0.88623,0.375,0
29030,-0.114746,-0.886719,0.376465,0
29050,-0.114746,-0.885254,0.37207,0
29070,-0.117676,-0.885742,0.379395,0
29090,-0.121094,-0.882324,0.378418,0
29110,-0.118652,-0.881836,0.375,0
29130,-0.112305,-0.884277,0.366699,0
29150,-0.115234,-0.882324,0.373535,0
29170,-0.113281,-0.883789,0.37207,0
29190,-0.120605,-0.883301,0.375977,0
29210,-0.12207,-0.882324,0.37207,0
29230,-0.11377,-0.885254,0.377441,0
29250,-0.112793,-0.884766,0.378906,0
29270,-0.121582,-0.884277,0.380859,0
29290,-0.114258,-0.885254,0.371582,0
29310,-0.119629,-0.884766,0.375,0
29330,-0.119141,-0.885254,0.371582,0
29350,-0.119141,-0.87793,0.37793,0
29370,-0.115234,-0.883301,0.375977,0
29390,-0.11377,-0.890625,0.375488,0
29410,-0.116699,-0.879883,0.373047,0
29430,-0.114258,-0.88623,0.375,0
29450,-0.118164,-0.890625,0.374512,0
29470,-0.123047,-0.887207,0.373047,0
29490,-0.114258,-0.884277,0.368652,0
29510,-0.115723,-0.879883,0.376953,0
29530,-0.120605,-0.878906,0.375977,0
29550,-0.117676,-0.882812,0.372559,0
29570,-0.118652,-0.883301,0.367188,0
29590,-0.118652,-0.882324,0.371094,0
29600,-0.115234,-0.881348,0.364258,0
29620,-0.119629,-0.884277,0.373047,0
29640,-0.121094,-0.882324,0.371582,0
29660,-0.118652,-0.884766,0.375488,0
29680,-0.119141,-0.885742,0.373047,0
29700,-0.117188,-0.887695,0.376465,0
29720,-0.118164,-0.88623,0.376465,0
29740,-0.119141,-0.88623,0.374023,0
29760,-0.116699,-0.89209,0.373535,0
29780,-0.121094,-0.885742,0.368652,0
29800,-0.124512,-0.881836,0.373535,0
29820,-0.120117,-0.885742,0.371582,0
29840,-0.115234,-0.887207,0.373535,0
29860,-0.120117,-0.881348,0.376465,0
29880,-0.124023,-0.888184,0.368652,0
29900,-0.123535,-0.883789,0.373047,0
29920,-0.118164,-0.882812,0.371582,0
29940,-0.119629,-0.88916,0.376953,0
29960,-0.115723,-0.885742,0.375488,0
29980,-0.118652,-0.888184,0.367188,0
30000,-0.114258,-0.88623,0.369629,0
30020,-0.116211,-0.888672,0.378418,0
30040,-0.118652,-0.884766,0.375,0
30060,-0.120117,-0.887695,0.366699,0
30080,-0.115234,-0.886719,0.374023,0
30100,-0.12207,-0.889648,0.379395,0
30120,-0.123535,-0.890137,0.369141,0
30140,-0.126953,-0.898438,0.375,0
30160,-0.118164,-0.897461,0.365723,0
30180,-0.129395,-0.904297,0.375,0
30200,-0.115723,-0.90332,0.368164,0
30220,-0.129883,-0.925781,0.355469,0
30240,-0.143555,-0.914551,0.364746,0
30260,-0.121094,-0.895508,0.363281,0
30280,-0.134766,-0.887695,0.370605,0
30300,-0.129883,-0.881836,0.364258,0
30320,-0.117676,-0.880859,0.349121,0
30340,-0.120117,-0.880859,0.352051,0
30360,-0.118652,-0.888184,0.355957,0
30380,-0.114258,-0.893555,0.35498,0
30400,-0.111328,-0.864746,0.350586,0
30420,-0.120117,-0.875,0.345703,0
30440,-0.130859,-0.89502,0.346191,0
30460,-0.131348,-0.905762,0.34082,0
30480,-0.132812,-0.898438,0.342773,0
30500,-0.136719,-0.888672,0.333984,0
30520,-0.131836,-0.897461,0.336914,0
30540,-0.134277,-0.898926,0.337891,0
30560,-0.138672,-0.89502,0.335938,0
30580,-0.134766,-0.898926,0.335449,0
30600,-0.138672,-0.892578,0.337891,0
30620,-0.135254,-0.884766,0.335938,0
30640,-0.140137,-0.894531,0.339355,0
30660,-0.138184,-0.899902,0.33252,0
30680,-0.138672,-0.905273,0.341797,0
30700,-0.141113,-0.917969,0.339355,0
30720,-0.140625,-0.91748,0.344238,0
30740,-0.14209,-0.912109,0.337402,0
30760,-0.139648,-0.902832,0.341797,0
30780,-0.14502,-0.898438,0.344238,0
30800,-0.14209,-0.89209,0.339844,0
30820,-0.140625,-0.89502,0.345703,0
30840,-0.143066,-0.896973,0.344727,0
30860,-0.140625,-0.896484,0.333984,0
30880,-0.140625,-0.89502,0.339844,0
30900,-0.14209,-0.900879,0.327148,0
30920,-0.132812,-0.899902,0.333008,0
30940,-0.141602,-0.900391,0.345703,0
30960,-0.142578,-0.901855,0.339844,0
30980,-0.134277,-0.904785,0.333008,0
31000,-0.132812,-0.897461,0.337402,0
31020,-0.135742,-0.895508,0.336426,0
31040,-0.137695,-0.898438,0.337891,0
31060,-0.141602,-0.897949,0.342285,0
31080,-0.140137,-0.900879,0.340332,0
31100,-0.136719,-0.902344,0.345703,0
31120,-0.140137,-0.899414,0.346191,0
31140,-0.141602,-0.902344,0.342285,0
31160,-0.141602,-0.904297,0.342285,0
31180,-0.137207,-0.895996,0.339844,0
31200,-0.138184,-0.891113,0.344727,0
31220,-0.145996,-0.901367,0.350586,0
31240,-0.139648,-0.901855,0.350098,0
31260,-0.135254,-0.901855,0.348633,0
31280,-0.137695,-0.904297,0.347656,0
31300,-0.135742,-0.896484,0.342285,0
31320,-0.141113,-0.896484,0.337402,0
31340,-0.135254,-0.895996,0.342285,0
31360,-0.137207,-0.902344,0.342773,0
31380,-0.132812,-0.897461,0.345703,0
31400,-0.135254,-0.905762,0.347656,0
31420,-0.138672,-0.905762,0.348633,0
31440,-0.133789,-0.899414,0.340332,0
31460,-0.134277,-0.900879,0.345703,0
31480,-0.138184,-0.911621,0.341309,0
31500,-0.143555,-0.900391,0.347168,0
31520,-0.141602,-0.893066,0.340332,0
31540,-0.140625,-0.89209,0.340332,0
31560,-0.135254,-0.890137,0.340332,0
31580,-0.142578,-0.893555,0.340332,0
31600,-0.140625,-0.89502,0.344727,0
31620,-0.140625,-0.896484,0.343262,0
31640,-0.13916,-0.902344,0.338379,0
31660,-0.139648,-0.908691,0.333496,0
31680,-0.136719,-0.908203,0.340332,0
31700,-0.13623,-0.900879,0.337891,0
31720,-0.151855,-0.921387,0.322266,0
31740,-0.157715,-0.972168,0.33252,0
31760,-0.131836,-1.00586,0.31543,0
31780,-0.11377,-1.06055,0.289551,0
31800,-0.161133,-0.942383,0.355957,0
31820,-0.107422,-1.00537,0.387695,0
31840,-0.0717773,-1.00098,0.424316,0
31860,-0.0493164,-1.35107,0.379395,0
31880,-0.150391,-1.1499,0.544922,0
31900,0.0820312,-0.888672,0.479492,0
31920,0.0556641,-0.931152,0.428711,0
31940,0.0571289,-1.0542,0.456055,0
31960,0.106934,-1.04785,0.376953,0
31980,0.105469,-0.940918,0.328613,0
32000,0.108887,-0.873535,0.376953,0
32020,0.125488,-0.765137,0.35498,0
32040,0.112305,-0.691895,0.348145,0
32060,0.108887,-0.702148,0.330078,0
32080,0.124512,-0.718262,0.319824,0
32100,0.125977,-0.725586,0.305176,0
32120,0.166016,-0.703125,0.299805,0
32140,0.196777,-0.682617,0.29248,0
32150,0.202637,-0.67334,0.271973,0
32170,0.204102,-0.683105,0.268066,0
32190,0.231934,-0.721191,0.292969,0
32210,0.244141,-0.736816,0.295898,0
32230,0.253418,-0.736328,0.303711,0
32250,0.288086,-0.729004,0.315918,0
32270,0.303223,-0.770996,0.34082,0
32290,0.313477,-0.817383,0.344238,0
32310,0.310059,-0.824707,0.320312,0
32330,0.310547,-0.82373,0.31543,0
32350,0.302246,-0.800293,0.307129,0
32370,0.294434,-0.79541,0.319824,0
32390,0.29248,-0.802734,0.32666,0
32410,0.26709,-0.82373,0.328125,0
32430,0.271973,-0.867676,0.304199,0
32450,0.283203,-0.891113,0.33252,0
32470,0.286621,-0.883789,0.379395,0
32490,0.293457,-0.867676,0.358887,0
32510,0.30127,-0.888672,0.378906,0
32530,0.26709,-0.933594,0.390137,0
32550,0.24707,-0.962402,0.404785,0
32570,0.26709,-0.936035,0.404297,0
32590,0.282227,-0.901367,0.399902,0
32610,0.260254,-0.865723,0.373535,0
32630,0.243164,-0.881836,0.376953,0
32650,0.25,-0.898438,0.361328,0
32670,0.25,-0.875488,0.353027,0
32690,0.236328,-0.82666,0.36084,0
32710,0.241211,-0.79248,0.365723,0
32730,0.255371,-0.791016,0.342285,0
32750,0.242188,-0.80127,0.355469,0
32770,0.228027,-0.772949,0.354492,0
32790,0.250977,-0.78418,0.331543,0
32810,0.258301,-0.806641,0.331055,0
32830,0.246582,-0.813477,0.348633,0
32850,0.24707,-0.824219,0.394531,0
32870,0.232422,-0.817871,0.391113,0
32890,0.237793,-0.808594,0.40625,0
32910,0.230957,-0.84668,0.425781,0
32930,0.245605,-0.881836,0.433105,0
32950,0.280762,-0.908203,0.435059,0
32970,0.324707,-0.94043,0.444824,0
32990,0.334961,-0.978027,0.436523,0
33010,0.317871,-0.959473,0.452637,0
33030,0.343262,-0.931152,0.443359,0
33050,0.366699,-0.895508,0.390625,0
33070,0.313965,-0.867676,0.375977,0
33090,0.264648,-0.837402,0.408203,0
33110,0.294434,-0.830566,0.371582,0
33130,0.305664,-0.787109,0.328125,0
33150,0.266602,-0.741699,0.351562,0
33170,0.247559,-0.728516,0.345703,0
33190,0.256836,-0.717285,0.318359,0
33210,0.24707,-0.700684,0.299316,0
33230,0.245605,-0.692871,0.312012,0
33250,0.247559,-0.717285,0.295898,0
33270,0.249023,-0.725098,0.310059,0
33290,0.229492,-0.729492,0.308105,0
33310,0.220703,-0.733398,0.324219,0
33330,0.242188,-0.739746,0.377441,0
33350,0.235352,-0.806152,0.377441,0
33370,0.244629,-0.866211,0.45166,0
33390,0.257812,-0.912598,0.509277,0
33410,0.272461,-0.900879,0.498047,0
33430,0.277832,-0.874512,0.464355,0
33450,0.254883,-0.875977,0.449219,0
33470,0.266113,-0.871094,0.463379,0
33490,0.318359,-0.915527,0.42627,0
33510,0.350098,-0.890137,0.405762,0
33530,0.331055,-0.86084,0.401367,0
33550,0.312988,-0.875977,0.435547,0
33570,0.334961,-0.889648,0.399902,0
33590,0.349121,-0.840332,0.393555,0
33610,0.377441,-0.828613,0.388184,0
33630,0.374023,-0.850098,0.379395,0
33640,0.348145,-0.866211,0.348145,0
33660,0.324219,-0.822754,0.325195,0
33680,0.320312,-0.838379,0.322754,0
33680,0.307129,-0.821777,0.339355,0
33700,0.279785,-0.846191,0.341797,0
33700,0.264648,-0.865234,0.326172,0
33720,0.21875,-0.817871,0.378418,0
33740,0.180176,-0.830078,0.384766,0
33760,0.438965,-0.878906,0.41748,0
33800,0.225586,-0.875977,0.458984,0
33820,0.324219,-0.73877,0.065918,0
33840,-0.220215,-0.914062,0.419434,0
33860,0.541016,-0.78418,0.49707,0
33880,0.961914,-0.691895,0.276367,0
33880,0.530762,-0.624512,0.14209,0
33900,0.13623,-0.805176,0.35498,0
33940,0.323242,-0.914551,0.46582,0
33990,0.249512,-0.917969,0.222656,0
34010,0.313477,-0.950195,0.327148,0
34030,0.349609,-0.794434,0.523926,0
34050,0.401367,-0.708008,0.226074,0
34070,0.303223,-0.782227,0.272461,0
34090,0.265137,-0.899414,0.347168,0
34110,0.375488,-1.03613,0.325195,0
34130,0.431641,-0.875,0.26709,0
34150,0.340332,-0.75293,0.334473,0
34170,0.343262,-0.73877,0.338379,0
34190,0.41748,-0.887207,0.321289,0
34210,0.495605,-0.841309,0.358887,0
34230,0.509766,-0.768066,0.329102,0
34250,0.459961,-0.790527,0.273438,0
34270,0.420898,-0.799316,0.344727,0
34290,0.470703,-0.780273,0.365234,0
34310,0.457031,-0.818359,0.279297,0
34330,0.411621,-0.918945,0.257812,0
34350,0.378418,-0.838867,0.381348,0
34370,0.378418,-0.82959,0.277344,0
34390,0.376953,-0.73291,0.290527,0
34410,0.370117,-0.689941,0.324707,0
34430,0.361816,-0.794922,0.266113,0
34450,0.321289,-0.849609,0.349609,0
34470,0.331055,-0.770996,0.327637,0
34490,0.305664,-0.728516,0.30957,0
34510,0.286621,-0.736816,0.369629,0
34530,0.328125,-0.766113,0.352539,0
34550,0.342285,-0.791992,0.358398,0
34570,0.315918,-0.756836,0.380371,0
34590,0.274414,-0.756348,0.369141,0
34610,0.270508,-0.805176,0.352539,0
34630,0.294922,-0.796387,0.349609,0
34650,0.291504,-0.79248,0.32373,0
34670,0.23877,-0.788086,0.378906,0
34690,0.296387,-0.851562,0.353516,0
34700,0.351562,-0.802734,0.313477,0
34720,0.330566,-0.799805,0.317383,0
34740,0.348145,-0.774902,0.352051,0
34750,0.427246,-0.814941,0.282715,0
34770,0.491211,-0.808594,0.257812,0
34790,0.503418,-0.766602,0.318359,0
34810,0.497559,-0.748535,0.313477,0
34820,0.502441,-0.786621,0.297852,0
34840,0.511719,-0.825684,0.334961,0
34860,0.45752,-0.876953,0.395508,0
34870,0.407227,-0.851562,0.347168,0
34880,0.412109,-0.771484,0.345703,0
34900,0.448242,-0.787109,0.270996,0
34920,0.408203,-0.810059,0.28418,0
34940,0.377441,-0.830078,0.332031,0
34960,0.383789,-0.84375,0.351074,0
34980,0.385254,-0.822754,0.346191,0
35000,0.346191,-0.808594,0.36377,0
35020,0.365234,-0.80127,0.284668,0
35040,0.393066,-0.830566,0.324707,0
35060,0.390625,-0.842285,0.370117,0
35080,0.449707,-0.82666,0.279785,0
35100,0.450195,-0.774902,0.290527,0
35120,0.348633,-0.793457,0.331543,0
35140,0.388672,-0.827637,0.312012,0
35160,0.452148,-0.796387,0.300781,0
35180,0.401367,-0.759766,0.328125,0
35200,0.384277,-0.81543,0.309082,0
35220,0.452148,-0.799316,0.30957,0
35240,0.443848,-0.770508,0.309082,0
35260,0.411133,-0.770508,0.352051,0
35280,0.388672,-0.756836,0.34375,0
35300,0.37793,-0.780762,0.32666,0
35320,0.381348,-0.782715,0.37207,0
35340,0.381836,-0.805664,0.36377,0
35360,0.375,-0.800293,0.306641,0
35380,0.401367,-0.78418,0.351562,0
35400,0.402832,-0.80127,0.345215,0
35420,0.372559,-0.810547,0.332031,0
35440,0.383789,-0.784668,0.339844,0
35460,0.414062,-0.746094,0.327637,0
35480,0.392578,-0.776855,0.325684,0
35500,0.371582,-0.808105,0.343262,0
35520,0.385254,-0.810547,0.345215,0
35540,0.387207,-0.804199,0.345215,0
35570,0.417969,-0.821777,0.285645,0
35580,0.448242,-0.807129,0.337402,0
35600,0.393555,-0.802734,0.342285,0
35620,0.39209,-0.81543,0.345703,0
35640,0.437012,-0.794434,0.319824,0
35660,0.416992,-0.793945,0.324219,0
35680,0.390625,-0.808594,0.32666,0
35700,0.390625,-0.825195,0.339844,0
35720,0.39502,-0.816406,0.328613,0
35740,0.400391,-0.789551,0.321777,0
35760,0.401855,-0.788086,0.342773,0
35780,0.395508,-0.813965,0.329102,0
35800,0.401855,-0.814453,0.324707,0
35820,0.398438,-0.804199,0.331543,0
35840,0.380859,-0.797363,0.336426,0
35860,0.397949,-0.817871,0.336426,0
35880,0.395508,-0.825684,0.318848,0
35900,0.398438,-0.803223,0.310547,0
35920,0.404297,-0.792969,0.32666,0
35940,0.399414,-0.825684,0.309082,0
35960,0.391113,-0.816895,0.296875,0
35980,0.399414,-0.796387,0.309082,0
36000,0.419434,-0.790039,0.296387,0
36020,0.383301,-0.785645,0.307617,0
36040,0.391602,-0.821289,0.324219,0
36060,0.435059,-0.82959,0.30127,0
36080,0.423828,-0.818848,0.290039,0
36100,0.400879,-0.819336,0.299316,0
36120,0.419434,-0.821289,0.289551,0
36140,0.425781,-0.802246,0.309082,0
36160,0.432617,-0.847168,0.276855,0
36180,0.424805,-0.82666,0.276367,0
36200,0.407227,-0.819824,0.291992,0
36220,0.394043,-0.813477,0.297363,0
36240,0.413086,-0.835938,0.286621,0
36260,0.427734,-0.806152,0.274414,0
36280,0.424805,-0.793457,0.28418,0
36300,0.430176,-0.817871,0.266602,0
36320,0.438477,-0.820801,0.270996,0
36340,0.412109,-0.79834,0.277344,0
36360,0.420898,-0.81543,0.264648,0
36380,0.428711,-0.806152,0.246094,0
36410,0.443359,-0.796387,0.241699,0
36430,0.446289,-0.803223,0.252441,0
36440,0.481445,-0.796387,0.212891,0
36460,0.476562,-0.815918,0.225098,0
36480,0.466309,-0.818848,0.22998,0
36500,0.492188,-0.817383,0.22168,0
36520,0.533203,-0.807129,0.222168,0
36540,0.535156,-0.791016,0.219238,0
36560,0.495605,-0.803223,0.22998,0
36580,0.459473,-0.834961,0.186523,0
36600,0.409668,-0.847168,0.242188,0
36620,0.347656,-0.82373,0.246094,0
36640,0.311523,-0.811035,0.258301,0
36660,0.317383,-0.827637,0.282715,2000
36680,0.311035,-0.842773,0.29248,0
36700,0.283203,-0.848145,0.28418,0
36720,0.29541,-0.822754,0.284668,0
36740,0.348633,-0.838379,0.281738,0
36760,0.370605,-0.845215,0.271973,0
36780,0.378906,-0.848633,0.252441,0
36800,0.39209,-0.837402,0.232422,0
36820,0.398926,-0.833984,0.246094,0
36840,0.383301,-0.834961,0.227051,0
36860,0.379395,-0.84375,0.203613,0
36880,0.385254,-0.85498,0.240234,0
36900,0.38623,-0.849609,0.234863,0
36920,0.394531,-0.848145,0.23584,0
36940,0.385254,-0.845215,0.243652,0
36960,0.392578,-0.837891,0.228027,0
36980,0.412109,-0.864258,0.256348,0
37000,0.410156,-0.82959,0.21582,0
37010,0.378418,-0.831055,0.237793,0
37030,0.380859,-0.86084,0.257324,0
37050,0.412598,-0.850098,0.218262,0
37070,0.419434,-0.833984,0.25293,0
37090,0.401855,-0.822266,0.226074,0
37110,0.408691,-0.829102,0.213867,0
37130,0.428711,-0.847656,0.231934,0
37150,0.400879,-0.857422,0.233398,0
37170,0.435547,-0.827637,0.206543,0
37190,0.436523,-0.831055,0.236328,0
37210,0.419922,-0.825195,0.229492,0
37230,0.394043,-0.86084,0.233887,0
37250,0.40625,-0.839355,0.233887,0
37270,0.444824,-0.830078,0.224609,0
37290,0.413574,-0.831055,0.243652,0
37310,0.387695,-0.835449,0.23584,0
37330,0.411621,-0.840332,0.234375,0
37350,0.418457,-0.831055,0.230469,0
37370,0.39502,-0.837402,0.246582,0
37390,0.389648,-0.835449,0.230469,0
37410,0.396973,-0.831055,0.246094,0
37430,0.394043,-0.820312,0.240234,0
37450,0.381836,-0.819824,0.237793,0
37470,0.391602,-0.83252,0.23584,0
37490,0.40332,-0.825195,0.237305,0
37510,0.384766,-0.819336,0.234863,0
37530,0.366699,-0.81543,0.231934,0
37550,0.371094,-0.827637,0.239746,0
37570,0.371094,-0.813477,0.242188,0
37590,0.388672,-0.818359,0.246094,0
37610,0.393066,-0.838867,0.244629,0
37630,0.379883,-0.840332,0.254883,0
37650,0.387695,-0.834961,0.222656,0
37670,0.414062,-0.827637,0.239258,0
37690,0.408203,-0.83252,0.24707,0
37710,0.393555,-0.82959,0.234863,0
37730,0.397949,-0.833496,0.221191,0
37750,0.419434,-0.835449,0.239258,0
37770,0.400879,-0.841309,0.252441,0
37790,0.380371,-0.825684,0.256348,0
37810,0.379883,-0.82666,0.237793,0
37830,0.436523,-0.817383,0.245605,0
37850,0.445801,-0.833496,0.254883,0
37870,0.415527,-0.836426,0.25,0
37890,0.389648,-0.822754,0.246094,0
37910,0.388184,-0.810059,0.265625,0
37930,0.407715,-0.814453,0.277344,0
37950,0.393555,-0.803711,0.275879,0
37970,0.35498,-0.80957,0.258789,0
37990,0.325195,-0.823242,0.249512,0
38010,0.36084,-0.842773,0.253906,0
38030,0.40918,-0.844238,0.268066,0
38050,0.397949,-0.843262,0.28418,0
38070,0.40918,-0.81543,0.299805,0
38090,0.430176,-0.812988,0.287598,0
38110,0.457031,-0.806152,0.27832,0
38130,0.493164,-0.82666,0.268066,0
38150,0.437988,-0.794922,0.276855,0
38170,0.472168,-0.792969,0.257324,0
38190,0.549316,-0.822754,0.296875,0
38210,0.563965,-0.788086,0.28125,0
38230,0.535645,-0.75,0.273438,0
38250,0.527344,-0.751465,0.27832,0
38270,0.567383,-0.780762,0.279297,0
38290,0.599609,-0.756348,0.24707,0
38310,0.597168,-0.737793,0.23877,0
38330,0.59668,-0.756348,0.253418,0
38350,0.582031,-0.746582,0.245605,0
38370,0.624512,-0.739746,0.285156,0
38390,0.661133,-0.726074,0.273438,0
38410,0.632812,-0.692383,0.254883,0
38430,0.595703,-0.688965,0.252441,0
38450,0.597168,-0.696289,0.25,0
38470,0.606934,-0.692383,0.234375,0
38490,0.617676,-0.697266,0.242188,0
38510,0.599609,-0.706055,0.235352,0
38530,0.600586,-0.679688,0.222168,0
38550,0.645508,-0.68457,0.234375,0
38570,0.618164,-0.646484,0.235352,0
38590,0.630371,-0.651367,0.225098,0
38610,0.671387,-0.662109,0.23584,0
38630,0.661133,-0.660645,0.234375,0
38650,0.625488,-0.662598,0.23584,0
38670,0.648438,-0.650879,0.23584,0
38690,0.65625,-0.65918,0.221191,0
38710,0.678223,-0.662109,0.223633,0
38730,0.70166,-0.657227,0.227051,0
38750,0.689941,-0.655762,0.231445,0
38770,0.680176,-0.642578,0.199707,0
38790,0.672852,-0.645508,0.216309,0
38810,0.66748,-0.649902,0.222168,0
38830,0.684082,-0.672363,0.22168,0
38850,0.680176,-0.663574,0.244141,0
38870,0.651367,-0.646484,0.249023,0
38890,0.633301,-0.652344,0.258301,0
38910,0.640625,-0.672363,0.269531,0
38930,0.66748,-0.683105,0.267578,0
38950,0.652344,-0.695801,0.271973,0
38970,0.647461,-0.663086,0.256348,0
38990,0.662109,-0.651855,0.243652,0
39010,0.655273,-0.634766,0.253906,0
39030,0.644043,-0.640137,0.234863,0
39050,0.65918,-0.651855,0.223145,0
39070,0.645996,-0.661133,0.245605,0
39090,0.652344,-0.669434,0.244629,0
39110,0.674805,-0.662598,0.223145,0
39130,0.685547,-0.637207,0.226562,0
39150,0.66748,-0.63623,0.249023,0
39170,0.653809,-0.637695,0.248535,0
39190,0.666992,-0.625,0.25293,0
39210,0.681152,-0.650391,0.270996,0
39230,0.66748,-0.642578,0.267578,0
39250,0.660645,-0.621094,0.276855,0
39270,0.637695,-0.610352,0.294434,0
39290,0.625488,-0.63916,0.307617,0
39310,0.621582,-0.652344,0.304199,0
39330,0.652344,-0.63916,0.28125,0
39350,0.659668,-0.625977,0.327148,0
39370,0.592285,-0.65625,0.327148,0
39390,0.584961,-0.663086,0.309082,0
39410,0.603027,-0.67041,0.313965,0
39430,0.584473,-0.663574,0.284668,0
39450,0.575684,-0.666992,0.309082,0
39470,0.571289,-0.683594,0.291016,0
39490,0.588379,-0.711914,0.242676,0
39510,0.623535,-0.690918,0.232422,0
39530,0.598145,-0.735352,0.262207,0
39550,0.539551,-0.73584,0.26416,0
39560,0.533203,-0.721191,0.259766,0
39580,0.549805,-0.69873,0.257812,0
39600,0.550781,-0.709961,0.260254,0
39620,0.53125,-0.709473,0.267578,0
39640,0.500488,-0.728516,0.260254,0
39660,0.538574,-0.712402,0.26709,0
39680,0.550293,-0.727539,0.257812,0
39700,0.532227,-0.736816,0.26123,0
39720,0.513184,-0.742676,0.275879,0
39740,0.521484,-0.731445,0.300781,0
39770,0.530762,-0.704102,0.255371,0
39790,0.52002,-0.711426,0.252441,0
39810,0.455078,-0.775391,0.254395,0
39830,0.452637,-0.777344,0.228027,0
39850,0.495605,-0.768066,0.189941,0
39870,0.500488,-0.756836,0.21875,0
39890,0.452148,-0.766602,0.224609,0
39910,0.463867,-0.779785,0.200195,0
39930,0.517578,-0.791992,0.17334,0
39950,0.514648,-0.787109,0.162109,0
39970,0.533691,-0.77832,0.177246,0
39990,0.550781,-0.797852,0.184082,0
40010,0.550781,-0.789062,0.175781,0
40030,0.539551,-0.774414,0.152832,0
40050,0.526855,-0.805176,0.162598,0
40070,0.516602,-0.8125,0.183105,0
40090,0.502441,-0.787598,0.180176,0
40110,0.496094,-0.78125,0.150879,0
40130,0.530273,-0.777832,0.129883,0
40150,0.539062,-0.788574,0.144531,0
40170,0.480957,-0.797852,0.143555,0
40190,0.474609,-0.800293,0.109375,0
40210,0.520996,-0.805664,0.111328,0
40230,0.509277,-0.821777,0.146973,0
40250,0.470703,-0.80957,0.101562,0
40270,0.466309,-0.802246,0.113281,0
40290,0.461914,-0.825195,0.120605,0
40310,0.441895,-0.830566,0.105957,0
40330,0.439941,-0.796875,0.110352,0
40350,0.428711,-0.81543,0.0922852,0
40370,0.446777,-0.810547,0.103027,0
40390,0.461426,-0.833008,0.104004,0
40410,0.452148,-0.830078,0.10498,0
40430,0.471191,-0.816406,0.0957031,0
40450,0.509766,-0.811523,0.0698242,0
40470,0.563477,-0.791016,0.0668945,0
40490,0.562012,-0.825684,0.0737305,0
40510,0.519043,-0.818359,0.0581055,0
40530,0.530273,-0.804688,0.0556641,0
40550,0.581055,-0.777344,0.03125,0
40570,0.599609,-0.785645,0.0200195,0
40590,0.594727,-0.804688,0.0341797,0
40610,0.599121,-0.789551,0.0341797,0
40630,0.603027,-0.757812,0.0449219,0
40650,0.598145,-0.743652,0,0
40670,0.589844,-0.74707,-0.0126953,0
40690,0.614746,-0.755859,0.0297852,0
40710,0.621582,-0.757812,0.0493164,0
40730,0.632324,-0.758789,0.0151367,0
40750,0.614746,-0.733398,-0.0361328,0
40770,0.682129,-0.731934,0.0136719,0
40790,0.723633,-0.740234,0.0708008,0
40810,0.722656,-0.723633,0.046875,0
40830,0.679688,-0.674805,0.0400391,0
40850,0.711426,-0.654297,0.0385742,0
40870,0.781738,-0.671875,0.0698242,0
40890,0.762695,-0.664551,0.0639648,0
40910,0.73291,-0.637695,0.0146484,0
40930,0.734375,-0.65332,0.0200195,0
40950,0.750977,-0.662598,0.0454102,0
40970,0.734375,-0.658691,0.0429688,0
40990,0.726562,-0.630371,0.0483398,0
41010,0.744141,-0.635254,0.0566406,0
41030,0.722168,-0.634277,0.0424805,0
41050,0.702148,-0.623047,0.0507812,0
41070,0.731445,-0.616211,0.0493164,0
41090,0.774902,-0.601074,0.0415039,0
41110,0.766602,-0.611816,0.0356445,0
41130,0.740234,-0.630371,0.074707,0
41150,0.787109,-0.603516,0.116211,0
41170,0.82373,-0.600098,0.123047,0
41190,0.811035,-0.536133,0.0644531,0
41210,0.811523,-0.546387,0.0751953,0
41230,0.795898,-0.552734,0.0913086,0
41250,0.788086,-0.540527,0.11084,0
41270,0.830078,-0.533691,0.105957,0
41290,0.827637,-0.523926,0.107422,0
41310,0.831543,-0.526367,0.0996094,0
41330,0.830078,-0.536621,0.105469,0
41350,0.822266,-0.520508,0.118164,0
41370,0.816406,-0.489746,0.119629,0
41390,0.814453,-0.50293,0.108887,0
41410,0.811035,-0.507324,0.129395,0
41430,0.811035,-0.508301,0.13916,0
41450,0.814453,-0.488281,0.109375,0
41470,0.836914,-0.463379,0.147461,0
41490,0.813477,-0.495605,0.145996,0
41510,0.799805,-0.511719,0.159668,0
41530,0.809082,-0.521973,0.186523,0
41550,0.832031,-0.486328,0.185547,0
41570,0.822266,-0.483887,0.151855,0
41590,0.803711,-0.525879,0.191895,0
41610,0.807129,-0.557129,0.201172,0
41630,0.808594,-0.498047,0.191895,0
41650,0.786133,-0.469238,0.19043,0
41670,0.777344,-0.501953,0.177246,0
41690,0.784668,-0.545898,0.200195,0
41710,0.770508,-0.535645,0.195801,0
41730,0.763184,-0.515625,0.199219,0
41750,0.77002,-0.493164,0.215332,0
41770,0.768555,-0.537109,0.236816,0
41790,0.787598,-0.540039,0.241211,0
41810,0.783691,-0.516602,0.248535,0
41830,0.749512,-0.529297,0.256836,0
41850,0.734375,-0.54541,0.260742,0
41870,0.744629,-0.55957,0.257812,0
41890,0.756348,-0.549805,0.245117,0
41910,0.745117,-0.549316,0.270996,0
41930,0.697754,-0.576172,0.246094,0
41950,0.697266,-0.583984,0.23877,0
41970,0.737793,-0.592285,0.228516,0
41990,0.709961,-0.593262,0.225586,0
42010,0.654785,-0.627441,0.213867,0
42030,0.663574,-0.619629,0.198242,0
42050,0.692383,-0.605957,0.195801,0
42070,0.72998,-0.594238,0.186035,0
42080,0.693848,-0.629883,0.199219,0
42100,0.680176,-0.647461,0.158691,0
42120,0.694336,-0.631348,0.165039,0
42140,0.669434,-0.626465,0.176758,0
42160,0.651367,-0.615234,0.151367,0
42180,0.667969,-0.648438,0.158203,0
42200,0.674316,-0.646484,0.14502,0
42220,0.661621,-0.655273,0.140625,0
42240,0.658203,-0.644531,0.137695,0
42260,0.674316,-0.63623,0.139648,0
42280,0.672852,-0.657227,0.150391,0
42300,0.648926,-0.659668,0.123047,0
42320,0.661133,-0.650879,0.125,0
42340,0.668945,-0.648438,0.125,0
42360,0.634766,-0.647949,0.121582,0
42380,0.649902,-0.654785,0.10791,0
42400,0.675293,-0.666504,0.090332,0
42420,0.682129,-0.672363,0.074707,0
42440,0.665527,-0.678711,0.0893555,0
42460,0.640137,-0.674316,0.0795898,0
42480,0.668945,-0.669922,0.0537109,0
42500,0.686523,-0.666992,0.0649414,0
42520,0.645996,-0.694336,0.074707,0
42540,0.653809,-0.704102,0.046875,0
42560,0.700195,-0.704102,0.0473633,0
42580,0.692871,-0.706055,0.0527344,0
42600,0.657227,-0.720703,0.0424805,0
42620,0.668945,-0.740723,0.0517578,0
42640,0.661621,-0.722168,0.0629883,0
42660,0.640137,-0.714844,0.0361328,0
42680,0.664062,-0.729004,0.0673828,0
42700,0.645508,-0.731934,0.0615234,0
42720,0.623047,-0.717773,0.0410156,0
42740,0.648438,-0.730469,0.0410156,0
42760,0.648438,-0.72168,0.0551758,0
42780,0.631836,-0.725098,0.0385742,0
42800,0.634277,-0.739746,0.0478516,0
42820,0.645508,-0.736816,0.0454102,0
42840,0.637695,-0.711914,0.0400391,0
42850,0.609863,-0.724121,0.0131836,0
42870,0.620117,-0.743164,0.0498047,0
42890,0.628418,-0.738281,0.0244141,0
42910,0.594727,-0.708984,0.0234375,0
42930,0.594727,-0.71875,0.00732422,0
42950,0.633789,-0.726562,0.0209961,0
42970,0.648926,-0.724609,-0.00830078,0
42990,0.637695,-0.712402,0.000976562,0
43010,0.62793,-0.722656,-0.0166016,0
43030,0.644043,-0.712402,-0.0078125,0
43050,0.626953,-0.70752,0.000488281,0
43070,0.619141,-0.708496,-0.0131836,0
43090,0.640137,-0.705566,-0.0288086,0
43110,0.671875,-0.717773,-0.0375977,0
43130,0.696777,-0.70459,-0.0341797,0
43150,0.677734,-0.698242,-0.0336914,0
43170,0.657227,-0.691406,-0.0473633,0
43190,0.654785,-0.705078,-0.0180664,0
43210,0.676758,-0.708008,-0.0361328,0
43230,0.695801,-0.703613,-0.0327148,0
43250,0.699707,-0.701172,-0.050293,0
43270,0.686523,-0.698242,-0.0639648,0
43290,0.66748,-0.706543,-0.0429688,0
43310,0.67627,-0.709961,-0.0541992,0
43330,0.682617,-0.691895,-0.0498047,0
43350,0.682129,-0.704102,-0.0458984,0
43370,0.6875,-0.719238,-0.0610352,0
43390,0.670898,-0.716309,-0.0717773,0
43410,0.661133,-0.725098,-0.0527344,0
43430,0.675293,-0.724121,-0.0478516,0
43450,0.700195,-0.695801,-0.0444336,0
43470,0.677246,-0.697754,-0.0620117,0
43490,0.667969,-0.711426,-0.0537109,0
43510,0.66748,-0.728027,-0.0419922,0
43530,0.671387,-0.702637,-0.0634766,0
43550,0.661133,-0.685059,-0.0683594,0
43570,0.671875,-0.702148,-0.043457,0
43590,0.688477,-0.703125,-0.0629883,0
43610,0.691895,-0.674805,-0.0830078,0
43630,0.694336,-0.688477,-0.0737305,0
43650,0.705566,-0.69043,-0.0722656,0
43670,0.685059,-0.677246,-0.090332,0
43690,0.696289,-0.674805,-0.0996094,0
43710,0.728027,-0.664062,-0.0981445,0
43730,0.716797,-0.671387,-0.0786133,0
43750,0.696289,-0.652832,-0.107422,0
43770,0.719238,-0.630371,-0.120117,0
43790,0.76123,-0.626953,-0.0874023,0
43810,0.775879,-0.621582,-0.116211,0
43830,0.775391,-0.61377,-0.147461,0
43850,0.775879,-0.631348,-0.141113,0
43870,0.762207,-0.616211,-0.14209,0
43890,0.766113,-0.586426,-0.137695,0
43910,0.788574,-0.582031,-0.148438,0
43930,0.793945,-0.590332,-0.142578,0
43950,0.793457,-0.577637,-0.163086,0
43970,0.783203,-0.572754,-0.150879,0
43990,0.767578,-0.553223,-0.138672,0
44010,0.759766,-0.566895,-0.136719,0
44030,0.786621,-0.565918,-0.138672,0
44050,0.8125,-0.581543,-0.129395,0
44070,0.793457,-0.559082,-0.115234,0
44090,0.785645,-0.562988,-0.130859,0
44110,0.825195,-0.542969,-0.125488,0
44130,0.824219,-0.544922,-0.102539,0
44150,0.814941,-0.548828,-0.112793,0
44170,0.829102,-0.530762,-0.119141,0
44190,0.83252,-0.531738,-0.0932617,0
44210,0.817871,-0.51709,-0.103027,0
44230,0.84668,-0.505371,-0.074707,0
44250,0.851074,-0.497559,-0.0756836,0
44270,0.847168,-0.491211,-0.0820312,0
44290,0.856934,-0.473145,-0.0683594,0
44310,0.868164,-0.478516,-0.0512695,0
44330,0.848145,-0.466309,-0.0629883,0
44350,0.852539,-0.452637,-0.0673828,0
44370,0.888672,-0.446777,-0.046875,0
44390,0.890625,-0.433594,-0.0493164,0
44410,0.871094,-0.421387,-0.0517578,0
44430,0.908203,-0.430176,-0.0249023,0
44450,0.918945,-0.425293,-0.0444336,0
44470,0.892578,-0.417969,-0.0322266,0
44490,0.880371,-0.397461,-0.0307617,0
44510,0.916504,-0.397461,-0.0361328,0
44530,0.925781,-0.386719,-0.0185547,0
44550,0.900879,-0.382324,-0.012207,0
44570,0.900391,-0.378418,-0.0229492,0
44590,0.907227,-0.366699,0.00732422,0
44610,0.912109,-0.360352,0.00146484,0
44630,0.877441,-0.362305,0.0141602,0
44640,0.881348,-0.348145,0.00683594,0
44660,0.870117,-0.335938,0.0541992,0
44680,0.837402,-0.354492,0.0722656,0
44700,0.85791,-0.358398,0.0527344,0
44720,0.869629,-0.348145,0.0644531,0
44740,0.854004,-0.350098,0.059082,0
44760,0.856445,-0.351074,0.0561523,0
44780,0.881836,-0.355957,0.0546875,0
44800,0.887207,-0.384766,0.0551758,0
44820,0.851074,-0.405762,0.0498047,0
44840,0.876465,-0.4375,0.065918,0
44860,0.875488,-0.401367,0.0947266,0
44880,0.845703,-0.416016,0.0893555,0
44900,0.855469,-0.415527,0.0966797,0
44920,0.879883,-0.447266,0.122559,0
44940,0.897949,-0.433105,0.127441,0
44960,0.919434,-0.40918,0.104004,0
44980,0.911621,-0.431152,0.134277,0
45000,0.873047,-0.458984,0.132324,0
45020,0.84082,-0.462891,0.126465,0
45040,0.850586,-0.445801,0.147949,0
45060,0.862305,-0.391113,0.134766,0
45080,0.846191,-0.401855,0.154785,0
45100,0.84375,-0.436035,0.138672,0
45120,0.817871,-0.478516,0.175293,0
45140,0.827637,-0.464355,0.158691,0
45160,0.835449,-0.435059,0.164062,0
45180,0.841309,-0.427246,0.175781,0
45200,0.8125,-0.44873,0.171875,0
45220,0.809082,-0.479004,0.190918,0
45240,0.826172,-0.48877,0.205078,0
45260,0.847168,-0.461426,0.165039,0
45280,0.839844,-0.473145,0.185547,0
45300,0.814941,-0.481934,0.175293,0
45320,0.799316,-0.522949,0.183105,0
45340,0.785156,-0.51709,0.179688,0
45360,0.76709,-0.503906,0.165039,0
45380,0.769043,-0.524414,0.157227,0
45400,0.768066,-0.53125,0.180176,0
45420,0.736816,-0.535156,0.162109,0
45440,0.709961,-0.537598,0.144531,0
45460,0.718262,-0.539551,0.156738,0
45480,0.749023,-0.554688,0.154297,0
45500,0.779785,-0.577148,0.162598,0
45520,0.749512,-0.572754,0.165527,0
45540,0.711914,-0.585449,0.169434,0
45560,0.720703,-0.602051,0.152344,0
45580,0.728027,-0.580566,0.15332,0
45600,0.725586,-0.55957,0.148926,0
45620,0.750488,-0.567871,0.150879,0
45640,0.733398,-0.571289,0.154297,0
45660,0.729492,-0.583984,0.144531,0
45680,0.733887,-0.597656,0.148438,0
45700,0.733887,-0.598633,0.155273,0
45720,0.720703,-0.57666,0.14502,0
45740,0.72998,-0.592773,0.142578,0
45760,0.744629,-0.594727,0.154785,0
45780,0.728516,-0.609863,0.146484,0
45800,0.733887,-0.597656,0.14209,0
45820,0.740723,-0.610352,0.13623,0
45840,0.722168,-0.584473,0.147949,0
45860,0.708984,-0.603027,0.127441,0
45880,0.72998,-0.614258,0.148438,0
45900,0.734863,-0.602539,0.136719,0
45920,0.688477,-0.59082,0.117188,0
45940,0.727051,-0.597168,0.128906,0
45960,0.761719,-0.618652,0.133789,0
45980,0.719238,-0.626465,0.104492,0
46000,0.704102,-0.618652,0.081543,0
46020,0.717773,-0.613281,0.106934,0
46040,0.700684,-0.617676,0.0991211,0
46060,0.702148,-0.643066,0.0854492,0
46080,0.735352,-0.636719,0.0869141,0
46100,0.721191,-0.644531,0.0922852,0
46120,0.714844,-0.651855,0.0878906,0
46140,0.710938,-0.665527,0.0854492,0
46160,0.723633,-0.645996,0.0859375,0
46180,0.715332,-0.661621,0.0878906,0
46200,0.685547,-0.669434,0.097168,0
46220,0.681152,-0.658203,0.0708008,0
46240,0.716309,-0.687988,0.0683594,0
46260,0.703613,-0.685059,0.0888672,0
46280,0.680176,-0.682617,0.078125,0
46300,0.702637,-0.675293,0.0625,0
46320,0.706055,-0.690918,0.0634766,0
46340,0.70459,-0.694824,0.0493164,0
46360,0.695801,-0.692871,0.0493164,0
46380,0.683594,-0.688965,0.0380859,0
46400,0.703613,-0.682129,0.0444336,0
46420,0.710449,-0.689453,0.0415039,0
46440,0.65918,-0.686523,0.0253906,0
46460,0.666016,-0.686035,0.0336914,0
46480,0.688965,-0.693848,0.0117188,0
46500,0.68457,-0.692871,0.0126953,0
46520,0.681152,-0.686523,0.015625,0
46540,0.667969,-0.679199,-0.00488281,0
46560,0.667969,-0.678711,-0.0244141,0
46580,0.694824,-0.69043,-0.0209961,0
46600,0.643555,-0.678711,-0.0214844,0
46620,0.625977,-0.672852,-0.0327148,0
46640,0.671387,-0.686035,-0.0361328,0
46660,0.667969,-0.673828,-0.0390625,0
46680,0.635742,-0.672852,-0.0493164,0
46700,0.637207,-0.679688,-0.0395508,0
46720,0.646973,-0.678223,-0.0522461,0
46740,0.657715,-0.651855,-0.0664062,0
46760,0.676758,-0.678223,-0.0805664,0
46780,0.698242,-0.69043,-0.0600586,0
46800,0.692383,-0.678711,-0.0693359,0
46820,0.678223,-0.666992,-0.0883789,0
46840,0.697754,-0.682129,-0.0742188,0
46860,0.723633,-0.67627,-0.0678711,0
46880,0.701172,-0.665527,-0.0791016,0
46900,0.709473,-0.674316,-0.0751953,0
46920,0.76123,-0.682129,-0.0712891,0
46940,0.733398,-0.657715,-0.0654297,0
46960,0.735352,-0.643066,-0.0834961,0
46980,0.728027,-0.632812,-0.0820312,0
47000,0.739258,-0.635742,-0.0981445,0
47020,0.77832,-0.642578,-0.0976562,0
47040,0.759766,-0.628418,-0.102051,0
47060,0.75293,-0.62793,-0.121582,0
47080,0.76709,-0.62793,-0.124512,0
47100,0.766602,-0.595703,-0.141602,0
47120,0.786621,-0.603027,-0.134766,0
47140,0.772461,-0.586426,-0.152832,0
47150,0.765625,-0.598633,-0.140625,0
47170,0.775391,-0.597656,-0.148926,0
47190,0.777832,-0.592285,-0.146484,0
47210,0.766602,-0.577148,-0.159668,0
47230,0.760254,-0.575195,-0.168457,0
47250,0.751953,-0.593262,-0.162109,0
47270,0.758789,-0.603516,-0.179199,0
47290,0.786133,-0.57666,-0.199219,0
47310,0.785156,-0.570312,-0.197754,0
47330,0.763672,-0.591797,-0.188477,0
47350,0.741699,-0.587891,-0.217773,0
47370,0.781738,-0.581055,-0.225098,0
47390,0.758789,-0.568359,-0.192383,0
47410,0.73584,-0.587402,-0.225586,0
47430,0.779785,-0.589844,-0.223145,0
47450,0.83252,-0.569824,-0.221191,0
47470,0.820312,-0.558105,-0.21875,0
47490,0.793945,-0.553711,-0.221191,0
47510,0.79834,-0.548828,-0.19043,0
47530,0.822754,-0.522949,-0.221191,0
47550,0.82959,-0.491211,-0.254395,0
47570,0.821777,-0.504395,-0.210938,0
47590,0.811035,-0.513184,-0.228027,0
47610,0.810059,-0.479492,-0.242676,0
47630,0.833984,-0.47998,-0.240723,0
47650,0.838379,-0.461426,-0.221191,0
47670,0.833984,-0.461914,-0.212402,0
47690,0.832031,-0.438477,-0.227539,0
47710,0.871094,-0.450195,-0.222168,2001
47730,0.885254,-0.436035,-0.234863,0
47750,0.880371,-0.428711,-0.234863,0
47770,0.874023,-0.410156,-0.22168,0
47790,0.884277,-0.40918,-0.225098,0
47810,0.879883,-0.422363,-0.230469,0
47830,0.882324,-0.420898,-0.215332,0
47850,0.875977,-0.420898,-0.210938,0
47870,0.875488,-0.403809,-0.230957,0
47890,0.883789,-0.412598,-0.208984,0
47910,0.856445,-0.410156,-0.219238,0
47930,0.86084,-0.416992,-0.223633,0
47950,0.855469,-0.425293,-0.240723,0
47970,0.850098,-0.411133,-0.233398,0
47990,0.852051,-0.419434,-0.223145,0
48010,0.869629,-0.400879,-0.252441,0
48030,0.859863,-0.436523,-0.240234,0
48050,0.835449,-0.447266,-0.211426,0
48070,0.826172,-0.445801,-0.239258,0
48090,0.855469,-0.439453,-0.234375,0
48110,0.862793,-0.429199,-0.233398,0
48130,0.874023,-0.451172,-0.237305,0
48150,0.861816,-0.45752,-0.237793,0
48170,0.810547,-0.430176,-0.217285,0
48190,0.804199,-0.446777,-0.221191,0
48210,0.78418,-0.453125,-0.204102,0
48230,0.726562,-0.464355,-0.205078,0
48250,0.631348,-0.451172,-0.160156,0
48270,0.495605,-0.457031,-0.165527,0
48290,0.407227,-0.453613,-0.204102,0
48310,0.470703,-0.455078,-0.174316,0
48330,0.540039,-0.479004,-0.0654297,0
48350,0.472168,-0.471191,-0.0957031,0
48370,0.493164,-0.486816,-0.182129,0
48390,0.624512,-0.511719,-0.0893555,0
48410,0.683594,-0.561523,0.0668945,0
48430,0.599121,-0.566895,-0.0424805,0
48450,0.708008,-0.611816,-0.177734,0
48470,0.841797,-0.616699,-0.0317383,0
48490,0.738281,-0.602539,0.0825195,0
48510,0.690918,-0.651855,-0.0805664,0
48530,0.888672,-0.732422,-0.132812,0
48550,0.904297,-0.743164,0.0849609,0
48570,0.785156,-0.837402,-0.00439453,0
48590,0.854492,-0.849121,-0.138672,0
48610,0.968262,-0.856934,-0.0332031,0
48630,0.855957,-0.87207,0.059082,0
48650,0.77832,-0.974609,-0.0507812,0
48670,0.849121,-1.02588,-0.182129,0
48690,0.871094,-0.994629,0.00732422,0
48710,0.727051,-1.02295,0.0576172,0
48730,0.655762,-1.04053,-0.0361328,0
48750,0.664551,-0.986328,0.00537109,0
48770,0.600586,-0.916504,0.0864258,0
48790,0.509766,-0.942383,0.0834961,0
48810,0.441406,-0.959961,0.0917969,0
48830,0.380371,-0.928711,0.130371,0
48850,0.370117,-0.852051,0.121094,0
48870,0.347656,-0.79248,0.132324,0
48890,0.374512,-0.83252,0.136719,0
48910,0.362793,-0.848633,0.168945,0
48930,0.352051,-0.864258,0.161133,0
48950,0.370117,-0.895508,0.129395,0
48970,0.372559,-0.915527,0.12207,0
48990,0.375,-0.867676,0.161133,0
49010,0.35791,-0.864258,0.12793,0
49030,0.35498,-0.880371,0.142578,0
49050,0.369629,-0.900879,0.152832,0
49070,0.404297,-0.907227,0.123047,0
49090,0.391602,-0.895508,0.128906,0
49110,0.38623,-0.905762,0.119629,0
49130,0.398438,-0.911133,0.120605,0
49150,0.398438,-0.932617,0.120117,0
49170,0.412598,-0.896973,0.0605469,0
49190,0.396484,-0.867676,0.125,0
49210,0.360352,-0.879395,0.135742,0
49230,0.362305,-0.887695,0.09375,0
49250,0.370605,-0.932129,0.11377,0
49270,0.384277,-0.885254,0.0893555,0
49290,0.403809,-0.861328,0.0991211,0
49310,0.397461,-0.860352,0.0834961,0
49330,0.368164,-0.901855,0.0976562,0
49350,0.36377,-0.917969,0.0874023,0
49370,0.395508,-0.903809,0.100586,0
49390,0.410645,-0.857422,0.0629883,0
49410,0.387207,-0.837402,0.0849609,0
49430,0.379883,-0.878418,0.117188,0
49450,0.355957,-0.924316,0.119629,0
49470,0.405273,-0.903809,0.0756836,0
49490,0.438965,-0.862305,0.0883789,0
49510,0.398926,-0.880371,0.116699,0
49530,0.368652,-0.878418,0.116699,0
49550,0.37207,-0.892578,0.130371,0
49570,0.429199,-0.881348,0.102051,0
49590,0.430664,-0.893555,0.121582,0
49610,0.378418,-0.880371,0.13916,0
49630,0.356934,-0.873535,0.14209,0
49650,0.379883,-0.878418,0.126953,0
49670,0.404785,-0.873535,0.11084,0
49690,0.399902,-0.884766,0.102051,0
49710,0.362793,-0.882812,0.106445,0
49720,0.346191,-0.895996,0.0981445,0
49740,0.358398,-0.877441,0.0966797,0
49760,0.378906,-0.864746,0.0976562,0
49780,0.395508,-0.862305,0.0893555,0
49800,0.376953,-0.883789,0.0957031,0
49820,0.351074,-0.875,0.0737305,0
49840,0.355957,-0.887695,0.0917969,0
49860,0.370605,-0.870605,0.0893555,0
49880,0.364746,-0.878418,0.0947266,0
49900,0.366699,-0.875977,0.0683594,0
49920,0.380371,-0.899902,0.0722656,0
49940,0.375977,-0.892578,0.0805664,0
49960,0.363281,-0.885254,0.0810547,0
49980,0.368652,-0.887207,0.0742188,0
50000,0.392578,-0.883789,0.0908203,0
50020,0.371094,-0.884766,0.0947266,0
50040,0.382324,-0.899414,0.0898438,0
50060,0.401855,-0.883301,0.0742188,0
50080,0.413086,-0.883789,0.0957031,0
50100,0.425293,-0.873535,0.0917969,0
50120,0.388184,-0.897461,0.104004,0
50140,0.368164,-0.882324,0.110352,0
50160,0.405762,-0.88916,0.0996094,0
50180,0.431152,-0.890137,0.124023,0
50200,0.406738,-0.885742,0.108398,0
50220,0.36377,-0.879883,0.126953,0
50240,0.379883,-0.88916,0.121094,0
50260,0.452637,-0.917969,0.126953,0
50280,0.48584,-0.917969,0.128418,0
50300,0.462402,-0.87207,0.139648,0
50320,0.445801,-0.862793,0.109863,0
50340,0.494141,-0.859863,0.101562,0
50360,0.563965,-0.854492,0.0839844,0
50380,0.629883,-0.853027,0.0307617,0
50400,0.688477,-0.84375,-0.00146484,0
50420,0.720215,-0.84375,0.00732422,0
50440,0.73291,-0.831055,0.0107422,0
50460,0.726562,-0.814453,0.00439453,0
50480,0.697266,-0.796387,0.0175781,0
50500,0.668457,-0.791992,0.0239258,0
50520,0.634277,-0.76123,0.00292969,0
50540,0.597656,-0.738281,0.00439453,0
50560,0.572754,-0.729004,0.00634766,0
50580,0.533691,-0.760254,-0.0102539,0
50600,0.568848,-0.799805,-0.00195312,0
50620,0.601074,-0.811035,0.0317383,0
50640,0.572266,-0.822266,0.0566406,0
50660,0.533691,-0.812988,0.0234375,0
50680,0.498047,-0.824707,0.097168,0
50700,0.51416,-0.885742,0.129395,0
50720,0.547852,-0.84375,0.108398,0
50740,0.45166,-0.891602,0.0849609,0
50760,0.40625,-0.858887,0.141602,0
50780,0.35498,-0.869629,0.118164,0
50800,0.349609,-0.865723,0.134277,0
50820,0.378906,-0.888672,0.117188,0
50840,0.384766,-0.843262,0.0996094,0
50860,0.30127,-0.87207,0.103516,0
50880,0.3125,-0.889648,0.0961914,0
50900,0.313965,-0.901855,0.129395,0
50920,0.316895,-0.837891,0.0947266,0
50940,0.325195,-0.827148,0.108398,0
50960,0.384766,-0.865234,0.117188,0
50980,0.408691,-0.883301,0.0976562,0
51000,0.414551,-0.860352,0.0908203,0
51020,0.424316,-0.857422,0.081543,0
51040,0.424805,-0.859375,0.065918,0
51060,0.45459,-0.864258,0.00146484,0
51080,0.45752,-0.86084,0.0332031,0
51100,0.431641,-0.893555,0.0546875,0
51120,0.399902,-0.915527,0.0424805,0
51140,0.415527,-0.869629,0.0688477,0
51160,0.427246,-0.866699,0.0444336,0
51180,0.389648,-0.887207,0.124023,0
51200,0.343262,-0.862793,0.13916,0
51220,0.333008,-0.876465,0.154297,0
51240,0.390137,-0.883301,0.133301,0
51260,0.413574,-0.901855,0.147949,0
51280,0.403809,-0.92334,0.108887,0
51300,0.410156,-0.890137,0.147949,0
51320,0.410156,-0.879395,0.124023,0
51340,0.386719,-0.869141,0.11377,0
51360,0.429199,-0.888672,0.100098,0
51380,0.445801,-0.905762,0.0893555,0
51400,0.442383,-0.841797,0.0810547,0
51420,0.425293,-0.853027,0.0908203,0
51440,0.446289,-0.879395,0.090332,0
51460,0.453613,-0.87207,0.0805664,0
51480,0.443848,-0.870117,0.0830078,0
51500,0.430176,-0.86084,0.100586,0
51520,0.439941,-0.868652,0.0766602,0
51540,0.450195,-0.848633,0.104492,0
51560,0.442871,-0.862305,0.0830078,0
51580,0.42041,-0.88623,0.113281,0
51600,0.450195,-0.876465,0.0957031,0
51620,0.445801,-0.857422,0.0966797,0
51640,0.424805,-0.851562,0.10791,0
51660,0.408203,-0.884277,0.118652,0
51680,0.427246,-0.880859,0.115723,0
51700,0.467773,-0.867676,0.0898438,0
51720,0.433105,-0.867188,0.117676,0
51740,0.402344,-0.854492,0.10498,0
51760,0.411133,-0.871094,0.111328,0
51780,0.439941,-0.839355,0.081543,0
51800,0.441895,-0.853027,0.0834961,0
51820,0.419922,-0.868652,0.0991211,0
51840,0.408203,-0.871582,0.0864258,0
51860,0.421875,-0.837402,0.0473633,0
51880,0.421875,-0.828613,0.0820312,0
51900,0.398926,-0.855957,0.0991211,0
51920,0.396484,-0.881348,0.0820312,0
51940,0.424805,-0.860352,0.065918,0
51960,0.44873,-0.829102,0.0732422,0
51980,0.428223,-0.849609,0.0878906,0
52000,0.405273,-0.874023,0.111816,0
52020,0.444824,-0.888672,0.0722656,0
52040,0.481934,-0.852539,0.0727539,0
52060,0.463379,-0.856445,0.0683594,0
52080,0.426758,-0.879883,0.0786133,0
52100,0.444824,-0.884277,0.0712891,0
52120,0.478516,-0.850586,0.0488281,0
52140,0.524902,-0.84668,0.0620117,0
52160,0.522949,-0.86084,0.050293,0
52180,0.507812,-0.876465,0.0444336,0
52200,0.555664,-0.852051,-0.00878906,0
52220,0.607422,-0.858887,0.00927734,0
52240,0.582031,-0.846191,0.00585938,0
52260,0.551758,-0.831543,-0.00390625,0
52280,0.522949,-0.839355,0.00927734,0
52290,0.545898,-0.79834,0.0273438,0
52310,0.514648,-0.821777,0.0322266,0
52330,0.479004,-0.820312,0.0537109,0
52350,0.446289,-0.834473,0.0737305,0
52370,0.488281,-0.780762,0.0195312,0
52390,0.484863,-0.811035,0.078125,0
52410,0.421387,-0.844727,0.074707,0
52430,0.416016,-0.849609,0.0810547,0
52450,0.47168,-0.901367,0.0615234,0
52470,0.450684,-0.897949,0.081543,0
52490,0.414551,-0.874023,0.100098,0
52510,0.384277,-0.897949,0.115234,0
52530,0.417969,-0.887695,0.120117,0
52550,0.447266,-0.886719,0.14209,0
52570,0.447266,-0.918945,0.163574,0
52590,0.460449,-0.904297,0.164062,0
52610,0.470215,-0.888672,0.121094,0
52630,0.484375,-0.884766,0.117188,0
52650,0.482422,-0.869629,0.110352,0
52670,0.464844,-0.865723,0.0947266,0
52690,0.44873,-0.859375,0.114746,0
52710,0.439941,-0.881348,0.0825195,0
52730,0.480957,-0.832031,0.0600586,0
52750,0.488281,-0.799805,0.0629883,0
52770,0.42627,-0.835449,0.0917969,0
52790,0.468262,-0.86084,0.0478516,0
52810,0.496094,-0.834961,0.0825195,0
52830,0.474609,-0.841797,0.0732422,0
52850,0.49707,-0.815918,0.043457,0
52870,0.525391,-0.818359,0.0581055,0
52890,0.47998,-0.805664,0.0668945,0
52910,0.430176,-0.849609,0.065918,0
52930,0.438477,-0.871094,0.0849609,0
52950,0.453125,-0.838379,0.0717773,0
52970,0.433594,-0.817871,0.0678711,0
52990,0.415039,-0.833984,0.0810547,0
53010,0.396973,-0.845703,0.0825195,0
53030,0.395508,-0.858398,0.0883789,0
53050,0.40332,-0.866211,0.081543,0
53070,0.421875,-0.890625,0.101074,0
53090,0.428223,-0.903809,0.0805664,0
53110,0.430176,-0.872559,0.0893555,0
53130,0.432617,-0.884766,0.0683594,0
53150,0.439453,-0.904297,0.0507812,0
53170,0.42041,-0.882812,0.0756836,0
53190,0.403809,-0.889648,0.0537109,0
53210,0.413086,-0.897949,0.0751953,0
53230,0.424316,-0.885254,0.0644531,0
53250,0.422363,-0.868652,0.0727539,0
53270,0.414551,-0.878906,0.0512695,0
53290,0.404785,-0.891602,0.097168,0
53310,0.410156,-0.883789,0.0771484,0
53330,0.429199,-0.870117,0.0698242,0
53350,0.46875,-0.869629,0.0302734,0
53370,0.459961,-0.870605,0.0102539,0
53390,0.394531,-0.892578,0.0751953,0
53410,0.401367,-0.894043,0.0473633,0
53430,0.439941,-0.887695,0.0805664,0
53450,0.437012,-0.852051,0.0483398,0
53470,0.427734,-0.876465,0.0654297,0
53490,0.452148,-0.879395,0.074707,0
53510,0.44873,-0.865723,0.0473633,0
53530,0.414551,-0.861816,0.0795898,0
53550,0.427246,-0.858398,0.0727539,0
53570,0.45459,-0.883301,0.0883789,0
53590,0.415039,-0.870117,0.090332,0
53610,0.413086,-0.866699,0.0595703,0
53630,0.471191,-0.871094,0.0541992,0
53650,0.472656,-0.869629,0.0678711,0
53670,0.439941,-0.855469,0.0751953,0
53690,0.433594,-0.894043,0.0688477,0
53710,0.462891,-0.875977,0.0581055,0
53730,0.481934,-0.86377,0.0488281,0
53750,0.448242,-0.834961,0.0537109,0
53770,0.420898,-0.884277,0.0664062,0
53790,0.442871,-0.879883,0.0561523,0
53810,0.481934,-0.870117,0.0410156,0
53830,0.439941,-0.852051,0.065918,0
53850,0.435059,-0.860352,0.0703125,0
53870,0.417969,-0.86084,0.0644531,0
53890,0.45752,-0.862305,0.0488281,0
53910,0.442871,-0.853027,0.0834961,0
53930,0.416016,-0.859863,0.0791016,0
53950,0.436523,-0.867188,0.0610352,0
53970,0.460938,-0.865234,0.0634766,0
53990,0.425293,-0.850098,0.0683594,0
54010,0.415039,-0.855957,0.10791,0
54030,0.410156,-0.878418,0.0922852,0
54050,0.432617,-0.851074,0.0766602,0
54070,0.432617,-0.847656,0.0834961,0
54090,0.390137,-0.85498,0.113281,0
54110,0.385254,-0.882812,0.0986328,0
54130,0.455566,-0.862793,0.0825195,0
54150,0.490234,-0.845703,0.0742188,0
54170,0.430176,-0.87793,0.0844727,0
54190,0.400391,-0.878418,0.0717773,0
54210,0.467285,-0.845215,0.0527344,0
54230,0.503906,-0.849609,0.0439453,0
54250,0.464355,-0.877441,0.0712891,0
54270,0.416992,-0.888184,0.0551758,0
54290,0.433105,-0.862305,0.0424805,0
54310,0.481445,-0.839355,0.0419922,0
54330,0.464355,-0.844727,0.0654297,0
54350,0.417969,-0.879395,0.0820312,0
54370,0.422852,-0.881348,0.0620117,0
54390,0.479492,-0.842773,0.0712891,0
54410,0.479004,-0.850586,0.0717773,0
54430,0.449707,-0.855957,0.0771484,0
54450,0.431641,-0.880371,0.0932617,0
54470,0.446289,-0.85791,0.0473633,0
54490,0.47168,-0.854004,0.059082,0
54510,0.504395,-0.865234,0.0649414,0
54530,0.525391,-0.875488,0.0527344,0
54550,0.542969,-0.860352,0.0336914,0
54570,0.505371,-0.843262,0.0454102,0
54590,0.459473,-0.821289,0.034668,0
54610,0.506348,-0.84082,0.0366211,0
54630,0.551758,-0.857422,0.0385742,0
54650,0.566406,-0.839355,-0.00195312,0
54670,0.522949,-0.821289,0.0205078,0
54690,0.542969,-0.817871,0.0209961,0
54710,0.538574,-0.819824,0.00927734,0
54730,0.542969,-0.82666,0.0185547,0
54750,0.565918,-0.776367,0.0371094,0
54770,0.526855,-0.805176,0.019043,0
54790,0.51416,-0.828125,0.0117188,0
54810,0.513672,-0.817871,0.0400391,0
54830,0.5,-0.849121,0.0317383,0
54850,0.524902,-0.838379,0.0507812,0
54860,0.561035,-0.882324,0.0493164,0
54880,0.552734,-0.876465,0.0698242,0
54900,0.502441,-0.885254,0.0810547,0
54920,0.432617,-0.853027,0.0859375,0
54940,0.461426,-0.887695,0.113281,0
54960,0.481934,-0.899414,0.117188,0
54980,0.453613,-0.883789,0.138672,0
55000,0.454102,-0.872559,0.121582,0
55020,0.441406,-0.875977,0.163086,0
55040,0.459961,-0.871094,0.121094,0
55060,0.464355,-0.854004,0.113281,0
55080,0.467773,-0.824219,0.0952148,0
55100,0.461914,-0.813477,0.0712891,0
55120,0.453125,-0.819824,0.0722656,0
55140,0.484375,-0.806152,0.0488281,0
55160,0.472656,-0.789551,0.0527344,0
55180,0.473633,-0.8125,0.0498047,0
55200,0.511719,-0.824219,0.034668,0
55220,0.471191,-0.831543,0.114746,0
55240,0.456543,-0.820801,0.0717773,0
55260,0.48584,-0.783691,0.0493164,0
55280,0.48877,-0.814453,0.111328,0
55300,0.482422,-0.89209,0.0268555,0
55320,0.464355,-0.799805,0.0844727,0
55340,0.509277,-0.837891,0.0380859,0
55360,0.486328,-0.852539,0.0385742,0
55380,0.489746,-0.818848,0.0458984,0
55400,0.486328,-0.835938,0.0737305,0
55420,0.47998,-0.819824,0.0195312,0
55440,0.492676,-0.861816,0.0717773,0
55460,0.494629,-0.835938,0.0463867,0
55480,0.47998,-0.838379,0.0488281,0
55500,0.472168,-0.855957,0.0610352,0
55520,0.490723,-0.858887,0.0522461,0
55540,0.467773,-0.886719,0.0527344,0
55560,0.450195,-0.841309,0.0507812,0
55580,0.480469,-0.854492,0.0908203,0
55600,0.458984,-0.855957,0.0668945,0
55620,0.454102,-0.864746,0.0874023,0
55640,0.461914,-0.870605,0.0698242,0
55660,0.461426,-0.845703,0.0678711,0
55680,0.473145,-0.852051,0.0712891,0
55700,0.471191,-0.846191,0.0766602,0
55720,0.460449,-0.872559,0.0776367,0
55740,0.469238,-0.842285,0.0722656,0
55760,0.479004,-0.834473,0.0795898,0
55780,0.458984,-0.869141,0.0922852,0
55800,0.474609,-0.865234,0.0556641,0
55820,0.501953,-0.849121,0.0585938,0
55840,0.489746,-0.84082,0.0537109,0
55860,0.464355,-0.844727,0.0844727,0
55880,0.476074,-0.867676,0.0874023,0
55900,0.483398,-0.850586,0.0473633,0
55920,0.490234,-0.831055,0.0610352,0
55940,0.471191,-0.844238,0.0605469,0
55960,0.465332,-0.863281,0.0893555,0
55980,0.459961,-0.879395,0.0649414,0
56000,0.469238,-0.821777,0.0595703,0
56020,0.473145,-0.827148,0.0664062,0
56040,0.436523,-0.847168,0.0732422,0
56060,0.431152,-0.856445,0.0898438,0
56080,0.426758,-0.827148,0.0776367,0
56100,0.4375,-0.821289,0.0834961,0
56120,0.414062,-0.841309,0.0908203,0
56140,0.421875,-0.858398,0.0947266,0
56160,0.486816,-0.856445,0.0859375,0
56180,0.469727,-0.816406,0.0800781,0
56200,0.449219,-0.848633,0.0771484,0
56220,0.490723,-0.857422,0.0610352,0
56240,0.513672,-0.854004,0.0810547,0
56260,0.483887,-0.859863,0.0791016,0
56280,0.484863,-0.881348,0.0908203,0
56300,0.504883,-0.857422,0.0844727,0
56320,0.544922,-0.87207,0.09375,0
56340,0.552734,-0.858887,0.0888672,0
56360,0.560059,-0.849121,0.0615234,0
56380,0.572266,-0.838867,0.0576172,0
56410,0.53418,-0.839355,0.0463867,0
56430,0.53125,-0.826172,0.0444336,0
56450,0.509277,-0.817383,0.0419922,0
56470,0.490723,-0.82373,0.0253906,0
56490,0.479492,-0.853027,0.0541992,0
56510,0.485352,-0.851562,0.0952148,0
56530,0.475586,-0.797363,0.104004,0
56550,0.454102,-0.777344,0.147461,0
56570,0.480957,-0.776855,0.160645,0
56590,0.507812,-0.792969,0.152832,0
56610,0.508301,-0.794922,0.179199,0
56630,0.516602,-0.786621,0.152344,0
56650,0.542969,-0.775391,0.128418,0
56670,0.566406,-0.793945,0.137207,0
56690,0.567383,-0.793945,0.117676,0
56710,0.543457,-0.760254,0.107422,0
56730,0.591797,-0.778809,0.0888672,0
56750,0.57373,-0.74707,0.0576172,0
56770,0.492188,-0.796875,0.0908203,0
56790,0.515625,-0.846191,0.0683594,0
56810,0.504395,-0.906738,0.0961914,0
56830,0.518555,-0.833984,0.0712891,0
56850,0.417969,-0.911133,0.127441,0
56870,0.443848,-0.856934,0.105469,0
56890,0.489746,-0.822266,0.0805664,0
56910,0.541992,-0.854004,0.0766602,0
56930,0.522461,-0.858398,0.0737305,0
56950,0.603516,-0.810547,0.0664062,0
56970,0.52002,-0.806641,0.0678711,0
56990,0.475586,-0.850586,0.0947266,0
57010,0.565918,-0.823242,0.043457,0
57030,0.590332,-0.742676,0.0898438,0
57050,0.547852,-0.763184,0.0834961,0
57070,0.530273,-0.805176,0.0742188,0
57090,0.511719,-0.822266,0.0751953,0
57110,0.563965,-0.824219,0.105957,0
57130,0.492676,-0.748047,0.0493164,0
57150,0.476562,-0.780273,0.13916,0
57170,0.538574,-0.836426,0.10791,0
57190,0.505859,-0.782227,0.117676,0
57210,0.47168,-0.822266,0.0966797,0
57230,0.533203,-0.851562,0.0786133,0
57250,0.495117,-0.811523,0.128418,0
57270,0.468262,-0.787109,0.0927734,0
57290,0.498047,-0.8125,0.0893555,0
57310,0.507812,-0.836914,0.108887,0
57330,0.492188,-0.849609,0.104004,0
57350,0.513672,-0.831543,0.0854492,0
57370,0.510742,-0.811523,0.081543,0
57390,0.496582,-0.837402,0.100098,0
57410,0.522461,-0.852539,0.11084,0
57420,0.507324,-0.82373,0.0991211,0
57440,0.509277,-0.813965,0.0820312,0
57460,0.516602,-0.818848,0.0961914,0
57480,0.526855,-0.839844,0.0849609,0
57500,0.505371,-0.830566,0.102539,0
57520,0.512695,-0.837402,0.0932617,0
57540,0.518066,-0.837402,0.0917969,0
57560,0.515625,-0.821289,0.112793,0
57580,0.532715,-0.796875,0.101074,0
57600,0.517578,-0.797363,0.0952148,0
57620,0.51416,-0.799316,0.114258,0
57640,0.500977,-0.803223,0.108398,0
57660,0.509277,-0.806641,0.101074,0
57680,0.501465,-0.812012,0.125977,0
57700,0.506348,-0.808105,0.105957,0
57720,0.507324,-0.80957,0.104492,0
57740,0.498047,-0.805176,0.0996094,0
57760,0.507812,-0.816895,0.105469,0
57780,0.51709,-0.820312,0.0966797,0
57800,0.499512,-0.848633,0.090332,0
57820,0.509277,-0.826172,0.0966797,0
57840,0.519043,-0.820312,0.103516,0
57860,0.515625,-0.820312,0.110352,0
57880,0.549316,-0.839844,0.0825195,0
57900,0.536621,-0.808105,0.0947266,2000
57920,0.525391,-0.818359,0.0883789,0
57940,0.545898,-0.816406,0.0634766,0
57960,0.545898,-0.788086,0.0664062,0
57980,0.511719,-0.796875,0.0883789,0
58000,0.509766,-0.812012,0.100098,0
58020,0.540039,-0.823242,0.0888672,0
58040,0.556152,-0.800293,0.0654297,0
58060,0.527832,-0.774902,0.0805664,0
58080,0.52002,-0.795898,0.0893555,0
58100,0.533691,-0.826172,0.0742188,0
58120,0.536133,-0.840332,0.0927734,0
58140,0.534668,-0.820312,0.0786133,0
58160,0.518066,-0.827148,0.0874023,0
58180,0.473145,-0.82666,0.0947266,0
58200,0.437012,-0.830078,0.10498,0
58220,0.431152,-0.841309,0.0961914,0
58240,0.475098,-0.849609,0.122559,0
58260,0.448242,-0.836426,0.119141,0
58280,0.436523,-0.834473,0.114746,0
58300,0.460938,-0.820312,0.140625,0
58320,0.447754,-0.873535,0.140137,0
58340,0.48584,-0.907227,0.109375,0
58360,0.459473,-0.85498,0.116211,0
58380,0.458984,-0.84375,0.0961914,0
58400,0.496582,-0.86084,0.0957031,0
58420,0.508789,-0.813477,0.0634766,0
58440,0.5,-0.84668,0.134277,0
58460,0.47998,-0.859863,0.0424805,0
58480,0.494629,-0.857422,0.0874023,0
58500,0.495605,-0.825684,0.0839844,0
58520,0.47998,-0.83252,0.0976562,0
58540,0.480469,-0.819824,0.0810547,0
58560,0.487305,-0.847656,0.116699,0
58580,0.494629,-0.826172,0.0776367,0
58600,0.509766,-0.827637,0.110352,0
58620,0.500977,-0.812012,0.090332,0
58640,0.505859,-0.829102,0.0825195,0
58660,0.474121,-0.845215,0.101562,0
58680,0.499023,-0.83252,0.0908203,0
58700,0.507812,-0.824219,0.0942383,0
58720,0.478516,-0.831543,0.110352,0
58740,0.495605,-0.821289,0.0913086,0
58760,0.501465,-0.830566,0.097168,0
58780,0.494141,-0.834961,0.117188,0
58800,0.485352,-0.819336,0.114746,0
58820,0.507324,-0.853516,0.0830078,0
58840,0.505371,-0.854004,0.0991211,0
58860,0.507324,-0.810059,0.0737305,0
58880,0.515137,-0.831055,0.0942383,0
58900,0.489258,-0.821777,0.081543,0
58920,0.503906,-0.832031,0.0776367,0
58940,0.498535,-0.839355,0.100098,0
58960,0.487793,-0.817871,0.0761719,0
58980,0.480469,-0.825684,0.0893555,0
59000,0.480469,-0.830566,0.103516,0
59020,0.458008,-0.832031,0.097168,0
59040,0.466309,-0.84082,0.115234,0
59060,0.466797,-0.835449,0.104004,0
59080,0.478027,-0.832031,0.123535,0
59100,0.48291,-0.82959,0.117188,0
59120,0.480957,-0.841797,0.100586,0
59140,0.495605,-0.839844,0.0966797,0
59160,0.505371,-0.821289,0.0834961,0
59180,0.511719,-0.813477,0.0874023,0
59200,0.487793,-0.813965,0.0830078,0
59220,0.491699,-0.826172,0.0839844,0
59240,0.508789,-0.817383,0.0634766,0
59260,0.513184,-0.820801,0.102051,0
59280,0.484375,-0.829102,0.105469,0
59300,0.465332,-0.820801,0.0664062,0
59320,0.500977,-0.816895,0.0717773,0
59340,0.519531,-0.832031,0.0844727,0
59360,0.516113,-0.830566,0.078125,0
59380,0.522949,-0.81543,0.0786133,0
59400,0.54248,-0.819336,0.0620117,0
59420,0.554199,-0.81543,0.0693359,0
59440,0.551758,-0.804688,0.0664062,0
59460,0.539062,-0.818848,0.081543,0
59480,0.544434,-0.806641,0.0410156,0
59500,0.574219,-0.803711,0.0600586,0
59520,0.551758,-0.806641,0.0522461,0
59540,0.520996,-0.800293,0.0698242,0
59560,0.508301,-0.816406,0.0561523,0
59580,0.534668,-0.825195,0.0498047,0
59600,0.51123,-0.831055,0.0844727,0
59620,0.491699,-0.80957,0.0737305,0
59640,0.504395,-0.813965,0.0791016,0
59660,0.550293,-0.810059,0.0693359,0
59680,0.53418,-0.818359,0.0849609,0
59700,0.512695,-0.814453,0.0942383,0
59720,0.503418,-0.818848,0.0703125,0
59740,0.525879,-0.808105,0.0546875,0
59760,0.535645,-0.808594,0.0585938,0
59780,0.503906,-0.805176,0.0800781,0
59800,0.507324,-0.805664,0.0810547,0
59820,0.550293,-0.78125,0.0703125,0
59840,0.589844,-0.783203,0.0791016,0
59860,0.55957,-0.787109,0.0703125,0
59880,0.54834,-0.788574,0.0825195,0
59900,0.533203,-0.774902,0.0737305,0
59920,0.538086,-0.769043,0.0727539,0
59940,0.583008,-0.776855,0.0893555,0
59960,0.571289,-0.767578,0.0834961,0
59970,0.609863,-0.758301,0.065918,0
59990,0.635254,-0.757812,0.074707,0
60010,0.640625,-0.735352,0.0649414,0
60030,0.688477,-0.710938,0.0644531,0
60050,0.694336,-0.712402,0.0366211,0
60070,0.790039,-0.601562,-0.00537109,0
60090,0.774902,-0.589355,-0.000488281,0
60110,0.797363,-0.605957,-0.019043,0
60130,0.813477,-0.573242,-0.0166016,0
60150,0.820312,-0.557129,-0.0336914,0
60170,0.852051,-0.547363,-0.027832,0
60190,0.835449,-0.542969,-0.034668,0
60210,0.841309,-0.536621,-0.0244141,0
60230,0.844727,-0.530762,-0.0332031,0
60250,0.854492,-0.52002,-0.0239258,0
60270,0.85791,-0.516113,-0.0361328,0
60290,0.856445,-0.513184,-0.0229492,0
60310,0.833496,-0.51123,-0.00683594,0
60330,0.849609,-0.512207,0.00390625,0
60350,0.835449,-0.518555,0.019043,0
60370,0.819824,-0.519531,0.0258789,0
60390,0.816406,-0.516602,0.0341797,0
60410,0.836426,-0.516113,0.0361328,0
60430,0.848633,-0.523438,0.0644531,0
60450,0.812012,-0.553711,0.0854492,0
60470,0.774414,-0.555176,0.0957031,0
60490,0.773438,-0.552734,0.0820312,0
60510,0.802246,-0.573242,0.0820312,0
60530,0.798828,-0.560547,0.127441,0
60550,0.76709,-0.58252,0.130371,0
60570,0.774902,-0.59082,0.134766,0
60590,0.80127,-0.609863,0.131836,0
60610,0.76709,-0.58252,0.147461,0
60630,0.75,-0.585938,0.15332,0
60650,0.757812,-0.568848,0.134277,0
60670,0.751953,-0.575195,0.143066,0
60690,0.709473,-0.61084,0.165527,0
60710,0.70166,-0.584473,0.168945,0
60730,0.713867,-0.588379,0.155762,0
60750,0.712402,-0.5625,0.187012,0
60770,0.692871,-0.578613,0.190918,0
60790,0.675781,-0.595215,0.203613,0
60810,0.684082,-0.59082,0.205566,0
60830,0.693848,-0.594238,0.197266,0
60850,0.681152,-0.57959,0.206055,0
60870,0.678223,-0.589844,0.218262,0
60890,0.695801,-0.585449,0.200195,0
60910,0.715332,-0.598145,0.233398,0
60930,0.698242,-0.598633,0.219727,0
60950,0.694824,-0.595215,0.214844,0
60970,0.68457,-0.609863,0.222168,0
60990,0.668945,-0.623047,0.239258,0
61010,0.675293,-0.624023,0.220215,0
61030,0.674316,-0.606445,0.211426,0
61050,0.674805,-0.632812,0.213867,0
61070,0.666016,-0.652832,0.215332,0
61090,0.673828,-0.664062,0.229492,0
61110,0.658691,-0.646484,0.210938,0
61130,0.674316,-0.64502,0.19873,0
61150,0.675781,-0.65918,0.205078,0
61170,0.65918,-0.683594,0.197266,0
61190,0.662109,-0.677734,0.19043,0
61210,0.679199,-0.666504,0.194824,0
61230,0.651855,-0.652832,0.200195,0
61250,0.637207,-0.658203,0.196777,0
61270,0.65625,-0.668457,0.20752,0
61290,0.657715,-0.650391,0.18457,0
61310,0.659668,-0.65332,0.194824,0
61330,0.65625,-0.664551,0.198242,0
61350,0.651367,-0.663086,0.179688,0
61370,0.65332,-0.649902,0.193848,0
61390,0.630859,-0.674316,0.224609,0
61410,0.624023,-0.6875,0.242676,0
61430,0.643555,-0.681641,0.210449,0
61450,0.656738,-0.678223,0.206055,0
61480,0.612793,-0.669922,0.22168,0
61500,0.635254,-0.677246,0.203613,0
61520,0.672852,-0.689453,0.207031,0
61540,0.653809,-0.680664,0.218262,0
61560,0.624023,-0.689941,0.219238,0
61580,0.640625,-0.669922,0.205566,0
61600,0.652832,-0.676758,0.220703,0
61620,0.635742,-0.687988,0.211914,0
61640,0.619629,-0.692871,0.201172,0
61660,0.646973,-0.685059,0.199219,0
61680,0.648926,-0.688965,0.208984,0
61700,0.624023,-0.683594,0.200684,0
61720,0.612793,-0.695312,0.189453,0
61740,0.644043,-0.696289,0.192383,0
61760,0.62207,-0.694336,0.193359,0
61780,0.587402,-0.679688,0.180664,0
61800,0.622559,-0.69043,0.166504,0
61820,0.639648,-0.689453,0.189941,0
61840,0.606445,-0.688965,0.167969,0
61860,0.598145,-0.69043,0.172363,0
61880,0.614746,-0.696289,0.166016,0
61900,0.659668,-0.714355,0.174805,0
61920,0.639648,-0.718262,0.166992,0
61940,0.618164,-0.736328,0.154785,0
61960,0.602539,-0.729004,0.162109,0
61980,0.592285,-0.719238,0.145508,0
62000,0.621094,-0.72168,0.136719,0
62020,0.625488,-0.737305,0.148926,0
62040,0.599609,-0.74707,0.14209,0
62060,0.608398,-0.730957,0.13623,0
62080,0.630859,-0.726562,0.140137,0
62100,0.609375,-0.718262,0.143066,0
62120,0.578613,-0.741211,0.137207,0
62140,0.628418,-0.73584,0.134277,0
62160,0.640137,-0.708984,0.13623,0
62180,0.600098,-0.697266,0.126465,0
62200,0.585938,-0.72168,0.119141,0
62220,0.608887,-0.732422,0.147461,0
62240,0.612305,-0.695312,0.131348,0
62260,0.580566,-0.694336,0.103516,0
62280,0.584473,-0.730469,0.0957031,0
62300,0.636719,-0.741699,0.104492,0
62320,0.630371,-0.729004,0.0913086,0
62340,0.612793,-0.723145,0.0976562,0
62360,0.635254,-0.733398,0.0820312,0
62380,0.629395,-0.730957,0.0883789,0
62400,0.621582,-0.748047,0.0649414,0
62420,0.649902,-0.709961,0.0463867,0
62430,0.653809,-0.706055,0.0610352,0
62450,0.628418,-0.733398,0.0639648,0
62470,0.647949,-0.726074,0.0551758,0
62490,0.689453,-0.698242,0.0527344,0
62510,0.682129,-0.685547,0.0493164,0
62530,0.671875,-0.705078,0.0454102,0
62550,0.681152,-0.701172,0.0317383,0
62570,0.672363,-0.700684,0.0307617,0
62590,0.694336,-0.703613,0.0385742,0
62610,0.700684,-0.694336,0.034668,0
62630,0.665527,-0.690918,0.0249023,0
62650,0.636719,-0.712891,0.0253906,0
62670,0.665527,-0.697754,0.0136719,0
62690,0.69043,-0.694336,0.0288086,0
62710,0.65625,-0.712891,0.0219727,0
62730,0.645996,-0.712891,0.0078125,0
62750,0.654785,-0.707031,0.0161133,0
62770,0.673828,-0.715332,0.0185547,0
62790,0.668457,-0.699707,-0.00244141,0
62810,0.663086,-0.697754,-0.000976562,0
62830,0.661133,-0.711914,0.0078125,0
62850,0.661621,-0.711914,0.00732422,0
62870,0.671875,-0.700195,-0.00634766,0
62890,0.669434,-0.69043,-0.0214844,0
62910,0.667969,-0.691895,-0.00830078,0
62930,0.683105,-0.686523,-0.00976562,0
62950,0.689941,-0.690918,-0.0317383,0
62970,0.67627,-0.684082,-0.0400391,0
62990,0.691895,-0.66748,-0.0209961,0
63010,0.710938,-0.678223,-0.0327148,0
63030,0.684082,-0.685547,-0.00634766,0
63050,0.665527,-0.679688,0.0180664,0
63070,0.691406,-0.652344,0,0
63090,0.691895,-0.608887,-0.0371094,0
63110,0.694336,-0.631348,-0.0654297,0
63130,0.734863,-0.656738,-0.0532227,0
63150,0.775879,-0.650879,-0.0644531,0
63170,0.803711,-0.611816,-0.0712891,0
63190,0.777344,-0.591309,-0.109863,0
63210,0.780762,-0.607422,-0.0996094,0
63230,0.782227,-0.586914,-0.0693359,0
63250,0.816406,-0.568848,-0.0854492,0
63270,0.816895,-0.557129,-0.128906,0
63290,0.796387,-0.56543,-0.0913086,0
63310,0.813965,-0.565918,-0.0727539,0
63330,0.783691,-0.546387,-0.0693359,0
63350,0.788574,-0.533691,-0.078125,0
63370,0.810547,-0.522461,-0.0771484,0
63390,0.814941,-0.510254,-0.0507812,0
63410,0.807129,-0.492676,-0.0537109,0
63430,0.837402,-0.48877,-0.0556641,0
63450,0.832031,-0.474609,-0.0566406,0
63470,0.878418,-0.452148,-0.120117,0
63490,0.922363,-0.441406,-0.105469,0
63510,0.865723,-0.4375,-0.097168,0
63530,0.862305,-0.445801,-0.0805664,0
63550,0.89209,-0.430176,-0.0844727,0
63570,0.918457,-0.414062,-0.0810547,0
63590,0.904785,-0.392578,-0.0996094,0
63610,0.904297,-0.388672,-0.109375,0
63630,0.91748,-0.379395,-0.081543,0
63650,0.912598,-0.37793,-0.0776367,0
63670,0.907227,-0.371582,-0.0722656,0
63690,0.917969,-0.354004,-0.0483398,0
63710,0.9375,-0.333496,-0.0512695,0
63730,0.922363,-0.33252,-0.0444336,0
63750,0.916016,-0.334961,-0.0429688,0
63770,0.912109,-0.325195,-0.0361328,0
63790,0.898438,-0.306152,-0.0322266,0
63810,0.911133,-0.304688,-0.0268555,0
63830,0.91748,-0.307129,-0.00390625,0
63850,0.896973,-0.290039,0.00830078,0
63870,0.886719,-0.280762,-0.0078125,0
63890,0.905762,-0.27832,0.0078125,0
63910,0.924805,-0.261719,0.0322266,0
63930,0.92627,-0.270996,0.0292969,0
63950,0.919922,-0.254883,0.027832,0
63970,0.913086,-0.25293,0.0361328,0
63990,0.928223,-0.249512,0.0395508,0
64010,0.946777,-0.256836,0.0439453,0
64030,0.944336,-0.244141,0.0566406,0
64050,0.931152,-0.229004,0.0629883,0
64070,0.93457,-0.252441,0.0634766,0
64090,0.946289,-0.262695,0.0786133,0
64110,0.941895,-0.251953,0.104492,0
64130,0.935547,-0.251953,0.0952148,0
64150,0.930176,-0.25293,0.102539,0
64170,0.926758,-0.25293,0.119141,0
64190,0.932129,-0.259766,0.14209,0
64210,0.944336,-0.237793,0.117676,0
64230,0.941406,-0.226074,0.121582,0
64250,0.918457,-0.265625,0.140625,0
64270,0.90625,-0.292969,0.169434,0
64290,0.904297,-0.277832,0.159668,0
64310,0.919434,-0.251465,0.14502,0
64330,0.946289,-0.240234,0.132324,0
64350,0.97168,-0.285156,0.186523,0
64370,0.912109,-0.285645,0.208496,0
64390,0.86084,-0.302734,0.191895,0
64410,0.902344,-0.276855,0.19043,0
64430,0.89209,-0.297852,0.208496,0
64450,0.834961,-0.34375,0.236816,0
64470,0.830078,-0.342773,0.222168,0
64490,0.866211,-0.324219,0.222168,0
64510,0.868652,-0.299805,0.226562,0
64530,0.797363,-0.337402,0.27002,0
64550,0.803711,-0.340332,0.26709,0
64570,0.83252,-0.325684,0.249023,0
64590,0.834473,-0.3125,0.272949,0
64610,0.777344,-0.354004,0.284668,0
64630,0.793457,-0.352539,0.28418,0
64650,0.800781,-0.351074,0.289062,0
64670,0.791504,-0.347168,0.310547,0
64690,0.791016,-0.353516,0.282715,0
64710,0.846191,-0.354492,0.27832,0
64730,0.856934,-0.344238,0.293457,0
64750,0.821289,-0.348145,0.268555,0
64770,0.79834,-0.371582,0.273438,0
64790,0.81543,-0.396973,0.270508,0
64810,0.832031,-0.386719,0.274414,0
64830,0.824219,-0.39502,0.255371,0
64850,0.828613,-0.399902,0.269531,0
64870,0.827148,-0.397949,0.245605,0
64890,0.828613,-0.408691,0.231445,0
64910,0.836426,-0.401855,0.23584,0
64930,0.835449,-0.416504,0.229492,0
64950,0.805176,-0.418457,0.23291,0
64970,0.800781,-0.414062,0.203613,0
64990,0.833008,-0.421875,0.206543,0
65000,0.86084,-0.415039,0.207031,0
65020,0.842285,-0.448242,0.225586,0
65040,0.786621,-0.472656,0.208008,0
65060,0.806152,-0.445312,0.19043,0
65080,0.819824,-0.449707,0.241211,0
65100,0.768066,-0.460449,0.240723,0
65120,0.771973,-0.464355,0.23291,0
65140,0.770996,-0.490723,0.237305,0
65160,0.757812,-0.496582,0.244629,0
65180,0.773926,-0.478516,0.25,0
65200,0.745117,-0.48291,0.265625,0
65200,0.713379,-0.505371,0.25293,0
65220,0.724121,-0.520996,0.244629,0
65240,0.734863,-0.51123,0.258301,0
65260,0.708984,-0.511719,0.249512,0
65280,0.706055,-0.511719,0.251465,0
65300,0.720215,-0.52002,0.23584,0
65320,0.735352,-0.538574,0.25,0
65340,0.738281,-0.540527,0.248047,0
65360,0.762207,-0.52002,0.226074,0
65380,0.775391,-0.510254,0.23877,0
65400,0.745117,-0.529297,0.249512,0
65420,0.722168,-0.531738,0.240234,0
65440,0.760254,-0.539062,0.241699,0
65460,0.779785,-0.535156,0.242188,0
65480,0.748535,-0.531738,0.249512,0
65500,0.727051,-0.538574,0.23877,0
65520,0.752441,-0.542969,0.249512,0
65540,0.751953,-0.543945,0.24707,0
65560,0.738281,-0.545898,0.241699,0
65580,0.762207,-0.546875,0.227051,0
65600,0.791504,-0.564453,0.243652,0
65620,0.749512,-0.537598,0.248535,0
65640,0.722168,-0.550781,0.24707,0
65660,0.743652,-0.557617,0.25293,0
65680,0.736328,-0.55127,0.248047,0
65700,0.693848,-0.557617,0.246094,0
65720,0.688477,-0.57373,0.247559,0
65740,0.705078,-0.568848,0.239746,0
65760,0.697266,-0.55957,0.226562,0
65780,0.690918,-0.559082,0.223633,0
65800,0.696289,-0.572754,0.213867,0
65820,0.710449,-0.584961,0.213379,0
