Timestamp, Acceleration x, Acceleration y, Acceleration z, Marker
30,0.741699,0.617188,-0.230469,0
50,0.742676,0.613281,-0.233398,0
70,0.744629,0.614258,-0.235352,0
90,0.746582,0.613281,-0.23584,0
110,0.742676,0.611328,-0.229004,0
130,0.740723,0.609863,-0.231934,0
140,0.742676,0.611328,-0.226562,0
140,0.743652,0.610352,-0.233887,0
190,0.744629,0.61377,-0.22998,0
210,0.740723,0.615234,-0.228027,0
230,0.74707,0.611816,-0.232422,0
250,0.744629,0.607422,-0.233887,0
270,0.741211,0.613281,-0.234863,0
290,0.745117,0.605957,-0.234863,0
310,0.743652,0.608887,-0.232422,0
330,0.743164,0.611328,-0.231445,0
350,0.741699,0.612305,-0.226562,0
370,0.744629,0.612305,-0.231934,0
390,0.743652,0.616211,-0.22998,0
410,0.748535,0.612793,-0.228516,0
430,0.742676,0.614258,-0.232422,0
450,0.741211,0.608398,-0.231445,0
470,0.744141,0.610352,-0.228027,0
490,0.747559,0.611816,-0.224609,0
510,0.737305,0.614746,-0.232422,0
530,0.741211,0.618164,-0.228027,0
550,0.742188,0.602051,-0.230469,0
570,0.748535,0.608887,-0.230957,0
590,0.747559,0.61084,-0.234375,0
610,0.740723,0.617676,-0.230469,0
630,0.73877,0.621582,-0.231934,0
650,0.745117,0.616211,-0.230957,0
670,0.740723,0.607422,-0.23584,0
690,0.743652,0.612793,-0.233887,0
710,0.745605,0.600586,-0.22998,0
730,0.746094,0.605957,-0.231934,0
750,0.743164,0.611328,-0.23291,0
770,0.740234,0.612305,-0.242188,0
790,0.744141,0.618652,-0.234863,0
810,0.740234,0.602539,-0.232422,0
830,0.746582,0.602539,-0.229004,0
850,0.745605,0.604004,-0.237305,0
870,0.739746,0.610352,-0.235352,0
890,0.739746,0.613281,-0.23291,0
910,0.742188,0.613281,-0.23877,0
930,0.744141,0.61377,-0.234863,0
950,0.744141,0.60791,-0.22998,0
970,0.741211,0.605957,-0.23584,0
990,0.743164,0.606934,-0.233398,0
1010,0.739746,0.605957,-0.234375,0
1030,0.742188,0.61377,-0.237793,0
1050,0.741699,0.612305,-0.235352,0
1070,0.743652,0.615723,-0.23584,0
1090,0.742188,0.612305,-0.236328,0
1110,0.743164,0.608398,-0.22998,0
1130,0.745117,0.608398,-0.230957,0
1150,0.743164,0.611816,-0.22998,0
1170,0.744629,0.607422,-0.233887,0
1190,0.745605,0.607422,-0.236816,0
1200,0.742676,0.616211,-0.240234,0
1220,0.742676,0.613281,-0.233887,0
1240,0.742676,0.611816,-0.22998,0
1260,0.742676,0.615234,-0.229004,0
1280,0.741699,0.60498,-0.233398,0
1300,0.745117,0.604004,-0.228516,0
1320,0.743652,0.61377,-0.239258,0
1340,0.745117,0.607422,-0.23291,0
1360,0.744629,0.60498,-0.233887,0
1380,0.752441,0.606445,-0.231934,0
1400,0.752441,0.616699,-0.239746,0
1420,0.762207,0.624023,-0.246582,0
1440,0.745605,0.632324,-0.254883,0
1460,0.745117,0.628418,-0.274414,0
1480,0.750488,0.620605,-0.255371,0
1500,0.761719,0.618652,-0.25293,0
1520,0.749023,0.638184,-0.265137,0
1540,0.749512,0.631348,-0.245605,0
1560,0.745605,0.661133,-0.256836,0
1580,0.746094,0.710938,-0.277832,0
1600,0.753906,0.747559,-0.298828,0
1620,0.788086,0.751465,-0.318359,0
1640,0.795898,0.776855,-0.345215,0
1660,0.787109,0.761719,-0.349609,0
1680,0.77832,0.771484,-0.366211,0
1700,0.776855,0.78418,-0.375488,0
1720,0.753906,0.784668,-0.383789,0
1740,0.757324,0.867676,-0.356445,0
1760,0.77832,0.945801,-0.36084,0
1780,0.728027,1.01367,-0.375488,0
1800,0.709473,1.07227,-0.34375,0
1820,0.743164,1.07471,-0.318359,0
1840,0.707031,1.02539,-0.309082,0
1860,0.675293,0.973633,-0.267578,0
1880,0.655273,0.946777,-0.239258,0
1900,0.612793,0.882812,-0.22168,0
1920,0.554688,0.818848,-0.20752,0
1940,0.507324,0.769043,-0.181641,0
1960,0.460449,0.756836,-0.154785,0
1980,0.425293,0.754883,-0.145508,0
2000,0.380859,0.735352,-0.144531,0
2020,0.323242,0.717285,-0.133301,0
2040,0.28418,0.71582,-0.134766,0
2060,0.258789,0.711426,-0.154297,0
2080,0.208984,0.700684,-0.157715,0
2100,0.1875,0.711426,-0.162598,0
2120,0.166016,0.719727,-0.188965,0
2140,0.147949,0.750488,-0.21875,0
2160,0.117676,0.771484,-0.225098,0
2180,0.0810547,0.779785,-0.225098,0
2200,0.0615234,0.794922,-0.233398,0
2220,0.0532227,0.830566,-0.250488,0
2240,0.0493164,0.863281,-0.259277,0
2260,0.0283203,0.887207,-0.265137,0
2280,0.0322266,0.912598,-0.272461,0
2300,0.0322266,0.92627,-0.279297,0
2320,0.0288086,0.934082,-0.287598,0
2340,0.00878906,0.927734,-0.286621,0
2360,0.0126953,0.933594,-0.29541,0
2380,0.0141602,0.939453,-0.300293,0
2400,0.0258789,0.939941,-0.309082,0
2420,0.0263672,0.944824,-0.323242,0
2440,0.0141602,0.950684,-0.334473,0
2460,0.0180664,0.947266,-0.336914,0
2480,0.034668,0.943359,-0.332031,0
2500,0.0410156,0.933594,-0.344727,0
2520,0.0375977,0.923828,-0.344238,0
2540,0.0302734,0.916504,-0.353516,0
2560,0.0302734,0.90625,-0.321777,0
2580,0.0678711,0.88916,-0.255371,0
2600,0.0512695,0.775391,-0.32666,0
2620,0.0107422,0.800781,-0.328125,0
2640,-0.0170898,0.796387,-0.305176,0
2660,0.0820312,0.839844,-0.338867,0
2680,0.256348,1.17529,-0.368164,0
2700,0.314941,1.56201,-0.455566,0
2720,-0.0078125,1.36768,-0.157227,0
2740,-0.0830078,0.644043,-0.455566,0
2760,0.382812,0.782715,-0.288574,0
2780,0.132812,1.01904,-0.337891,0
2800,0.101074,0.974121,-0.341309,0
2820,0.188477,0.85498,-0.320312,0
2840,0.15625,1.03467,-0.271973,0
2860,0.168457,0.977051,-0.20752,0
2880,0.125977,0.964844,-0.209961,0
2900,0.17627,1.04492,-0.256836,0
2920,0.152832,1.06494,-0.220703,0
2940,0.11377,0.990234,-0.199707,0
2960,0.134277,0.969238,-0.233887,0
2960,0.157227,1.021,-0.243652,0
2980,0.141113,0.992676,-0.193848,0
3000,0.143555,0.980957,-0.221191,0
3000,0.148438,0.962402,-0.243164,0
3020,0.135742,0.976074,-0.267578,0
3040,0.143066,0.970703,-0.223633,0
3060,0.143555,0.950195,-0.236328,0
3070,0.153809,0.958984,-0.268066,0
3080,0.148926,0.972656,-0.24707,0
3100,0.149414,0.96875,-0.231934,0
3120,0.143555,0.974609,-0.246582,0
3120,0.157715,0.963867,-0.253906,0
3140,0.143555,0.95459,-0.274414,0
3160,0.141602,0.97168,-0.255859,0
3180,0.13623,0.979004,-0.23877,0
3180,0.138672,0.95459,-0.236816,0
3200,0.154785,0.947266,-0.27832,0
3220,0.145508,0.976562,-0.26123,0
3240,0.138184,0.974609,-0.25,0
3240,0.138184,0.961426,-0.242188,0
3260,0.155762,0.933105,-0.29834,0
3280,0.199219,0.992676,-0.253418,0
3300,0.140625,0.975586,-0.269043,0
3310,0.152832,0.881836,-0.265137,0
3320,0.137695,0.975098,-0.30957,0
3340,0.171387,1.06104,-0.389648,0
3360,0.172363,1.14502,-0.364746,0
3360,0.0327148,1.0918,-0.219238,0
3380,0.0830078,0.751953,0.0454102,0
3400,0.0805664,0.499023,-0.239746,0
3420,0.138184,0.925781,-0.369141,0
3480,0.162109,1.11377,-0.313965,0
3520,0.097168,1.11523,-0.318848,0
3570,0.0883789,0.915527,-0.282715,0
3620,0.151367,0.97168,-0.303711,0
3680,0.112305,1.02832,-0.339355,0
3700,0.131348,0.953613,-0.313965,0
3700,0.140137,0.911621,-0.288086,0
3740,0.119141,0.966797,-0.308105,0
3760,0.12793,1.0249,-0.320312,0
3780,0.121094,1.01318,-0.320801,0
3800,0.125488,0.93457,-0.300293,0
3810,0.139648,0.917969,-0.302734,0
3830,0.143066,0.95459,-0.320801,0
3850,0.144043,1.021,-0.302734,0
3870,0.128418,1.00195,-0.297363,0
3890,0.130371,0.932617,-0.283203,0
3910,0.142578,0.91748,-0.317383,0
3930,0.15918,0.925781,-0.32373,0
3950,0.165527,0.919434,-0.317383,0
3970,0.157227,0.921387,-0.280762,0
3990,0.131836,0.879395,-0.270508,0
4010,0.13623,0.84668,-0.251465,0
4030,0.184082,0.812988,-0.323242,0
4050,0.186523,0.956055,-0.353027,0
4070,0.17041,1.04248,-0.235352,0
4090,0.201172,1.24561,-0.368652,0
4110,0.164062,1.14648,-0.316895,0
4130,0.097168,0.765625,-0.334473,0
4150,0.358398,0.845215,-0.306641,0
4170,0.223145,0.919434,-0.210449,0
4190,0.128418,1.09326,-0.268555,0
4210,0.242676,0.910645,-0.333008,0
4230,0.200195,0.92334,-0.316895,0
4250,0.211914,0.93457,-0.227539,0
4270,0.205078,0.995117,-0.20459,0
4290,0.204102,1.01709,-0.251465,0
4310,0.191895,1.0083,-0.23291,0
4330,0.166016,0.954102,-0.20459,0
4350,0.214844,0.941895,-0.228027,0
4360,0.21582,0.995117,-0.222168,0
4380,0.176758,0.991699,-0.179688,0
4400,0.141113,0.994629,-0.194824,0
4410,0.19873,0.942871,-0.250977,0
4420,0.229492,0.925781,-0.266602,0
4440,0.185059,0.930664,-0.200684,0
4460,0.149414,0.950684,-0.186523,0
4480,0.203125,0.931152,-0.241211,0
4480,0.219727,0.960938,-0.245605,0
4500,0.183105,0.952148,-0.194336,0
4520,0.168457,0.973145,-0.211914,0
4540,0.213379,0.945312,-0.236328,0
4540,0.214844,0.899902,-0.280273,0
4560,0.20459,0.917969,-0.251953,0
4580,0.197266,1.0459,-0.224121,0
4600,0.177246,1.01611,-0.236816,0
4620,0.195801,0.937988,-0.25,0
4620,0.219238,0.924805,-0.22998,0
4660,0.200195,0.968262,-0.293945,0
4720,0.201172,0.989258,-0.213379,0
4760,0.174316,1.05029,-0.253906,0
4790,0.15918,1.2085,-0.274414,0
4810,0.134277,0.976562,-0.148926,0
4830,0.135742,0.501953,-0.194824,0
4850,0.222168,0.754883,-0.224609,0
4870,0.208984,0.994141,-0.245117,0
4890,0.14209,1.18701,-0.309082,0
4910,0.144043,1.07324,-0.297852,0
4930,0.17334,0.898438,-0.245117,0
4950,0.172363,0.848633,-0.26709,0
4970,0.196777,0.911621,-0.288086,0
4990,0.212891,1.03125,-0.310547,0
5010,0.172852,1.0498,-0.287109,0
5030,0.147461,0.947754,-0.286621,0
5050,0.180664,0.875,-0.279297,0
5070,0.192383,0.923828,-0.299805,0
5090,0.186035,0.983398,-0.300781,0
5110,0.178223,1,-0.280762,0
5130,0.177734,0.987305,-0.291504,0
5150,0.194336,0.953125,-0.30127,0
5170,0.193848,0.924805,-0.299805,0
5190,0.191895,0.961914,-0.304688,0
5210,0.19043,0.958496,-0.268555,0
5230,0.180664,0.955078,-0.288086,0
5240,0.214844,0.942871,-0.318848,0
5250,0.235352,0.945312,-0.311035,0
5280,0.25,0.902344,-0.280273,0
5300,0.255859,0.871094,-0.21582,0
5320,0.40918,0.871094,-0.196777,0
5340,0.0839844,0.823242,-0.0820312,0
5360,0.584473,1.11572,-0.46875,0
5390,-0.0961914,1.01221,-0.414551,0
5410,-0.372559,0.930176,-0.175781,0
5430,0.214355,1.05029,-0.230469,0
5450,0.14209,1.07471,-0.286133,0
5470,0.135254,0.869629,-0.302734,0
5490,0.137695,0.648926,-0.322754,0
5510,0.272461,0.535156,-0.26709,0
5530,0.337402,0.655273,-0.273438,0
5550,0.233887,0.956543,-0.305176,0
5570,0.0742188,1.19873,-0.22168,0
5590,0.179688,1.19678,-0.282715,0
5610,0.274902,0.932617,-0.229004,0
5630,0.128418,0.929199,-0.237305,0
5650,0.162598,1.02539,-0.308594,0
5670,0.297363,1.08447,-0.319336,0
5690,0.280762,0.94873,-0.236816,0
5710,0.190918,0.936035,-0.172852,0
5720,0.162598,0.977051,-0.150391,0
5720,0.222656,1.0127,-0.169922,0
5740,0.311523,0.967285,-0.215332,0
5780,0.113281,0.975586,-0.129883,0
5800,0.32666,0.95752,-0.0498047,0
5820,0.461914,0.848145,0.111328,0
5850,-0.0292969,0.912109,-0.164062,0
5870,0.254883,0.791504,0.169434,0
5890,0.29541,0.872559,0.0283203,0
5910,0.287598,0.919922,-0.000976562,0
5930,0.375,1.00977,0.0532227,0
5950,0.289062,0.966797,0.12793,0
5970,0.155762,0.899414,0.310059,0
5990,0.0405273,0.824219,0.339844,0
6010,0.0776367,1.01367,0.133301,0
6030,0.165039,1.15576,-0.186523,0
6050,0.324219,1.23535,-0.185547,0
6070,0.286621,0.95752,-0.241699,0
6090,0.401367,0.834473,-0.0512695,0
6110,0.34668,0.763184,0.0649414,0
6130,0.226074,0.810059,0.0908203,0
6150,0.226562,1.01221,0,0
6170,0.275879,1.05127,-0.00927734,0
6190,0.268066,1.0498,0.019043,0
6200,0.251953,0.945312,0.0292969,0
6200,0.245117,0.916016,0.0415039,0
6220,0.261719,0.890137,0.0112305,0
6240,0.242676,0.959961,-0.0463867,0
6280,0.335938,0.97998,0.0712891,0
6300,0.152344,0.886719,0.194336,0
6320,0.365234,0.966797,-0.181152,0
6340,-0.225586,0.79541,0.0517578,0
6360,0.0673828,0.820801,0.195312,0
6380,0.34668,0.922852,0.17334,0
6400,0.327637,0.916992,0.17627,0
6420,-0.122559,0.82959,0.144531,0
6440,-0.455566,0.808105,-0.205566,0
6460,0.556641,1.03906,-0.262695,0
6480,0.638672,0.961914,0.195801,0
6500,-0.315918,0.997559,-0.336426,0
6520,0.208984,0.919922,0.00439453,0
6540,0.278809,0.919922,-0.110352,0
6560,0.296875,0.885254,-0.11084,0
6580,0.272949,0.953613,-0.105957,0
6600,0.279297,1.00195,-0.19873,0
6620,0.241211,0.995117,-0.231445,0
6640,0.271973,0.897461,-0.172852,0
6660,0.302246,0.849121,-0.181641,0
6680,0.29541,0.925293,-0.195312,0
6700,0.292969,0.98877,-0.212402,0
6720,0.266602,1.02783,-0.239746,0
6740,0.253906,0.990234,-0.209961,0
6760,0.312012,0.874023,-0.189453,0
6780,0.328613,0.907715,-0.211914,0
6800,0.309082,0.999512,-0.209961,0
6820,0.29248,1.01367,-0.23584,0
6840,0.283691,0.962402,-0.208496,0
6860,0.308594,0.916504,-0.223633,0
6880,0.325195,0.930664,-0.240723,0
6900,0.328613,0.927246,-0.205078,0
6920,0.296875,0.871094,-0.206055,0
6940,0.303223,0.886719,-0.202148,0
6960,0.314453,0.912598,-0.199219,0
6980,0.303711,0.953613,-0.224121,0
6980,0.304199,0.978516,-0.213867,0
7000,0.288086,0.952637,-0.22168,0
7020,0.300293,0.945312,-0.249023,0
7060,0.15918,0.943359,-0.208984,0
7080,0.186523,1.01562,-0.411133,0
7100,0.418945,0.910645,0.0263672,0
7120,0.665039,1.07715,-0.400879,0
7140,0.294922,1.01758,-0.479004,0
7160,0.0834961,0.976562,-0.461914,0
7180,0.20752,1.01807,-0.481445,0
7200,0.443848,1.06152,-0.416504,0
7220,0.255371,0.97998,-0.241211,0
7240,0.273926,0.925781,-0.216309,0
7260,0.281738,0.91748,-0.194336,0
7280,0.28418,0.929688,-0.213867,0
7300,0.280273,0.948242,-0.221191,0
7320,0.276367,0.952148,-0.226074,0
7340,0.273926,0.928711,-0.208008,0
7360,0.284668,0.910156,-0.212402,0
7380,0.289062,0.929688,-0.210449,0
7400,0.285156,0.956055,-0.225098,0
7420,0.278809,0.950684,-0.214355,0
7440,0.27832,0.93457,-0.211426,0
7460,0.280762,0.912109,-0.218262,0
7480,0.279785,0.937988,-0.217773,0
7500,0.275391,0.962891,-0.210938,0
7520,0.26709,0.958496,-0.208008,0
7540,0.27002,0.942383,-0.206055,0
7560,0.279297,0.928223,-0.208496,0
7560,0.280273,0.941895,-0.230957,0
7580,0.268555,0.955078,-0.228027,0
7600,0.21875,0.952637,-0.246582,0
7620,0.248047,0.865723,-0.103516,0
7650,0.0117188,0.85498,-0.200195,0
7680,0.624512,1.00098,-0.227539,0
7700,0.216309,1.01709,-0.493164,0
7720,-0.199219,0.883789,-0.285156,0
7740,-0.310059,0.827637,-0.195312,0
7760,-0.34668,0.839355,-0.270508,0
7780,-0.103516,0.955566,-0.465332,0
7800,0.708008,1.104,-0.395996,0
7820,0.695801,0.918945,0.0527344,0
7840,-0.452148,0.8125,-0.304688,0
7860,0.897461,1.07764,-0.230469,0
7880,-0.351562,0.790039,-0.22168,0
7900,0.984375,1.0752,-0.0859375,0
7920,-0.331055,0.925781,-0.53418,0
7940,0.140625,0.813477,0.00439453,0
7960,0.97998,1.01025,0.0703125,0
7980,0.67334,1.08838,-0.302246,0
8000,0.09375,1.03564,-0.54541,0
8020,-0.21875,0.956543,-0.608887,0
8040,-0.272949,0.927734,-0.622559,0
8060,-0.138184,0.954102,-0.63623,0
8080,0.214355,1.04688,-0.517578,0
8100,0.733398,1.12939,-0.194336,0
8120,0.932129,1.05859,0.209961,0
8140,0.212402,0.822266,0.0478516,0
8160,-0.394043,0.8125,-0.664062,0
8180,0.6875,1.10498,-0.244141,0
8200,0.451172,0.87793,0.194336,0
8220,-0.246094,0.896484,-0.773438,0
8240,0.892578,1.06006,0.32959,0
8260,-0.370605,0.804199,-0.772461,0
8280,-0.16748,0.815918,-0.0776367,0
8300,0.223633,0.973145,-0.220703,0
8320,0.27002,0.969727,-0.210449,0
8340,0.261719,0.96875,-0.194824,0
8360,0.26123,0.964355,-0.179688,0
8380,0.268555,0.983887,-0.169922,0
8400,0.272461,0.993652,-0.180176,0
8420,0.258301,1.02051,-0.169922,0
8440,0.269531,1.02881,-0.160156,0
8460,0.263672,1.00781,-0.153809,0
8480,0.253418,1.00195,-0.168945,0
8500,0.252441,1.01025,-0.163086,0
8520,0.266113,0.998047,-0.168945,0
8540,0.26123,0.998535,-0.186035,0
8540,0.255859,0.993652,-0.194336,0
8560,0.248535,0.980469,-0.191406,0
8580,0.261719,0.962891,-0.204102,0
8600,0.260254,0.93457,-0.121582,0
8620,0.338379,0.860352,-0.0424805,0
8640,-0.0830078,0.885742,-0.14502,0
8660,0.526855,0.979004,-0.0844727,0
8680,0.429199,1.09863,-0.474609,0
8720,0.0800781,1.03125,-0.493164,0
8740,-0.0322266,1.01172,-0.460938,0
8760,0.156738,1.04297,-0.497559,0
8780,0.668945,1.10156,-0.390625,0
8800,0.658691,0.942383,0.0375977,0
8820,-0.410645,0.759766,-0.0629883,0
8840,0.186523,1.05273,-0.507324,0
8860,0.428711,0.861328,0.140137,0
8880,-0.167969,0.983887,-0.534668,0
8900,0.100098,0.797363,0.116211,0
8920,0.682617,1.11719,-0.255859,0
8940,-0.490723,0.918945,-0.549316,0
8960,-0.336426,0.774414,-0.0942383,0
8980,0.429688,0.890137,0.201172,0
9000,0.794922,1.01904,0.174805,0
9000,0.842285,1.08838,0.0737305,0
9020,0.379883,1.11328,-0.393555,0
9040,-0.0722656,1.01562,-0.42041,0
9060,-0.0913086,0.81543,0.0708008,0
9080,0.495605,1.02686,-0.157227,0
9100,0.185547,1.10156,-0.483398,0
9130,-0.265625,0.942383,-0.283203,0
9150,-0.328125,0.850098,-0.0400391,0
9170,-0.297852,0.824219,0.0385742,0
9190,-0.373535,0.82959,-0.0078125,0
9210,-0.469727,0.884277,-0.187012,0
9230,-0.145996,1.04932,-0.454102,0
9250,0.728027,1.15723,-0.277832,0
9270,0.0336914,0.851074,0.122559,0
9290,-0.152344,1.05859,-0.495605,0
9310,0.599121,0.986816,0.145996,0
9330,-0.307617,1.02783,-0.494629,0
9350,0.250488,0.878906,0.178223,0
9370,0.58252,1.1543,-0.273926,0
9390,-0.562012,0.905273,-0.437012,0
9410,-0.140625,0.822266,0.0571289,0
9430,0.672363,0.992188,0.228516,0
9450,0.853516,1.1167,0.0859375,0
9470,0.765625,1.16797,-0.0541992,0
9490,0.725098,1.17188,-0.0810547,0
9510,0.794434,1.15625,0.0229492,0
9530,0.841309,1.11426,0.219238,0
9550,0.573242,0.975098,0.314453,0
9570,-0.168457,0.800293,0.00634766,0
9590,-0.555176,0.863281,-0.59668,0
9610,0.397949,1.1377,-0.310059,0
9630,0.619629,1.00586,0.378906,0
9650,-0.569824,0.805176,-0.519531,0
9670,0.646973,1.18164,-0.0703125,0
9690,-0.187012,0.796387,-0.00244141,0
9710,0.310059,1.12695,-0.404785,0
9730,-0.0888672,0.835938,0.0888672,0
9750,0.529297,1.16406,-0.187988,0
9770,-0.52832,0.78125,-0.444824,0
9790,0.727051,1.11084,0.468262,0
9810,0.114258,1.07764,-0.612793,0
9830,-0.533691,0.797363,-0.525391,0
9850,0.329102,0.967773,0.439453,0
9870,0.740723,1.18506,0.116699,0
9890,-0.178711,0.973633,-0.783203,0
9910,-0.448242,0.791992,-0.336914,0
9930,0.492676,1.02637,0.506348,0
9950,0.671387,1.17822,-0.0336914,0
9970,-0.287109,0.930664,-0.830078,0
9980,-0.403809,0.787598,-0.253906,0
10010,0.512695,1.02734,0.525879,0
10030,0.70752,1.19092,0.0224609,0
10050,0.254395,1.11572,-0.39209,0
10070,0.161621,1.0083,-0.180176,0
10090,0.132812,0.986816,-0.154785,0
10110,0.126465,0.985352,-0.144043,0
10130,0.136719,0.976562,-0.135742,0
10150,0.131836,0.977051,-0.151367,0
10170,-0.081543,1.01465,-0.241699,0
10190,0.383789,1.1543,-0.411621,0
10210,0.513184,1.00244,0.44873,0
10230,0.480957,1.1416,-0.289551,0
10250,-0.403809,0.884766,-0.838379,0
10270,-0.385742,0.811035,-0.214844,0
10290,0.432129,1.00537,0.505371,0
10310,0.774414,1.17578,0.222656,0
10330,0.107422,1.04785,-0.638184,0
10350,-0.53125,0.82959,-0.758301,0
10370,0.708008,1.14258,-0.111328,0
10390,0.0107422,0.993652,-0.163574,0
10410,0.134766,0.978027,-0.155762,0
10430,0.124512,0.97998,-0.137695,0
10450,0.120605,0.98584,-0.146973,0
10470,0.121094,0.993164,-0.146973,0
10490,0.127441,0.986328,-0.145508,0
10510,0.123047,0.987793,-0.14502,0
10530,0.115723,0.986328,-0.151367,0
10550,0.123535,0.974609,-0.140137,0
10570,0.123047,0.988281,-0.145996,0
10590,0.119141,0.992676,-0.144531,0
10610,0.114746,0.984863,-0.154785,0
10630,0.114746,0.976562,-0.149414,0
10650,0.119629,0.978027,-0.145508,0
10670,0.118652,0.979492,-0.153809,0
10690,0.112305,0.981445,-0.15625,0
10710,0.121094,0.98584,-0.148438,0
10730,0.125488,0.974121,-0.144043,0
10750,0.114746,0.973633,-0.144531,0
10770,0.111816,0.977539,-0.148438,0
10790,0.114746,0.980469,-0.146973,0
10810,0.123047,0.980469,-0.147949,0
10830,0.128906,0.974609,-0.147949,0
10850,0.126953,0.976074,-0.144043,0
10870,0.125488,0.977539,-0.140625,0
10890,0.12793,0.984375,-0.14209,0
10910,0.131348,0.98584,-0.144043,0
10930,0.130859,0.981445,-0.142578,0
10950,0.132812,0.984863,-0.143555,0
10960,0.124512,0.987305,-0.148926,0
10980,0.122559,0.988281,-0.148438,0
11000,0.124512,0.986816,-0.138672,0
11020,0.128906,0.993652,-0.137207,0
11040,0.12793,0.98877,-0.13916,0
11060,0.126953,0.99707,-0.136719,0
11080,0.134766,0.999023,-0.144531,0
11100,0.125488,0.990723,-0.141602,0
11120,0.122559,0.981445,-0.157227,0
11140,0.125977,0.978516,-0.154297,0
11160,0.12207,0.980469,-0.149414,0
11180,0.115234,0.984375,-0.151367,0
11200,0.117188,0.990234,-0.145996,0
11220,0.121582,0.989746,-0.140137,0
11240,0.121582,0.983887,-0.14502,0
11260,0.125488,0.980469,-0.141113,0
11280,0.125,0.976562,-0.145508,0
11300,0.12207,0.965332,-0.138672,0
11320,0.128418,0.976562,-0.138672,0
11340,0.129883,0.98584,-0.138672,0
11360,0.124023,0.98291,-0.14209,0
11380,0.125488,0.981445,-0.150391,0
11400,0.126953,0.985352,-0.149414,0
11420,0.127441,0.982422,-0.13916,0
11440,0.12793,0.989258,-0.141602,0
11460,0.127441,0.989258,-0.146484,0
11480,0.131836,0.993652,-0.148926,0
11500,0.126465,0.992676,-0.146973,0
11520,0.132324,0.994141,-0.15918,0
11540,0.132324,0.982422,-0.14209,0
11560,0.121582,0.975586,-0.152344,0
11580,0.120605,0.976074,-0.147949,0
11600,0.132812,0.961914,-0.154785,0
11620,0.123535,0.989746,-0.163086,0
11640,0.131348,0.980469,-0.13623,0
11660,0.132812,0.963379,-0.128906,0
11680,0.134766,0.975098,-0.13916,0
11700,0.132812,0.999512,-0.129395,0
11720,0.135742,0.996582,-0.141602,0
11740,0.124023,0.97998,-0.141602,0
11760,0.130371,0.975098,-0.137695,0
11780,0.128418,0.971191,-0.140625,0
11800,0.129883,0.984863,-0.139648,0
11820,0.133301,0.995605,-0.148438,0
11840,0.125,0.983398,-0.14209,0
11860,0.128906,0.974609,-0.138184,0
11880,0.135254,0.976562,-0.133789,0
11900,0.138184,0.990234,-0.152832,0
11920,0.134277,0.989258,-0.149414,0
11940,0.138672,0.979492,-0.145508,0
11960,0.139648,0.974609,-0.128906,0
11980,0.12793,0.990723,-0.155273,0
12000,0.138184,0.98877,-0.14209,0
12020,0.13916,0.987305,-0.141602,0
12040,0.131836,0.969238,-0.146973,0
12060,0.141602,0.975098,-0.143555,0
12080,0.146973,0.972168,-0.145508,0
12100,0.141113,0.992188,-0.155273,0
12120,0.142578,0.984863,-0.150391,0
12140,0.144043,0.959961,-0.150391,0
12160,0.142578,0.960938,-0.159668,0
12180,0.143555,0.977539,-0.160645,0
12200,0.140625,0.972168,-0.164551,0
12220,0.14502,0.961914,-0.15332,0
12240,0.141602,0.963867,-0.164062,0
12260,0.137207,0.963379,-0.153809,0
12280,0.144531,0.966309,-0.152832,0
12300,0.149414,0.961426,-0.163086,0
12320,0.142578,0.963867,-0.169922,0
12340,0.14209,0.96875,-0.160645,0
12360,0.153809,0.951172,-0.157715,0
12380,0.157715,0.96582,-0.165527,0
12400,0.15918,0.960938,-0.180176,0
12420,0.166504,0.958984,-0.171875,0
12440,0.169922,0.949707,-0.174805,0
12460,0.168945,0.951172,-0.18457,0
12480,0.169434,0.956543,-0.172852,0
12500,0.183105,0.967773,-0.176758,0
12520,0.182617,0.950195,-0.176758,0
12540,0.194824,0.94043,-0.182617,0
12560,0.193848,0.949219,-0.178711,0
12580,0.191895,0.952148,-0.16748,0
12600,0.189453,0.950195,-0.164551,0
12620,0.194824,0.98584,-0.17041,0
12640,0.197266,0.984375,-0.154785,0
12660,0.202148,0.965332,-0.137207,0
12680,0.203125,0.963867,-0.158691,0
12700,0.202637,0.948242,-0.170898,0
12720,0.211914,0.945312,-0.157715,0
12740,0.208496,0.966797,-0.149414,0
12760,0.220215,0.976562,-0.160645,0
12780,0.23291,0.952637,-0.170898,0
12800,0.249023,0.910156,-0.164062,0
12820,0.254883,0.930176,-0.166992,0
12840,0.25293,0.943359,-0.153809,0
12860,0.255371,0.954102,-0.141113,0
12880,0.257812,0.960938,-0.150879,0
12900,0.286621,0.950684,-0.155273,0
12920,0.285156,0.96582,-0.172363,0
12940,0.280273,0.995605,-0.163574,0
12960,0.285645,0.982422,-0.158691,0
12980,0.291504,0.94043,-0.158203,0
13000,0.299805,0.941406,-0.157227,0
13020,0.304688,0.968262,-0.168945,0
13040,0.30957,0.971191,-0.163574,0
13060,0.308594,0.968262,-0.171875,0
13080,0.306152,0.953613,-0.17334,0
13100,0.320312,0.946777,-0.166992,0
13120,0.328613,0.953613,-0.15625,0
13140,0.342773,0.968262,-0.170898,0
13160,0.341797,0.962402,-0.162598,0
13180,0.334961,0.911621,-0.147461,0
13200,0.349121,0.940918,-0.158691,0
13220,0.350586,0.939941,-0.164551,0
13240,0.341797,0.956543,-0.177734,0
13260,0.338867,0.956055,-0.162598,0
13280,0.349121,0.930176,-0.180176,0
13300,0.344727,0.94873,-0.180664,0
13320,0.352539,0.948242,-0.158203,0
13340,0.341309,0.993164,-0.209961,0
13360,0.34082,0.975098,-0.19873,0
13380,0.354492,0.859863,-0.169922,0
13400,0.364258,0.896484,-0.157227,0
13420,0.349609,0.910156,-0.158203,0
13440,0.34375,0.896484,-0.175781,0
13460,0.353516,0.907227,-0.172363,0
13480,0.35498,0.914551,-0.165527,0
13500,0.348633,0.907227,-0.175293,0
13520,0.342773,0.90625,-0.169922,0
13540,0.349609,0.916992,-0.166504,0
13560,0.348633,0.928711,-0.171875,0
13580,0.344238,0.916992,-0.162109,0
13600,0.346191,0.907715,-0.16748,0
13620,0.35498,0.915039,-0.175781,0
13640,0.358887,0.919434,-0.180176,0
13660,0.355469,0.907227,-0.175781,0
13680,0.351562,0.900391,-0.172852,0
13700,0.349609,0.908203,-0.16748,0
13720,0.356934,0.896484,-0.171875,0
13740,0.359375,0.908691,-0.160645,0
13760,0.359863,0.91748,-0.162598,0
13780,0.351074,0.928711,-0.17334,0
13800,0.349121,0.93457,-0.15918,0
13820,0.352539,0.930176,-0.158691,0
13840,0.349121,0.916504,-0.152832,0
13860,0.35498,0.904297,-0.147949,0
13880,0.36084,0.906738,-0.153809,0
13900,0.361816,0.915039,-0.165039,0
13920,0.363281,0.919922,-0.170898,0
13940,0.36084,0.915527,-0.164551,0
13960,0.359863,0.908203,-0.168457,0
13980,0.368652,0.90332,-0.171875,0
14000,0.362793,0.912598,-0.158203,0
14020,0.376953,0.921387,-0.169922,0
14040,0.393555,0.920898,-0.169434,0
14060,0.389648,0.908203,-0.183105,0
14080,0.376953,0.911621,-0.181641,0
14100,0.375488,0.898926,-0.176758,0
14120,0.367188,0.900391,-0.184082,0
14140,0.365234,0.902832,-0.187012,0
14160,0.364746,0.902344,-0.179688,0
14180,0.356934,0.919922,-0.171875,0
14200,0.370605,0.916016,-0.170898,0
14220,0.36377,0.923828,-0.170898,0
14240,0.351562,0.935547,-0.164551,0
14250,0.349609,0.939453,-0.151367,0
14270,0.360352,0.932617,-0.154297,0
14290,0.366211,0.914551,-0.156738,0
14310,0.380859,0.911621,-0.165039,0
14330,0.385742,0.921387,-0.163086,0
14350,0.401855,0.914551,-0.160645,0
14370,0.418945,0.909668,-0.190918,0
14390,0.436523,0.912598,-0.190918,0
14410,0.446289,0.907227,-0.191406,0
14430,0.437012,0.889648,-0.1875,0
14450,0.417969,0.894531,-0.18457,0
14470,0.418945,0.919434,-0.177734,0
14490,0.419434,0.930176,-0.180664,0
14510,0.411621,0.910156,-0.180664,0
14530,0.367188,0.895508,-0.172363,0
14550,0.378418,0.901855,-0.167969,0
14570,0.395508,0.887207,-0.169434,0
14590,0.403809,0.875,-0.179688,0
14610,0.39502,0.864258,-0.175781,0
14630,0.367676,0.852051,-0.158691,0
14650,0.383301,0.832031,-0.136719,0
14670,0.364258,0.856445,-0.106445,0
14690,0.381836,0.868164,-0.0917969,0
14710,0.381348,0.834473,-0.112793,0
14730,0.387207,0.809082,-0.108887,0
14750,0.434082,0.775879,-0.102051,0
14770,0.427246,0.758789,-0.120117,0
14790,0.334473,0.760254,-0.0820312,0
14810,0.337891,0.777832,-0.0595703,0
14830,0.377441,0.797852,-0.0737305,0
14850,0.32666,0.830078,-0.0849609,0
14870,0.250977,0.889648,-0.0673828,0
14890,0.233887,0.908691,-0.0317383,0
14910,0.314941,0.895996,-0.0327148,0
14930,0.336914,0.875977,-0.0693359,0
14950,0.265137,0.894531,-0.100586,0
14970,0.23584,0.928711,-0.0786133,0
14990,0.300293,0.912598,-0.0771484,0
15010,0.360352,0.875977,-0.0898438,0
15030,0.379883,0.867188,-0.0932617,0
15050,0.432129,0.863281,-0.11084,0
15070,0.495605,0.862793,-0.158203,0
15090,0.488281,0.889648,-0.166016,0
15110,0.496582,0.866211,-0.128906,0
15130,0.562012,0.798828,-0.0917969,0
15150,0.634766,0.75,-0.0625,0
15170,0.625488,0.722656,-0.0356445,0
15190,0.579102,0.686035,0.0180664,0
15210,0.584473,0.671387,0.0830078,0
15230,0.623047,0.678711,0.167969,0
15250,0.606445,0.693359,0.233398,0
15270,0.624023,0.750488,0.259277,0
15290,0.675293,0.743164,0.23291,0
15310,0.618164,0.737793,0.280273,0
15330,0.565918,0.741211,0.335449,0
15350,0.523438,0.725586,0.376953,0
15370,0.543945,0.729004,0.439453,0
15390,0.644531,0.723633,0.467773,0
15410,0.675293,0.715332,0.504883,0
15430,0.673828,0.745605,0.526367,0
15450,0.666016,0.748535,0.541504,0
15470,0.65918,0.765137,0.54541,0
15490,0.635254,0.746094,0.529297,0
15510,0.625488,0.72998,0.505371,0
15530,0.600098,0.709961,0.483887,0
15550,0.601074,0.675781,0.490723,0
15570,0.624512,0.627441,0.458496,0
15590,0.62207,0.588867,0.436523,0
15610,0.612793,0.54834,0.430176,0
15630,0.656738,0.552246,0.40625,0
15650,0.710938,0.549316,0.354492,0
15670,0.753906,0.539062,0.316406,0
15690,0.775391,0.54834,0.28125,0
15710,0.794922,0.571289,0.244629,0
15730,0.806152,0.573242,0.214355,0
15750,0.815918,0.57959,0.192383,0
15770,0.842773,0.57666,0.193848,0
15790,0.868652,0.564941,0.175293,0
15810,0.864258,0.538086,0.136719,0
15830,0.856445,0.532715,0.0942383,0
15850,0.859375,0.532227,0.0664062,0
15870,0.830078,0.525391,0.0415039,0
15890,0.754883,0.522949,0.0483398,0
15910,0.744141,0.564453,0.0615234,0
15930,0.763672,0.593262,0.0766602,0
15950,0.750488,0.624512,0.0849609,0
15970,0.706055,0.66748,0.0830078,0
15990,0.668457,0.683105,0.0795898,0
16010,0.658203,0.681641,0.118652,0
16030,0.658203,0.669434,0.150391,0
16050,0.635742,0.632812,0.119629,0
16070,0.742676,0.606934,0.0292969,0
16090,0.807129,0.601074,-0.0327148,0
16110,0.822266,0.598633,-0.0419922,0
16130,0.836914,0.557129,-0.0644531,0
16150,0.897949,0.51123,-0.0712891,0
16160,0.980957,0.519531,-0.0805664,0
16180,0.98877,0.515137,-0.115234,0
16200,0.944336,0.536133,-0.125,0
16220,0.935547,0.562988,-0.116211,0
16240,0.937988,0.568359,-0.0981445,0
16260,0.922852,0.57373,-0.0986328,0
16280,0.905762,0.588379,-0.124023,0
16300,0.855957,0.586914,-0.15625,0
16320,0.839355,0.570312,-0.144531,0
16340,0.824707,0.51123,-0.149902,0
16360,0.80127,0.438965,-0.188965,0
16380,0.783203,0.39502,-0.183105,0
16400,0.722656,0.338379,-0.171387,0
16420,0.627441,0.300293,-0.145508,0
16440,0.565918,0.316406,-0.0854492,0
16460,0.554199,0.348145,-0.027832,0
16480,0.634277,0.435059,0.0566406,0
16500,0.73584,0.514648,0.0986328,0
16520,0.745117,0.535156,0.0571289,0
16540,0.714355,0.54834,0.034668,0
16560,0.735352,0.584473,0.0947266,0
16580,0.756836,0.588379,0.128418,0
16600,0.771973,0.635254,0.119629,0
16620,0.807617,0.753418,0.133301,0
16640,0.808594,0.864746,0.118164,0
16660,0.756836,0.958496,0.0703125,0
16680,0.664551,0.967773,0.0532227,0
16700,0.617188,0.936523,0.0415039,0
16720,0.613281,0.927734,0.0444336,0
16740,0.57666,0.916504,0.0366211,0
16760,0.527344,0.924316,0.0605469,0
16780,0.468262,0.905762,0.0512695,0
16800,0.383301,0.890137,0.0541992,0
16820,0.360352,0.850098,0.11377,0
16840,0.361328,0.849121,0.119629,0
16860,0.338867,0.866699,0.164551,0
16880,0.315918,0.879883,0.236328,0
16900,0.33252,0.900879,0.304199,0
16920,0.327148,0.895996,0.370117,0
16940,0.33252,0.876465,0.348633,0
16960,0.316895,0.885254,0.3125,0
16980,0.287598,0.880371,0.310059,0
17000,0.261719,0.884766,0.319336,0
17020,0.211914,0.875977,0.272949,0
17040,0.174805,0.887695,0.268555,0
17060,0.17041,0.881348,0.278809,0
17080,0.159668,0.855957,0.266602,0
17100,0.158203,0.878418,0.276855,0
17120,0.189453,0.914062,0.290527,0
17140,0.214844,0.912109,0.265137,0
17160,0.223145,0.913086,0.280273,0
17180,0.246582,0.899414,0.301758,0
17200,0.253418,0.89209,0.310547,0
17220,0.244629,0.855957,0.277832,0
17240,0.225586,0.82959,0.279785,0
17260,0.215332,0.806641,0.288574,0
17280,0.202148,0.783691,0.275391,0
17300,0.187012,0.794922,0.261719,0
17320,0.158203,0.813477,0.271973,0
17340,0.169922,0.825195,0.277832,0
17360,0.18457,0.827148,0.258301,0
17380,0.185059,0.85498,0.262695,0
17400,0.1875,0.870117,0.279785,0
17420,0.202637,0.894531,0.326172,0
17440,0.26709,0.908691,0.356445,0
17460,0.295898,0.927734,0.363281,0
17480,0.316895,0.945312,0.380859,0
17500,0.331055,0.935059,0.381348,0
17520,0.363281,0.933105,0.369141,0
17540,0.387695,0.94873,0.356934,0
17560,0.396973,0.938477,0.338867,0
17580,0.400879,0.915039,0.261719,0
17600,0.394043,0.894043,0.208984,0
17620,0.389648,0.902344,0.179688,0
17640,0.38623,0.911621,0.174805,0
17660,0.368164,0.921875,0.182617,0
17680,0.334473,0.922363,0.187988,0
17700,0.300781,0.903809,0.204102,0
17720,0.287598,0.897461,0.235352,0
17740,0.29541,0.876953,0.228516,0
17760,0.27002,0.833496,0.210449,0
17780,0.259766,0.804688,0.200195,0
17800,0.274414,0.774902,0.19043,0
17820,0.275879,0.76123,0.194824,0
17840,0.276855,0.772461,0.202637,0
17860,0.273438,0.783691,0.224609,0
17880,0.277832,0.782715,0.26123,0
17900,0.26416,0.803223,0.24707,0
17920,0.255859,0.833008,0.233398,0
17940,0.220215,0.833496,0.250977,0
17960,0.212891,0.807617,0.257812,0
17980,0.240723,0.807617,0.293945,0
18000,0.241699,0.842773,0.314941,0
18020,0.273438,0.856445,0.306152,0
18030,0.268066,0.906738,0.289551,0
18050,0.273438,0.939941,0.276367,0
18070,0.287109,0.930176,0.270508,0
18090,0.385254,0.909668,0.257324,0
18110,0.455078,0.938477,0.334473,0
18130,0.309082,0.924316,0.317871,0
18150,0.241699,0.973145,0.216797,0
18170,0.317383,0.985352,0.202637,0
18190,0.436035,0.969238,0.274414,0
18210,0.413086,0.868164,0.281738,0
18230,0.376465,0.760742,0.269531,0
18250,0.387695,0.75,0.263672,0
18270,0.416016,0.780273,0.260254,0
18290,0.421387,0.810059,0.275879,0
18310,0.402344,0.820801,0.290527,0
18330,0.419922,0.816895,0.291504,0
18350,0.38916,0.826172,0.287598,0
18370,0.356445,0.821289,0.248535,0
18390,0.337402,0.806152,0.259766,0
18410,0.338379,0.810547,0.269531,0
18430,0.347656,0.820312,0.260254,0
18450,0.351562,0.852051,0.258301,0
18470,0.356445,0.873047,0.276855,0
18490,0.353027,0.883789,0.282715,0
18510,0.329102,0.888672,0.273926,0
18530,0.30957,0.897461,0.285156,0
18550,0.321289,0.893555,0.283203,0
18570,0.306152,0.871582,0.28418,0
18590,0.303223,0.881836,0.313477,0
18610,0.321777,0.871094,0.308594,0
18630,0.322754,0.870605,0.307617,0
18650,0.325684,0.884277,0.322266,0
18670,0.365234,0.865234,0.32959,0
18690,0.390137,0.839844,0.309082,0
18710,0.388184,0.84082,0.269043,0
18730,0.385254,0.842285,0.266602,0
18750,0.397949,0.85498,0.249023,0
18770,0.39209,0.86084,0.215332,0
18790,0.37793,0.849609,0.204102,0
18810,0.371582,0.848145,0.203613,0
18830,0.361328,0.857422,0.214355,0
18850,0.355469,0.904297,0.220215,0
18870,0.349121,0.905762,0.228516,0
18890,0.324219,0.876465,0.224609,0
18910,0.30127,0.875977,0.229492,0
18930,0.289062,0.867188,0.246094,0
18950,0.307617,0.836914,0.23291,0
18970,0.32666,0.824707,0.235352,0
18990,0.334473,0.809082,0.234375,0
19010,0.347656,0.787598,0.229004,0
19030,0.341797,0.788574,0.229004,0
19050,0.34668,0.80957,0.250977,0
19070,0.369141,0.847656,0.273438,0
19090,0.370117,0.890137,0.282715,0
19110,0.365723,0.92627,0.306641,0
19130,0.347168,0.936035,0.29834,0
19150,0.338867,0.930664,0.272461,0
19170,0.321777,0.898438,0.250977,0
19190,0.29248,0.869141,0.231934,0
19210,0.29248,0.86377,0.235352,0
19230,0.285645,0.867676,0.246094,0
19250,0.280762,0.882812,0.253906,0
19270,0.302734,0.899902,0.26416,0
19300,0.327148,0.90625,0.259766,0
19320,0.312988,0.88623,0.247559,0
19340,0.3125,0.862793,0.266113,0
19360,0.321289,0.82959,0.273438,0
19380,0.330078,0.82373,0.267578,0
19400,0.330078,0.836426,0.280762,0
19420,0.332031,0.830078,0.28418,0
19440,0.33252,0.848145,0.313965,0
19460,0.310547,0.871094,0.320801,0
19480,0.294434,0.874023,0.296875,0
19490,0.27832,0.885742,0.306641,0
19510,0.274902,0.856934,0.319336,0
19530,0.27832,0.857422,0.316406,0
19550,0.261719,0.855469,0.309082,0
19570,0.259277,0.854004,0.300781,0
19590,0.26416,0.860352,0.298828,0
19610,0.249023,0.850586,0.303711,0
19630,0.250977,0.868652,0.32666,0
19650,0.254883,0.854492,0.31543,0
19670,0.253906,0.852539,0.308594,0
19690,0.262207,0.86377,0.319336,0
19710,0.272949,0.86084,0.302246,0
19730,0.274902,0.849609,0.293457,0
19750,0.293457,0.849609,0.296387,0
19770,0.29834,0.856934,0.289062,0
19790,0.295898,0.860352,0.28418,0
19810,0.303711,0.876465,0.290527,0
19830,0.316406,0.881836,0.28418,0
19850,0.30957,0.870605,0.272949,0
19870,0.290527,0.875,0.262695,0
19890,0.296875,0.884766,0.282227,0
19910,0.320801,0.871582,0.293945,0
19930,0.318848,0.866211,0.285645,0
19950,0.316895,0.873535,0.28125,0
19970,0.309082,0.862793,0.270508,0
19990,0.301758,0.869141,0.278809,0
20010,0.316895,0.869629,0.283203,0
20030,0.314453,0.864746,0.287598,0
20050,0.300293,0.852539,0.294434,0
20070,0.293945,0.828125,0.30127,0
20090,0.297852,0.834961,0.317383,0
20110,0.316406,0.838379,0.336426,0
20130,0.314941,0.842773,0.328613,0
20150,0.303223,0.826172,0.312988,0
20170,0.29834,0.816406,0.32666,0
20190,0.322266,0.833008,0.349609,0
20210,0.334473,0.852051,0.349609,0
20230,0.336426,0.868164,0.358887,0
20250,0.328613,0.879883,0.341309,0
20270,0.321289,0.859375,0.322754,0
20290,0.322754,0.85791,0.322266,0
20310,0.317871,0.851074,0.314941,0
20330,0.314941,0.849121,0.304688,0
20350,0.3125,0.851074,0.317383,0
20370,0.321777,0.857422,0.322754,0
20390,0.32666,0.858887,0.308594,0
20410,0.31543,0.855469,0.299316,0
20430,0.311523,0.841309,0.313477,0
20450,0.320801,0.842773,0.317871,0
20470,0.32666,0.836914,0.30127,0
20490,0.311523,0.822754,0.282715,0
20510,0.311523,0.834473,0.297852,0
20530,0.323242,0.835938,0.29541,0
20550,0.321777,0.835938,0.292969,0
20570,0.312012,0.847168,0.296387,0
20590,0.305664,0.849609,0.288574,0
20610,0.311035,0.849609,0.294922,0
20630,0.306641,0.867188,0.289551,0
20650,0.314941,0.868164,0.301758,0
20670,0.31543,0.854492,0.297852,0
20690,0.30127,0.856445,0.30127,0
20710,0.287598,0.863281,0.302246,0
20730,0.288086,0.865234,0.311523,0
20750,0.29541,0.878418,0.313965,0
20770,0.305176,0.874512,0.303223,0
20790,0.29541,0.863281,0.300781,0
20810,0.300781,0.869629,0.318848,0
20830,0.308594,0.849609,0.305664,0
20850,0.295898,0.836914,0.276367,0
20870,0.278809,0.834961,0.276855,0
20890,0.29248,0.836426,0.3125,0
20910,0.318359,0.851074,0.33252,0
20930,0.324707,0.841309,0.297363,0
20950,0.297852,0.843262,0.266113,0
20970,0.280762,0.829102,0.29834,0
20990,0.299805,0.833008,0.332031,0
21010,0.324219,0.839844,0.325684,0
21030,0.320312,0.847168,0.31543,0
21050,0.325684,0.852051,0.308105,0
21070,0.311523,0.84375,0.304688,0
21090,0.297852,0.827148,0.308105,0
21110,0.282715,0.835938,0.319336,0
21150,0.310059,0.875977,0.30957,0
21170,0.31543,0.881836,0.313477,0
21190,0.32666,0.883789,0.308594,0
21210,0.325684,0.856445,0.297363,0
21230,0.302734,0.841309,0.285645,0
21250,0.302734,0.852051,0.303711,0
21270,0.309082,0.851074,0.307617,0
21290,0.291992,0.841309,0.296875,0
21310,0.288574,0.845215,0.314941,0
21330,0.308594,0.850586,0.325684,0
21350,0.317383,0.858398,0.322266,0
21370,0.312988,0.860352,0.323242,0
21390,0.32666,0.857422,0.32959,0
21410,0.321289,0.842773,0.315918,0
21420,0.305176,0.815918,0.287598,0
21440,0.30127,0.828613,0.291992,0
21460,0.309082,0.833984,0.307129,0
21480,0.311035,0.840332,0.320801,0
21500,0.305664,0.847656,0.314453,0
21520,0.296387,0.850586,0.310547,0
21540,0.304199,0.844727,0.325195,0
21560,0.309082,0.855469,0.317871,0
21580,0.314453,0.865723,0.335938,0
21600,0.325684,0.864746,0.342773,0
21620,0.320801,0.870605,0.335449,0
21640,0.32666,0.877441,0.336914,0
21660,0.326172,0.864746,0.332031,0
21680,0.317871,0.859375,0.342773,0
21700,0.328613,0.852539,0.338379,0
21720,0.333496,0.833984,0.322266,0
21740,0.322266,0.82666,0.318848,0
21760,0.317871,0.824707,0.321777,0
21780,0.317871,0.812988,0.314453,0
21800,0.305664,0.816895,0.316895,0
21820,0.285645,0.819336,0.309082,0
21840,0.295898,0.836426,0.336914,0
21860,0.305664,0.84082,0.326172,0
21880,0.288574,0.859863,0.30957,0
21900,0.287109,0.868652,0.305664,0
21920,0.285645,0.867188,0.302734,0
21940,0.275879,0.876465,0.303223,0
21960,0.26709,0.876465,0.305176,0
21980,0.274414,0.877441,0.30957,0
22000,0.296875,0.894531,0.317383,0
22020,0.308594,0.891602,0.327637,0
22040,0.301758,0.873535,0.325195,0
22060,0.307617,0.85791,0.347168,0
22080,0.3125,0.849609,0.329102,0
22100,0.310059,0.837891,0.313477,0
22120,0.303711,0.821777,0.311035,0
22140,0.304688,0.79248,0.303711,0
22160,0.304688,0.790527,0.312988,0
22180,0.344238,0.801758,0.333984,0
22200,0.348633,0.817383,0.307129,0
22220,0.324219,0.8125,0.295898,0
22240,0.326172,0.79834,0.291992,0
22260,0.374023,0.806641,0.288086,0
22280,0.415039,0.812988,0.248047,0
22300,0.427734,0.821289,0.227539,0
22320,0.439453,0.807129,0.272949,0
22340,0.461914,0.807129,0.274414,0
22360,0.461426,0.812012,0.249512,0
22380,0.444824,0.820312,0.254883,0
22400,0.44873,0.831055,0.289551,0
22420,0.456055,0.815918,0.295898,0
22440,0.445801,0.79541,0.29541,0
22460,0.430664,0.777832,0.287598,0
22480,0.434082,0.767578,0.289062,0
22500,0.466309,0.772461,0.296387,0
22520,0.477051,0.772949,0.296875,0
22540,0.472656,0.753906,0.30127,0
22560,0.48291,0.756348,0.321289,0
22580,0.489258,0.768066,0.324219,0
22600,0.476074,0.777344,0.32373,0
22620,0.458496,0.793457,0.323242,0
22640,0.454102,0.788574,0.327148,0
22660,0.455566,0.769531,0.337402,0
22680,0.458984,0.75293,0.335449,0
22700,0.435547,0.736816,0.325684,0
22720,0.410156,0.72998,0.339844,0
22740,0.358887,0.724609,0.382812,0
22760,0.354492,0.746094,0.390625,0
22780,0.345703,0.760254,0.369629,0
22800,0.326172,0.791992,0.317383,0
22820,0.322754,0.810547,0.319336,0
22840,0.35791,0.762695,0.277344,0
22860,0.355957,0.776855,0.175293,0
22880,0.338379,0.926758,0.13623,0
22900,0.396484,1.0083,0.214355,0
22920,0.418945,0.908203,0.163086,0
22940,0.405762,0.827637,0.133301,0
22960,0.422852,0.84668,0.1875,0
22980,0.498047,0.916992,0.20166,0
23000,0.547363,0.92334,0.20752,0
23020,0.544922,0.884277,0.260254,0
23040,0.521484,0.831543,0.290527,0
23060,0.491211,0.770996,0.308594,0
23080,0.476562,0.720703,0.301758,0
23100,0.490234,0.697266,0.303711,0
23120,0.521484,0.716309,0.29248,0
23140,0.528809,0.724121,0.265137,0
23160,0.533691,0.731445,0.244141,0
23180,0.532227,0.748535,0.228027,0
23200,0.518066,0.766602,0.218262,0
23220,0.513672,0.771973,0.198242,0
23240,0.514648,0.77002,0.197754,0
23260,0.521484,0.784668,0.202637,0
23280,0.512207,0.79248,0.197754,0
23300,0.507324,0.803711,0.20166,0
23320,0.507324,0.812988,0.207031,0
23340,0.505371,0.8125,0.205078,0
23360,0.510254,0.812012,0.200195,0
23380,0.508301,0.804199,0.200195,0
23400,0.505859,0.802734,0.204102,0
23420,0.507324,0.79248,0.208984,0
23440,0.509277,0.796387,0.204102,0
23460,0.507812,0.79834,0.195801,0
23480,0.498535,0.796875,0.192871,0
23500,0.504395,0.808594,0.197266,0
23520,0.508789,0.807617,0.19043,0
23540,0.507324,0.797852,0.188965,0
23560,0.510254,0.797363,0.186035,0
23580,0.51416,0.797363,0.176758,0
23600,0.512695,0.791504,0.174316,0
23620,0.515137,0.780762,0.17627,0
23640,0.516602,0.780762,0.174805,0
23660,0.521484,0.783691,0.195801,0
23680,0.52002,0.788086,0.191406,0
23700,0.527832,0.789551,0.195312,0
23720,0.525391,0.794922,0.183105,0
23740,0.512207,0.789062,0.180176,0
23760,0.510254,0.776367,0.172852,0
23780,0.513184,0.76709,0.17627,0
23800,0.508789,0.774902,0.186523,0
23820,0.498047,0.799316,0.197266,0
23840,0.504395,0.799805,0.192383,0
23860,0.500977,0.788086,0.189453,0
23880,0.49707,0.785156,0.184082,0
23900,0.5,0.790039,0.184082,0
23920,0.505859,0.797363,0.186035,0
23940,0.504395,0.807129,0.188965,0
23960,0.493164,0.802734,0.189453,0
23980,0.485352,0.800293,0.194336,0
24000,0.476562,0.80127,0.193848,0
24020,0.468262,0.796875,0.190918,0
24040,0.471191,0.79834,0.209961,0
24060,0.469727,0.813965,0.212891,0
24080,0.498047,0.844727,0.214355,0
24100,0.489258,0.845703,0.206543,0
24120,0.490723,0.838379,0.204102,0
24140,0.503418,0.842773,0.199707,0
24160,0.512695,0.852051,0.170898,0
24180,0.520996,0.837891,0.134277,0
24200,0.523926,0.841309,0.12207,0
24220,0.566895,0.852539,0.121582,0
24240,0.597168,0.85498,0.195312,0
24260,0.580566,0.823242,0.26709,0
24280,0.505371,0.725586,0.312988,0
24300,0.343262,0.75,0.340332,0
24320,0.256836,0.888184,0.427246,0
24340,0.212891,0.919434,0.484375,0
24360,0.185059,0.899414,0.510742,0
24380,0.147949,0.889648,0.521973,0
24400,0.0913086,0.839844,0.46875,0
24420,0.0678711,0.761719,0.39209,0
24440,0.103516,0.73877,0.374512,0
24460,0.164551,0.821777,0.39209,0
24480,0.159668,0.90625,0.357422,0
24500,0.109375,0.869141,0.378418,0
24520,0.0991211,0.750488,0.380371,0
24540,0.115723,0.713379,0.44043,0
24560,0.0966797,0.731934,0.416504,0
24580,0.0786133,0.788086,0.420898,0
24600,0.0712891,0.824219,0.400391,0
24620,0.0917969,0.830078,0.446777,0
24640,0.0859375,0.847656,0.416016,0
24660,0.0722656,0.847168,0.462402,0
24680,0.0605469,0.865723,0.426758,0
24700,0.019043,0.912598,0.390625,0
24720,0.0541992,0.953613,0.371582,0
24730,0.0957031,0.949219,0.34082,0
24750,0.0805664,0.916992,0.405273,0
24770,0.0688477,0.95752,0.412109,0
24790,0.100586,0.955566,0.385742,0
24810,0.0786133,0.88916,0.353027,0
24830,0.0395508,0.859863,0.348145,0
24850,0.0449219,0.838867,0.345703,0
24870,0.100098,0.878906,0.342773,0
24890,0.122559,0.921875,0.322754,0
24910,0.132324,0.857422,0.339355,0
24930,0.150879,0.799316,0.310547,0
24950,0.147461,0.880859,0.305664,0
24970,0.0673828,0.90918,0.30957,0
24990,0.0537109,0.889648,0.350098,0
25010,0.0429688,0.884766,0.372559,0
25030,0.0136719,0.90332,0.331055,0
25050,0.0307617,0.925781,0.320312,0
25070,0.0307617,0.959473,0.330566,0
25090,0.00439453,0.970215,0.350586,0
25110,-0.0175781,0.95166,0.374023,0
25130,-0.03125,0.932617,0.364746,0
25150,-0.0341797,0.912109,0.35498,0
25170,-0.0366211,0.908691,0.35791,0
25190,-0.0385742,0.920898,0.34082,0
25210,-0.015625,0.920898,0.350586,0
25230,-0.0141602,0.897461,0.317871,0
25250,-0.012207,0.910645,0.325195,0
25270,-0.00488281,0.902832,0.305176,0
25290,0.015625,0.911621,0.312988,0
25310,0.0161133,0.911621,0.32666,0
25330,-0.0170898,0.900879,0.307129,0
25350,-0.0200195,0.867676,0.312012,0
25370,-0.0146484,0.849609,0.328125,0
25390,-0.0317383,0.896973,0.304688,0
25410,-0.0336914,0.916504,0.299316,0
25430,-0.0439453,0.906738,0.294922,0
25450,-0.0576172,0.895996,0.288086,0
25470,-0.065918,0.900879,0.296387,0
25490,-0.0561523,0.902344,0.296875,0
25510,-0.0527344,0.903809,0.297363,0
25530,-0.0727539,0.893066,0.283203,0
25550,-0.0722656,0.900879,0.283203,0
25570,-0.0620117,0.914551,0.277344,0
25590,-0.0551758,0.928711,0.282227,0
25610,-0.0483398,0.920898,0.277344,0
25630,-0.059082,0.919434,0.279297,0
25650,-0.0800781,0.914551,0.269531,0
25670,-0.0898438,0.905762,0.268555,0
25690,-0.0883789,0.914062,0.279297,0
25710,-0.0854492,0.907227,0.276367,0
25730,-0.0878906,0.914062,0.282715,0
25750,-0.0893555,0.92334,0.279297,0
25770,-0.0820312,0.935547,0.291504,0
25790,-0.081543,0.936523,0.29248,0
25810,-0.0712891,0.924316,0.296387,0
25830,-0.0522461,0.9375,0.296387,0
25850,-0.043457,0.936035,0.286133,0
25870,-0.0322266,0.939453,0.291504,0
25890,-0.0200195,0.938477,0.27832,0
25910,-0.00830078,0.937012,0.273438,0
25930,-0.00341797,0.942871,0.260742,0
25950,-0.00146484,0.945801,0.257812,0
25970,-0.00878906,0.95166,0.260254,0
25990,-0.0288086,0.952148,0.249512,0
26010,-0.0478516,0.959961,0.255371,0
26030,-0.0493164,0.952637,0.260254,0
26050,-0.0664062,0.946289,0.25293,0
26070,-0.0751953,0.94873,0.259766,0
26090,-0.0805664,0.950195,0.265625,0
26110,-0.090332,0.948242,0.267578,0
26130,-0.0991211,0.949707,0.268555,0
26150,-0.090332,0.952637,0.278809,0
26170,-0.097168,0.94043,0.276855,0
26190,-0.0932617,0.942871,0.269043,0
26210,-0.0976562,0.952148,0.259277,0
26230,-0.0981445,0.948242,0.26123,0
26250,-0.0966797,0.94043,0.258789,0
26270,-0.097168,0.935059,0.252441,0
26290,-0.10791,0.932617,0.248535,0
26310,-0.0986328,0.92334,0.242676,0
26330,-0.10498,0.929199,0.239258,0
26350,-0.102051,0.91748,0.239746,0
26370,-0.109863,0.916992,0.23877,0
26390,-0.126465,0.921875,0.226074,0
26410,-0.131836,0.926758,0.226562,0
26430,-0.121582,0.924316,0.23877,0
26450,-0.118164,0.919922,0.226562,0
26470,-0.12207,0.92334,0.223145,0
26490,-0.127441,0.922852,0.225098,0
26510,-0.126465,0.930176,0.228516,0
26530,-0.125977,0.946289,0.227539,0
26550,-0.12207,0.946289,0.22168,0
26570,-0.130859,0.950684,0.223633,0
26590,-0.124512,0.942871,0.231445,0
26610,-0.124023,0.932617,0.228516,0
26630,-0.118164,0.937988,0.226074,0
26640,-0.120605,0.947754,0.227051,0
26670,-0.121582,0.943359,0.234375,0
26680,-0.11084,0.931641,0.229004,0
26700,-0.11084,0.931641,0.222656,0
26720,-0.106445,0.926758,0.223145,0
26740,-0.10498,0.918457,0.217285,0
26760,-0.105957,0.918457,0.211426,0
26780,-0.10498,0.90918,0.199707,0
26800,-0.102539,0.90332,0.194336,0
26820,-0.0961914,0.898926,0.193359,0
26840,-0.0800781,0.892578,0.192383,0
26860,-0.065918,0.891113,0.177734,0
26880,-0.0620117,0.90625,0.199707,0
26900,-0.0698242,0.927246,0.22168,0
26930,-0.0908203,0.930176,0.260742,0
26950,-0.074707,0.921875,0.284668,0
26970,-0.0708008,0.918457,0.308105,0
26990,-0.0795898,0.932129,0.321777,0
27010,-0.0742188,0.944336,0.347656,0
27030,-0.0756836,0.95459,0.351074,0
27050,-0.0703125,0.96875,0.354004,0
27070,-0.0595703,0.986328,0.334961,0
27090,-0.0576172,0.978516,0.318359,0
27110,-0.0625,0.984863,0.289062,0
27130,-0.0458984,0.983398,0.287598,0
27150,-0.0268555,0.964844,0.270508,0
27170,-0.0234375,0.938965,0.259277,0
27190,-0.0234375,0.924805,0.26123,0
27210,-0.0234375,0.901855,0.249023,0
27230,-0.0375977,0.896973,0.249023,0
27250,-0.0317383,0.911621,0.25,0
27270,-0.0283203,0.915039,0.244629,0
27290,-0.0366211,0.913086,0.25,0
27310,-0.0429688,0.912109,0.25,0
27330,-0.0405273,0.905273,0.256348,0
27350,-0.0410156,0.896973,0.259277,0
27370,-0.0253906,0.878418,0.22998,0
27390,0.00244141,0.861816,0.230469,0
27410,0.0166016,0.820801,0.236328,0
27430,0.0585938,0.804688,0.210449,0
27450,0.120605,0.789062,0.19043,0
27470,0.19043,0.803223,0.160645,0
27490,0.257812,0.878906,0.199707,0
27510,0.300293,0.910645,0.182129,0
27530,0.337402,0.879395,0.170898,0
27550,0.362793,0.861328,0.155273,0
27570,0.388184,0.855469,0.192383,0
27590,0.376465,0.825684,0.222168,0
27610,0.375,0.796875,0.22168,0
27630,0.384766,0.800781,0.211914,0
27650,0.407715,0.844238,0.210938,0
27670,0.426758,0.850586,0.229004,0
27690,0.446289,0.808105,0.243652,0
27710,0.503418,0.791992,0.21875,0
27730,0.53125,0.823242,0.200195,0
27750,0.567871,0.80957,0.230469,0
27770,0.568848,0.733398,0.23877,0
27790,0.594727,0.687988,0.21582,0
27810,0.620117,0.698242,0.228027,0
27830,0.647461,0.708008,0.222656,0
27850,0.677246,0.697266,0.210938,0
27870,0.710938,0.700684,0.179688,0
27890,0.728027,0.6875,0.183105,0
27910,0.763672,0.663574,0.185547,0
27930,0.775879,0.647461,0.188477,0
27950,0.759766,0.649414,0.175781,0
27970,0.775879,0.625488,0.177734,0
27990,0.789551,0.597168,0.145996,0
28010,0.817383,0.594727,0.125977,0
28030,0.820312,0.588379,0.0947266,0
28050,0.837402,0.558105,0.0654297,0
28070,0.807129,0.580078,0.0498047,0
28090,0.816406,0.561523,0.0615234,0
28110,0.834473,0.523926,0.0405273,0
28130,0.844238,0.51123,0.0161133,0
28150,0.859863,0.525879,-0.0146484,0
28170,0.873047,0.509766,-0.0366211,0
28190,0.884766,0.492676,-0.0498047,0
28210,0.884277,0.480957,-0.0444336,0
28230,0.870117,0.491211,-0.0371094,0
28250,0.867188,0.472656,-0.0112305,0
28270,0.871582,0.472168,0.00976562,0
28290,0.86084,0.47168,0.0244141,0
28310,0.870605,0.486816,0.0239258,0
28330,0.875977,0.478516,-0.019043,0
28350,0.86377,0.463379,-0.034668,0
28370,0.875,0.454102,-0.0415039,0
28390,0.880859,0.453613,-0.0385742,0
28410,0.882812,0.466309,-0.0341797,0
28430,0.879395,0.463379,-0.0288086,0
28450,0.867676,0.447754,-0.0131836,0
28470,0.867676,0.432129,-0.00244141,0
28490,0.853516,0.416992,0.000488281,0
28510,0.848633,0.424805,0.00927734,0
28530,0.842285,0.429199,0.000976562,0
28550,0.84375,0.425293,-0.0112305,0
28570,0.845215,0.413574,-0.0170898,0
28590,0.850098,0.423828,-0.0239258,0
28610,0.852539,0.433105,-0.0170898,0
28630,0.85791,0.44043,-0.0185547,0
28650,0.870117,0.44043,-0.00341797,0
28670,0.86084,0.43457,0.00488281,0
28690,0.848633,0.436523,0.00390625,0
28710,0.861816,0.438477,0.000976562,0
28730,0.85791,0.443848,-0.015625,0
28750,0.840332,0.450684,-0.0141602,0
28770,0.855469,0.448242,-0.0131836,0
28790,0.850098,0.446777,-0.00341797,0
28810,0.847656,0.452148,-0.0136719,0
28830,0.850586,0.445801,-0.00683594,0
28850,0.85498,0.424316,0,0
28870,0.858398,0.419922,0.0107422,0
28890,0.85498,0.422363,0.0185547,0
28910,0.861328,0.424316,0.015625,0
28930,0.860352,0.417969,0.00976562,0
28950,0.869141,0.424316,0.00683594,0
28970,0.871094,0.420898,-0.000488281,0
28990,0.881836,0.416992,-0.00732422,0
29010,0.890625,0.410156,-0.00585938,0
29030,0.897461,0.406738,-0.00341797,0
29050,0.867676,0.446777,-0.0131836,0
29070,0.869629,0.443359,-0.0253906,0
29090,0.873047,0.425781,-0.0463867,0
29110,0.887207,0.419434,-0.0405273,0
29130,0.865234,0.414062,-0.0356445,0
29150,0.872559,0.407227,-0.0371094,0
29170,0.874023,0.39502,-0.0341797,0
29190,0.878418,0.408691,-0.0297852,0
29210,0.875488,0.404297,-0.0361328,0
29230,0.873535,0.400879,-0.0351562,0
29250,0.874023,0.392578,-0.0283203,0
29270,0.880859,0.386719,-0.0244141,0
29290,0.877441,0.400879,-0.0146484,0
29310,0.888184,0.394531,-0.00537109,0
29330,0.894043,0.406738,-0.00390625,0
29350,0.875,0.40625,0.00732422,0
29370,0.873535,0.410645,0.0107422,0
29390,0.87207,0.402832,0.0078125,0
29410,0.876953,0.404297,0.00537109,0
29430,0.872559,0.413086,0.0131836,0
29450,0.87793,0.422363,0.00878906,0
29470,0.876953,0.417969,0.0180664,0
29490,0.87207,0.404785,0.0268555,0
29510,0.872559,0.411133,0.0229492,0
29530,0.871094,0.406738,0.0195312,0
29550,0.869629,0.407715,0.0263672,0
29570,0.869629,0.408691,0.0244141,0
29590,0.865234,0.409668,0.0297852,0
29610,0.860352,0.398438,0.0244141,0
29630,0.864258,0.40332,0.0200195,0
29650,0.867188,0.406738,0.0195312,0
29670,0.868164,0.403809,0.012207,0
29690,0.874023,0.402832,0.0185547,0
29710,0.874023,0.40918,0.0112305,0
29730,0.87207,0.400879,0.00976562,0
29750,0.874512,0.394043,-0.00195312,0
29770,0.868652,0.401855,-0.00634766,0
29790,0.893555,0.412109,-0.0185547,0
29810,0.876465,0.425781,-0.0288086,0
29830,0.884766,0.414551,-0.0288086,0
29850,0.88623,0.40918,-0.0126953,0
29870,0.87793,0.403809,-0.012207,0
29890,0.875,0.402832,-0.0112305,0
29910,0.869141,0.400879,-0.0117188,0
29930,0.866211,0.399902,-0.0161133,0
29950,0.865723,0.412598,-0.0078125,0
29960,0.870117,0.410645,-0.00439453,0
29980,0.873047,0.404297,-0.00341797,0
30000,0.873047,0.411133,-0.00927734,0
30020,0.880371,0.412109,-0.00390625,0
30040,0.879883,0.400879,-0.00585938,0
30060,0.874023,0.400879,-0.0166016,0
30080,0.870117,0.408691,-0.0170898,0
30100,0.875488,0.404297,-0.0205078,0
30120,0.873047,0.401367,-0.0195312,0
30140,0.878418,0.402344,-0.0229492,0
30160,0.875,0.399414,-0.0175781,0
30180,0.877441,0.401855,-0.0161133,0
30200,0.878418,0.412598,-0.0141602,0
30220,0.871094,0.405273,-0.0117188,0
30240,0.874512,0.403809,-0.00878906,0
30260,0.874023,0.403809,-0.015625,0
30280,0.875,0.407715,-0.0112305,0
30300,0.868164,0.404297,-0.0146484,0
30320,0.873535,0.411133,-0.0126953,0
30340,0.873535,0.40332,-0.00488281,0
30360,0.875,0.40332,-0.0136719,0
30380,0.875,0.408203,-0.00830078,0
30400,0.877441,0.40625,-0.00439453,0
30420,0.87207,0.407715,-0.00488281,0
30440,0.875977,0.400391,0,0
30460,0.878418,0.40332,-0.00292969,0
30480,0.874023,0.404297,0.00292969,0
30500,0.875488,0.404297,-0.00146484,0
30520,0.875,0.411621,0.00439453,0
30540,0.876465,0.40332,0.00341797,0
30560,0.874023,0.404297,0,0
30580,0.873535,0.40625,0.00146484,0
30600,0.875488,0.402344,-0.00585938,0
30620,0.874023,0.404297,-0.000488281,0
30640,0.87207,0.411621,-0.00732422,0
30660,0.871094,0.408203,-0.00292969,0
30680,0.874023,0.401367,0.000976562,0
30700,0.871094,0.402832,-0.00878906,0
30720,0.872559,0.402344,-0.00830078,0
30740,0.877441,0.401367,-0.00341797,0
30760,0.882324,0.404297,-0.00830078,0
30780,0.879395,0.405762,-0.00830078,0
30800,0.870117,0.401855,-0.0131836,0
30820,0.873535,0.408691,-0.0126953,0
30840,0.871582,0.410645,-0.0161133,0
30860,0.874023,0.402344,-0.00927734,0
30880,0.873047,0.404297,-0.0131836,0
30900,0.876465,0.410645,-0.0078125,0
30920,0.873535,0.396973,-0.0107422,0
30940,0.861816,0.403809,-0.0175781,0
30960,0.862793,0.402344,-0.0180664,0
30980,0.866699,0.395508,-0.00927734,0
31000,0.861328,0.393066,-0.0166016,0
31020,0.859863,0.399902,-0.0131836,0
31040,0.867676,0.397949,-0.00244141,0
31060,0.879883,0.391602,-0.00390625,0
31080,0.882812,0.399414,0.012207,0
31100,0.887695,0.402344,0.0200195,0
31120,0.892578,0.403809,0.0229492,0
31140,0.897461,0.40332,0.0229492,0
31160,0.892578,0.404297,0.0292969,0
31180,0.890625,0.40332,0.0268555,0
31200,0.887695,0.400391,0.0209961,0
31220,0.884766,0.396484,0.0117188,0
31240,0.882812,0.391602,-0.000488281,0
31260,0.883789,0.38916,-0.0151367,0
31280,0.884277,0.393555,-0.0214844,0
31300,0.877441,0.38916,-0.0209961,0
31320,0.878906,0.39209,-0.0200195,0
31340,0.875,0.396484,-0.0200195,0
31360,0.87793,0.402344,-0.0180664,0
31380,0.878906,0.395508,-0.00292969,0
31400,0.873047,0.389648,-0.00878906,0
31420,0.868164,0.39502,-0.00976562,0
31440,0.860352,0.386719,-0.00537109,0
31460,0.861328,0.388184,-0.00585938,0
31480,0.856934,0.396484,-0.00292969,0
31520,0.875977,0.389648,0.0117188,0
31540,0.880371,0.396973,0.00634766,0
31560,0.885742,0.399902,0.0126953,0
31580,0.887207,0.397461,0.00732422,0
31590,0.90332,0.406738,0.00976562,0
31610,0.92334,0.404785,0.0166016,0
31630,0.915527,0.399902,0.00439453,0
31650,0.912109,0.403809,-0.0249023,0
31670,0.899902,0.418945,-0.0405273,0
31700,0.866699,0.391602,-0.03125,0
31720,0.866211,0.394043,-0.0249023,0
31740,0.867188,0.399902,-0.0209961,0
31760,0.878418,0.39502,-0.0170898,0
31780,0.870605,0.397949,-0.0185547,0
31800,0.870605,0.399902,-0.0195312,0
31820,0.880859,0.396484,-0.00439453,0
31840,0.890137,0.399414,-0.00683594,0
31850,0.887207,0.390625,-0.00732422,0
31870,0.882324,0.385742,-0.00683594,0
31890,0.878418,0.376465,-0.0117188,0
31910,0.87793,0.370117,-0.0112305,0
31930,0.879395,0.362793,-0.0126953,0
31950,0.884766,0.36377,-0.0078125,0
31970,0.884766,0.375,-0.0136719,0
31990,0.885254,0.374512,-0.0126953,0
32010,0.897461,0.38916,-0.00537109,0
32030,0.897461,0.387695,-0.0131836,0
32050,0.883789,0.39209,-0.0268555,0
32070,0.874512,0.396973,-0.0375977,0
32090,0.875,0.394531,-0.0327148,0
32110,0.878418,0.38623,-0.0219727,0
32130,0.887695,0.401367,-0.0185547,0
32150,0.890137,0.415527,-0.012207,0
32170,0.891602,0.410156,-0.0136719,0
32190,0.880371,0.412598,-0.0307617,0
32210,0.868164,0.422852,-0.0297852,0
32230,0.862793,0.423828,-0.0317383,0
32250,0.870117,0.413086,-0.0244141,0
32270,0.866699,0.418945,-0.0263672,0
32290,0.859375,0.40918,-0.0292969,0
32310,0.860352,0.406738,-0.027832,0
32330,0.855957,0.415527,-0.0317383,0
32350,0.861328,0.416504,-0.0317383,0
32370,0.868164,0.417969,-0.0336914,0
32390,0.873535,0.421387,-0.0244141,0
32410,0.881836,0.425781,-0.03125,0
32430,0.875977,0.416504,-0.0209961,0
32450,0.867676,0.42627,-0.0209961,0
32470,0.860352,0.423828,-0.0234375,0
32490,0.855469,0.422363,-0.0141602,0
32510,0.857422,0.421875,-0.00927734,0
32530,0.866699,0.418457,-0.00830078,0
32550,0.87793,0.418945,-0.00488281,0
32570,0.890137,0.425781,-0.0078125,0
32590,0.896973,0.4375,-0.00537109,0
32610,0.895996,0.433105,-0.0146484,0
32630,0.890625,0.431641,-0.0307617,0
32650,0.880371,0.431641,-0.0463867,0
32670,0.868164,0.42627,-0.0546875,0
32690,0.854492,0.419434,-0.0639648,0
32710,0.855469,0.416992,-0.0532227,0
32730,0.850098,0.40918,-0.0551758,0
32750,0.844238,0.404785,-0.0605469,0
32770,0.847656,0.416992,-0.0527344,0
32790,0.84082,0.416992,-0.0405273,0
32810,0.843262,0.420898,-0.0385742,0
32830,0.849121,0.430176,-0.0283203,0
32850,0.861816,0.429688,-0.0175781,0
32870,0.861328,0.427734,-0.0131836,0
32890,0.86084,0.433105,-0.00585938,0
32910,0.866699,0.440918,-0.00537109,0
32930,0.871582,0.444336,-0.00537109,0
32950,0.865723,0.449707,-0.00292969,0
32970,0.870117,0.442383,-0.00976562,0
32990,0.865723,0.4375,-0.0175781,0
33010,0.878418,0.438477,-0.0263672,0
33030,0.892578,0.441406,-0.0239258,0
33050,0.894043,0.432617,-0.027832,0
33070,0.896973,0.433594,-0.0449219,0
33090,0.892578,0.453125,-0.0483398,0
33110,0.89502,0.445312,-0.0576172,0
33130,0.896484,0.441895,-0.0507812,0
33150,0.89209,0.447266,-0.050293,0
33170,0.897461,0.459473,-0.0532227,0
33190,0.893555,0.460449,-0.0415039,0
33210,0.894531,0.449707,-0.0307617,0
33230,0.868164,0.462891,-0.0302734,0
33250,0.871094,0.443359,-0.0332031,0
33270,0.871582,0.449219,-0.0224609,0
33290,0.869629,0.456055,-0.0322266,0
33310,0.853027,0.473633,-0.0239258,0
33330,0.849121,0.472656,-0.0170898,0
33350,0.84375,0.460449,-0.0117188,0
33370,0.831543,0.462402,-0.019043,0
33390,0.82666,0.475098,-0.0302734,0
33410,0.816895,0.483398,-0.0249023,0
33430,0.806152,0.473145,-0.00927734,0
33450,0.800781,0.473145,0,0
33470,0.793457,0.495117,0,0
33490,0.783203,0.509766,0.00732422,0
33510,0.777832,0.505371,0.00195312,0
33530,0.78125,0.501465,0.00830078,0
33550,0.778809,0.503418,0.00976562,0
33570,0.770996,0.512207,0.0175781,0
33590,0.767578,0.533691,0.0297852,0
33610,0.76123,0.525391,0.0356445,0
33630,0.759277,0.527832,0.0341797,0
33650,0.769531,0.529297,0.0380859,0
33670,0.774414,0.512695,0.0302734,0
33690,0.789062,0.505371,0.0375977,0
33710,0.80127,0.508301,0.0239258,0
33730,0.811035,0.532227,0.0209961,0
33750,0.818848,0.526367,0.00244141,0
33770,0.829102,0.530762,-0.00732422,0
33790,0.833496,0.537109,-0.0151367,0
33810,0.842285,0.531738,-0.0117188,0
33830,0.847656,0.540527,-0.00878906,0
33850,0.836914,0.539062,-0.0107422,0
33870,0.84082,0.514648,-0.00878906,0
33890,0.835938,0.503906,-0.0180664,0
33910,0.82373,0.514648,-0.0258789,0
33930,0.815918,0.516602,-0.0214844,0
33950,0.804688,0.509277,-0.012207,0
33970,0.799805,0.515137,0.00292969,0
33990,0.789062,0.522461,0.0107422,0
34010,0.792969,0.528809,0.00976562,0
34030,0.793945,0.525879,0.00439453,0
34050,0.79834,0.51709,0.00732422,0
34070,0.788086,0.513184,0.0117188,0
34090,0.793945,0.528809,0.0136719,0
34110,0.794434,0.541504,0.0268555,0
34130,0.777832,0.539062,0.0166016,0
34150,0.777832,0.52832,0.00439453,0
34170,0.763184,0.539551,0.00244141,0
34190,0.731934,0.548828,-0.00439453,0
34210,0.714355,0.541016,0.0141602,0
34230,0.731445,0.477539,0.0332031,0
34250,0.75293,0.439941,0.0512695,0
34270,0.777344,0.445801,0.0869141,0
34290,0.79248,0.469727,0.0878906,0
34310,0.805176,0.500977,0.0712891,0
34330,0.800293,0.54541,0.0463867,0
34350,0.818359,0.548828,0.015625,0
34370,0.816406,0.551758,-0.0234375,0
34390,0.84375,0.525879,-0.0424805,0
34410,0.854004,0.519043,-0.0478516,0
34430,0.850586,0.501953,-0.0615234,0
34450,0.873047,0.48291,-0.0576172,0
34470,0.898926,0.470703,-0.0415039,0
34490,0.879395,0.462402,-0.0366211,0
34510,0.879883,0.468262,-0.0351562,0
34530,0.894043,0.461426,-0.0336914,0
34550,0.892578,0.444336,-0.0244141,0
34570,0.875977,0.426758,-0.0146484,0
34590,0.881348,0.437988,-0.0161133,0
34610,0.887695,0.446289,-0.0170898,0
34630,0.881836,0.438477,-0.0141602,0
34650,0.875488,0.428223,-0.00488281,0
34670,0.861816,0.416016,0.00341797,0
34690,0.871094,0.38916,0.0185547,0
34710,0.871094,0.383301,0.0170898,0
34730,0.879395,0.388184,0.0180664,0
34750,0.875,0.414551,0.0200195,0
34770,0.869629,0.416504,0.0185547,0
34790,0.879395,0.414062,0.0361328,0
34810,0.870605,0.412109,0.0454102,0
34830,0.85498,0.428223,0.0512695,0
34850,0.863281,0.4375,0.0449219,0
34870,0.864746,0.439453,0.0498047,0
34890,0.864258,0.435059,0.0449219,0
34910,0.875977,0.425293,0.0458984,0
34930,0.875,0.41748,0.0415039,0
34950,0.873535,0.422852,0.0336914,0
34970,0.862793,0.430176,0.0219727,0
34990,0.861328,0.432129,0.015625,0
35010,0.861816,0.428711,0.0107422,0
35030,0.871582,0.416016,0.00927734,0
35050,0.885742,0.406738,0.000488281,0
35070,0.893066,0.402832,-0.00976562,0
35090,0.899414,0.398438,-0.012207,0
35110,0.904297,0.395508,-0.00830078,0
35130,0.900879,0.384277,0.00244141,0
35150,0.893066,0.393066,0.00878906,0
35160,0.891113,0.390625,0.0175781,0
35180,0.885254,0.380859,0.0273438,0
35200,0.878906,0.389648,0.0244141,0
35220,0.881348,0.390625,0.027832,0
35240,0.884766,0.382812,0.015625,0
35260,0.88623,0.37793,0.0200195,0
35280,0.887207,0.374512,0.0166016,0
35300,0.88623,0.368164,0.0117188,0
35320,0.88916,0.375488,0.00732422,0
35340,0.88916,0.37793,0.00195312,0
35360,0.887207,0.37207,0.00537109,0
35380,0.887695,0.368652,0.000976562,0
35400,0.882324,0.37207,-0.00292969,0
35420,0.892578,0.378418,0.00537109,0
35440,0.895508,0.385742,-0.00195312,0
35460,0.890625,0.382324,-0.00927734,0
35480,0.886719,0.392578,-0.0166016,0
35500,0.888672,0.399414,-0.0209961,0
35520,0.870605,0.388672,-0.00390625,0
35540,0.886719,0.378906,-0.000976562,0
35560,0.87793,0.381836,-0.00634766,0
35580,0.872559,0.388672,-0.0126953,0
35600,0.882812,0.397949,-0.0131836,0
35620,0.879395,0.402832,-0.0151367,0
35640,0.873535,0.407715,-0.0166016,0
35660,0.868652,0.403809,-0.0263672,0
35680,0.871582,0.395996,-0.0166016,0
35700,0.870117,0.399414,-0.0102539,0
35720,0.876465,0.398438,0.000488281,0
35740,0.872559,0.39502,0.00195312,0
35760,0.861816,0.387207,0.000488281,0
35780,0.868652,0.397949,-0.00683594,0
35800,0.879395,0.388672,-0.00830078,0
35820,0.868652,0.387695,-0.0170898,0
35840,0.870117,0.38916,-0.0249023,0
35860,0.865723,0.401367,-0.0136719,0
35880,0.869141,0.395996,0.00390625,0
35900,0.864746,0.397461,0.0078125,0
35920,0.869141,0.397949,0.00537109,0
35940,0.880859,0.399902,0.0146484,0
35960,0.878906,0.411621,0.0185547,0
35980,0.880859,0.417969,0.012207,0
36000,0.879395,0.407715,0.00537109,0
36020,0.875,0.393555,-0.000488281,0
36040,0.87793,0.390137,-0.00146484,0
36060,0.878418,0.385742,-0.00292969,0
36080,0.876465,0.387695,-0.00244141,0
36100,0.876953,0.379883,0,0
36120,0.879883,0.392578,-0.00585938,0
36140,0.881836,0.391602,-0.00927734,0
36160,0.877441,0.397461,-0.0146484,0
36180,0.878906,0.399414,-0.0117188,0
36200,0.882324,0.400391,0.00488281,0
36220,0.887695,0.394531,0.0180664,0
36240,0.883789,0.39209,0.0302734,0
36260,0.874512,0.393066,0.019043,0
36280,0.872559,0.397461,0.0229492,0
36300,0.878906,0.398438,0.015625,0
36320,0.875488,0.397461,0.0102539,0
36340,0.875488,0.397949,0.0107422,0
36360,0.882324,0.398926,0.00488281,0
36380,0.885742,0.394043,0.0078125,0
36400,0.882324,0.395508,0.00390625,0
36420,0.881836,0.394043,0.00683594,0
36440,0.879395,0.395996,0.00341797,0
36460,0.879883,0.38916,-0.00146484,0
36480,0.882812,0.399902,0.00195312,0
36500,0.880371,0.397461,-0.000488281,0
36520,0.876953,0.396484,0,0
36540,0.878906,0.398438,0.00292969,0
36560,0.881836,0.395508,0.00195312,0
36580,0.878418,0.398926,0.00732422,0
36600,0.877441,0.394531,0.00146484,0
36620,0.876953,0.388672,0.00292969,0
36640,0.873047,0.392578,-0.00830078,0
36660,0.873535,0.396973,-0.00488281,0
36680,0.883301,0.389648,-0.0102539,0
36700,0.879883,0.39502,-0.00585938,0
36720,0.883301,0.401367,-0.00683594,0
36740,0.878418,0.399414,-0.0112305,0
36760,0.880859,0.397949,-0.00976562,0
36780,0.880859,0.397461,-0.00830078,0
36800,0.880371,0.400879,-0.00634766,0
36830,0.877441,0.394531,-0.00439453,0
36850,0.878418,0.399414,0.00146484,0
36870,0.881836,0.396973,-0.00195312,0
36890,0.877441,0.39209,-0.00146484,0
36910,0.880859,0.394043,-0.012207,0
36930,0.876953,0.387695,-0.0170898,0
36950,0.878418,0.395996,-0.0102539,0
36970,0.880371,0.397461,-0.0117188,0
36990,0.885742,0.391113,-0.00927734,0
37010,0.881836,0.390137,-0.0102539,0
37030,0.876953,0.403809,-0.0131836,0
37050,0.877441,0.403809,-0.0185547,0
37070,0.880859,0.397461,-0.0107422,0
37090,0.876953,0.398438,-0.0180664,0
37100,0.884766,0.39502,-0.0146484,0
37120,0.87793,0.400879,-0.0131836,0
37140,0.877441,0.39502,-0.00292969,0
37160,0.874512,0.397949,-0.0078125,0
37180,0.870117,0.402344,-0.00537109,0
37200,0.874023,0.402344,-0.00244141,0
37220,0.872559,0.401367,0.000976562,0
37240,0.875977,0.395996,-0.000488281,0
37260,0.875,0.399902,-0.00439453,0
37280,0.878418,0.401855,-0.00537109,0
37300,0.87793,0.395508,-0.00195312,0
37320,0.875488,0.394043,0.00390625,0
37340,0.879883,0.397461,0.00195312,0
37360,0.879395,0.399414,0.00195312,0
37380,0.878906,0.39209,0.00488281,0
37400,0.87793,0.396973,0,0
37420,0.875977,0.397461,0.00537109,0
37440,0.878906,0.39502,0.00732422,0
37470,0.875,0.401367,0.00390625,0
37490,0.878418,0.396973,0.00927734,0
37510,0.876465,0.397949,0,0
37530,0.879395,0.396484,0.00683594,0
37550,0.87793,0.396973,0.00292969,0
37570,0.880371,0.396973,0.00244141,0
37590,0.881348,0.398926,-0.00585938,0
37610,0.881836,0.395508,-0.00830078,0
37630,0.875488,0.397461,-0.012207,0
37650,0.879883,0.40332,-0.0078125,0
37670,0.876465,0.400391,-0.000488281,0
37690,0.879395,0.398438,-0.00537109,0
37710,0.875977,0.399414,-0.00292969,0
37730,0.874023,0.398438,-0.00146484,0
37750,0.885254,0.39209,-0.00146484,0
37770,0.882324,0.394531,0.000488281,0
37790,0.877441,0.393555,-0.00439453,0
37810,0.874023,0.398438,-0.00244141,0
37830,0.875977,0.403809,-0.00830078,0
37850,0.876465,0.395508,0.00292969,0
37870,0.874512,0.394531,-0.00585938,0
37890,0.873047,0.397461,-0.00683594,0
37910,0.874023,0.396973,-0.00244141,0
37930,0.880859,0.397461,-0.000976562,0
37950,0.869629,0.40332,-0.00439453,0
37970,0.87793,0.404297,-0.0107422,0
37990,0.876953,0.402832,-0.00634766,0
38010,0.876465,0.405273,-0.0078125,0
38030,0.876953,0.401855,-0.00439453,0
38050,0.87793,0.401855,-0.00341797,0
38070,0.872559,0.397949,-0.00585938,0
38090,0.873535,0.410156,-0.00537109,0
38110,0.879883,0.393066,-0.00146484,0
38130,0.871094,0.396484,-0.000976562,0
38150,0.87793,0.413086,-0.0136719,0
38170,0.879883,0.408203,0,0
38190,0.879395,0.396484,-0.00976562,0
38210,0.869141,0.392578,-0.0131836,0
38230,0.874023,0.398438,-0.0102539,0
38250,0.874023,0.395996,-0.00830078,0
38270,0.870605,0.399902,-0.00830078,0
38290,0.872559,0.393555,0.00634766,0
38310,0.870117,0.399414,0.00830078,0
38330,0.876465,0.399414,0.00683594,0
38350,0.879395,0.413086,-0.00146484,0
38370,0.87793,0.400391,-0.00195312,0
38390,0.883301,0.395996,-0.012207,0
38410,0.884277,0.394531,-0.0146484,0
38430,0.884766,0.39209,-0.0224609,0
38450,0.885254,0.38916,-0.0297852,0
38470,0.891113,0.393555,-0.03125,0
38490,0.896484,0.401367,-0.0322266,0
38510,0.887695,0.399414,-0.0263672,0
38530,0.896484,0.397949,-0.0161133,0
38550,0.890625,0.402832,-0.019043,0
38570,0.877441,0.401855,-0.0258789,0
38590,0.887207,0.400391,-0.0170898,0
38610,0.881348,0.404785,-0.00292969,0
38630,0.875,0.397949,-0.0078125,0
38650,0.880859,0.400391,-0.0102539,0
38670,0.883789,0.407715,-0.0166016,0
38690,0.885742,0.407715,-0.0170898,0
38710,0.881348,0.407227,-0.0161133,0
38730,0.882324,0.404785,-0.0195312,0
38750,0.87793,0.409668,-0.00976562,0
38770,0.873535,0.40625,-0.000488281,0
38790,0.874023,0.414062,0.00585938,0
38810,0.858887,0.418457,0.0141602,0
38830,0.86084,0.420898,0.0253906,0
38850,0.853516,0.42334,0.027832,0
38870,0.851562,0.421875,0.0209961,0
38890,0.850098,0.425293,0.03125,0
38910,0.846191,0.425293,0.0185547,0
38930,0.843262,0.424805,0.0268555,0
38950,0.845703,0.418945,0.0322266,0
38970,0.845703,0.416992,0.034668,0
38990,0.850586,0.426758,0.0478516,0
39010,0.849121,0.422363,0.0405273,0
39030,0.848145,0.42041,0.0405273,0
39050,0.853027,0.422363,0.0380859,0
39070,0.855957,0.42334,0.0380859,0
39090,0.85791,0.415527,0.0385742,0
39110,0.859863,0.420898,0.03125,0
39130,0.862305,0.416504,0.0263672,0
39150,0.861328,0.412598,0.0253906,0
39170,0.866211,0.412109,0.0170898,0
39190,0.868164,0.41748,0.0151367,0
39210,0.875977,0.419434,0.0195312,0
39230,0.876953,0.415527,0.00537109,0
39250,0.881348,0.418457,0.0078125,0
39270,0.876465,0.411621,0.0126953,0
39290,0.873047,0.417969,0.00927734,0
39310,0.876465,0.415527,0.00634766,0
39330,0.868164,0.40918,0.00878906,0
39350,0.869629,0.416992,0.00195312,0
39370,0.868164,0.416016,0.00146484,0
39390,0.866699,0.413086,0.00927734,0
39410,0.876953,0.416016,0.0107422,0
39430,0.876465,0.415039,0.0170898,0
39450,0.872559,0.411133,0.0107422,0
39470,0.864746,0.414062,0.00537109,0
39490,0.864746,0.417969,0.00585938,0
39510,0.867676,0.407227,0.00537109,0
39530,0.868164,0.407227,0.000976562,0
39550,0.868164,0.413574,-0.000488281,0
39570,0.865234,0.412109,0.00439453,0
39590,0.869141,0.407227,0.00537109,0
39610,0.868652,0.411621,0.0136719,0
39630,0.870605,0.415039,0.0107422,0
39650,0.874023,0.413086,0.00585938,0
39670,0.875977,0.416016,0.00878906,0
39690,0.876465,0.414551,0.00341797,0
39710,0.875,0.415527,0.00732422,0
39730,0.878906,0.416504,0.0102539,0
39750,0.875488,0.415039,0.0161133,0
39770,0.876465,0.411133,0.0166016,0
39790,0.873535,0.413086,0.0234375,0
39810,0.87207,0.413574,0.0234375,0
39830,0.866699,0.402344,0.0214844,0
39850,0.870605,0.40625,0.0214844,0
39870,0.87207,0.410156,0.0205078,0
39890,0.873047,0.40625,0.00830078,0
39910,0.876465,0.411133,0.00390625,0
39930,0.878418,0.40918,-0.00537109,0
39950,0.879395,0.406738,0.000976562,0
39970,0.878906,0.397461,0.000976562,0
39990,0.88623,0.404785,-0.00537109,0
40010,0.888672,0.409668,-0.00732422,0
40030,0.896973,0.41748,-0.00683594,0
40050,0.894531,0.425781,-0.0136719,0
40070,0.895996,0.422852,-0.0244141,0
40090,0.890625,0.427246,-0.0214844,0
40110,0.875488,0.416504,-0.0234375,0
40130,0.872559,0.421387,-0.0297852,0
40150,0.861328,0.417969,-0.0234375,0
40170,0.842773,0.414062,-0.0249023,0
40190,0.831055,0.40625,-0.015625,0
40210,0.824219,0.409668,-0.00195312,0
40230,0.819824,0.402832,0.00585938,0
40250,0.82959,0.393066,0.0102539,0
40270,0.822266,0.389648,0.0131836,0
40290,0.833008,0.388672,0.00390625,0
40310,0.844238,0.390625,-0.00292969,0
40330,0.861328,0.37793,0.00292969,0
40350,0.873535,0.373047,0.00341797,0
40370,0.877441,0.369141,0.00292969,0
40390,0.879883,0.374023,0.0112305,0
40400,0.878906,0.374512,0.0185547,0
40420,0.881348,0.380859,0.0400391,0
40440,0.875488,0.369629,0.0444336,0
40460,0.864258,0.35498,0.0375977,0
40480,0.868164,0.339844,0.0371094,0
40500,0.890137,0.339355,0.0249023,0
40520,0.926758,0.36084,0.0107422,0
40540,0.938965,0.382324,-0.00634766,0
40560,0.938965,0.394531,-0.0283203,0
40580,0.922852,0.391113,-0.034668,0
40600,0.910156,0.38623,-0.0258789,0
40620,0.898438,0.370117,-0.00390625,0
40640,0.887695,0.369629,0.00830078,0
40660,0.887695,0.371094,0.0180664,0
40680,0.894531,0.376953,0.0424805,0
40700,0.893555,0.364258,0.0551758,0
40720,0.890137,0.363281,0.0668945,0
40740,0.900391,0.354004,0.0620117,0
40760,0.905762,0.371094,0.0625,0
40780,0.899902,0.392578,0.0600586,0
40800,0.893555,0.394531,0.0454102,0
40820,0.898438,0.39209,0.0527344,0
40840,0.90918,0.393555,0.0517578,0
40860,0.918945,0.405273,0.050293,0
40880,0.908203,0.411133,0.0366211,0
40900,0.90332,0.411133,0.0463867,0
40920,0.891602,0.415039,0.034668,0
40940,0.894531,0.394531,0.0527344,0
40960,0.889648,0.367676,0.0395508,0
40980,0.88916,0.356445,0.0366211,0
41000,0.867676,0.34375,0.0419922,0
41020,0.858887,0.36084,0.0239258,0
41040,0.860352,0.381348,0.0327148,0
41060,0.855957,0.387207,0.0146484,0
41080,0.85791,0.367188,0.00634766,0
41100,0.865723,0.374023,0.00683594,0
41120,0.890137,0.375,0.00439453,0
41140,0.900391,0.379883,-0.0107422,0
41160,0.891602,0.381836,-0.0419922,0
41180,0.861816,0.37207,-0.0629883,0
41200,0.833008,0.384277,-0.0688477,0
41220,0.839844,0.411133,-0.0732422,0
41240,0.876465,0.435059,-0.0546875,0
41260,0.889648,0.434082,-0.0292969,0
41280,0.874512,0.414062,0.00195312,0
41300,0.84668,0.402832,0.0361328,0
41320,0.833008,0.392578,0.0546875,0
41340,0.828613,0.379395,0.050293,0
41360,0.84668,0.381836,0.0366211,0
41380,0.861328,0.375,0.0180664,0
41400,0.875977,0.367188,-0.0107422,0
41420,0.895508,0.364746,-0.0327148,0
41440,0.900879,0.358887,-0.0522461,0
41460,0.907715,0.345215,-0.078125,0
41480,0.913574,0.352539,-0.100586,0
41500,0.918945,0.367676,-0.114258,0
41520,0.924805,0.35498,-0.12793,0
41540,0.9375,0.350098,-0.134277,0
41560,0.928223,0.367676,-0.141113,0
41580,0.928711,0.366699,-0.129883,0
41600,0.927246,0.368164,-0.118164,0
41620,0.916504,0.352051,-0.090332,0
41640,0.902832,0.35498,-0.0883789,0
41660,0.902344,0.37207,-0.0844727,0
41680,0.898438,0.366211,-0.0673828,0
41700,0.894043,0.354492,-0.0424805,0
41720,0.89209,0.344727,-0.0444336,0
41740,0.895508,0.351074,-0.0473633,0
41760,0.904297,0.358887,-0.0634766,0
41780,0.901367,0.363281,-0.0737305,0
41800,0.90918,0.380859,-0.0776367,0
41820,0.909668,0.396484,-0.0727539,0
41840,0.89502,0.399902,-0.0664062,0
41860,0.896973,0.411621,-0.0600586,0
41880,0.88623,0.401855,-0.0478516,0
41900,0.874023,0.397949,-0.0415039,0
41920,0.87207,0.391602,-0.0322266,0
41940,0.868164,0.386719,-0.0283203,0
41960,0.871582,0.382324,-0.0258789,0
41980,0.870117,0.384277,-0.0273438,0
42000,0.875977,0.387695,-0.0375977,0
42020,0.882812,0.384766,-0.0341797,0
42040,0.884766,0.389648,-0.0385742,0
42060,0.888184,0.398926,-0.0415039,0
42080,0.891602,0.383789,-0.0380859,0
42100,0.88623,0.372559,-0.0395508,0
42120,0.894043,0.389648,-0.0463867,0
42140,0.889648,0.382812,-0.0478516,0
42160,0.892578,0.373047,-0.0400391,0
42180,0.895508,0.375,-0.0532227,0
42200,0.896973,0.37793,-0.0483398,0
42220,0.895996,0.37207,-0.0444336,0
42240,0.896484,0.378418,-0.043457,0
42260,0.898926,0.381836,-0.0424805,0
42280,0.891602,0.383301,-0.0424805,0
42300,0.880371,0.380859,-0.0371094,0
42320,0.879883,0.392578,-0.034668,0
42340,0.879883,0.391602,-0.0283203,0
42350,0.880371,0.391113,-0.0307617,0
42370,0.878418,0.393066,-0.0288086,0
42390,0.883789,0.397461,-0.0400391,0
42410,0.880371,0.400391,-0.0410156,0
42430,0.875,0.405273,-0.0415039,0
42450,0.870117,0.400879,-0.0439453,0
42470,0.869141,0.398926,-0.0444336,0
42490,0.875977,0.406738,-0.0439453,0
42510,0.878906,0.415039,-0.0390625,0
42530,0.88623,0.408203,-0.0410156,0
42550,0.875,0.402832,-0.0288086,0
42570,0.870117,0.40332,-0.0253906,0
42590,0.87207,0.400879,-0.0322266,0
42610,0.873535,0.402344,-0.0351562,0
42630,0.870117,0.409668,-0.0375977,0
42650,0.871582,0.414551,-0.0322266,0
42670,0.867676,0.411133,-0.0449219,0
42690,0.867188,0.409668,-0.0375977,0
42710,0.868164,0.404785,-0.0419922,0
42730,0.87207,0.401855,-0.0429688,0
42750,0.877441,0.401855,-0.0458984,0
42770,0.879883,0.405273,-0.0473633,0
42790,0.882324,0.397461,-0.0395508,0
42810,0.875488,0.400391,-0.0341797,0
42830,0.877441,0.397949,-0.0400391,0
42850,0.879395,0.39502,-0.0244141,0
42870,0.870605,0.393066,-0.0112305,0
42890,0.87207,0.403809,-0.012207,0
42910,0.867676,0.399414,-0.0117188,0
42930,0.874023,0.403809,-0.00732422,0
42950,0.868164,0.400879,-0.0141602,0
42970,0.878418,0.391113,-0.0131836,0
42990,0.891113,0.394043,-0.015625,0
43010,0.890137,0.390137,-0.019043,0
43030,0.880371,0.381348,-0.0200195,0
43050,0.874512,0.390625,-0.0288086,0
43070,0.877441,0.404785,-0.0258789,0
43090,0.876465,0.402344,-0.0180664,0
43110,0.870117,0.391113,-0.0185547,0
43130,0.872559,0.392578,-0.0131836,0
43150,0.874023,0.399902,-0.00390625,0
43170,0.874512,0.388672,-0.00341797,0
43190,0.877441,0.388672,-0.000488281,0
43210,0.87207,0.38916,-0.00195312,0
43230,0.872559,0.391602,-0.00976562,0
43250,0.887695,0.39502,-0.00244141,0
43270,0.887695,0.38623,0.00195312,0
43290,0.884766,0.380371,-0.00195312,0
43310,0.889648,0.384766,-0.00439453,0
43330,0.888184,0.381836,-0.00683594,0
43350,0.880859,0.374023,-0.0107422,0
43370,0.884766,0.373047,-0.0205078,0
43390,0.899414,0.375977,-0.015625,0
43410,0.903809,0.369629,-0.0151367,0
43430,0.902832,0.366699,-0.0151367,0
43450,0.904785,0.375,-0.019043,0
43470,0.902832,0.373047,-0.0258789,0
43490,0.898926,0.370117,-0.0292969,0
43510,0.900391,0.373535,-0.0327148,0
43530,0.902832,0.371094,-0.0341797,0
43550,0.898926,0.367188,-0.0249023,0
43570,0.900879,0.366211,-0.0229492,0
43590,0.900391,0.368652,-0.0214844,0
43610,0.891602,0.365234,-0.0170898,0
43630,0.892578,0.373047,-0.0180664,0
43650,0.88916,0.374512,-0.0175781,0
43670,0.89209,0.373535,-0.0107422,0
43690,0.895508,0.373047,-0.0102539,0
43710,0.895996,0.370117,-0.00146484,0
43730,0.889648,0.367188,-0.0126953,0
43750,0.882324,0.380371,-0.0161133,0
43770,0.883789,0.382812,-0.0146484,0
43790,0.880371,0.375488,-0.015625,0
43810,0.882324,0.379395,-0.00878906,0
43830,0.884766,0.378906,-0.0102539,0
43850,0.878418,0.379395,-0.00292969,0
43870,0.882324,0.381836,-0.0107422,0
43890,0.886719,0.385254,-0.0141602,0
43910,0.881836,0.380371,-0.0078125,0
43930,0.882324,0.377441,-0.00683594,0
43950,0.886719,0.381348,-0.00439453,0
43970,0.883301,0.381836,-0.00732422,0
43990,0.883789,0.379883,-0.0102539,0
44010,0.884277,0.380371,-0.00976562,0
44030,0.882324,0.378906,-0.012207,0
44050,0.886719,0.377441,-0.0131836,0
44070,0.887207,0.375,-0.00683594,0
44090,0.88623,0.380371,-0.0131836,0
44110,0.888184,0.376953,-0.0107422,0
44130,0.885254,0.379395,-0.0112305,0
44150,0.889648,0.377441,-0.0112305,0
44170,0.88916,0.375977,-0.00976562,0
44190,0.885742,0.37793,-0.00634766,0
44210,0.887207,0.382324,-0.00732422,0
44230,0.88916,0.378418,-0.012207,0
44250,0.893555,0.375488,-0.0141602,0
44270,0.891602,0.381348,-0.00830078,0
44290,0.890137,0.382324,-0.0161133,0
44310,0.890137,0.383301,-0.00878906,0
44330,0.889648,0.378906,-0.0102539,0
44350,0.88916,0.37793,-0.00439453,0
44370,0.885254,0.379395,-0.00585938,0
44390,0.888672,0.380859,-0.00927734,0
44410,0.888184,0.380859,-0.00732422,0
44430,0.882324,0.378418,-0.00732422,0
44450,0.881348,0.378906,-0.0136719,0
44470,0.884277,0.37793,-0.0102539,0
44490,0.891602,0.381836,-0.00488281,0
44510,0.892578,0.379883,-0.00878906,0
44530,0.889648,0.379395,-0.00341797,0
44550,0.883301,0.379883,-0.00878906,0
44570,0.885742,0.385254,-0.0126953,0
44590,0.878418,0.388672,-0.0195312,0
44610,0.882324,0.376953,-0.0102539,0
44630,0.880859,0.378906,-0.0107422,0
44650,0.887207,0.382324,-0.0078125,0
44670,0.890137,0.386719,-0.0151367,0
44690,0.882812,0.382324,-0.015625,0
44710,0.884766,0.381348,-0.0141602,0
44730,0.879883,0.380859,-0.0170898,0
44750,0.881348,0.383789,-0.0141602,0
44770,0.882812,0.380859,-0.0102539,0
44790,0.882324,0.382324,-0.00683594,0
44810,0.882324,0.37207,-0.00878906,0
44830,0.883789,0.377441,-0.015625,0
44850,0.883301,0.377441,-0.0146484,0
44870,0.880859,0.375977,-0.015625,0
44890,0.876465,0.375488,-0.0107422,0
44910,0.888184,0.379883,-0.00976562,0
44930,0.888672,0.374512,-0.00537109,0
44950,0.884277,0.379395,-0.00878906,0
44970,0.884277,0.384766,-0.00927734,0
44990,0.886719,0.385254,-0.0112305,0
45010,0.885742,0.384766,-0.00878906,0
45030,0.884766,0.388672,-0.00537109,0
45050,0.884766,0.390137,-0.00439453,0
45070,0.878906,0.388184,-0.00537109,0
45090,0.878418,0.383789,-0.000488281,0
45110,0.882324,0.382812,0.00488281,0
45130,0.881348,0.381348,-0.00341797,0
45150,0.884766,0.385742,-0.00292969,0
45170,0.890137,0.383301,-0.000976562,0
45190,0.890137,0.380371,0,0
45210,0.890625,0.384277,-0.00195312,0
45230,0.890137,0.384277,-0.00927734,0
45250,0.882812,0.380371,0.000976562,0
45270,0.87793,0.375977,0.000488281,0
45290,0.880371,0.37793,0.00146484,0
45310,0.877441,0.387695,-0.00439453,0
45330,0.882812,0.384277,-0.00146484,0
45350,0.88916,0.382812,0.00537109,0
45370,0.892578,0.380371,0.00585938,0
45390,0.891113,0.388672,0.00634766,0
45410,0.885254,0.38623,0.00488281,0
45430,0.883301,0.379883,-0.000488281,0
45450,0.883301,0.384277,0.00292969,0
45470,0.883301,0.387207,-0.00683594,0
45490,0.895508,0.388184,-0.00488281,0
45510,0.889648,0.387695,-0.000488281,0
45530,0.901367,0.389648,0.00976562,0
45550,0.909668,0.400879,0.00683594,0
45570,0.918457,0.409668,0.0195312,0
45590,0.908203,0.413574,0.0175781,0
45610,0.898926,0.414062,0.00439453,0
45630,0.887695,0.40918,0.0102539,0
45650,0.876953,0.395508,0.00732422,0
45670,0.878418,0.38916,-0.00146484,0
45680,0.868652,0.394043,-0.00585938,0
45700,0.871094,0.399902,-0.0180664,0
45720,0.872559,0.40625,-0.0180664,0
45740,0.880371,0.401855,-0.0229492,0
45760,0.872559,0.40332,-0.0170898,0
45780,0.882324,0.414062,-0.00634766,0
45800,0.881348,0.414551,0.0107422,0
45820,0.874512,0.426758,0.0209961,0
45840,0.874023,0.429688,0.034668,0
45860,0.855957,0.43457,0.034668,0
45880,0.847656,0.429199,0.0375977,0
45900,0.845703,0.433105,0.0351562,0
45920,0.848145,0.423828,0.034668,0
45940,0.844727,0.42334,0.0307617,0
45960,0.849609,0.434082,0.0292969,0
45980,0.84082,0.439453,0.0249023,0
46000,0.845215,0.437012,0.0239258,0
46020,0.851074,0.439941,0.0229492,0
46040,0.853027,0.44043,0.0205078,0
46060,0.852539,0.442871,0.0258789,0
46080,0.85498,0.445801,0.0195312,0
46100,0.855957,0.447266,0.0253906,0
46120,0.850098,0.451172,0.0219727,0
46140,0.850586,0.45752,0.0224609,0
46160,0.857422,0.458008,0.0263672,0
46180,0.852051,0.456055,0.0209961,0
46200,0.848633,0.457031,0.0175781,0
46220,0.846191,0.46582,0.0102539,0
46240,0.853516,0.469727,0.0195312,0
46260,0.85791,0.461426,0.0209961,0
46280,0.858887,0.469238,0.0170898,0
46300,0.859375,0.479492,0.0126953,0
46320,0.858887,0.481445,0.00488281,0
46340,0.847168,0.482422,0.015625,0
46360,0.835449,0.48291,0.00634766,0
46380,0.825195,0.493652,0.00683594,0
46400,0.824707,0.500488,0.0234375,0
46420,0.824219,0.500977,0.0439453,0
46440,0.822754,0.501465,0.0639648,0
46460,0.823242,0.503418,0.074707,0
46480,0.814453,0.512207,0.0708008,0
46500,0.816895,0.503418,0.0683594,0
46520,0.808594,0.504395,0.0722656,0
46540,0.810547,0.500977,0.0649414,0
46560,0.80957,0.49707,0.0678711,0
46580,0.812012,0.500977,0.0742188,0
46600,0.804688,0.508301,0.0805664,0
46620,0.791992,0.509277,0.078125,0
46640,0.791016,0.523926,0.0771484,0
46660,0.782227,0.517578,0.0776367,0
46680,0.776367,0.503906,0.0849609,0
46700,0.774414,0.500488,0.0878906,0
46720,0.789062,0.504395,0.108887,0
46740,0.790039,0.5,0.141602,0
46760,0.770996,0.507324,0.154297,0
46780,0.759277,0.54541,0.144043,0
46800,0.748535,0.578613,0.135742,0
46820,0.750488,0.564453,0.132324,0
46840,0.73877,0.554688,0.120117,0
46860,0.73584,0.537109,0.111816,0
46880,0.731934,0.509277,0.108398,0
46900,0.736816,0.500977,0.105469,0
46920,0.749023,0.515625,0.121582,0
46940,0.749512,0.541504,0.123535,0
46960,0.756348,0.547363,0.128906,0
46980,0.762207,0.544434,0.132812,0
47000,0.774902,0.54541,0.141113,0
47020,0.782715,0.540527,0.140137,0
47040,0.790527,0.54834,0.137207,0
47060,0.801758,0.552734,0.146973,0
47080,0.806152,0.544434,0.140137,0
47100,0.808594,0.55127,0.12793,0
47120,0.810059,0.546875,0.112793,0
47140,0.81543,0.537598,0.0922852,0
47160,0.82373,0.53125,0.0771484,0
47180,0.811035,0.530273,0.0561523,0
47200,0.812012,0.533691,0.0493164,0
47220,0.819336,0.530762,0.0473633,0
47240,0.818848,0.540039,0.0629883,0
47260,0.812988,0.545898,0.0668945,0
47280,0.81543,0.55957,0.0727539,0
47300,0.799805,0.566895,0.0786133,0
47320,0.791992,0.558594,0.0874023,0
47340,0.785156,0.565918,0.0986328,0
47360,0.779297,0.571289,0.0922852,0
47380,0.772949,0.5625,0.0986328,0
47400,0.766602,0.558594,0.0996094,0
47420,0.766602,0.561523,0.10791,0
47440,0.765625,0.560059,0.110352,0
47460,0.758301,0.563965,0.103516,0
47480,0.743652,0.583496,0.109375,0
47500,0.753418,0.596191,0.130859,0
47520,0.737305,0.608398,0.169434,0
47540,0.70752,0.618164,0.20752,0
47560,0.693848,0.632324,0.225586,0
47580,0.679688,0.637695,0.265137,0
47600,0.67334,0.652344,0.333008,0
47620,0.649902,0.650879,0.359375,0
47630,0.630371,0.658203,0.354492,0
47650,0.614258,0.65918,0.346191,0
47670,0.598145,0.687988,0.324707,0
47690,0.595703,0.706543,0.317383,0
47710,0.618652,0.720215,0.294922,0
47730,0.62793,0.710938,0.323242,0
47750,0.581055,0.71875,0.331543,0
47770,0.532227,0.760742,0.340332,0
47790,0.509277,0.795898,0.343262,0
47810,0.504883,0.800293,0.361816,0
47830,0.477539,0.788086,0.380371,0
47850,0.404297,0.804199,0.40918,0
47870,0.33252,0.853027,0.433594,0
47890,0.297852,0.852051,0.401855,0
47910,0.283203,0.847168,0.388672,0
47930,0.268555,0.851562,0.375488,0
47950,0.276367,0.821289,0.369629,0
47970,0.234375,0.845703,0.403809,0
47990,0.179199,0.876953,0.458008,0
48010,0.0761719,0.890137,0.472168,0
48030,-0.0385742,0.935547,0.472656,0
48050,-0.0751953,0.966309,0.492676,0
48070,-0.0683594,0.957031,0.4375,0
48090,-0.134766,0.969727,0.453125,0
48110,-0.204102,0.961914,0.428711,0
48130,-0.254395,0.936523,0.406738,0
48150,-0.265137,0.905273,0.423828,0
48170,-0.260254,0.904297,0.410645,0
48200,-0.312988,0.90332,0.353027,0
48220,-0.306152,0.883789,0.344727,0
48240,-0.279785,0.85498,0.332031,0
48260,-0.283691,0.8125,0.354492,0
48280,-0.291016,0.783203,0.360352,0
48300,-0.291992,0.779785,0.317383,0
48320,-0.282227,0.780762,0.303711,0
48340,-0.262207,0.749512,0.300293,0
48360,-0.26416,0.71582,0.286133,0
48380,-0.287109,0.692871,0.285156,0
48400,-0.300293,0.699707,0.271973,0
48420,-0.306641,0.69873,0.265137,0
48440,-0.339355,0.699707,0.288086,0
48460,-0.376465,0.703125,0.286133,0
48480,-0.392578,0.71875,0.285645,0
48500,-0.394531,0.729004,0.286621,0
48520,-0.40918,0.745117,0.292969,0
48540,-0.437012,0.757324,0.297363,0
48560,-0.458008,0.744141,0.292969,0
48580,-0.475586,0.742188,0.297363,0
48600,-0.48291,0.748535,0.294922,0
48620,-0.490234,0.772949,0.294434,0
48640,-0.507324,0.772461,0.312988,0
48660,-0.512207,0.760254,0.299316,0
48680,-0.537598,0.76123,0.299805,0
48700,-0.540527,0.772461,0.300781,0
48720,-0.548828,0.799316,0.305664,0
48740,-0.533691,0.797852,0.324707,0
48760,-0.509766,0.773438,0.314453,0
48780,-0.527344,0.751465,0.314453,0
48800,-0.532227,0.745117,0.32959,0
48820,-0.505371,0.722656,0.322754,0
48840,-0.488281,0.716309,0.331055,0
48860,-0.487305,0.722656,0.324219,0
48880,-0.497559,0.719727,0.331543,0
48900,-0.501465,0.720215,0.369629,0
48920,-0.48584,0.733398,0.370117,0
48940,-0.481934,0.755859,0.380371,0
48960,-0.461426,0.777344,0.397461,0
48980,-0.415039,0.786621,0.378906,0
49000,-0.380371,0.804688,0.401855,0
49020,-0.351074,0.802734,0.387207,0
49040,-0.322266,0.790527,0.388672,0
49060,-0.294434,0.812012,0.378906,0
49080,-0.263672,0.833496,0.413086,0
49100,-0.22168,0.820801,0.403809,0
49120,-0.211914,0.837402,0.408691,0
49140,-0.14209,0.854004,0.416504,0
49160,-0.0810547,0.87207,0.401367,0
49180,-0.0688477,0.878418,0.408203,0
49200,-0.0864258,0.908203,0.419434,0
49220,-0.100098,0.925781,0.445801,0
49240,-0.120117,0.936523,0.46875,0
49260,-0.127441,0.935547,0.479492,0
49280,-0.0952148,0.918457,0.48877,0
49300,-0.102539,0.926758,0.452637,0
49320,-0.151367,0.940918,0.466309,0
49340,-0.145996,0.918457,0.47168,0
49360,-0.117676,0.888184,0.453613,0
49380,-0.140137,0.875488,0.433594,0
49400,-0.163086,0.870605,0.415039,0
49420,-0.174316,0.861816,0.420898,0
49440,-0.177246,0.881836,0.399414,0
49460,-0.172852,0.875,0.412598,0
49480,-0.166016,0.864258,0.412109,0
49500,-0.166504,0.833008,0.384277,0
49520,-0.166016,0.854492,0.384766,0
49540,-0.17334,0.872559,0.389648,0
49560,-0.168945,0.870117,0.397949,0
49580,-0.175781,0.859375,0.40625,0
49600,-0.172852,0.853027,0.389648,0
49620,-0.186523,0.859375,0.410156,0
49640,-0.160156,0.845703,0.414062,0
49660,-0.152344,0.835938,0.425781,0
49680,-0.163086,0.847168,0.453125,0
49700,-0.152344,0.82666,0.448242,0
49720,-0.149414,0.833008,0.461914,0
49740,-0.202637,0.827637,0.443848,0
49760,-0.226074,0.845703,0.432617,0
49780,-0.233887,0.878418,0.426758,0
49800,-0.215332,0.884766,0.424316,0
49820,-0.210938,0.878418,0.366699,0
49840,-0.214355,0.870605,0.384277,0
49860,-0.174316,0.848633,0.380859,0
49880,-0.210449,0.911621,0.363281,0
49900,-0.200195,0.84668,0.381836,0
49920,-0.21582,0.880859,0.394531,0
49940,-0.262207,0.926758,0.383789,0
49960,-0.274902,0.915039,0.339844,0
49980,-0.25,0.921875,0.340332,0
50000,-0.226074,0.944336,0.315918,0
50020,-0.189941,0.967285,0.314941,0
50040,-0.208984,0.90332,0.328125,0
50060,-0.234863,0.956543,0.333984,0
50080,-0.29248,0.948242,0.30957,0
50100,-0.280273,0.927246,0.254395,0
50120,-0.226074,0.896973,0.27002,0
50140,-0.154785,0.881836,0.254395,0
50160,-0.202148,0.847168,0.191406,0
50180,-0.175293,0.865234,0.148926,0
50200,-0.118164,0.9375,0.267578,0
50220,-0.0986328,0.84082,0.344727,0
50240,-0.17334,0.830566,0.363281,0
50260,-0.257324,0.852539,0.351562,0
50280,-0.303711,0.85791,0.371582,0
50300,-0.35791,0.878906,0.411621,0
50320,-0.39209,0.892578,0.379883,0
50340,-0.399414,0.895996,0.309082,0
50360,-0.38623,0.908691,0.326172,0
50380,-0.342773,0.933594,0.349609,0
50400,-0.333984,0.90332,0.335938,0
50420,-0.345703,0.893066,0.296387,0
50440,-0.313965,0.90625,0.32373,0
50460,-0.26709,0.893555,0.369629,0
50480,-0.229004,0.844727,0.336426,0
50500,-0.171875,0.858887,0.302246,0
50520,-0.168457,0.895508,0.23584,0
50540,-0.180176,0.931641,0.265137,0
50560,-0.161621,0.943359,0.287109,0
50580,-0.151367,0.78418,0.303223,0
50600,-0.242188,0.745605,0.259766,0
50620,-0.297852,0.791992,0.296387,0
50640,-0.294922,0.827148,0.29834,0
50660,-0.264648,0.884766,0.275391,0
50680,-0.269531,0.918457,0.356445,0
50700,-0.294434,0.892578,0.390625,0
50720,-0.382812,0.854004,0.375488,0
50740,-0.408203,0.851562,0.415039,0
50760,-0.394531,0.88916,0.363281,0
50780,-0.388672,0.839355,0.390625,0
50800,-0.381836,0.851074,0.460449,0
50820,-0.430664,0.781738,0.442871,0
50840,-0.42334,0.706543,0.388672,0
50850,-0.43457,0.677246,0.381836,0
50870,-0.462402,0.730957,0.32373,0
50890,-0.411133,0.749023,0.416016,0
50910,-0.376953,0.756836,0.42334,0
50930,-0.382324,0.686523,0.422852,0
50950,-0.360352,0.753418,0.360352,0
50960,-0.37207,0.860352,0.335938,0
50980,-0.323242,0.850098,0.345215,0
51000,-0.352539,0.787109,0.397461,0
51020,-0.349121,0.743164,0.463867,0
51040,-0.342285,0.870605,0.389648,0
51060,-0.373047,0.924805,0.354004,0
51080,-0.356445,0.828613,0.339355,0
51100,-0.31543,0.82959,0.400391,0
51120,-0.287109,0.875488,0.364258,0
51140,-0.256836,0.91748,0.329102,0
51160,-0.17041,0.884766,0.331543,0
51180,-0.170898,0.829102,0.376953,0
51200,-0.296875,0.8125,0.339844,0
51220,-0.168945,0.774902,0.42041,0
51240,-0.123047,0.762207,0.408691,0
51260,-0.208496,0.813477,0.366211,0
51280,-0.20752,0.771484,0.440918,0
51300,-0.177734,0.789551,0.522461,0
51320,-0.338867,0.867676,0.393066,0
51340,-0.320312,0.774414,0.424805,0
51360,-0.311523,0.78125,0.439453,0
51380,-0.40918,0.793945,0.515625,0
51400,-0.45459,0.788574,0.538574,0
51420,-0.432129,0.752441,0.526855,0
51440,-0.387695,0.818848,0.499512,0
51460,-0.361328,0.947754,0.484863,0
51480,-0.339844,0.981934,0.509277,0
51500,-0.307129,0.954102,0.536621,0
51520,-0.31543,0.905273,0.478516,0
51540,-0.294434,0.854492,0.456055,0
51560,-0.333984,0.925781,0.524902,0
51580,-0.337891,0.921387,0.479004,0
51600,-0.365723,0.944336,0.322754,0
51620,-0.325195,0.892578,0.397461,0
51640,-0.297363,0.876465,0.419434,0
51660,-0.366699,0.874023,0.379395,0
51680,-0.397949,0.839355,0.345703,0
51700,-0.381836,0.865234,0.358398,0
51720,-0.374512,0.867188,0.338379,0
51740,-0.36377,0.839355,0.365723,0
51760,-0.389648,0.803223,0.354004,0
51780,-0.393555,0.791992,0.333496,0
51800,-0.401367,0.812988,0.350098,0
51820,-0.410645,0.800293,0.355469,0
51840,-0.41748,0.837891,0.367676,0
51860,-0.435059,0.818359,0.34082,0
51880,-0.443359,0.833008,0.340332,0
51900,-0.455078,0.836426,0.337402,0
51920,-0.45459,0.833496,0.330078,0
51940,-0.479004,0.839844,0.326172,0
51960,-0.513672,0.844238,0.32373,0
51980,-0.516113,0.833008,0.3125,0
52000,-0.516602,0.823242,0.28125,0
52020,-0.53125,0.82666,0.286621,0
52040,-0.541504,0.806641,0.286133,0
52060,-0.561035,0.808594,0.258301,0
52080,-0.598145,0.808105,0.226074,0
52100,-0.600098,0.795898,0.199219,0
52120,-0.597656,0.812012,0.215332,0
52140,-0.567871,0.80127,0.208984,0
52160,-0.59082,0.79541,0.172363,0
52180,-0.599609,0.775391,0.164551,0
52200,-0.57373,0.756836,0.171387,0
52220,-0.556641,0.745605,0.165527,0
52240,-0.541016,0.726074,0.138672,0
52260,-0.519531,0.710938,0.120605,0
52280,-0.477051,0.703613,0.0874023,0
52300,-0.463867,0.699219,0.0825195,0
52320,-0.437012,0.70166,0.0839844,0
52340,-0.442871,0.711426,0.0742188,0
52360,-0.455566,0.749023,0.0913086,0
52380,-0.46582,0.779297,0.0917969,0
52400,-0.49707,0.806152,0.0756836,0
52420,-0.517578,0.830566,0.108398,0
52440,-0.53418,0.853516,0.124023,0
52470,-0.571289,0.884277,0.0966797,0
52490,-0.579102,0.88916,0.120117,0
52510,-0.565918,0.885254,0.134766,0
52530,-0.555664,0.87793,0.121094,0
52550,-0.54541,0.870117,0.110352,0
52570,-0.557129,0.866699,0.108398,0
52590,-0.554199,0.844238,0.131348,0
52610,-0.557129,0.814453,0.112305,0
52630,-0.54834,0.812988,0.108398,0
52650,-0.556641,0.817383,0.102051,0
52670,-0.563477,0.822754,0.121094,0
52690,-0.568848,0.821289,0.116699,0
52710,-0.564453,0.820312,0.123535,0
52730,-0.571289,0.808594,0.120117,0
52750,-0.575684,0.818359,0.12207,0
52770,-0.570312,0.832031,0.128418,0
52790,-0.556641,0.824707,0.125977,0
52810,-0.562988,0.822754,0.11377,0
52840,-0.555176,0.819336,0.109375,0
52860,-0.540039,0.821289,0.115723,0
52870,-0.549805,0.824219,0.103516,0
52890,-0.546875,0.821777,0.107422,0
52910,-0.54541,0.822754,0.116699,0
52930,-0.546875,0.827637,0.10498,0
52950,-0.555664,0.834473,0.113281,0
52970,-0.56543,0.827148,0.116699,0
52990,-0.554199,0.817871,0.113281,0
53010,-0.549316,0.822754,0.118652,0
53030,-0.553223,0.821777,0.119141,0
53050,-0.541016,0.812012,0.120605,0
53070,-0.537598,0.808105,0.118652,0
53090,-0.548828,0.809082,0.114258,0
53110,-0.529297,0.802734,0.109375,0
53130,-0.523438,0.800293,0.108398,0
53150,-0.506836,0.80127,0.0942383,0
53170,-0.523926,0.79541,0.0761719,0
53190,-0.53125,0.79541,0.0874023,0
53210,-0.498047,0.785156,0.0952148,0
53230,-0.48291,0.772949,0.0991211,0
53250,-0.468262,0.754883,0.111816,0
53270,-0.436035,0.725098,0.122559,0
53290,-0.403809,0.718262,0.14209,0
53310,-0.37793,0.743652,0.126953,0
53330,-0.419922,0.765137,0.104004,0
53350,-0.437988,0.757324,0.0952148,0
53370,-0.434082,0.775391,0.120117,0
53390,-0.433105,0.838379,0.161621,0
53410,-0.463379,0.865723,0.163574,0
53430,-0.46875,0.90332,0.126953,0
53450,-0.42627,0.946777,0.160645,0
53470,-0.416504,0.978516,0.149414,0
53490,-0.438965,1.03857,0.199219,0
53510,-0.425781,1.0752,0.180176,0
53530,-0.382812,1.05176,0.229492,0
53550,-0.381836,0.993652,0.22168,0
53580,-0.322266,1.00537,0.234863,0
53600,-0.306641,0.978027,0.256836,0
53620,-0.277344,0.994629,0.24707,0
53640,-0.262207,1.00342,0.228027,0
53650,-0.258789,1.03223,0.237305,0
53670,-0.263672,1.00732,0.226074,0
53690,-0.245117,0.98584,0.221191,0
53710,-0.243652,0.954102,0.175781,0
53730,-0.228516,0.963379,0.175293,0
53750,-0.194824,0.973145,0.205566,0
53770,-0.186035,0.964355,0.192871,0
53790,-0.196289,0.933105,0.155762,0
53810,-0.19873,0.941406,0.147949,0
53830,-0.188477,0.961914,0.16748,0
53850,-0.189453,0.965332,0.176758,0
53870,-0.196777,0.991211,0.149414,0
53890,-0.196289,0.973633,0.130859,0
53910,-0.19043,0.97168,0.151855,0
53930,-0.181641,0.933594,0.162109,0
53950,-0.169434,0.938477,0.150391,0
53970,-0.166504,0.972656,0.151367,0
53990,-0.169434,0.983887,0.157227,0
54010,-0.157715,0.983887,0.172852,0
54030,-0.163086,0.953613,0.152832,0
54050,-0.169922,0.962402,0.17334,0
54070,-0.169922,0.960449,0.160156,0
54090,-0.152832,0.948242,0.165039,0
54110,-0.15625,0.933105,0.178223,0
54130,-0.166992,0.948242,0.179199,0
54150,-0.152832,0.956543,0.191895,0
54170,-0.151855,0.925781,0.181641,0
54190,-0.151367,0.944824,0.189941,0
54210,-0.144043,0.945312,0.186035,0
54230,-0.134766,0.941895,0.186523,0
54250,-0.129395,0.921875,0.199707,0
54270,-0.130371,0.921387,0.20752,0
54290,-0.135742,0.936035,0.192871,0
54310,-0.136719,0.944336,0.202148,0
54330,-0.140137,0.937012,0.214355,0
54350,-0.164551,0.946289,0.214844,0
54370,-0.185547,0.954102,0.217285,0
54390,-0.193359,0.967773,0.217773,0
54410,-0.20166,0.97998,0.214844,0
54430,-0.22168,0.970215,0.217285,0
54450,-0.21582,0.967773,0.216797,0
54470,-0.212891,0.972168,0.202637,0
54490,-0.216797,0.956055,0.191895,0
54510,-0.224121,0.955566,0.203125,0
54530,-0.206055,0.949707,0.213867,0
54550,-0.197754,0.92627,0.210938,0
54570,-0.198242,0.92334,0.200195,0
54590,-0.187012,0.936035,0.202148,0
54610,-0.187988,0.938965,0.214844,0
54630,-0.186523,0.937012,0.20752,0
54650,-0.187012,0.943359,0.200684,0
54670,-0.180176,0.928711,0.202148,0
54690,-0.181641,0.938477,0.217773,0
54710,-0.194336,0.950684,0.20752,0
54730,-0.201172,0.953613,0.20459,0
54750,-0.20166,0.942871,0.193359,0
54770,-0.20459,0.944336,0.212891,2000
54790,-0.197754,0.931641,0.206543,0
54810,-0.195312,0.925293,0.213867,0
54830,-0.206055,0.939453,0.208008,0
54850,-0.205078,0.952637,0.20752,0
54870,-0.208496,0.943848,0.213379,0
54890,-0.195801,0.952637,0.205078,0
54910,-0.19873,0.939941,0.209961,0
54930,-0.193359,0.933594,0.198242,0
54950,-0.180664,0.92627,0.209473,0
54970,-0.172363,0.931641,0.209473,0
54990,-0.169922,0.925781,0.220703,0
55010,-0.152344,0.921387,0.208496,0
55030,-0.155762,0.930176,0.206543,0
55050,-0.158691,0.92627,0.210449,0
55070,-0.158691,0.922363,0.221191,0
55090,-0.143066,0.92627,0.205566,0
55110,-0.14502,0.935547,0.20166,0
55130,-0.147949,0.938965,0.199707,0
55150,-0.154785,0.935059,0.222168,0
55170,-0.155273,0.929199,0.202637,0
55190,-0.151367,0.936523,0.208008,0
55210,-0.174316,0.942383,0.205566,0
55230,-0.171875,0.938477,0.208984,0
55250,-0.161133,0.928223,0.200684,0
55270,-0.17041,0.927246,0.216797,0
55290,-0.181641,0.945312,0.22168,0
55310,-0.183594,0.950684,0.20752,0
55330,-0.182617,0.943848,0.213379,0
55350,-0.171875,0.931641,0.214844,0
55370,-0.160156,0.946289,0.216309,0
55390,-0.15918,0.950195,0.196777,0
55410,-0.186523,0.945312,0.20166,0
55430,-0.196777,0.938965,0.229004,0
55450,-0.182617,0.946289,0.226074,0
55470,-0.195801,0.962402,0.196289,0
55490,-0.20459,0.949219,0.191895,0
55510,-0.213379,0.948242,0.224121,0
55530,-0.219238,0.950684,0.230957,0
55550,-0.209473,0.959961,0.200684,0
55570,-0.220215,0.961914,0.166504,0
55590,-0.252441,0.959961,0.209961,0
55610,-0.246582,0.945312,0.209473,0
55630,-0.232422,0.935059,0.195801,0
55650,-0.222656,0.946289,0.202637,0
55670,-0.232422,0.949219,0.188965,0
55690,-0.255371,0.946289,0.1875,0
55710,-0.256836,0.919922,0.186035,0
55730,-0.245117,0.920898,0.175781,0
55750,-0.274902,0.925781,0.154785,0
55770,-0.250488,0.919434,0.205566,0
55790,-0.27002,0.922363,0.204102,0
55810,-0.291992,0.937988,0.20166,0
55830,-0.290039,0.938477,0.157715,0
55850,-0.270996,0.946777,0.152344,0
55870,-0.270996,0.92334,0.155273,0
55890,-0.29541,0.936035,0.173828,0
55910,-0.308594,0.945312,0.169434,0
55930,-0.306641,0.930664,0.164551,0
55950,-0.309082,0.919434,0.165527,0
55970,-0.30957,0.913574,0.166504,0
55990,-0.33252,0.929199,0.176758,0
56010,-0.331543,0.931641,0.173828,0
56030,-0.328125,0.916992,0.153809,0
56050,-0.331055,0.929688,0.162109,0
56070,-0.35498,0.922363,0.17334,0
56090,-0.356934,0.919434,0.170898,0
56110,-0.354004,0.918945,0.15918,0
56130,-0.361328,0.921875,0.17334,0
56150,-0.367188,0.90625,0.173828,0
56170,-0.37207,0.916504,0.172852,0
56180,-0.371582,0.928711,0.157227,0
56200,-0.367676,0.915039,0.17334,0
56220,-0.373535,0.904785,0.17627,0
56240,-0.396484,0.904785,0.174805,0
56260,-0.40332,0.904785,0.171387,0
56280,-0.396973,0.894531,0.172852,0
56300,-0.40332,0.89502,0.160156,0
56320,-0.402344,0.892578,0.175293,0
56340,-0.408691,0.900391,0.17627,0
56360,-0.423828,0.910156,0.157227,0
56380,-0.41748,0.891113,0.151855,0
56400,-0.419922,0.875,0.168945,0
56420,-0.416992,0.878418,0.19873,0
56440,-0.421875,0.87793,0.168457,0
56460,-0.437988,0.886719,0.160156,0
56480,-0.433105,0.869141,0.185059,0
56500,-0.447266,0.874512,0.195801,0
56520,-0.430664,0.875,0.183105,0
56540,-0.428223,0.881836,0.17627,0
56560,-0.437988,0.878906,0.187012,0
56580,-0.446777,0.867676,0.200684,0
56600,-0.450195,0.871582,0.202637,0
56620,-0.427246,0.873047,0.200684,0
56640,-0.436035,0.871582,0.207031,0
56660,-0.45166,0.865234,0.210938,0
56680,-0.450195,0.883789,0.211426,0
56700,-0.447754,0.881348,0.204102,0
56720,-0.446777,0.874023,0.213867,0
56740,-0.44873,0.86084,0.22168,0
56760,-0.44043,0.85791,0.222168,0
56780,-0.44043,0.866699,0.217285,0
56800,-0.435547,0.875488,0.22168,0
56820,-0.431152,0.861816,0.234863,0
56840,-0.452148,0.857422,0.248047,0
56860,-0.45459,0.853027,0.249023,0
56880,-0.462891,0.861816,0.259277,0
56900,-0.458008,0.856445,0.245605,0
56920,-0.458984,0.850586,0.24707,0
56940,-0.461426,0.853516,0.26709,0
56960,-0.476074,0.871582,0.262207,0
56980,-0.481934,0.877441,0.263184,0
57000,-0.494141,0.862793,0.265625,0
57020,-0.498047,0.854004,0.256348,0
57040,-0.480957,0.844727,0.28418,0
57060,-0.47998,0.847656,0.277832,0
57080,-0.495605,0.845703,0.273438,0
57100,-0.486328,0.849121,0.289551,0
57120,-0.470215,0.840332,0.27832,0
57140,-0.463867,0.816895,0.278809,0
57160,-0.478516,0.817871,0.307129,0
57180,-0.473145,0.817871,0.318848,0
57200,-0.466797,0.829102,0.312012,0
57220,-0.472656,0.830566,0.296387,0
57240,-0.474121,0.818359,0.31543,0
57260,-0.455078,0.8125,0.33252,0
57280,-0.43457,0.82373,0.328613,0
57300,-0.456543,0.839844,0.320312,0
57320,-0.484375,0.82666,0.313477,0
57340,-0.477051,0.81543,0.335449,0
57360,-0.45459,0.819824,0.32373,0
57380,-0.438965,0.835449,0.321777,0
57400,-0.435547,0.818848,0.311523,0
57420,-0.44043,0.789062,0.342285,0
57440,-0.435547,0.803223,0.336914,0
57460,-0.443848,0.82666,0.34082,0
57480,-0.444336,0.84375,0.312012,0
57500,-0.429688,0.814453,0.31543,0
57520,-0.423828,0.814941,0.311523,0
57540,-0.416016,0.824707,0.32959,0
57560,-0.42334,0.836914,0.325684,0
57580,-0.419434,0.828613,0.316406,0
57600,-0.418457,0.817871,0.313965,0
57620,-0.417969,0.825195,0.307129,0
57640,-0.399902,0.839844,0.305664,0
57660,-0.395996,0.83252,0.302246,0
57680,-0.399902,0.821289,0.306641,0
57700,-0.407715,0.817871,0.306641,0
57720,-0.393066,0.827637,0.304688,0
57740,-0.387695,0.828125,0.29834,0
57760,-0.40332,0.830078,0.291016,0
57780,-0.408691,0.823242,0.305176,0
57800,-0.395508,0.828125,0.302734,0
57820,-0.394531,0.842285,0.285156,0
57840,-0.395508,0.848633,0.290527,0
57860,-0.395508,0.830078,0.29541,0
57880,-0.40625,0.836914,0.283691,0
57900,-0.413086,0.854492,0.279297,0
57920,-0.39502,0.852051,0.274902,0
57940,-0.369141,0.858887,0.268555,0
57960,-0.355957,0.869629,0.262695,0
57980,-0.366699,0.85791,0.269531,0
58000,-0.368652,0.859863,0.279785,0
58020,-0.387695,0.856934,0.274414,0
58040,-0.39502,0.871094,0.276367,0
58060,-0.388672,0.887207,0.275391,0
58080,-0.375,0.889648,0.268555,0
58100,-0.37207,0.875977,0.273926,0
58120,-0.371094,0.878906,0.265137,0
58130,-0.359863,0.893555,0.251465,0
58150,-0.357422,0.894531,0.254883,0
58170,-0.366211,0.878418,0.259277,0
58190,-0.361328,0.86377,0.26709,0
58210,-0.351562,0.881348,0.263672,0
58230,-0.341797,0.890625,0.249023,0
58250,-0.330078,0.899902,0.253418,0
58270,-0.332031,0.887695,0.248535,0
58290,-0.339355,0.866211,0.253418,0
58310,-0.334473,0.876953,0.237793,0
58330,-0.350586,0.88623,0.239746,0
58350,-0.367188,0.879883,0.245605,0
58370,-0.336914,0.88916,0.244141,0
58390,-0.333008,0.886719,0.236816,0
58410,-0.333984,0.877441,0.223145,0
58430,-0.318848,0.861328,0.217285,0
58450,-0.310547,0.851562,0.221191,0
58470,-0.344238,0.887695,0.196777,0
58490,-0.350586,0.899902,0.199219,0
58510,-0.35498,0.89209,0.20459,0
58530,-0.374023,0.896973,0.191406,0
58550,-0.362793,0.899902,0.20166,0
58570,-0.353516,0.905273,0.20752,0
58590,-0.364746,0.895996,0.175293,0
58610,-0.364746,0.909668,0.179199,0
58630,-0.369629,0.912598,0.19043,0
58650,-0.354492,0.898438,0.172852,0
58670,-0.361328,0.924805,0.151855,0
58690,-0.385254,0.932617,0.16748,0
58710,-0.373535,0.932617,0.171875,0
58730,-0.364746,0.905273,0.150879,0
58750,-0.362305,0.914551,0.146973,0
58770,-0.380371,0.913574,0.148926,0
58790,-0.384277,0.876953,0.151855,0
58810,-0.357422,0.861816,0.15918,0
58830,-0.368652,0.884277,0.140625,0
58850,-0.380371,0.89209,0.125977,0
58870,-0.382812,0.881836,0.130371,0
58890,-0.37793,0.887207,0.12793,0
58910,-0.394531,0.907227,0.101074,0
58930,-0.396973,0.899414,0.109375,0
58950,-0.39209,0.884277,0.13623,0
58970,-0.389648,0.904297,0.12207,0
58990,-0.395508,0.92041,0.101562,0
59010,-0.388184,0.913574,0.108887,0
59030,-0.387695,0.894531,0.12207,0
59050,-0.393066,0.913574,0.128906,0
59070,-0.413086,0.931152,0.0800781,0
59090,-0.420898,0.943848,0.0893555,0
59110,-0.414551,0.903809,0.0976562,0
59130,-0.405762,0.883301,0.113281,0
59150,-0.382324,0.894043,0.111328,0
59170,-0.388184,0.902832,0.0976562,0
59190,-0.410645,0.881836,0.100586,0
59210,-0.432129,0.92334,0.111328,0
59230,-0.41748,0.925781,0.097168,0
59250,-0.419434,0.924805,0.112305,0
59270,-0.424316,0.905762,0.109375,0
59290,-0.430176,0.89209,0.111328,0
59310,-0.445312,0.910156,0.100098,0
59330,-0.449219,0.910645,0.0917969,0
59350,-0.444336,0.890137,0.0864258,0
59370,-0.433594,0.886719,0.0795898,0
59390,-0.430176,0.914551,0.0595703,0
59410,-0.438965,0.927246,0.0541992,0
59430,-0.463379,0.915039,0.046875,0
59450,-0.448242,0.88623,0.0639648,0
59470,-0.455566,0.885742,0.0556641,0
59490,-0.460449,0.883301,0.0610352,0
59510,-0.482422,0.893555,0.0742188,0
59530,-0.495117,0.888672,0.0668945,0
59550,-0.489746,0.866699,0.0581055,0
59570,-0.501465,0.865723,0.0395508,0
59590,-0.503418,0.85791,0.0390625,0
59610,-0.526367,0.869629,0.0605469,0
59630,-0.527832,0.855957,0.027832,0
59650,-0.527832,0.850098,0.0546875,0
59670,-0.524414,0.858887,0.0498047,0
59690,-0.550781,0.85791,0.0566406,0
59710,-0.566406,0.852051,0.0458984,0
59730,-0.543457,0.854004,0.0292969,0
59750,-0.506348,0.831055,0.0292969,0
59770,-0.50293,0.828613,0.0678711,0
59790,-0.538574,0.827637,0.0571289,0
59810,-0.570312,0.825684,0.0195312,0
59830,-0.546387,0.831543,0.0317383,0
59850,-0.551758,0.822266,0.0551758,0
59870,-0.575684,0.821289,0.0385742,0
59890,-0.598633,0.839844,0.0234375,0
59910,-0.593262,0.852539,0.0317383,0
59930,-0.584473,0.834473,0.0478516,0
59950,-0.60498,0.82373,0.0424805,0
59970,-0.61084,0.825684,0.0332031,0
59990,-0.583008,0.814941,0.0488281,0
60010,-0.587891,0.81543,0.0566406,0
60030,-0.600586,0.813965,0.0493164,0
60050,-0.617676,0.812988,0.0532227,0
60070,-0.623535,0.808594,0.0703125,0
60090,-0.625488,0.802246,0.0864258,0
60110,-0.620117,0.798828,0.074707,0
60130,-0.621094,0.805176,0.0771484,0
60150,-0.62793,0.811035,0.0795898,0
60170,-0.625,0.806152,0.074707,0
60190,-0.615723,0.79248,0.0732422,0
60210,-0.617676,0.785645,0.0878906,0
60230,-0.629395,0.784668,0.0966797,0
60250,-0.635254,0.790039,0.109375,0
60270,-0.644531,0.784668,0.10498,0
60290,-0.655273,0.778809,0.113281,0
60310,-0.674316,0.793457,0.116211,0
60330,-0.686035,0.794922,0.106445,0
60350,-0.681641,0.790527,0.0932617,0
60370,-0.673828,0.780273,0.0991211,0
60390,-0.666992,0.775391,0.11084,0
60410,-0.662598,0.763672,0.103516,0
60430,-0.678711,0.764648,0.134277,0
60450,-0.686523,0.769043,0.129395,0
60470,-0.661621,0.758301,0.119141,0
60490,-0.652832,0.737793,0.135254,0
60510,-0.668945,0.737793,0.154785,0
60530,-0.676758,0.741211,0.160156,0
60550,-0.671387,0.739258,0.151367,0
60570,-0.677734,0.719727,0.160156,0
60590,-0.696777,0.737793,0.180176,0
60610,-0.711426,0.734375,0.165527,0
60630,-0.690918,0.719727,0.185059,0
60650,-0.686523,0.705566,0.189453,0
60670,-0.702148,0.706055,0.210938,0
60690,-0.70752,0.727539,0.192383,0
60710,-0.713379,0.720703,0.196289,0
60730,-0.691406,0.70752,0.214355,0
60750,-0.699707,0.696289,0.224609,0
60770,-0.714355,0.713867,0.216797,0
60790,-0.708984,0.727051,0.217773,0
60810,-0.69043,0.712891,0.227539,0
60830,-0.680176,0.70752,0.242188,0
60850,-0.696777,0.724121,0.237793,0
60870,-0.686035,0.729492,0.254395,0
60890,-0.674316,0.739746,0.26123,0
60910,-0.660645,0.741699,0.244629,0
60930,-0.674316,0.73584,0.256348,0
60950,-0.671387,0.736816,0.272949,0
60970,-0.650879,0.720703,0.272461,0
60990,-0.65332,0.736328,0.275879,0
61010,-0.651855,0.740723,0.29541,0
61030,-0.629883,0.743652,0.293457,0
61050,-0.612793,0.734375,0.286133,0
61070,-0.614746,0.748535,0.297852,0
61090,-0.586426,0.731445,0.304688,0
61110,-0.555664,0.736816,0.306641,0
61130,-0.558105,0.729004,0.297852,0
61150,-0.555176,0.745117,0.293457,0
61170,-0.530273,0.749023,0.304688,0
61190,-0.531738,0.75,0.307129,0
61210,-0.5625,0.76123,0.311523,0
61230,-0.547852,0.779297,0.29541,0
61250,-0.518555,0.794922,0.294922,0
61270,-0.502441,0.778809,0.29248,0
61290,-0.504395,0.756836,0.298828,0
61310,-0.514648,0.77002,0.329102,0
61330,-0.484375,0.79541,0.287598,0
61350,-0.470215,0.793945,0.280273,0
61370,-0.474609,0.78125,0.293945,0
61390,-0.460938,0.772949,0.302734,0
61410,-0.450195,0.789551,0.290039,0
61430,-0.450684,0.798828,0.275879,0
61450,-0.455566,0.791016,0.297363,0
61460,-0.458984,0.788574,0.279785,0
61480,-0.46875,0.794434,0.274414,0
61500,-0.444824,0.800293,0.26123,0
61520,-0.449707,0.809082,0.290527,0
61540,-0.462891,0.813965,0.271484,0
61560,-0.459961,0.847168,0.240234,0
61580,-0.452148,0.827637,0.242188,0
61600,-0.424805,0.80127,0.255859,0
61620,-0.439453,0.819824,0.23291,0
61640,-0.478027,0.841797,0.242676,0
61660,-0.476562,0.845215,0.233887,0
61680,-0.455566,0.832031,0.251465,0
61700,-0.462402,0.845703,0.25293,0
61720,-0.483887,0.839844,0.232422,0
61740,-0.469238,0.838867,0.23291,0
61760,-0.464355,0.837891,0.233887,0
61780,-0.496582,0.846191,0.217285,0
61800,-0.507812,0.834473,0.228027,0
61820,-0.466797,0.820312,0.222656,0
61840,-0.473633,0.828613,0.19873,0
61860,-0.491699,0.82959,0.205078,0
61880,-0.480469,0.837402,0.208008,0
61900,-0.480957,0.839355,0.198242,0
61920,-0.468262,0.836426,0.198242,0
61940,-0.470215,0.836426,0.187988,0
61960,-0.483398,0.838867,0.192383,0
61980,-0.500977,0.844238,0.183105,0
62000,-0.490234,0.84668,0.183105,0
62020,-0.482422,0.863281,0.15918,0
62040,-0.500488,0.866211,0.154785,0
62060,-0.490723,0.848145,0.154785,0
62080,-0.473145,0.842773,0.154297,0
62100,-0.474609,0.858887,0.144043,0
62120,-0.511719,0.86377,0.130371,0
62140,-0.509766,0.859375,0.143555,0
62160,-0.468262,0.845703,0.140625,0
62180,-0.470215,0.848145,0.130859,0
62200,-0.476074,0.852051,0.100098,0
62220,-0.501465,0.852051,0.12793,0
62240,-0.494141,0.87207,0.144531,0
62260,-0.511719,0.880371,0.110352,0
62280,-0.526855,0.877441,0.109863,0
62300,-0.489258,0.866699,0.102051,0
62320,-0.478027,0.861328,0.0859375,0
62340,-0.486328,0.861816,0.0683594,0
62360,-0.499023,0.856445,0.0952148,0
62380,-0.508789,0.861816,0.0996094,0
62400,-0.519531,0.870605,0.0917969,0
62420,-0.538086,0.879883,0.0761719,0
62440,-0.535645,0.862793,0.0795898,0
62460,-0.519531,0.840332,0.0678711,0
62480,-0.521973,0.841309,0.0620117,0
62500,-0.539551,0.839844,0.0678711,0
62520,-0.560547,0.84668,0.0688477,0
62540,-0.552734,0.839355,0.0356445,0
62560,-0.539062,0.820801,0.0400391,0
62580,-0.541992,0.828125,0.0483398,0
62600,-0.563477,0.834473,0.0429688,0
62620,-0.554688,0.824219,0.034668,0
62640,-0.555176,0.82373,0.0419922,0
62660,-0.569336,0.824219,0.0258789,0
62680,-0.575684,0.816895,0.0292969,0
62700,-0.566895,0.811035,0.00634766,0
62720,-0.575195,0.813965,0.0131836,0
62740,-0.563965,0.806152,0.0141602,0
62760,-0.564453,0.804199,0.0112305,0
62780,-0.599609,0.8125,0.00830078,0
62800,-0.62793,0.826172,0.0161133,0
62820,-0.615723,0.817383,0.00683594,0
62840,-0.620117,0.803711,-0.00390625,0
62860,-0.631836,0.821289,0.0214844,0
62880,-0.638184,0.814941,0.00292969,0
62900,-0.647949,0.816895,-0.0078125,0
62920,-0.65625,0.800781,0.00488281,0
62940,-0.655762,0.793945,0.0229492,0
62960,-0.671875,0.790527,0.00195312,0
62980,-0.697266,0.797363,-0.0112305,0
63000,-0.680664,0.789551,-0.00488281,0
63020,-0.656738,0.770508,-0.00683594,0
63040,-0.666016,0.774902,0.0078125,0
63060,-0.686035,0.765625,-0.0180664,0
63080,-0.693848,0.76123,-0.00830078,0
63100,-0.691895,0.749023,-0.00439453,0
63120,-0.689453,0.752441,-0.00146484,0
63140,-0.706055,0.734375,-0.0078125,0
63160,-0.702637,0.731445,-0.0141602,0
63180,-0.691406,0.71875,-0.0126953,0
63200,-0.716309,0.72998,-0.0117188,0
63220,-0.727051,0.720703,-0.0258789,0
63240,-0.730957,0.708496,-0.0263672,0
63260,-0.731445,0.691895,0,0
63280,-0.747559,0.697754,-0.0146484,0
63300,-0.746582,0.714355,-0.0249023,0
63320,-0.740234,0.70166,-0.0307617,0
63340,-0.747559,0.689453,-0.00634766,0
63350,-0.758789,0.682617,-0.0161133,0
63380,-0.755859,0.677734,-0.0102539,0
63400,-0.752441,0.680176,0,0
63410,-0.779785,0.669434,-0.000488281,0
63430,-0.78125,0.671387,-0.00585938,0
63450,-0.763184,0.663086,0.00585938,0
63470,-0.76123,0.65918,0.0131836,0
63490,-0.782715,0.657715,0.0209961,0
63510,-0.796875,0.658203,0.00683594,0
63530,-0.792969,0.656738,0.0361328,0
63550,-0.795898,0.652832,0.0454102,0
63570,-0.79248,0.654785,0.0249023,0
63590,-0.802246,0.651855,0.0302734,0
63610,-0.796387,0.641113,0.0258789,0
63630,-0.804688,0.637207,0.0390625,0
63650,-0.819824,0.636719,0.0473633,0
63670,-0.812012,0.635254,0.0473633,0
63690,-0.797852,0.61377,0.0576172,0
63710,-0.81543,0.620117,0.0668945,0
63730,-0.820801,0.617676,0.0625,0
63750,-0.828125,0.612793,0.0576172,0
63770,-0.826172,0.599121,0.065918,0
63790,-0.82959,0.604004,0.0883789,0
63810,-0.836426,0.605957,0.0703125,0
63830,-0.836914,0.609863,0.0541992,0
63850,-0.80957,0.606445,0.0629883,0
63870,-0.813477,0.584961,0.0820312,0
63890,-0.836426,0.569336,0.131348,0
63910,-0.835449,0.554688,0.117188,0
63930,-0.839844,0.567871,0.109375,0
63950,-0.854004,0.585449,0.116699,0
63970,-0.84375,0.58252,0.131348,0
63990,-0.825195,0.555176,0.129883,0
64010,-0.835938,0.5625,0.122559,0
64030,-0.870117,0.579102,0.130859,0
64050,-0.895996,0.587891,0.128906,0
64070,-0.881836,0.57959,0.164551,0
64090,-0.861328,0.583496,0.163086,0
64110,-0.865234,0.570801,0.155762,0
64130,-0.84375,0.576172,0.164551,0
64150,-0.851562,0.573242,0.16748,0
64170,-0.837891,0.584473,0.179688,0
64190,-0.840332,0.580566,0.177246,0
64210,-0.827637,0.583008,0.17041,0
64230,-0.802246,0.583496,0.196777,0
64250,-0.79541,0.578613,0.200684,0
64270,-0.821777,0.584473,0.208984,0
64290,-0.812012,0.599609,0.214355,0
64310,-0.809082,0.598145,0.231934,0
64330,-0.810547,0.586914,0.242676,0
64350,-0.810059,0.592773,0.221191,0
64370,-0.789551,0.604492,0.237793,0
64390,-0.763672,0.600098,0.250977,0
64410,-0.765625,0.580566,0.253418,0
64430,-0.770508,0.598145,0.257324,0
64450,-0.751953,0.615723,0.26709,0
64470,-0.732422,0.600098,0.269043,0
64490,-0.724609,0.597656,0.277344,0
64510,-0.716797,0.600098,0.29248,0
64530,-0.713867,0.599121,0.29248,0
64550,-0.729492,0.616699,0.296387,0
64570,-0.716797,0.63623,0.286621,0
64590,-0.707031,0.635254,0.310059,0
64610,-0.691895,0.619141,0.313477,0
64630,-0.689453,0.626953,0.320312,0
64650,-0.682129,0.639648,0.312988,0
64670,-0.66748,0.649414,0.32373,0
64690,-0.660645,0.648438,0.319824,0
64710,-0.666504,0.647949,0.319336,0
64730,-0.665039,0.660156,0.329102,0
64750,-0.658203,0.680664,0.315918,0
64770,-0.652344,0.665039,0.342285,0
64790,-0.645508,0.661621,0.355469,0
64810,-0.656738,0.689941,0.336426,0
64830,-0.648438,0.682129,0.345215,0
64850,-0.627441,0.679688,0.334473,0
64870,-0.614746,0.678711,0.339844,0
64890,-0.581543,0.65918,0.335938,0
64910,-0.601074,0.681152,0.329102,0
64930,-0.588867,0.681152,0.32959,0
64950,-0.578613,0.691895,0.337891,0
64970,-0.595703,0.689453,0.333984,0
64990,-0.585449,0.685547,0.331543,0
65010,-0.578125,0.686035,0.32959,0
65030,-0.586914,0.703125,0.32666,0
65050,-0.57666,0.708984,0.332031,0
65070,-0.589355,0.723145,0.314453,0
65090,-0.589844,0.70459,0.31543,0
65110,-0.563965,0.714355,0.29834,0
65130,-0.583984,0.724609,0.294922,0
65150,-0.604004,0.713867,0.299805,0
65170,-0.609375,0.72168,0.293457,0
65190,-0.618652,0.745117,0.283203,0
65210,-0.621582,0.746094,0.270996,0
65230,-0.630371,0.742676,0.274902,0
65250,-0.634766,0.754395,0.268555,0
65270,-0.623535,0.765137,0.257812,0
65290,-0.602539,0.753418,0.250488,0
65310,-0.580078,0.749023,0.244141,0
65330,-0.574707,0.727051,0.250977,0
65350,-0.606934,0.739746,0.234375,0
65370,-0.611328,0.773926,0.244629,0
65390,-0.60498,0.768066,0.237793,0
65410,-0.60498,0.757324,0.234863,0
65430,-0.608887,0.754883,0.247559,0
65450,-0.585938,0.761719,0.222656,0
65470,-0.57373,0.748047,0.211426,0
65490,-0.597168,0.755371,0.213379,0
65510,-0.60498,0.76123,0.222656,0
65530,-0.619141,0.759277,0.214844,0
65550,-0.604492,0.760254,0.206543,0
65570,-0.611328,0.767578,0.186035,0
65590,-0.61377,0.76709,0.168945,0
65610,-0.612305,0.775879,0.169434,0
65630,-0.617188,0.78418,0.157227,0
65650,-0.59375,0.785645,0.172852,0
65670,-0.611328,0.788574,0.150879,0
65690,-0.622559,0.785156,0.138672,0
65710,-0.603516,0.781738,0.15625,0
65730,-0.588867,0.788574,0.146973,0
65750,-0.60498,0.791992,0.134277,0
65770,-0.600586,0.77832,0.126953,0
65790,-0.60498,0.805664,0.122559,0
65810,-0.627441,0.812988,0.114258,0
65830,-0.625977,0.796875,0.100586,0
65850,-0.626465,0.803223,0.111328,0
65870,-0.630371,0.809082,0.122559,0
65890,-0.618652,0.814453,0.0952148,0
65910,-0.622559,0.807617,0.0893555,0
65930,-0.602539,0.800781,0.0888672,0
65950,-0.594727,0.807129,0.0786133,0
65970,-0.603516,0.788574,0.0629883,0
65990,-0.589355,0.806641,0.0585938,0
66010,-0.605957,0.810059,0.043457,0
66030,-0.60791,0.792969,0.03125,0
66050,-0.599121,0.789551,0.0585938,0
66070,-0.611816,0.798828,0.0351562,0
66090,-0.616211,0.791016,0.00634766,0
66110,-0.625,0.795898,0.00341797,0
66130,-0.632324,0.789062,0.00195312,0
66150,-0.615234,0.787109,-0.00537109,0
66170,-0.611328,0.787598,-0.0195312,0
66190,-0.588867,0.755371,-0.0234375,0
66210,-0.611816,0.765625,-0.0229492,0
66230,-0.63623,0.762695,-0.0209961,0
66250,-0.639648,0.761719,-0.0214844,0
66270,-0.630859,0.762695,-0.0170898,0
66290,-0.65332,0.744629,-0.0366211,0
66310,-0.645996,0.752441,-0.0537109,0
66330,-0.655762,0.738281,-0.0634766,0
66350,-0.658203,0.74707,-0.0551758,0
66370,-0.658691,0.737305,-0.0527344,0
66390,-0.683105,0.736816,-0.0507812,0
66410,-0.699707,0.718262,-0.0493164,0
66430,-0.694824,0.72998,-0.0703125,0
66450,-0.701172,0.711426,-0.0698242,0
66470,-0.720215,0.723145,-0.0810547,0
66490,-0.724121,0.741699,-0.0766602,0
66510,-0.726074,0.719238,-0.0678711,0
66530,-0.72998,0.698242,-0.0913086,0
66550,-0.757324,0.708984,-0.0776367,0
66570,-0.78125,0.714355,-0.0649414,0
66590,-0.778809,0.717773,-0.0800781,0
66610,-0.781738,0.703125,-0.0703125,0
66630,-0.79248,0.681152,-0.0961914,0
66650,-0.80127,0.687012,-0.0878906,0
66670,-0.822754,0.6875,-0.0864258,0
66690,-0.817383,0.65625,-0.0786133,0
66710,-0.795898,0.649414,-0.0961914,0
66730,-0.795898,0.643555,-0.110352,0
66750,-0.813477,0.637695,-0.0849609,0
66760,-0.834473,0.632812,-0.097168,0
66780,-0.818359,0.617188,-0.104004,0
66800,-0.825684,0.606445,-0.106445,0
66820,-0.838867,0.588379,-0.107422,0
66840,-0.864258,0.596191,-0.11377,0
66860,-0.853516,0.583984,-0.111328,0
66880,-0.877441,0.568359,-0.125977,0
66900,-0.885742,0.560547,-0.102051,2001
66920,-0.910156,0.573242,-0.117188,0
66940,-0.916016,0.571777,-0.116211,0
66960,-0.918457,0.570801,-0.0908203,0
66980,-0.913086,0.550293,-0.0751953,0
67000,-0.911621,0.547363,-0.0786133,0
67020,-0.915039,0.545898,-0.0791016,0
67040,-0.873535,0.550293,-0.0800781,0
67060,-0.866699,0.532715,-0.0634766,0
67080,-0.866699,0.533203,-0.0493164,0
67100,-0.849609,0.507812,-0.0761719,0
