Timestamp, Acceleration x, Acceleration y, Acceleration z, Marker
20,-0.861816,-0.562988,-0.162109,0
50,-0.868164,-0.562988,-0.155273,0
70,-0.875,-0.55957,-0.158203,0
90,-0.874512,-0.557617,-0.165527,0
110,-0.873535,-0.553711,-0.156738,0
120,-0.868652,-0.558105,-0.163086,0
130,-0.864746,-0.557129,-0.152832,0
170,-0.86377,-0.559082,-0.155273,0
190,-0.870605,-0.556641,-0.160156,0
210,-0.874023,-0.558594,-0.154785,0
230,-0.875488,-0.562012,-0.157715,0
250,-0.875977,-0.562012,-0.156738,0
270,-0.873047,-0.557617,-0.157715,0
290,-0.871582,-0.557129,-0.15625,0
310,-0.865234,-0.551758,-0.151855,0
330,-0.866699,-0.556641,-0.155762,0
350,-0.869141,-0.557129,-0.15918,0
370,-0.874512,-0.553711,-0.162109,0
390,-0.873047,-0.555176,-0.15625,0
410,-0.87793,-0.559082,-0.155273,0
430,-0.871094,-0.549316,-0.156738,0
450,-0.868652,-0.558594,-0.155762,0
470,-0.871094,-0.561035,-0.159668,0
490,-0.872559,-0.558105,-0.156738,0
510,-0.875,-0.555664,-0.154297,0
530,-0.873535,-0.552734,-0.160645,0
550,-0.873535,-0.556152,-0.15332,0
570,-0.87207,-0.559082,-0.156738,0
590,-0.870117,-0.549316,-0.158203,0
610,-0.863281,-0.554199,-0.159668,0
630,-0.869141,-0.563965,-0.155273,0
650,-0.883301,-0.5625,-0.157227,0
670,-0.883301,-0.561035,-0.163086,0
690,-0.876465,-0.54834,-0.16748,0
710,-0.864258,-0.552734,-0.162109,0
730,-0.865234,-0.555664,-0.15332,0
750,-0.865723,-0.557129,-0.153809,0
770,-0.877441,-0.552734,-0.160645,0
790,-0.879395,-0.557617,-0.160645,0
810,-0.873535,-0.562012,-0.162598,0
830,-0.876953,-0.561035,-0.155762,0
850,-0.866699,-0.553223,-0.15625,0
870,-0.862305,-0.555176,-0.155273,0
890,-0.864258,-0.5625,-0.158203,0
910,-0.873535,-0.566406,-0.15625,0
930,-0.875,-0.554199,-0.156738,0
950,-0.87793,-0.555176,-0.157227,0
970,-0.872559,-0.547363,-0.157715,0
990,-0.865723,-0.557129,-0.158691,0
1010,-0.865234,-0.561035,-0.163574,0
1030,-0.871094,-0.561035,-0.166016,0
1050,-0.874512,-0.556641,-0.165039,0
1070,-0.873535,-0.559082,-0.158691,0
1090,-0.875488,-0.563965,-0.155273,0
1110,-0.872559,-0.55957,-0.154785,0
1130,-0.871582,-0.55957,-0.162598,0
1150,-0.869629,-0.561523,-0.154297,0
1170,-0.870117,-0.558594,-0.158203,0
1190,-0.871094,-0.557129,-0.156738,0
1210,-0.869629,-0.564941,-0.158203,0
1230,-0.870605,-0.56543,-0.159668,0
1250,-0.870605,-0.560547,-0.157227,0
1270,-0.870605,-0.558594,-0.16748,0
1290,-0.867676,-0.5625,-0.151367,0
1310,-0.865234,-0.560547,-0.160156,0
1330,-0.872559,-0.559082,-0.15625,0
1350,-0.874023,-0.561523,-0.155762,0
1360,-0.877441,-0.55957,-0.158203,0
1380,-0.870605,-0.557129,-0.164062,0
1400,-0.871582,-0.563965,-0.150879,0
1420,-0.873047,-0.556152,-0.148438,0
1440,-0.866211,-0.555664,-0.15625,0
1460,-0.869141,-0.558594,-0.157227,0
1480,-0.869629,-0.563477,-0.157227,0
1500,-0.86377,-0.562012,-0.157227,0
1520,-0.871094,-0.568848,-0.151855,0
1540,-0.876465,-0.569336,-0.159668,0
1560,-0.879883,-0.555176,-0.158203,0
1580,-0.874023,-0.552246,-0.15918,0
1600,-0.860352,-0.560059,-0.150879,0
1620,-0.860352,-0.561523,-0.152344,0
1640,-0.868652,-0.561035,-0.157715,0
1660,-0.867676,-0.566895,-0.163574,0
1680,-0.876953,-0.565918,-0.159668,0
1700,-0.871094,-0.563965,-0.158203,0
1720,-0.873047,-0.5625,-0.155273,0
1740,-0.868164,-0.563477,-0.157227,0
1760,-0.867676,-0.558105,-0.15625,0
1780,-0.862305,-0.559082,-0.160156,0
1800,-0.868652,-0.568848,-0.150391,0
1820,-0.869141,-0.568848,-0.155762,0
1840,-0.875977,-0.564453,-0.162598,0
1860,-0.873047,-0.555176,-0.160156,0
1880,-0.867676,-0.559082,-0.15918,0
1900,-0.861816,-0.56543,-0.155762,0
1920,-0.862793,-0.562012,-0.159668,0
1940,-0.860352,-0.563477,-0.158203,0
1960,-0.875,-0.5625,-0.154297,0
1980,-0.875,-0.562988,-0.156738,0
2000,-0.867676,-0.563965,-0.155762,0
2020,-0.868652,-0.562012,-0.151855,0
2040,-0.864746,-0.556641,-0.152832,0
2060,-0.869629,-0.5625,-0.157227,0
2080,-0.869141,-0.562012,-0.152344,0
2100,-0.866699,-0.562012,-0.161133,0
2120,-0.870117,-0.556152,-0.154785,0
2140,-0.871094,-0.561035,-0.158203,0
2160,-0.870117,-0.562012,-0.156738,0
2180,-0.867676,-0.562012,-0.152344,0
2200,-0.873535,-0.568359,-0.161621,0
2220,-0.873047,-0.562988,-0.160156,0
2240,-0.872559,-0.563965,-0.155273,0
2260,-0.868164,-0.559082,-0.15918,0
2280,-0.870605,-0.5625,-0.155762,0
2300,-0.869141,-0.559082,-0.15918,0
2320,-0.870117,-0.557617,-0.153809,0
2340,-0.871094,-0.563477,-0.157227,0
2360,-0.870605,-0.556641,-0.153809,0
2380,-0.867188,-0.558594,-0.162598,0
2400,-0.864746,-0.558594,-0.161133,0
2420,-0.863281,-0.564453,-0.161133,0
2440,-0.864746,-0.567871,-0.150391,0
2460,-0.874512,-0.569824,-0.154297,0
2480,-0.888184,-0.561035,-0.161133,0
2500,-0.875,-0.553223,-0.162598,0
2520,-0.864746,-0.557129,-0.151367,0
2540,-0.861816,-0.560547,-0.149902,0
2560,-0.862305,-0.555664,-0.15332,0
2580,-0.869141,-0.560059,-0.156738,0
2600,-0.874023,-0.564453,-0.166504,0
2620,-0.873047,-0.569824,-0.163574,0
2640,-0.870117,-0.568359,-0.155273,0
2660,-0.871582,-0.563477,-0.160645,0
2680,-0.866211,-0.563477,-0.156738,0
2700,-0.86377,-0.557129,-0.151855,0
2720,-0.86084,-0.5625,-0.151855,0
2740,-0.874512,-0.568359,-0.15332,0
2760,-0.876953,-0.563477,-0.155273,0
2780,-0.879883,-0.555176,-0.155762,0
2800,-0.870117,-0.558105,-0.151855,0
2820,-0.862305,-0.557129,-0.152344,0
2840,-0.859375,-0.5625,-0.160645,0
2860,-0.866211,-0.564453,-0.162109,0
2880,-0.875,-0.569336,-0.15625,0
2900,-0.874512,-0.5625,-0.159668,0
2920,-0.873047,-0.55957,-0.160645,0
2940,-0.87207,-0.563477,-0.160156,0
2960,-0.868652,-0.561523,-0.15332,0
2980,-0.868164,-0.552734,-0.150879,0
3000,-0.867188,-0.561035,-0.15918,0
3020,-0.868652,-0.560547,-0.15918,0
3040,-0.874023,-0.562012,-0.160645,0
3060,-0.871582,-0.563477,-0.154297,0
3080,-0.872559,-0.5625,-0.158203,0
3100,-0.870117,-0.562988,-0.162109,0
3120,-0.869141,-0.557129,-0.155762,0
3140,-0.864258,-0.557129,-0.158691,0
3160,-0.869141,-0.557617,-0.161621,0
3180,-0.867676,-0.560547,-0.157227,0
3200,-0.869141,-0.563965,-0.154297,0
3220,-0.87207,-0.565918,-0.161133,0
3240,-0.87207,-0.554199,-0.160156,0
3260,-0.87207,-0.559082,-0.158203,0
3280,-0.870117,-0.561523,-0.157715,0
3300,-0.870605,-0.554688,-0.157227,0
3320,-0.869629,-0.554199,-0.156738,0
3340,-0.867676,-0.557617,-0.160645,0
3360,-0.865234,-0.554199,-0.161621,0
3380,-0.864258,-0.563965,-0.15918,0
3400,-0.878418,-0.574707,-0.155273,0
3420,-0.888672,-0.564453,-0.15918,0
3440,-0.878906,-0.550293,-0.169434,0
3460,-0.859863,-0.547363,-0.157715,0
3480,-0.859375,-0.554688,-0.148926,0
3500,-0.866211,-0.563965,-0.155273,0
3520,-0.875488,-0.562988,-0.166504,0
3540,-0.88623,-0.561523,-0.162598,0
3560,-0.880371,-0.559082,-0.159668,0
3580,-0.867676,-0.55957,-0.154297,0
3600,-0.862305,-0.561523,-0.161133,0
3620,-0.861816,-0.560059,-0.162598,0
3640,-0.867188,-0.555176,-0.158691,0
3660,-0.876465,-0.561035,-0.152832,0
3680,-0.880371,-0.566406,-0.15332,0
3700,-0.872559,-0.553711,-0.157227,0
3720,-0.871094,-0.555664,-0.155762,0
3740,-0.867188,-0.556641,-0.151855,0
3760,-0.866699,-0.560547,-0.15918,0
3780,-0.871094,-0.557617,-0.162109,0
3800,-0.874512,-0.566406,-0.17041,0
3820,-0.868652,-0.562988,-0.165039,0
3840,-0.870605,-0.55957,-0.15918,0
3860,-0.869629,-0.558594,-0.161133,0
3880,-0.873047,-0.558594,-0.162109,0
3900,-0.873047,-0.558105,-0.158691,0
3920,-0.867676,-0.558105,-0.161133,0
3940,-0.863281,-0.558105,-0.158691,0
3960,-0.869629,-0.564453,-0.161621,0
3980,-0.876465,-0.558105,-0.159668,0
4000,-0.878418,-0.557617,-0.158691,0
4020,-0.875977,-0.557617,-0.162109,0
4030,-0.866699,-0.560059,-0.155273,0
4050,-0.861816,-0.564453,-0.156738,0
4070,-0.873535,-0.563477,-0.163086,0
4090,-0.878418,-0.552246,-0.160645,0
4110,-0.876953,-0.554688,-0.154785,0
4130,-0.873535,-0.561035,-0.162109,0
4150,-0.866211,-0.56543,-0.156738,0
4170,-0.866211,-0.553711,-0.163086,0
4190,-0.871094,-0.550781,-0.163086,0
4210,-0.875977,-0.553711,-0.157227,0
4230,-0.875,-0.556152,-0.162109,0
4250,-0.868164,-0.554199,-0.15918,0
4270,-0.856934,-0.5625,-0.151367,0
4290,-0.867676,-0.567383,-0.150391,0
4310,-0.881348,-0.5625,-0.158691,0
4330,-0.893066,-0.549316,-0.160156,0
4350,-0.875977,-0.549316,-0.164062,0
4370,-0.860352,-0.553711,-0.152344,0
4390,-0.858398,-0.563477,-0.154785,0
4410,-0.865234,-0.561035,-0.15918,0
4430,-0.873535,-0.556152,-0.171387,0
4450,-0.880859,-0.562012,-0.162109,0
4470,-0.877441,-0.567871,-0.165039,0
4490,-0.87793,-0.55957,-0.158691,0
4510,-0.881836,-0.546875,-0.157715,0
4530,-0.862793,-0.54834,-0.152344,0
4550,-0.855957,-0.561035,-0.149414,0
4570,-0.850586,-0.569336,-0.154785,0
4590,-0.868164,-0.565918,-0.165039,0
4610,-0.883789,-0.558105,-0.173828,0
4630,-0.881348,-0.550293,-0.167969,0
4650,-0.878418,-0.561035,-0.161133,0
4670,-0.875,-0.55957,-0.164551,0
4690,-0.876953,-0.553223,-0.158691,0
4710,-0.875488,-0.557617,-0.155762,0
4730,-0.860352,-0.560059,-0.152832,0
4750,-0.853516,-0.562988,-0.149902,0
4770,-0.849609,-0.563965,-0.162598,0
4790,-0.864258,-0.557129,-0.16748,0
4810,-0.887207,-0.560059,-0.165039,0
4830,-0.893066,-0.558594,-0.162109,0
4850,-0.88623,-0.560059,-0.162109,0
4870,-0.88623,-0.553223,-0.153809,0
4890,-0.881348,-0.544922,-0.144531,0
4910,-0.854004,-0.550781,-0.147949,0
4930,-0.841797,-0.567383,-0.144043,0
4950,-0.835938,-0.578613,-0.161621,0
4970,-0.869141,-0.558594,-0.169922,0
4990,-0.881348,-0.562012,-0.166016,0
5010,-0.902344,-0.558105,-0.168945,0
5030,-0.88916,-0.555176,-0.156738,0
5050,-0.877441,-0.564453,-0.160156,0
5070,-0.87793,-0.543945,-0.143066,0
5090,-0.883301,-0.535645,-0.145508,0
5110,-0.856934,-0.550293,-0.140625,0
5130,-0.835938,-0.564941,-0.152344,0
5150,-0.827148,-0.575195,-0.163574,0
5170,-0.856934,-0.571777,-0.169434,0
5190,-0.883789,-0.567871,-0.177734,0
5210,-0.906738,-0.567871,-0.17334,0
5230,-0.903809,-0.573242,-0.162109,0
5250,-0.88916,-0.564453,-0.165527,0
5270,-0.876953,-0.545898,-0.157227,0
5290,-0.875,-0.535645,-0.141602,0
5310,-0.861328,-0.535645,-0.138672,0
5330,-0.828613,-0.557129,-0.138672,0
5350,-0.816895,-0.57666,-0.156738,0
5370,-0.842773,-0.589355,-0.166016,0
5390,-0.890625,-0.573242,-0.17627,0
5410,-0.915527,-0.555176,-0.178223,0
5430,-0.908203,-0.557129,-0.174805,0
5450,-0.880371,-0.570312,-0.166992,0
5470,-0.864746,-0.569824,-0.155273,0
5490,-0.873047,-0.547852,-0.141602,0
5510,-0.876953,-0.532227,-0.141602,0
5530,-0.853027,-0.546875,-0.14502,0
5550,-0.821777,-0.570801,-0.152832,0
5570,-0.831055,-0.578125,-0.164062,0
5590,-0.868652,-0.567383,-0.172852,0
5610,-0.905273,-0.55127,-0.171875,0
5630,-0.913086,-0.556641,-0.174805,0
5650,-0.904297,-0.564453,-0.17041,0
5670,-0.879395,-0.563965,-0.161133,0
5690,-0.871094,-0.550781,-0.150391,0
5710,-0.881348,-0.527832,-0.144043,0
5730,-0.852051,-0.546875,-0.141113,0
5750,-0.82959,-0.567871,-0.148926,0
5770,-0.81543,-0.575195,-0.156738,0
5790,-0.856934,-0.580078,-0.160156,0
5810,-0.904297,-0.562012,-0.177246,0
5830,-0.916016,-0.549316,-0.178711,0
5850,-0.910156,-0.5625,-0.168945,0
5870,-0.875,-0.564941,-0.158203,0
5890,-0.867188,-0.555176,-0.157715,0
5910,-0.876953,-0.538086,-0.152344,0
5930,-0.867188,-0.531738,-0.147949,0
5950,-0.84375,-0.545898,-0.148926,0
5970,-0.82666,-0.560547,-0.154297,0
5990,-0.845215,-0.580566,-0.153809,0
6010,-0.884766,-0.57373,-0.165527,0
6030,-0.90918,-0.548828,-0.182129,0
6050,-0.916016,-0.55127,-0.176758,0
6070,-0.884766,-0.560547,-0.169922,0
6090,-0.860352,-0.565918,-0.157227,0
6110,-0.878418,-0.55127,-0.146973,0
6130,-0.888672,-0.540527,-0.154785,0
6150,-0.867188,-0.527832,-0.152832,0
6170,-0.82959,-0.546387,-0.15918,0
6190,-0.816895,-0.573242,-0.151855,0
6210,-0.856934,-0.580078,-0.164551,0
6230,-0.897461,-0.558594,-0.174805,0
6250,-0.928223,-0.550293,-0.183105,0
6270,-0.908203,-0.55957,-0.166504,0
6290,-0.883789,-0.568848,-0.160156,0
6310,-0.863281,-0.556641,-0.159668,0
6330,-0.861328,-0.540039,-0.157715,0
6350,-0.866699,-0.527344,-0.151367,0
6370,-0.854492,-0.543457,-0.145996,0
6390,-0.83252,-0.566406,-0.158691,0
6410,-0.841309,-0.577637,-0.159668,0
6430,-0.880371,-0.568848,-0.17334,0
6450,-0.90332,-0.553223,-0.176758,0
6470,-0.908203,-0.554688,-0.177246,0
6490,-0.887207,-0.560059,-0.170898,0
6510,-0.863281,-0.562988,-0.164551,0
6530,-0.86084,-0.554199,-0.155273,0
6550,-0.874512,-0.537598,-0.155273,0
6570,-0.881348,-0.532227,-0.160156,0
6590,-0.855469,-0.545898,-0.153809,0
6610,-0.831543,-0.567383,-0.152832,0
6630,-0.839844,-0.572266,-0.158203,0
6650,-0.878418,-0.572266,-0.164062,0
6670,-0.905273,-0.554199,-0.169922,0
6690,-0.912598,-0.548828,-0.176758,0
6700,-0.893066,-0.560059,-0.172363,0
6720,-0.864746,-0.56543,-0.155762,0
6740,-0.854492,-0.558105,-0.150391,0
6760,-0.872559,-0.530762,-0.156738,0
6780,-0.873535,-0.535645,-0.157227,0
6800,-0.85498,-0.556641,-0.154297,0
6820,-0.833496,-0.570312,-0.156738,0
6840,-0.852539,-0.57373,-0.162598,0
6860,-0.884766,-0.570312,-0.167969,0
6880,-0.902832,-0.554688,-0.167969,0
6900,-0.901367,-0.544922,-0.17041,0
6920,-0.878906,-0.567383,-0.166992,0
6940,-0.875488,-0.57666,-0.155762,0
6960,-0.871094,-0.558105,-0.157227,0
6980,-0.875,-0.534668,-0.162109,0
7000,-0.862305,-0.535156,-0.157227,0
7020,-0.837402,-0.557617,-0.154785,0
7040,-0.832031,-0.577148,-0.162598,0
7060,-0.870117,-0.58252,-0.17627,0
7080,-0.885742,-0.571777,-0.169434,0
7100,-0.90625,-0.563965,-0.168945,0
7120,-0.900879,-0.557129,-0.165527,0
7140,-0.882324,-0.560059,-0.160156,0
7160,-0.856445,-0.553711,-0.151367,0
7180,-0.842773,-0.54834,-0.14502,0
7200,-0.844727,-0.556152,-0.146973,0
7220,-0.860352,-0.564453,-0.15625,0
7240,-0.878906,-0.573242,-0.171387,0
7260,-0.892578,-0.567383,-0.173828,0
7280,-0.889648,-0.561035,-0.171387,0
7300,-0.875,-0.559082,-0.167969,0
7320,-0.871582,-0.563965,-0.157227,0
7340,-0.868164,-0.552246,-0.157227,0
7360,-0.867188,-0.541504,-0.15625,0
7380,-0.855469,-0.553711,-0.146973,0
7400,-0.844727,-0.571289,-0.147461,0
7420,-0.855957,-0.577637,-0.158691,0
7440,-0.877441,-0.571777,-0.169922,0
7460,-0.881348,-0.567871,-0.17627,0
7480,-0.885254,-0.551758,-0.175781,0
7500,-0.874512,-0.569336,-0.167969,0
7520,-0.86377,-0.573242,-0.161621,0
7540,-0.865723,-0.561523,-0.166504,0
7560,-0.878906,-0.546387,-0.162598,0
7580,-0.884766,-0.550781,-0.155273,0
7600,-0.852051,-0.557129,-0.149902,0
7620,-0.825195,-0.570801,-0.157715,0
7640,-0.840332,-0.574707,-0.15918,0
7660,-0.87207,-0.574219,-0.160645,0
7680,-0.906738,-0.548828,-0.170898,0
7700,-0.906738,-0.556152,-0.165527,0
7720,-0.883301,-0.571777,-0.162109,0
7740,-0.859863,-0.565918,-0.157227,0
7760,-0.851074,-0.546387,-0.153809,0
7780,-0.866699,-0.553711,-0.143555,0
7800,-0.871094,-0.550293,-0.148438,0
7820,-0.852051,-0.566406,-0.162598,0
7840,-0.84082,-0.574219,-0.167969,0
7860,-0.859375,-0.57959,-0.163086,0
7880,-0.887207,-0.566895,-0.174316,0
7900,-0.903809,-0.555176,-0.171387,0
7920,-0.893066,-0.563477,-0.171387,0
7940,-0.871094,-0.565918,-0.165039,0
7960,-0.861328,-0.566895,-0.150879,0
7980,-0.859375,-0.554199,-0.15625,0
8000,-0.854004,-0.543945,-0.155762,0
8020,-0.840332,-0.557617,-0.157715,0
8040,-0.841309,-0.574219,-0.156738,0
8060,-0.864746,-0.583984,-0.161133,0
8080,-0.89209,-0.566895,-0.172852,0
8100,-0.905273,-0.555176,-0.17627,0
8120,-0.893555,-0.558105,-0.158691,0
8140,-0.876465,-0.553223,-0.151855,0
8160,-0.861816,-0.54834,-0.150879,0
8180,-0.855469,-0.549805,-0.152832,0
8200,-0.855957,-0.550781,-0.152832,0
8220,-0.848633,-0.567871,-0.155273,0
8240,-0.860352,-0.575684,-0.166504,0
8260,-0.880371,-0.567871,-0.170898,0
8280,-0.89209,-0.558594,-0.16748,0
8300,-0.890137,-0.55957,-0.168945,0
8320,-0.878418,-0.5625,-0.162109,0
8340,-0.865234,-0.561035,-0.160156,0
8360,-0.866211,-0.556641,-0.157227,0
8380,-0.876465,-0.550781,-0.159668,0
8400,-0.874512,-0.545898,-0.155762,0
8420,-0.851074,-0.557129,-0.156738,0
8440,-0.830566,-0.574219,-0.155762,0
8460,-0.854004,-0.57959,-0.160645,0
8480,-0.88623,-0.563477,-0.165527,0
8500,-0.905762,-0.553711,-0.174805,0
8520,-0.900879,-0.556152,-0.161133,0
8540,-0.878906,-0.557617,-0.157227,0
8560,-0.86084,-0.558594,-0.149902,0
8580,-0.867676,-0.550293,-0.162109,0
8600,-0.862305,-0.536133,-0.157715,0
8620,-0.848145,-0.552734,-0.147949,0
8640,-0.847656,-0.579102,-0.155273,0
8660,-0.868652,-0.57373,-0.160645,0
8680,-0.890625,-0.556641,-0.174805,0
8700,-0.888672,-0.554688,-0.174805,0
8720,-0.884766,-0.560547,-0.163574,0
8740,-0.87793,-0.55957,-0.157715,0
8760,-0.86377,-0.555176,-0.161621,0
8780,-0.869629,-0.555176,-0.157227,0
8800,-0.87207,-0.543457,-0.162109,0
8820,-0.859863,-0.546875,-0.15625,0
8840,-0.849121,-0.578125,-0.160645,0
8860,-0.847168,-0.57373,-0.165039,0
8880,-0.867676,-0.566406,-0.172852,0
8900,-0.891113,-0.563965,-0.172852,0
8920,-0.895508,-0.561035,-0.166016,0
8940,-0.891113,-0.557129,-0.165527,0
8960,-0.874023,-0.556152,-0.156738,0
8980,-0.861816,-0.554199,-0.157715,0
9000,-0.872559,-0.541992,-0.157715,0
9020,-0.864746,-0.541016,-0.161621,0
9040,-0.841309,-0.562012,-0.15332,0
9060,-0.841797,-0.575195,-0.164551,0
9080,-0.865723,-0.570312,-0.166016,0
9100,-0.88916,-0.563965,-0.169922,0
9120,-0.905762,-0.55957,-0.172852,0
9140,-0.891113,-0.555664,-0.168457,0
9160,-0.868164,-0.56543,-0.162109,0
9180,-0.85791,-0.564453,-0.162598,0
9200,-0.859863,-0.544434,-0.165039,0
9220,-0.874023,-0.533691,-0.158691,0
9240,-0.866211,-0.547852,-0.15918,0
9260,-0.846191,-0.565918,-0.162109,0
9280,-0.84082,-0.575684,-0.162598,0
9300,-0.869141,-0.573242,-0.15918,0
9320,-0.896973,-0.559082,-0.174805,0
9340,-0.912598,-0.547363,-0.177246,0
9360,-0.891113,-0.555664,-0.167969,0
9370,-0.862305,-0.55957,-0.158691,0
9390,-0.85498,-0.549805,-0.154297,0
9410,-0.85498,-0.542969,-0.152832,0
9430,-0.883301,-0.553223,-0.155762,0
9450,-0.875977,-0.556641,-0.163086,0
9470,-0.849609,-0.554199,-0.168945,0
9490,-0.845703,-0.566406,-0.165527,0
9510,-0.866699,-0.571289,-0.162109,0
9530,-0.890625,-0.564453,-0.169434,0
9550,-0.899902,-0.554688,-0.174805,0
9570,-0.890137,-0.559082,-0.165039,0
9590,-0.871094,-0.567383,-0.160156,0
9610,-0.857422,-0.561035,-0.154785,0
9630,-0.861816,-0.554688,-0.161621,0
9650,-0.856934,-0.551758,-0.165039,0
9670,-0.859863,-0.560059,-0.165039,0
9690,-0.867676,-0.561523,-0.163574,0
9710,-0.870117,-0.564453,-0.164062,0
9730,-0.873535,-0.561523,-0.157715,0
9750,-0.885742,-0.558594,-0.15918,0
9770,-0.879883,-0.554199,-0.157227,0
9790,-0.871094,-0.557617,-0.154785,0
9810,-0.869629,-0.562988,-0.156738,0
9830,-0.862305,-0.557617,-0.159668,0
9850,-0.864746,-0.561035,-0.161133,0
9870,-0.864746,-0.558594,-0.164551,0
9890,-0.871094,-0.563965,-0.165039,0
9910,-0.872559,-0.573242,-0.166016,0
9930,-0.875,-0.55957,-0.163574,0
9950,-0.877441,-0.553223,-0.157715,0
9970,-0.873535,-0.559082,-0.163574,0
9990,-0.869141,-0.556152,-0.163574,0
10010,-0.867188,-0.557617,-0.156738,0
10030,-0.868164,-0.564941,-0.157715,0
10050,-0.866699,-0.560059,-0.15625,0
10070,-0.867676,-0.566406,-0.15918,0
10090,-0.868652,-0.566406,-0.165527,0
10110,-0.872559,-0.559082,-0.165039,0
10130,-0.871094,-0.560547,-0.165527,0
10150,-0.874023,-0.558105,-0.15625,0
10170,-0.871582,-0.556641,-0.15625,0
10190,-0.867676,-0.557617,-0.159668,0
10210,-0.867676,-0.550293,-0.161133,0
10230,-0.861328,-0.560547,-0.154297,0
10250,-0.867188,-0.565918,-0.158203,0
10270,-0.871582,-0.570801,-0.164551,0
10290,-0.881348,-0.564941,-0.168945,0
10310,-0.877441,-0.555664,-0.166504,0
10330,-0.864746,-0.551758,-0.161621,0
10350,-0.858398,-0.557129,-0.160645,0
10370,-0.863281,-0.5625,-0.162109,0
10390,-0.866699,-0.561523,-0.165039,0
10410,-0.870605,-0.562012,-0.167969,0
10430,-0.870605,-0.567383,-0.162109,0
10450,-0.872559,-0.569336,-0.164551,0
10470,-0.868652,-0.561035,-0.165039,0
10490,-0.86377,-0.554199,-0.159668,0
10510,-0.86377,-0.55957,-0.161133,0
10530,-0.865723,-0.564453,-0.152832,0
10550,-0.873047,-0.563477,-0.15332,0
10570,-0.873535,-0.5625,-0.170898,0
10590,-0.875488,-0.558105,-0.164062,0
10610,-0.874512,-0.546387,-0.159668,0
10630,-0.858398,-0.550293,-0.150879,0
10650,-0.851562,-0.572754,-0.159668,0
10670,-0.854004,-0.570312,-0.161133,0
10690,-0.868164,-0.569824,-0.164551,0
10710,-0.875488,-0.574707,-0.163574,0
10730,-0.879395,-0.560547,-0.171875,0
10750,-0.874023,-0.569336,-0.164062,0
10770,-0.874023,-0.568848,-0.166504,0
10790,-0.867676,-0.566895,-0.17041,0
10810,-0.865234,-0.561523,-0.169434,0
10830,-0.867188,-0.552246,-0.159668,0
10850,-0.877441,-0.554688,-0.157227,0
10870,-0.860352,-0.553711,-0.158691,0
10890,-0.84375,-0.566406,-0.151855,0
10910,-0.848633,-0.572754,-0.155762,0
10930,-0.870117,-0.567383,-0.161621,0
10950,-0.888672,-0.558105,-0.17334,0
10970,-0.892578,-0.558105,-0.166016,0
10990,-0.880371,-0.562988,-0.157227,0
11010,-0.859375,-0.560547,-0.15332,0
11030,-0.865234,-0.563477,-0.162598,0
11050,-0.869141,-0.553711,-0.165527,0
11070,-0.874023,-0.541992,-0.166016,0
11090,-0.850098,-0.553711,-0.148926,0
11110,-0.840332,-0.583984,-0.15332,0
11130,-0.863281,-0.575195,-0.15625,0
11150,-0.89209,-0.563477,-0.17334,0
11170,-0.900879,-0.55127,-0.178223,0
11190,-0.887695,-0.554199,-0.163086,0
11210,-0.864258,-0.560547,-0.160156,0
11230,-0.860352,-0.567383,-0.154297,0
11250,-0.862305,-0.562988,-0.162598,0
11270,-0.874023,-0.552734,-0.164551,0
11290,-0.881348,-0.549805,-0.165039,0
11310,-0.856934,-0.555176,-0.157227,0
11330,-0.82666,-0.569336,-0.161133,0
11350,-0.835938,-0.572754,-0.160156,0
11370,-0.874023,-0.57666,-0.161621,0
11390,-0.903809,-0.560059,-0.174316,0
11410,-0.912598,-0.554199,-0.178223,0
11430,-0.886719,-0.564941,-0.166504,0
11450,-0.864746,-0.568848,-0.15625,0
11470,-0.853516,-0.558594,-0.15918,0
11490,-0.865723,-0.543457,-0.168457,0
11510,-0.87793,-0.546387,-0.16748,0
11530,-0.851562,-0.560059,-0.15625,0
11550,-0.82666,-0.574707,-0.155762,0
11570,-0.847168,-0.581543,-0.166504,0
11590,-0.884277,-0.578613,-0.158691,0
11610,-0.905273,-0.558105,-0.17334,0
11630,-0.90625,-0.552734,-0.171875,0
11650,-0.879395,-0.566895,-0.163574,0
11670,-0.858398,-0.561523,-0.154785,0
11690,-0.855957,-0.555664,-0.157227,0
11710,-0.870117,-0.545898,-0.162109,0
11730,-0.871094,-0.538086,-0.157227,0
11750,-0.854004,-0.553223,-0.155762,0
11770,-0.838379,-0.577148,-0.162109,0
11790,-0.853027,-0.577148,-0.157227,0
11810,-0.885254,-0.570312,-0.171387,0
11830,-0.905762,-0.55957,-0.178223,0
11850,-0.900879,-0.550781,-0.166016,0
11870,-0.878906,-0.560547,-0.152344,0
11890,-0.85791,-0.560059,-0.158203,0
11910,-0.857422,-0.553711,-0.170898,0
11930,-0.866211,-0.542969,-0.161621,0
11950,-0.862305,-0.55127,-0.151855,0
11970,-0.859375,-0.576172,-0.153809,0
11990,-0.855957,-0.577148,-0.169434,0
12010,-0.866211,-0.563477,-0.173828,0
12030,-0.883301,-0.55957,-0.168457,0
12040,-0.892578,-0.550781,-0.177734,0
12060,-0.885742,-0.554199,-0.17334,0
12080,-0.875,-0.563965,-0.166504,0
12100,-0.867188,-0.562988,-0.159668,0
12120,-0.870605,-0.553711,-0.160156,0
12140,-0.87793,-0.541504,-0.164062,0
12160,-0.866699,-0.546387,-0.168457,0
12180,-0.833984,-0.557129,-0.152832,0
12200,-0.828125,-0.57959,-0.157227,0
12220,-0.866211,-0.582031,-0.163086,0
12240,-0.896484,-0.568359,-0.168945,0
12260,-0.914551,-0.55127,-0.177734,0
12280,-0.893555,-0.553711,-0.171875,0
12300,-0.86377,-0.564941,-0.156738,0
12320,-0.851074,-0.55957,-0.154297,0
12340,-0.856445,-0.545898,-0.163574,0
12360,-0.875977,-0.541504,-0.15625,0
12380,-0.872559,-0.545898,-0.157227,0
12400,-0.844727,-0.55957,-0.160156,0
12420,-0.842773,-0.581055,-0.15918,0
12440,-0.869629,-0.577637,-0.159668,0
12460,-0.894043,-0.557129,-0.168945,0
12480,-0.905273,-0.549316,-0.17041,0
12500,-0.886719,-0.559082,-0.166504,0
12520,-0.865723,-0.562988,-0.158203,0
12540,-0.856445,-0.564941,-0.150391,0
12560,-0.863281,-0.54541,-0.158203,0
12580,-0.872559,-0.544434,-0.157715,0
12600,-0.861816,-0.547363,-0.154785,0
12620,-0.84082,-0.564453,-0.159668,0
12640,-0.847656,-0.58252,-0.162598,0
12660,-0.876953,-0.569336,-0.155273,0
12680,-0.895996,-0.562988,-0.169922,0
12700,-0.901367,-0.560547,-0.169434,0
12720,-0.885742,-0.558594,-0.166992,0
12740,-0.858398,-0.5625,-0.161133,0
12760,-0.848633,-0.565918,-0.15918,0
12780,-0.869141,-0.557617,-0.152832,0
12800,-0.879395,-0.544434,-0.154785,0
12820,-0.859863,-0.54834,-0.163086,0
12840,-0.834961,-0.567383,-0.160645,0
12860,-0.839844,-0.580566,-0.158203,0
12880,-0.873535,-0.57666,-0.168457,0
12900,-0.901855,-0.56543,-0.177246,0
12920,-0.90332,-0.556152,-0.163574,0
12940,-0.879395,-0.567383,-0.160156,0
12960,-0.86084,-0.570801,-0.159668,0
12980,-0.85791,-0.567383,-0.160156,0
13000,-0.850586,-0.549805,-0.169922,0
13020,-0.864746,-0.553223,-0.167969,0
13040,-0.864258,-0.564941,-0.163574,0
13060,-0.862305,-0.56543,-0.167969,0
13080,-0.864746,-0.569336,-0.16748,0
13100,-0.871582,-0.566895,-0.163086,0
13120,-0.881836,-0.561523,-0.161621,0
13140,-0.878906,-0.558105,-0.151367,0
13160,-0.868164,-0.562012,-0.156738,0
13180,-0.867188,-0.568848,-0.15332,0
13200,-0.860352,-0.56543,-0.158691,0
13220,-0.861816,-0.566895,-0.165527,0
13240,-0.864258,-0.563965,-0.166504,0
13260,-0.866699,-0.562012,-0.163086,0
13280,-0.868164,-0.566406,-0.164062,0
13300,-0.874023,-0.565918,-0.162109,0
13320,-0.875,-0.563965,-0.162109,0
13340,-0.873047,-0.558594,-0.158691,0
13360,-0.868164,-0.562988,-0.160645,0
13380,-0.866211,-0.569336,-0.163574,0
13400,-0.863281,-0.55957,-0.158203,0
13420,-0.861816,-0.565918,-0.164062,0
13440,-0.864746,-0.570312,-0.166016,0
13460,-0.86377,-0.567383,-0.165527,0
13480,-0.867676,-0.566895,-0.164062,0
13500,-0.878418,-0.563965,-0.168457,0
13520,-0.873047,-0.566895,-0.175293,0
13540,-0.873047,-0.563965,-0.174316,0
13560,-0.862305,-0.56543,-0.183105,0
13580,-0.868164,-0.572266,-0.188477,0
13600,-0.87207,-0.581055,-0.191406,0
13620,-0.89209,-0.59082,-0.212402,0
13640,-0.873047,-0.587402,-0.229004,0
13660,-0.887695,-0.61377,-0.234863,0
13680,-0.944336,-0.641602,-0.262207,0
13700,-0.932617,-0.624512,-0.275391,0
13720,-0.942871,-0.622559,-0.25,0
13740,-0.934082,-0.647949,-0.234863,0
13760,-0.918945,-0.631348,-0.228027,0
13780,-0.890625,-0.589844,-0.256836,0
13800,-0.817871,-0.602539,-0.284668,0
13820,-0.736328,-0.694336,-0.237305,0
13840,-0.711426,-0.752441,-0.205078,0
13860,-0.711426,-0.75,-0.228027,0
13880,-0.613281,-0.779785,-0.247559,0
13900,-0.629395,-0.777344,-0.160645,0
13920,-0.621582,-0.779785,-0.12793,0
13940,-0.469727,-0.8125,-0.103027,0
13960,-0.42334,-0.803223,-0.0185547,0
13980,-0.408203,-0.726074,0.105957,0
14000,-0.318848,-0.817383,0.171387,0
14020,-0.293457,-0.838379,0.0625,0
14040,-0.304688,-0.795898,0.0263672,0
14060,-0.330078,-0.790527,0.097168,0
14080,-0.364746,-0.823242,0.105957,0
14100,-0.428223,-0.865234,0.0854492,0
14120,-0.550293,-0.900391,0.0307617,0
14140,-0.593262,-0.958008,0.00195312,0
14160,-0.680664,-0.91748,0.119141,0
14180,-0.766602,-0.855469,0.254883,0
14200,-0.985352,-0.902832,0.358887,0
14220,-1.04883,-0.84668,-0.139648,0
14240,-0.891602,-1.03955,-0.507324,0
14260,-0.974121,-1.37695,-0.426758,0
14280,-0.97168,-1.01416,-0.00585938,0
14300,-0.873047,-0.673828,0.23291,0
14320,-0.552246,-0.907715,0.420898,0
14340,-0.358887,-1.09375,0.197754,0
14360,-0.444824,-0.913574,0.195312,0
14360,-0.653809,-0.920898,0.537598,0
14380,-0.515625,-0.900391,0.461914,0
14420,-0.225586,-0.792969,0.290039,0
14440,-0.134277,-0.928223,0.158203,0
14460,-0.217773,-0.972168,0.0419922,0
14480,-0.313965,-0.912109,-0.0756836,0
14490,-0.28418,-0.907715,-0.101074,0
14510,-0.200684,-0.923828,-0.249023,0
14530,-0.186523,-0.852051,-0.28418,0
14550,-0.246094,-0.81543,-0.256836,0
14570,-0.312988,-0.816406,-0.0473633,0
14590,-0.299805,-0.804199,0.131348,0
14610,-0.0922852,-0.902832,0.097168,0
14630,0.266113,-1.23438,0.451172,0
14650,0.59375,-1.3335,0.115234,0
14670,0.622559,-0.906738,-0.243652,0
14690,0.144531,-0.631348,-0.0410156,0
14700,-0.361328,-0.687988,0.0356445,0
14720,-0.594727,-0.915527,0.0922852,0
14740,-0.768555,-1.20068,0.283203,0
14760,-0.683105,-1.34961,0.428223,0
14780,-0.585938,-1.02686,0.34668,0
14800,-0.589355,-0.695312,0.306641,0
14820,-0.100586,-1.25537,-0.00146484,0
14840,-0.00341797,-1.23535,-0.350586,0
14860,-0.297363,-1.01758,-0.108887,0
14880,-0.516113,-1.02588,0.159668,0
14900,-0.34375,-0.949219,0.0141602,0
14920,-0.290039,-0.899414,0.213867,0
14940,-0.722168,-0.63916,0.533691,0
14960,-0.185059,-0.443359,0.211914,0
14980,0.141602,-0.833984,-0.152344,0
15000,-0.0473633,-1.08936,-0.192383,0
15020,-0.253418,-1.01318,-0.0395508,0
15040,-0.124023,-0.907715,0.193359,0
15060,-0.291016,-1.23438,0.299805,0
15080,-0.389648,-0.992188,0.0922852,0
15100,-0.224121,-0.75293,-0.131836,0
15120,-0.214355,-1.12305,0.0610352,0
15140,-0.154785,-1.27979,0.205566,0
15160,-0.0859375,-1.03809,0.0673828,0
15180,-0.105469,-0.940918,-0.0571289,0
15200,-0.0263672,-0.884277,-0.090332,0
15220,-0.115723,-1.12891,0.081543,0
15240,-0.546387,-1.21533,0.229492,0
15260,-0.717773,-1.14697,0.125,0
15280,-0.564941,-0.916504,0.204102,0
15300,-0.329102,-0.75,0.0908203,0
15320,-0.253906,-0.914551,-0.0366211,0
15340,-0.142578,-1.00293,0.120605,0
15360,-0.192871,-0.957031,0.166016,0
15380,-0.0170898,-0.864746,0.148438,0
15400,0.128906,-0.900879,0.263184,0
15420,0.11084,-0.880371,0.190918,0
15440,0.129395,-0.94043,0.19043,0
15460,0.135254,-0.926758,0.179199,0
15470,0.0820312,-0.911133,0.074707,0
15490,0.126953,-1.01855,0.0922852,0
15510,-0.0585938,-0.912109,0.164551,0
15540,-0.27002,-0.875488,0.227539,0
15560,-0.0615234,-0.856445,0.306641,0
15580,0.11084,-0.987793,0.316895,0
15590,0.282715,-1.03711,0.272949,0
15610,0.243164,-1.02197,0.265137,0
15640,0.157715,-0.981934,0.212402,0
15660,0.0595703,-0.911621,0.250977,0
15680,0.00390625,-0.897461,0.253418,0
15700,0.0307617,-0.949707,0.25,0
15720,-0.0131836,-1.021,0.295898,0
15740,-0.0761719,-0.984375,0.32959,0
15750,-0.109375,-0.953125,0.306641,0
15760,-0.129395,-0.983887,0.217285,0
15790,-0.17041,-1.07373,0.347656,0
15810,-0.0629883,-1.07666,0.429688,0
15830,0.117676,-1.02051,0.307617,0
15850,0.00878906,-0.907715,-0.0546875,0
15870,-0.296387,-1.14551,0.528809,0
15870,0.197754,-0.966309,0.238281,0
15890,0.0751953,-0.772949,0.0898438,0
15910,-0.147949,-0.780762,0.15918,0
15930,-0.324707,-0.958984,-0.00244141,0
15930,-0.29248,-1.0332,0.155273,0
15950,-0.172363,-0.914062,0.257812,0
15970,-0.129395,-0.928223,0.347656,0
15970,0.00390625,-0.800293,0.461426,0
15990,-0.17334,-0.767578,0.353516,0
16010,-0.168457,-0.960938,0.180176,0
16030,-0.0517578,-1.19678,0.253418,0
16030,0.0229492,-1.15527,0.318359,0
16130,-0.122559,-0.848633,0.306152,0
16150,-0.10498,-0.818359,0.381836,0
16170,-0.138184,-0.835938,0.408203,0
16190,-0.250488,-0.895996,0.386719,0
16210,-0.33252,-0.972656,0.383301,0
16230,-0.349121,-1.0249,0.388184,0
16250,-0.335449,-1.03418,0.361816,0
16270,-0.272949,-0.978516,0.349609,0
16290,-0.225098,-0.910645,0.320801,0
16310,-0.202148,-0.888672,0.277832,0
16330,-0.16748,-0.906738,0.265625,0
16350,-0.140625,-0.918945,0.256348,0
16370,-0.14502,-0.916504,0.232422,0
16390,-0.161133,-0.937012,0.231445,0
16410,-0.155273,-0.965332,0.222656,0
16430,-0.15918,-0.971191,0.192383,0
16450,-0.170898,-0.977051,0.177734,0
16470,-0.180664,-0.953125,0.186523,0
16490,-0.176758,-0.938477,0.187012,0
16510,-0.181152,-0.932129,0.179199,0
16530,-0.187012,-0.936035,0.190918,0
16550,-0.21582,-0.929688,0.20459,0
16570,-0.240234,-0.929688,0.20166,0
16590,-0.254883,-0.937012,0.175781,0
16610,-0.272461,-0.946289,0.177246,0
16630,-0.272949,-0.947266,0.194824,0
16650,-0.28125,-0.931152,0.205078,0
16670,-0.308594,-0.925781,0.199219,0
16690,-0.336426,-0.925293,0.190918,0
16710,-0.345703,-0.918457,0.184082,0
16730,-0.348633,-0.914062,0.17041,0
16750,-0.332031,-0.924805,0.15918,0
16770,-0.313477,-0.928711,0.15918,0
16790,-0.297363,-0.91748,0.15918,0
16810,-0.288086,-0.911621,0.163574,0
16830,-0.282227,-0.91748,0.169922,0
16850,-0.283203,-0.924316,0.1875,0
16870,-0.288086,-0.943848,0.192871,0
16890,-0.306152,-0.944824,0.193848,0
16910,-0.319824,-0.91748,0.189453,0
16930,-0.313477,-0.895996,0.186035,0
16950,-0.303223,-0.907227,0.218262,0
16970,-0.3125,-0.910156,0.235352,0
16990,-0.314941,-0.908691,0.230469,0
17010,-0.317871,-0.920898,0.222656,0
17030,-0.319336,-0.900391,0.226562,0
17050,-0.323242,-0.885254,0.219238,0
17070,-0.316406,-0.883301,0.216309,0
17090,-0.300781,-0.898926,0.230957,0
17110,-0.312012,-0.916504,0.245605,0
17130,-0.338867,-0.911621,0.249023,0
17150,-0.356934,-0.92334,0.231934,0
17170,-0.354004,-0.926758,0.225586,0
17190,-0.355957,-0.927246,0.239746,0
17210,-0.365234,-0.927246,0.23291,0
17230,-0.373535,-0.92334,0.224121,0
17250,-0.375488,-0.926758,0.21875,0
17270,-0.379883,-0.943848,0.219727,0
17290,-0.399902,-0.963867,0.231934,0
17310,-0.420898,-0.95752,0.246582,0
17320,-0.418457,-0.952637,0.220703,0
17340,-0.396973,-0.965332,0.214844,0
17360,-0.342773,-0.980469,0.228516,0
17380,-0.30957,-0.976074,0.224121,0
17400,-0.310059,-0.959961,0.196289,0
17420,-0.30127,-0.947754,0.189941,0
17440,-0.282227,-0.937988,0.205078,0
17460,-0.282227,-0.916016,0.216797,0
17480,-0.294434,-0.900879,0.213379,0
17500,-0.299805,-0.884766,0.212402,0
17520,-0.303711,-0.872559,0.233398,0
17540,-0.315918,-0.865723,0.241211,0
17560,-0.321289,-0.855469,0.246094,0
17580,-0.328125,-0.840332,0.239746,0
17600,-0.336426,-0.85791,0.217285,0
17620,-0.341309,-0.866699,0.217773,0
17640,-0.342773,-0.861816,0.210938,0
17660,-0.351562,-0.86377,0.197754,0
17680,-0.351562,-0.874512,0.186523,0
17700,-0.349121,-0.879395,0.187012,0
17720,-0.350098,-0.890137,0.183105,0
17740,-0.344727,-0.898438,0.185059,0
17760,-0.342285,-0.914062,0.197266,0
17780,-0.352539,-0.911621,0.195801,0
17800,-0.369629,-0.914062,0.196777,0
17820,-0.384766,-0.919922,0.202637,0
17840,-0.39209,-0.916016,0.219727,0
17860,-0.388184,-0.929199,0.216797,0
17880,-0.391602,-0.95752,0.225586,0
17900,-0.401855,-0.959473,0.230957,0
17920,-0.398438,-0.959473,0.215332,0
17940,-0.404785,-0.944336,0.216797,0
17960,-0.414551,-0.910645,0.209473,0
17980,-0.419434,-0.89209,0.200684,0
18000,-0.401367,-0.882324,0.224121,0
18020,-0.382812,-0.893555,0.224121,0
18040,-0.371582,-0.895996,0.217285,0
18060,-0.375,-0.890625,0.225586,0
18080,-0.382324,-0.890137,0.226562,0
18100,-0.383789,-0.870605,0.22168,0
18120,-0.388672,-0.868652,0.218262,0
18140,-0.403809,-0.871582,0.245117,0
18160,-0.425781,-0.876465,0.241699,0
18180,-0.435059,-0.881348,0.211914,0
18200,-0.436035,-0.876465,0.202148,0
18220,-0.438965,-0.861816,0.216797,0
18240,-0.435059,-0.869141,0.220215,0
18260,-0.428223,-0.87793,0.206055,0
18280,-0.42334,-0.89209,0.185547,0
18300,-0.42041,-0.885254,0.183594,0
18320,-0.417969,-0.858887,0.190918,0
18340,-0.416504,-0.853027,0.187012,0
18360,-0.413574,-0.883789,0.185059,0
18380,-0.412109,-0.901367,0.223145,0
18400,-0.419434,-0.887207,0.224609,0
18420,-0.430176,-0.863281,0.202637,0
18440,-0.434082,-0.854004,0.186035,0
18460,-0.445801,-0.870605,0.223145,0
18480,-0.447754,-0.883789,0.244629,0
18500,-0.44873,-0.898926,0.23877,0
18520,-0.464844,-0.905762,0.224121,0
18540,-0.470215,-0.891113,0.205078,0
18560,-0.459961,-0.892578,0.22168,0
18580,-0.45459,-0.888672,0.226562,0
18600,-0.452637,-0.890625,0.208008,0
18620,-0.462402,-0.901855,0.213379,0
18640,-0.486816,-0.917969,0.242188,0
18660,-0.512207,-0.892578,0.241211,0
18680,-0.516113,-0.888672,0.230957,0
18700,-0.500488,-0.868652,0.252441,0
18720,-0.484375,-0.873535,0.277832,0
18740,-0.481445,-0.913086,0.260254,0
18760,-0.487305,-0.991211,0.257324,0
18780,-0.449219,-1.03613,0.289062,0
18800,-0.382324,-1.04883,0.327637,0
18820,-0.232422,-1.0918,0.325684,0
18840,-0.15332,-1.13623,0.338379,0
18860,-0.179199,-1.11328,0.297852,0
18880,-0.10791,-1.08545,0.247559,0
18900,-0.0112305,-1.06543,0.215332,0
18920,0.0908203,-1.05566,0.227051,0
18940,0.17041,-1.01221,0.208008,0
18960,0.204102,-0.99707,0.21582,0
18980,0.26123,-0.963867,0.169922,0
19000,0.368652,-0.887695,0.172852,0
19020,0.39502,-0.878906,0.0981445,0
19040,0.412598,-0.838379,0.150391,0
19060,0.337891,-0.760742,0.164062,0
19080,0.374512,-0.799805,0.128906,0
19100,0.473633,-0.682617,0.0761719,0
19120,0.51709,-0.641602,0.000488281,0
19140,0.513184,-0.604492,-0.0332031,0
19160,0.601562,-0.62793,-0.0493164,0
19180,0.568848,-0.623047,-0.0317383,0
19200,0.499023,-0.620117,-0.00488281,0
19220,0.581055,-0.680176,-0.105469,0
19240,0.537109,-0.646973,-0.121582,0
19260,0.583496,-0.655762,-0.0869141,0
19280,0.596191,-0.670898,-0.0947266,0
19300,0.634277,-0.720703,-0.106445,0
19320,0.677246,-0.737305,-0.114746,0
19340,0.655273,-0.729004,-0.0986328,0
19360,0.686523,-0.74707,-0.10791,0
19380,0.719727,-0.73584,-0.119629,0
19400,0.687012,-0.712402,-0.184082,0
19420,0.662109,-0.735352,-0.223633,0
19440,0.687988,-0.715332,-0.15918,0
19460,0.678711,-0.728027,-0.147461,0
19480,0.702148,-0.709961,-0.127441,0
19500,0.733398,-0.739258,-0.157715,0
19520,0.711914,-0.709961,-0.20752,0
19540,0.6875,-0.699219,-0.189453,0
19560,0.662598,-0.698242,-0.162598,0
19580,0.63916,-0.67334,-0.147461,0
19600,0.666504,-0.713379,-0.157715,0
19620,0.651855,-0.720703,-0.148438,0
19640,0.637695,-0.695312,-0.199219,0
19660,0.65332,-0.669922,-0.185547,0
19680,0.751953,-0.673828,-0.152344,0
19700,0.651855,-0.687988,-0.12207,0
19720,0.654297,-0.677734,-0.109863,0
19740,0.622559,-0.663574,-0.15625,0
19760,0.635742,-0.647461,-0.146973,0
19780,0.660645,-0.681152,-0.194824,0
19800,0.666992,-0.648438,-0.197754,0
19820,0.628418,-0.691406,-0.199707,0
19840,0.609375,-0.695312,-0.183594,0
19860,0.67041,-0.671875,-0.18457,0
19880,0.76123,-0.686523,-0.15332,0
19900,0.757812,-0.660156,-0.111816,0
19920,0.773438,-0.700195,-0.125488,0
19940,0.730469,-0.743652,-0.161621,0
19960,0.73291,-0.723145,-0.181641,0
19970,0.729492,-0.744141,-0.195801,0
19990,0.719727,-0.73291,-0.172363,0
20010,0.702637,-0.742676,-0.180664,0
20030,0.667969,-0.707031,-0.168945,0
20050,0.633789,-0.684082,-0.152344,0
20070,0.648438,-0.677734,-0.13623,0
20090,0.624512,-0.674805,-0.157227,0
20110,0.654785,-0.664062,-0.180664,0
20130,0.707031,-0.666992,-0.147461,0
20150,0.717285,-0.675293,-0.12793,0
20170,0.744629,-0.713867,-0.17041,0
20190,0.766113,-0.694336,-0.184082,0
20210,0.729004,-0.666504,-0.204102,0
20230,0.662109,-0.676758,-0.200195,0
20250,0.679199,-0.687988,-0.195801,0
20270,0.663086,-0.678711,-0.177734,0
20290,0.699219,-0.654785,-0.154297,0
20310,0.701172,-0.666016,-0.151855,0
20330,0.692871,-0.644531,-0.148438,0
20350,0.718262,-0.655762,-0.170898,0
20370,0.783203,-0.646973,-0.161621,0
20390,0.782227,-0.632812,-0.147461,0
20410,0.770508,-0.647949,-0.197754,0
20430,0.771484,-0.647949,-0.189941,0
20450,0.751953,-0.651855,-0.196777,0
20470,0.729492,-0.664062,-0.207031,0
20490,0.731445,-0.663086,-0.1875,0
20510,0.723145,-0.657227,-0.178711,0
20530,0.726562,-0.635742,-0.173828,0
20550,0.712891,-0.638672,-0.165039,0
20570,0.706543,-0.634766,-0.180664,0
20590,0.728027,-0.623047,-0.165527,0
20610,0.745605,-0.628906,-0.173828,0
20630,0.733887,-0.614258,-0.201172,0
20650,0.737793,-0.591797,-0.216309,0
20670,0.758789,-0.61084,-0.211426,0
20690,0.759766,-0.616211,-0.183594,0
20710,0.790039,-0.621582,-0.171875,0
20730,0.774902,-0.643555,-0.173828,0
20750,0.776855,-0.646973,-0.194824,0
20770,0.748047,-0.663574,-0.233887,0
20790,0.72168,-0.675293,-0.213867,0
20810,0.705078,-0.668945,-0.202148,0
20830,0.703125,-0.668457,-0.206055,0
20850,0.720215,-0.655762,-0.202637,0
20870,0.737793,-0.642578,-0.209961,0
20890,0.707031,-0.625488,-0.20459,0
20910,0.744141,-0.617188,-0.178711,0
20930,0.757812,-0.627441,-0.161621,0
20950,0.758789,-0.624023,-0.185547,0
20970,0.725098,-0.632324,-0.217773,0
20990,0.715332,-0.63623,-0.193848,0
21010,0.698242,-0.663086,-0.20459,0
21030,0.694824,-0.648438,-0.211914,0
21050,0.681152,-0.647461,-0.210938,0
21070,0.708496,-0.647949,-0.206055,0
21090,0.709473,-0.643066,-0.213379,0
21110,0.745605,-0.635254,-0.217773,0
21130,0.763672,-0.651855,-0.214844,0
21150,0.752441,-0.641602,-0.241211,0
21170,0.745117,-0.63916,-0.236328,0
21190,0.753418,-0.616211,-0.209961,0
21210,0.745605,-0.641602,-0.228516,0
21230,0.736328,-0.616699,-0.23291,0
21250,0.713867,-0.61377,-0.242188,0
21270,0.716797,-0.608398,-0.23877,0
21290,0.709473,-0.601074,-0.22168,0
21310,0.722656,-0.565918,-0.199707,0
21330,0.719238,-0.568848,-0.225098,0
21350,0.716797,-0.572266,-0.233398,0
21370,0.712891,-0.562012,-0.227051,0
21390,0.736816,-0.545898,-0.210938,0
21410,0.729492,-0.564941,-0.228027,0
21430,0.702637,-0.58252,-0.236816,0
21450,0.660156,-0.591309,-0.24707,0
21470,0.602051,-0.603027,-0.236816,0
21490,0.690918,-0.600098,-0.169434,0
21510,0.712402,-0.611816,-0.164551,0
21530,0.65918,-0.591797,-0.196777,0
21550,0.632324,-0.595703,-0.220703,0
21570,0.580078,-0.600098,-0.20459,0
21590,0.549316,-0.60791,-0.172852,0
21610,0.591797,-0.624023,-0.0908203,0
21630,0.584473,-0.650879,-0.0942383,0
21650,0.525879,-0.632324,-0.126465,0
21670,0.533203,-0.65332,-0.105957,0
21690,0.557617,-0.68457,-0.0498047,0
21710,0.556641,-0.688965,-0.0209961,0
21730,0.58252,-0.738281,-0.000488281,0
21750,0.490723,-0.748047,0.0639648,0
21770,0.441895,-0.734863,0.09375,0
21790,0.447266,-0.778809,0.160156,0
21810,0.466797,-0.865234,0.223145,0
21830,0.435059,-0.883301,0.214355,0
21850,0.404297,-0.852051,0.211426,0
21870,0.304199,-0.916992,0.178711,0
21890,0.174316,-0.960938,0.22168,0
21910,0.0351562,-0.993164,0.340332,0
21930,-0.0595703,-0.982422,0.407715,0
21950,-0.17627,-0.975098,0.398438,0
21970,-0.329102,-0.918945,0.349121,0
21990,-0.40332,-0.880371,0.408203,0
22010,-0.422363,-0.912109,0.459473,0
22030,-0.457031,-0.948242,0.37207,0
22050,-0.550293,-0.947754,0.317383,0
22070,-0.570801,-0.904785,0.282715,0
22090,-0.572266,-0.882812,0.245605,0
22110,-0.673828,-1.28809,0.28418,0
22130,-0.989258,-1.28174,0.628418,0
22150,-0.682129,-1.29004,0.451172,0
22170,-0.413086,-1.32812,0.0649414,0
22190,-0.26123,-1.09961,0.0102539,0
22210,-0.23877,-0.709473,0.109863,0
22230,-0.424316,-0.47168,0.206055,0
22250,-0.537598,-0.433594,0.257324,0
22270,-0.602539,-0.572754,0.317871,0
22290,-0.587891,-0.81543,0.337891,0
22310,-0.531738,-1.02002,0.324219,0
22330,-0.458496,-1.08643,0.29248,0
22350,-0.428223,-0.991699,0.265137,0
22370,-0.452148,-0.818359,0.280273,0
22390,-0.479492,-0.713379,0.320801,0
22410,-0.481445,-0.70166,0.315918,0
22430,-0.46582,-0.750977,0.296387,0
22450,-0.458008,-0.828613,0.285645,0
22470,-0.474609,-0.888672,0.29248,0
22490,-0.477051,-0.909668,0.296387,0
22510,-0.47168,-0.877441,0.28418,0
22530,-0.465332,-0.839844,0.27832,0
22550,-0.456055,-0.822266,0.279785,0
22570,-0.454102,-0.81543,0.287598,0
22590,-0.452148,-0.828613,0.294922,0
22610,-0.445801,-0.841797,0.306641,0
22630,-0.450684,-0.836914,0.310547,0
22650,-0.464355,-0.819336,0.305176,0
22660,-0.474609,-0.796875,0.303711,0
22680,-0.495117,-0.78418,0.293945,0
22700,-0.518555,-0.763672,0.280762,0
22720,-0.533691,-0.762207,0.275879,0
22740,-0.539551,-0.783203,0.277832,0
22760,-0.522949,-0.799805,0.283691,0
22780,-0.493164,-0.791016,0.286621,0
22800,-0.466797,-0.769531,0.280273,0
22820,-0.452148,-0.734375,0.289062,0
22840,-0.448242,-0.726074,0.30127,0
22860,-0.465332,-0.758789,0.34375,0
22870,-0.488281,-0.824707,0.400879,0
22890,-0.491211,-0.868164,0.407715,0
22900,-0.466309,-0.88916,0.368164,0
22920,-0.423828,-0.891602,0.330078,0
22940,-0.419922,-0.86377,0.324219,0
22960,-0.433105,-0.84375,0.337891,0
22980,-0.452637,-0.854004,0.338867,0
23000,-0.449707,-0.875977,0.340332,0
23020,-0.447754,-0.89209,0.322266,0
23030,-0.45459,-0.89209,0.301758,0
23050,-0.45459,-0.866211,0.280762,0
23060,-0.45459,-0.794434,0.280762,0
23080,-0.469238,-0.790039,0.29541,0
23100,-0.476074,-0.797363,0.294922,0
23120,-0.480957,-0.816406,0.300781,0
23140,-0.477051,-0.835938,0.31543,0
23160,-0.467773,-0.857422,0.315918,0
23180,-0.450195,-0.860352,0.308105,0
23200,-0.436523,-0.852051,0.317383,0
23220,-0.438965,-0.845215,0.321777,0
23240,-0.44043,-0.834473,0.32373,0
23260,-0.445801,-0.826172,0.316895,0
23280,-0.452637,-0.827637,0.304199,0
23300,-0.459961,-0.82959,0.303223,0
23320,-0.475098,-0.824219,0.289551,0
23340,-0.481934,-0.828613,0.293457,0
23360,-0.490234,-0.834961,0.290527,0
23380,-0.498535,-0.834473,0.29834,0
23400,-0.496094,-0.831543,0.312012,0
23420,-0.490234,-0.84375,0.307129,0
23440,-0.479004,-0.852539,0.299316,0
23460,-0.457031,-0.843262,0.311523,0
23480,-0.42627,-0.824707,0.307129,0
23500,-0.382812,-0.811035,0.307617,0
23520,-0.353027,-0.810547,0.307129,0
23540,-0.352051,-0.826172,0.313965,0
23560,-0.363281,-0.850098,0.3125,0
23580,-0.374512,-0.860352,0.307129,0
23600,-0.399414,-0.842773,0.291504,0
23620,-0.431152,-0.819824,0.276367,0
23640,-0.446289,-0.818359,0.287109,0
23660,-0.450195,-0.828125,0.299316,0
23680,-0.4375,-0.854004,0.288574,0
23700,-0.449707,-0.854004,0.285645,0
23720,-0.499512,-0.869141,0.258301,0
23740,-0.546875,-0.896973,0.229004,0
23760,-0.573242,-0.891113,0.227051,0
23780,-0.571777,-0.844238,0.23877,0
23800,-0.541016,-0.782227,0.265137,0
23820,-0.513184,-0.748047,0.272949,0
23840,-0.489746,-0.753906,0.304688,0
23860,-0.455566,-0.793457,0.338379,0
23880,-0.414551,-0.834961,0.365234,0
23900,-0.386719,-0.858887,0.375977,0
23920,-0.384766,-0.860352,0.365234,0
23940,-0.40332,-0.862305,0.326172,0
23960,-0.436035,-0.856934,0.268066,0
23980,-0.467285,-0.847168,0.226562,0
24000,-0.485352,-0.837891,0.214844,0
24020,-0.491699,-0.835449,0.210449,0
24040,-0.484863,-0.833496,0.227539,0
24060,-0.489746,-0.846191,0.268555,0
24080,-0.487793,-0.85498,0.29834,0
24100,-0.48584,-0.855469,0.311035,0
24120,-0.48584,-0.838379,0.306641,0
24140,-0.490234,-0.822266,0.275879,0
24160,-0.496582,-0.802246,0.265625,0
24180,-0.5,-0.79248,0.263184,0
24200,-0.494629,-0.804688,0.264648,0
24220,-0.485352,-0.819824,0.274414,0
24240,-0.477051,-0.833984,0.271973,0
24260,-0.469727,-0.841797,0.277832,0
24280,-0.461914,-0.844727,0.277344,0
24300,-0.45752,-0.842285,0.276367,0
24320,-0.456543,-0.835938,0.270508,0
24340,-0.462402,-0.828613,0.281738,0
24360,-0.470215,-0.828125,0.29248,0
24380,-0.481445,-0.822266,0.291992,0
24400,-0.492676,-0.816895,0.277344,0
24420,-0.488281,-0.826172,0.273926,0
24440,-0.474609,-0.837891,0.268066,0
24460,-0.473145,-0.845703,0.270996,0
24480,-0.469727,-0.857422,0.270508,0
24500,-0.467773,-0.86377,0.270996,0
24520,-0.463379,-0.855957,0.282715,0
24540,-0.461426,-0.854004,0.275879,0
24560,-0.461914,-0.840332,0.284668,0
24580,-0.462402,-0.817871,0.293457,0
24600,-0.46875,-0.812988,0.313965,0
24620,-0.478516,-0.824707,0.329102,0
24640,-0.479004,-0.830566,0.324219,0
24660,-0.467285,-0.828613,0.313477,0
24680,-0.460449,-0.820801,0.308105,0
24700,-0.455566,-0.810547,0.299805,0
24720,-0.455078,-0.810547,0.297852,0
24740,-0.455078,-0.826172,0.291504,0
24760,-0.463867,-0.850586,0.29834,0
24780,-0.476074,-0.851562,0.289062,0
24800,-0.477051,-0.845215,0.281738,0
24820,-0.483887,-0.824707,0.279297,0
24840,-0.483887,-0.813965,0.289551,0
24860,-0.484863,-0.810059,0.300781,0
24880,-0.484863,-0.819336,0.3125,0
24900,-0.479004,-0.82666,0.30957,0
24920,-0.463379,-0.834473,0.302734,0
24940,-0.461914,-0.82666,0.306152,0
24960,-0.456055,-0.830078,0.307129,0
24980,-0.456055,-0.827148,0.300293,0
25000,-0.459961,-0.831055,0.294922,0
25020,-0.465332,-0.841309,0.290527,0
25040,-0.473145,-0.836914,0.286621,0
25060,-0.478027,-0.821777,0.285645,0
25080,-0.48291,-0.821289,0.293945,0
25100,-0.484375,-0.821289,0.296387,0
25120,-0.484375,-0.816406,0.29541,0
25140,-0.484375,-0.82666,0.300293,0
25160,-0.478516,-0.830566,0.293457,0
25180,-0.477539,-0.822754,0.294434,0
25200,-0.471191,-0.818359,0.291504,0
25220,-0.470703,-0.819336,0.287598,0
25240,-0.470703,-0.821289,0.293457,0
25260,-0.475586,-0.82666,0.305664,0
25270,-0.484863,-0.833496,0.312988,0
25290,-0.486328,-0.837402,0.304199,0
25310,-0.478516,-0.825684,0.282227,0
25330,-0.472656,-0.819336,0.27832,0
25350,-0.476074,-0.817871,0.277832,0
25370,-0.477051,-0.819336,0.29248,0
25390,-0.481445,-0.827637,0.294922,0
25410,-0.487305,-0.837402,0.29834,0
25430,-0.482422,-0.837891,0.30127,0
25450,-0.480957,-0.824707,0.291016,0
25470,-0.475098,-0.821289,0.291992,0
25490,-0.478516,-0.818359,0.288086,0
25510,-0.480469,-0.817871,0.300293,0
25530,-0.484863,-0.820801,0.298828,0
25550,-0.486328,-0.832031,0.293457,0
25570,-0.481934,-0.825684,0.286621,0
25590,-0.486816,-0.818359,0.288086,0
25610,-0.48877,-0.812012,0.288574,0
25630,-0.488281,-0.823242,0.290527,0
25650,-0.489258,-0.821777,0.288086,0
25670,-0.48584,-0.825684,0.291992,0
25690,-0.488281,-0.833984,0.286621,0
25710,-0.484863,-0.821289,0.292969,0
25730,-0.486816,-0.820312,0.285645,0
25750,-0.483887,-0.818359,0.278809,0
25770,-0.487793,-0.818848,0.290039,0
25790,-0.485352,-0.81543,0.285156,0
25810,-0.485352,-0.817383,0.283691,0
25830,-0.485352,-0.817383,0.283203,0
25850,-0.482422,-0.805176,0.279297,0
25870,-0.48584,-0.806152,0.283203,0
25890,-0.48877,-0.812012,0.288574,0
25910,-0.498047,-0.818359,0.301758,0
25930,-0.500977,-0.824707,0.295898,0
25950,-0.494629,-0.82666,0.285156,0
25970,-0.477051,-0.814941,0.270508,0
25990,-0.472656,-0.806641,0.274902,0
26010,-0.479004,-0.811523,0.291016,0
26030,-0.482422,-0.830078,0.296875,0
26050,-0.479492,-0.841797,0.300293,0
26070,-0.481934,-0.850098,0.301758,0
26090,-0.480957,-0.838867,0.297363,0
26110,-0.477539,-0.82959,0.287598,0
26130,-0.478027,-0.824219,0.280273,0
26150,-0.48291,-0.820312,0.286133,0
26170,-0.489258,-0.822266,0.29248,0
26190,-0.48877,-0.821777,0.29834,0
26210,-0.489746,-0.827148,0.286621,0
26230,-0.479004,-0.826172,0.288574,0
26250,-0.470703,-0.819824,0.285645,0
26270,-0.472168,-0.818848,0.287109,0
26290,-0.476562,-0.829102,0.290527,0
26310,-0.481445,-0.834473,0.292969,0
26330,-0.479492,-0.833008,0.294922,0
26350,-0.485352,-0.834473,0.291992,0
26370,-0.47998,-0.828613,0.289551,0
26390,-0.48291,-0.820801,0.287598,0
26410,-0.478516,-0.825195,0.276855,0
26430,-0.480469,-0.82666,0.286621,0
26450,-0.47998,-0.821777,0.281738,0
26470,-0.478027,-0.826172,0.289551,0
26490,-0.475098,-0.828125,0.287109,0
26510,-0.477051,-0.832031,0.289062,0
26530,-0.475098,-0.828613,0.286133,0
26550,-0.469727,-0.830566,0.287109,0
26570,-0.474609,-0.833984,0.291016,0
26590,-0.480957,-0.825684,0.297852,0
26610,-0.481445,-0.831055,0.299805,0
26630,-0.472656,-0.831055,0.287109,0
26650,-0.467773,-0.825195,0.286133,0
26670,-0.469238,-0.816895,0.285156,0
26690,-0.477051,-0.831055,0.291504,0
26710,-0.476074,-0.831543,0.287109,0
26750,-0.472168,-0.834961,0.289062,0
26770,-0.474121,-0.831055,0.298828,0
26790,-0.470703,-0.824707,0.29834,0
26810,-0.473633,-0.829102,0.291992,0
26830,-0.471191,-0.833496,0.28125,0
26850,-0.470215,-0.824219,0.286133,0
26870,-0.469238,-0.825684,0.294434,0
26890,-0.471191,-0.830078,0.294922,0
26910,-0.469238,-0.830566,0.294922,0
26930,-0.460449,-0.818848,0.295898,0
26950,-0.463379,-0.817383,0.299316,0
26970,-0.463379,-0.827148,0.305664,0
26990,-0.459961,-0.831055,0.307617,0
27010,-0.46582,-0.839844,0.315918,0
27030,-0.463867,-0.84082,0.313477,0
27050,-0.461426,-0.833496,0.297852,0
27070,-0.468262,-0.829102,0.283691,0
27090,-0.478516,-0.829102,0.284668,0
27110,-0.483887,-0.829102,0.281738,0
27130,-0.486816,-0.830566,0.276367,0
27150,-0.48584,-0.82959,0.278809,0
27170,-0.484375,-0.836426,0.289551,0
27190,-0.474121,-0.833008,0.291992,0
27210,-0.469727,-0.825195,0.294922,0
27230,-0.469238,-0.824707,0.289062,0
27250,-0.465332,-0.819824,0.291992,0
27270,-0.460938,-0.8125,0.297852,0
27290,-0.459961,-0.816406,0.315918,0
27310,-0.452148,-0.820801,0.33252,0
27330,-0.447754,-0.835938,0.347656,0
27350,-0.445312,-0.853027,0.338867,0
27370,-0.436523,-0.861816,0.318359,0
27390,-0.437012,-0.85498,0.291504,0
27410,-0.437012,-0.848633,0.271973,0
27430,-0.450684,-0.834473,0.269043,0
27450,-0.473145,-0.834961,0.257324,0
27470,-0.484863,-0.835938,0.256348,0
27490,-0.484863,-0.841797,0.257812,0
27510,-0.488281,-0.82959,0.265625,0
27530,-0.48584,-0.819824,0.294434,0
27550,-0.47168,-0.820801,0.312012,0
27570,-0.461914,-0.830566,0.30957,0
27590,-0.458008,-0.837402,0.30957,0
27610,-0.459961,-0.847168,0.29541,0
27630,-0.460938,-0.844727,0.29248,0
27650,-0.46875,-0.837402,0.284668,0
27670,-0.475586,-0.828613,0.270508,0
27690,-0.477051,-0.825195,0.263184,0
27710,-0.469238,-0.821289,0.270508,0
27730,-0.459473,-0.824707,0.301758,0
27750,-0.454102,-0.834961,0.32373,0
27770,-0.450195,-0.847656,0.330078,0
27790,-0.444824,-0.847168,0.316895,0
27810,-0.45459,-0.850098,0.296875,0
27830,-0.46875,-0.843262,0.274414,0
27850,-0.478516,-0.836914,0.258301,0
27870,-0.489746,-0.836914,0.254883,0
27890,-0.506836,-0.839355,0.251465,0
27910,-0.500488,-0.842773,0.257324,0
27930,-0.47998,-0.832031,0.264648,0
27950,-0.459473,-0.811523,0.285645,0
27960,-0.452148,-0.804688,0.309082,0
27980,-0.459473,-0.807617,0.325684,0
28000,-0.466309,-0.818359,0.32373,0
28020,-0.467285,-0.826172,0.291992,0
28040,-0.467285,-0.830566,0.272949,0
28060,-0.464844,-0.820312,0.262207,0
28080,-0.473633,-0.819336,0.241699,0
28100,-0.473633,-0.834473,0.246582,0
28120,-0.483398,-0.836914,0.254395,0
28140,-0.462891,-0.834961,0.258789,0
28160,-0.442383,-0.827148,0.273438,0
28180,-0.447754,-0.830078,0.308594,0
28200,-0.456055,-0.84375,0.331055,0
28220,-0.462402,-0.874023,0.325684,0
28240,-0.469238,-0.87207,0.316406,0
28260,-0.481445,-0.870605,0.301758,0
28280,-0.50293,-0.850586,0.278809,0
28300,-0.508301,-0.826172,0.259766,0
28320,-0.498047,-0.807129,0.260254,0
28340,-0.498047,-0.805664,0.263672,0
28360,-0.493652,-0.820312,0.268555,0
28380,-0.481934,-0.830566,0.272949,0
28400,-0.470215,-0.833496,0.27832,0
28420,-0.462402,-0.834961,0.283203,0
28440,-0.465332,-0.835449,0.287598,0
28460,-0.471191,-0.833496,0.286133,0
28480,-0.477051,-0.834961,0.276367,0
28500,-0.496094,-0.830566,0.263184,0
28520,-0.49707,-0.817871,0.256348,0
28540,-0.485352,-0.813477,0.239746,0
28560,-0.478516,-0.818848,0.249512,0
28580,-0.478027,-0.835938,0.266113,0
28600,-0.479492,-0.846191,0.282715,0
28620,-0.474609,-0.851562,0.284668,0
28640,-0.47168,-0.855957,0.272949,0
28660,-0.473145,-0.839355,0.270508,0
28680,-0.479492,-0.828613,0.257812,0
28700,-0.485352,-0.827637,0.253906,0
28720,-0.485352,-0.828125,0.246094,0
28740,-0.47998,-0.834473,0.240723,0
28760,-0.481934,-0.832031,0.255371,0
28780,-0.476074,-0.82373,0.26709,0
28800,-0.473633,-0.831543,0.281738,0
28820,-0.480469,-0.845215,0.293945,0
28840,-0.482422,-0.857422,0.291016,0
28860,-0.472168,-0.850586,0.285156,0
28880,-0.465332,-0.83252,0.272461,0
28900,-0.472168,-0.822266,0.280273,0
28920,-0.486328,-0.818848,0.275391,0
28940,-0.481934,-0.821289,0.275879,0
28960,-0.472168,-0.834961,0.269531,0
28980,-0.47168,-0.848145,0.270508,0
29000,-0.473145,-0.837402,0.270996,0
29020,-0.470703,-0.84375,0.269531,0
29040,-0.478516,-0.847168,0.273438,0
29060,-0.47998,-0.834961,0.26709,0
29080,-0.478516,-0.83252,0.246582,0
29100,-0.463379,-0.835449,0.240234,0
29120,-0.453613,-0.828125,0.257324,0
29140,-0.456543,-0.828613,0.26416,0
29160,-0.464844,-0.853516,0.271973,0
29180,-0.471191,-0.858887,0.284668,0
29200,-0.467773,-0.858398,0.294922,0
29220,-0.478516,-0.851562,0.298828,0
29240,-0.498047,-0.830566,0.287598,0
29260,-0.494629,-0.817871,0.269531,0
29280,-0.484375,-0.817383,0.26123,0
29300,-0.497559,-0.819824,0.261719,0
29320,-0.50293,-0.811035,0.260254,0
29340,-0.504395,-0.807129,0.254883,0
29360,-0.501953,-0.817871,0.268555,0
29380,-0.504395,-0.825684,0.26709,0
29400,-0.506836,-0.822266,0.270508,0
29420,-0.503906,-0.824219,0.273438,0
29440,-0.493652,-0.813965,0.273438,0
29460,-0.490234,-0.803711,0.273438,0
29480,-0.490723,-0.817871,0.287109,0
29500,-0.479004,-0.841309,0.294922,0
29520,-0.470703,-0.865234,0.29248,0
29540,-0.472656,-0.86377,0.299805,0
29560,-0.477051,-0.852051,0.294434,0
29580,-0.46875,-0.831543,0.296387,0
29600,-0.473633,-0.821289,0.286133,0
29620,-0.473633,-0.812012,0.283691,0
29640,-0.476074,-0.811523,0.271484,0
29660,-0.475098,-0.811523,0.282715,0
29680,-0.466309,-0.818359,0.291992,0
29700,-0.466309,-0.825195,0.296387,0
29720,-0.471191,-0.835449,0.307129,0
29740,-0.466797,-0.842773,0.321289,0
29760,-0.464355,-0.847656,0.305664,0
29780,-0.470703,-0.842285,0.291016,0
29800,-0.476074,-0.836426,0.28418,0
29820,-0.48291,-0.825684,0.271973,0
29840,-0.481934,-0.820801,0.271973,0
29860,-0.481934,-0.8125,0.272461,0
29880,-0.476074,-0.808594,0.290039,0
29900,-0.465332,-0.817871,0.312988,0
29920,-0.455078,-0.827637,0.333008,0
29940,-0.446289,-0.84082,0.333008,0
29960,-0.448242,-0.847656,0.334473,0
29980,-0.445312,-0.841309,0.32959,0
30000,-0.443848,-0.831543,0.317383,0
30020,-0.457031,-0.830566,0.304199,0
30040,-0.479492,-0.833984,0.297852,0
30060,-0.486816,-0.826172,0.280762,0
30080,-0.483398,-0.816406,0.27832,0
30100,-0.47998,-0.806641,0.285156,0
30120,-0.473145,-0.79541,0.306152,0
30140,-0.462402,-0.802734,0.326172,0
30160,-0.459473,-0.824219,0.344727,0
30180,-0.462402,-0.842773,0.341309,0
30200,-0.456543,-0.842285,0.316406,0
30220,-0.455078,-0.827637,0.294922,0
30240,-0.469238,-0.822754,0.296875,0
30260,-0.482422,-0.810059,0.295898,0
30280,-0.491211,-0.818359,0.28125,0
30300,-0.479492,-0.817383,0.280273,0
30320,-0.467773,-0.81543,0.29541,0
30340,-0.464844,-0.810059,0.321289,0
30360,-0.458496,-0.820801,0.335938,0
30380,-0.447266,-0.841797,0.345703,0
30400,-0.446289,-0.854004,0.337402,0
30420,-0.452148,-0.856445,0.319824,0
30440,-0.45459,-0.856445,0.306641,0
30460,-0.466309,-0.840332,0.311523,0
30480,-0.486816,-0.828125,0.305664,0
30500,-0.483398,-0.810547,0.293457,0
30520,-0.473633,-0.799805,0.279297,0
30540,-0.469727,-0.788086,0.284668,0
30560,-0.47168,-0.797852,0.290039,0
30580,-0.481445,-0.807617,0.293457,0
30600,-0.48291,-0.823242,0.313477,0
30620,-0.489746,-0.838867,0.328613,0
30630,-0.489258,-0.847168,0.32373,0
30650,-0.480469,-0.848145,0.314453,0
30670,-0.483398,-0.835938,0.307617,0
30690,-0.486328,-0.819824,0.293457,0
30710,-0.478027,-0.814941,0.281738,0
30730,-0.46582,-0.808594,0.259277,0
30750,-0.465332,-0.816895,0.265137,0
30770,-0.475098,-0.809082,0.277832,0
30790,-0.481445,-0.805176,0.281738,0
30810,-0.489258,-0.818359,0.298828,0
30830,-0.499023,-0.837891,0.31543,0
30850,-0.506348,-0.84082,0.3125,0
30870,-0.502441,-0.846191,0.311035,0
30890,-0.494141,-0.837891,0.305176,0
30910,-0.486328,-0.816895,0.291016,0
30930,-0.474609,-0.800781,0.292969,0
30950,-0.470215,-0.807129,0.295898,0
30970,-0.473633,-0.802246,0.296875,0
30990,-0.475098,-0.807617,0.307129,0
31010,-0.477051,-0.816406,0.305664,0
31030,-0.478027,-0.821289,0.297852,0
31050,-0.478516,-0.818359,0.29834,0
31070,-0.479004,-0.8125,0.288574,0
31090,-0.479004,-0.811035,0.288574,0
31110,-0.485352,-0.814453,0.291016,0
31130,-0.484863,-0.820312,0.287598,0
31150,-0.484863,-0.827148,0.286133,0
31170,-0.487305,-0.82373,0.294922,0
31190,-0.48584,-0.820312,0.291016,0
31210,-0.480957,-0.830078,0.293457,0
31230,-0.476074,-0.829102,0.30127,0
31250,-0.474121,-0.827148,0.298828,0
31270,-0.46875,-0.816895,0.303711,0
31290,-0.47168,-0.822266,0.309082,0
31310,-0.471191,-0.827637,0.30127,0
31330,-0.472168,-0.831055,0.297852,0
31350,-0.474609,-0.828613,0.294922,0
31370,-0.481934,-0.812012,0.285645,0
31390,-0.48291,-0.797852,0.277832,0
31410,-0.480469,-0.796387,0.291016,0
31430,-0.473145,-0.811523,0.306152,0
31450,-0.476074,-0.824219,0.319336,0
31470,-0.470703,-0.840332,0.32666,0
31490,-0.463867,-0.849609,0.319824,0
31510,-0.463867,-0.837891,0.32373,0
31530,-0.461914,-0.821777,0.315918,0
31550,-0.463379,-0.821777,0.307617,0
31570,-0.465332,-0.829102,0.300293,0
31590,-0.467773,-0.832031,0.291016,0
31610,-0.47168,-0.834473,0.29248,0
31630,-0.465332,-0.841797,0.309082,0
31650,-0.464844,-0.851074,0.345703,0
31670,-0.45166,-0.854492,0.333008,0
31690,-0.442383,-0.852539,0.29541,0
31710,-0.44873,-0.834961,0.282227,0
31730,-0.46582,-0.810059,0.280273,0
31750,-0.476562,-0.807129,0.285645,0
31770,-0.482422,-0.821777,0.292969,0
31790,-0.487305,-0.831055,0.309082,0
31810,-0.476074,-0.841309,0.308594,0
31830,-0.460449,-0.844238,0.288086,0
31850,-0.445801,-0.825195,0.288086,0
31870,-0.44873,-0.813965,0.29834,0
31890,-0.455566,-0.82666,0.307617,0
31910,-0.460449,-0.835449,0.307129,0
31930,-0.456543,-0.842773,0.307617,0
31950,-0.471191,-0.843262,0.302734,0
31970,-0.474609,-0.839355,0.296875,0
31990,-0.472168,-0.834473,0.283691,0
32010,-0.469238,-0.83252,0.286621,0
32030,-0.466309,-0.849609,0.288574,0
32050,-0.463867,-0.858398,0.295898,0
32070,-0.465332,-0.85791,0.289551,0
32090,-0.46582,-0.856934,0.279785,0
32110,-0.463867,-0.842285,0.274414,0
32130,-0.452148,-0.823242,0.26709,0
32150,-0.463379,-0.821289,0.268555,0
32170,-0.473145,-0.822754,0.278809,0
32190,-0.484375,-0.824707,0.281738,0
32210,-0.48877,-0.838379,0.275879,0
32230,-0.48584,-0.842285,0.270508,0
32250,-0.498047,-0.84668,0.266602,0
32270,-0.50293,-0.840332,0.236816,0
32290,-0.493164,-0.848633,0.224609,0
32310,-0.486328,-0.85498,0.245605,0
32330,-0.493164,-0.856934,0.270508,0
32350,-0.489258,-0.866699,0.271484,0
32370,-0.478027,-0.870117,0.260742,0
32390,-0.477051,-0.854492,0.258301,0
32410,-0.478027,-0.833984,0.253418,0
32430,-0.492676,-0.814941,0.234863,0
32450,-0.500977,-0.799316,0.214844,0
32470,-0.497559,-0.810059,0.219238,0
32490,-0.504883,-0.834961,0.209473,0
32510,-0.515137,-0.847168,0.192871,0
32530,-0.52832,-0.873535,0.178223,0
32550,-0.527344,-0.881836,0.151855,0
32570,-0.504395,-0.868652,0.142578,0
32590,-0.509277,-0.848633,0.153809,0
32610,-0.529785,-0.849121,0.168457,0
32630,-0.538086,-0.862793,0.178223,0
32650,-0.532227,-0.863281,0.15332,0
32670,-0.513672,-0.859375,0.132324,0
32690,-0.523438,-0.838379,0.112305,0
32710,-0.540039,-0.828125,0.105469,0
32730,-0.528809,-0.851562,0.0878906,0
32750,-0.531738,-0.875,0.0795898,0
32770,-0.538086,-0.893555,0.0859375,0
32790,-0.547363,-0.876465,0.0839844,0
32810,-0.555176,-0.864258,0.074707,0
32830,-0.555176,-0.845215,0.065918,0
32850,-0.562988,-0.830566,0.0649414,0
32870,-0.565918,-0.824707,0.0605469,0
32890,-0.562988,-0.82959,0.0488281,0
32910,-0.566406,-0.835449,0.0351562,0
32930,-0.564453,-0.84375,0.0307617,0
32950,-0.567383,-0.853516,0.0356445,0
32970,-0.569336,-0.852539,0.034668,0
32990,-0.580566,-0.851074,0.0356445,0
33010,-0.587402,-0.84668,0.0268555,0
33030,-0.577637,-0.840332,0.0151367,0
33050,-0.573242,-0.834961,0.0126953,0
33070,-0.572266,-0.828125,0.0136719,0
33090,-0.575195,-0.847656,0.0249023,0
33110,-0.584473,-0.859863,0.027832,0
33130,-0.587402,-0.845703,0.0166016,0
33150,-0.59082,-0.840332,0.0214844,0
33170,-0.596191,-0.833984,0.0126953,0
33190,-0.590332,-0.819824,0.00537109,0
33210,-0.585938,-0.81543,-0.00341797,0
33230,-0.585449,-0.830078,-0.0126953,0
33250,-0.584961,-0.85498,-0.0151367,0
33270,-0.583008,-0.868164,-0.0224609,0
33290,-0.586914,-0.871582,-0.0444336,0
33300,-0.586426,-0.862793,-0.0380859,0
33320,-0.581543,-0.837402,-0.0322266,0
33340,-0.575684,-0.833984,-0.0131836,0
33360,-0.57959,-0.840332,-0.000976562,0
33380,-0.583984,-0.84668,0.00292969,0
33400,-0.572754,-0.84375,0.000488281,0
33420,-0.572266,-0.84375,-0.0117188,0
33440,-0.582031,-0.828613,-0.0151367,0
33460,-0.59082,-0.820312,-0.0214844,0
33480,-0.59082,-0.825195,-0.0263672,0
33500,-0.599121,-0.839355,-0.0332031,0
33520,-0.600586,-0.849121,-0.0283203,0
33540,-0.600586,-0.853027,-0.0229492,0
33560,-0.604004,-0.845703,-0.0322266,0
33580,-0.600586,-0.848145,-0.0341797,0
33600,-0.591309,-0.844238,-0.0366211,0
33620,-0.595215,-0.836914,-0.0449219,0
33640,-0.595215,-0.837891,-0.0424805,0
33660,-0.598633,-0.837402,-0.0371094,0
33680,-0.594727,-0.837402,-0.0449219,0
33700,-0.583008,-0.842773,-0.0498047,0
33720,-0.570801,-0.832031,-0.0488281,0
33740,-0.563965,-0.834473,-0.034668,0
33760,-0.571777,-0.848633,-0.019043,0
33780,-0.576172,-0.864258,-0.0078125,0
33800,-0.583984,-0.871582,-0.012207,0
33820,-0.594727,-0.872559,-0.019043,0
33840,-0.596191,-0.837402,-0.0234375,0
33860,-0.583984,-0.818848,-0.0385742,0
33880,-0.580078,-0.827148,-0.050293,0
33900,-0.586426,-0.853027,-0.0424805,0
33920,-0.583008,-0.858887,-0.0395508,0
33940,-0.580078,-0.85498,-0.0327148,0
33960,-0.586426,-0.85791,-0.0263672,0
33980,-0.59375,-0.851074,-0.0317383,0
34000,-0.593262,-0.849121,-0.0439453,0
34020,-0.589355,-0.842773,-0.0366211,0
34040,-0.587402,-0.838867,-0.0371094,0
34060,-0.578125,-0.840332,-0.0556641,0
34080,-0.57959,-0.860352,-0.0478516,0
34100,-0.585449,-0.858398,-0.0458984,0
34120,-0.604004,-0.84668,-0.0454102,0
34140,-0.597168,-0.836426,-0.0673828,0
34160,-0.595215,-0.835938,-0.0693359,0
34180,-0.588867,-0.825684,-0.0708008,0
34200,-0.584473,-0.83252,-0.0737305,0
34220,-0.583496,-0.850098,-0.0615234,0
34240,-0.581543,-0.86377,-0.0610352,0
34260,-0.578613,-0.853027,-0.065918,0
34280,-0.584473,-0.820801,-0.0585938,0
34300,-0.596191,-0.806641,-0.0317383,0
34320,-0.600586,-0.802734,-0.0200195,0
34340,-0.602051,-0.799316,-0.0185547,0
34360,-0.59668,-0.806641,-0.043457,0
34380,-0.591309,-0.802734,-0.0541992,0
34400,-0.591309,-0.812988,-0.0385742,0
34420,-0.596191,-0.830078,-0.00830078,0
34440,-0.609375,-0.828613,0.00341797,0
34460,-0.600098,-0.841309,-0.0268555,0
34480,-0.588379,-0.868652,-0.0268555,0
34500,-0.584473,-0.907715,0.0415039,0
34520,-0.588867,-0.917969,0.0791016,0
34540,-0.57959,-0.875,0.0405273,0
34560,-0.561035,-0.849121,0.00341797,0
34580,-0.550781,-0.815918,-0.00537109,0
34600,-0.562988,-0.770996,-0.00488281,0
34620,-0.577637,-0.758301,0.00976562,0
34640,-0.576172,-0.773926,0.0361328,0
34660,-0.578613,-0.79834,0.0615234,0
34680,-0.618164,-0.84375,0.0756836,0
34700,-0.669922,-0.861816,0.111328,0
34720,-0.656738,-0.8125,0.119141,0
34740,-0.620117,-0.837402,0.0795898,0
34760,-0.562012,-0.875488,0.0810547,0
34780,-0.534668,-0.848633,0.0976562,0
34800,-0.543457,-0.803711,0.125488,0
34820,-0.537598,-0.78418,0.140625,0
34840,-0.538574,-0.785156,0.148926,0
34860,-0.535645,-0.780762,0.17041,0
34880,-0.541504,-0.795898,0.190918,0
34900,-0.546875,-0.82373,0.201172,0
34920,-0.537598,-0.857422,0.199219,0
34940,-0.522949,-0.894043,0.193848,0
34960,-0.515137,-0.931152,0.190918,0
34980,-0.511719,-0.955078,0.169434,0
35000,-0.503906,-0.954102,0.158203,0
35020,-0.509277,-0.955078,0.158203,0
35040,-0.493652,-0.956543,0.148926,0
35060,-0.463867,-0.94873,0.1875,0
35080,-0.44873,-0.920898,0.236328,0
35100,-0.449707,-0.842285,0.251465,0
35120,-0.445801,-0.777832,0.257812,0
35140,-0.464844,-0.753906,0.268066,0
35160,-0.46582,-0.766602,0.277832,0
35180,-0.470215,-0.806152,0.261719,0
35200,-0.480469,-0.837891,0.224609,0
35220,-0.527832,-0.825684,0.204102,0
35240,-0.591309,-0.817871,0.172852,0
35260,-0.612305,-0.824707,0.135254,0
35280,-0.601562,-0.830078,0.138184,0
35300,-0.581543,-0.80957,0.170898,0
35320,-0.55127,-0.816406,0.189941,0
35340,-0.514648,-0.831543,0.231934,0
35360,-0.453613,-0.861816,0.279297,0
35380,-0.397461,-0.882324,0.309082,0
35400,-0.37207,-0.896484,0.313965,0
35420,-0.397461,-0.882812,0.311035,0
35440,-0.431152,-0.862793,0.301758,0
35460,-0.436035,-0.866211,0.283203,0
35480,-0.452637,-0.872559,0.254883,0
35500,-0.484375,-0.845215,0.226074,0
35520,-0.510254,-0.818848,0.1875,0
35540,-0.516602,-0.800781,0.194824,0
35560,-0.598145,-0.780762,0.19873,0
35580,-0.662109,-0.773438,0.214355,0
35600,-0.648438,-0.803711,0.208496,0
35620,-0.586914,-0.836914,0.228516,0
35640,-0.498047,-0.875977,0.245117,0
35660,-0.398438,-0.892578,0.269043,0
35680,-0.307617,-0.888184,0.293457,0
35700,-0.338379,-0.856445,0.272461,0
35720,-0.385742,-0.817383,0.271484,0
35740,-0.45752,-0.838867,0.327148,0
35760,-0.610352,-0.884766,0.289551,0
35780,-0.619629,-0.875977,0.223145,0
35800,-0.517578,-0.84375,0.166992,0
35820,-0.458496,-0.809082,0.168945,0
35840,-0.401855,-0.779297,0.208496,0
35860,-0.349609,-0.804199,0.246094,0
35880,-0.378906,-0.848145,0.273438,0
35900,-0.479004,-0.870605,0.306641,0
35920,-0.576172,-0.863281,0.297363,0
35940,-0.588867,-0.855469,0.270508,0
35960,-0.52832,-0.848633,0.233398,0
35980,-0.476562,-0.843262,0.237793,0
35990,-0.416016,-0.848145,0.233887,0
36010,-0.35791,-0.866211,0.221191,0
36030,-0.314941,-0.89502,0.239746,0
36050,-0.331543,-0.897949,0.249023,0
36070,-0.414062,-0.861816,0.280273,0
36090,-0.546387,-0.834961,0.288574,0
36110,-0.670898,-0.813965,0.289062,0
36130,-0.655762,-0.821289,0.297852,0
36150,-0.545898,-0.853516,0.267578,0
36170,-0.423828,-0.848145,0.23584,0
36190,-0.343262,-0.810547,0.240723,0
36210,-0.337402,-0.817871,0.265137,0
36230,-0.349121,-0.855957,0.28125,0
36250,-0.387695,-0.871094,0.270508,0
36270,-0.495117,-0.840332,0.268066,0
36290,-0.641602,-0.809082,0.26416,0
36310,-0.693848,-0.79248,0.268066,0
36330,-0.615234,-0.818359,0.269531,0
36350,-0.48291,-0.851562,0.248535,0
36370,-0.374512,-0.834961,0.234863,0
36390,-0.325195,-0.832031,0.259277,0
36410,-0.296387,-0.884277,0.276367,0
36430,-0.296875,-0.924805,0.272949,0
36450,-0.357422,-0.925293,0.269043,0
36470,-0.456543,-0.895508,0.275391,0
36490,-0.630859,-0.849609,0.259277,0
36510,-0.705566,-0.795898,0.268555,0
36530,-0.618164,-0.803223,0.261719,0
36550,-0.488281,-0.819824,0.233887,0
36570,-0.39209,-0.794434,0.237793,0
36590,-0.342285,-0.787598,0.274902,0
36610,-0.34668,-0.844727,0.291016,0
36630,-0.348145,-0.910645,0.306641,0
36650,-0.376953,-0.941406,0.286133,0
36670,-0.476562,-0.904785,0.266113,0
36690,-0.629395,-0.840332,0.243652,0
36710,-0.690918,-0.786133,0.248047,0
36730,-0.598145,-0.783203,0.251465,0
36750,-0.481934,-0.805664,0.233887,0
36770,-0.403809,-0.80127,0.254395,0
36790,-0.371094,-0.805664,0.284668,0
36810,-0.356934,-0.852051,0.29248,0
36830,-0.351562,-0.909668,0.297852,0
36850,-0.418457,-0.898438,0.299805,0
36870,-0.535156,-0.864258,0.280762,0
36890,-0.622559,-0.824219,0.249512,0
36910,-0.59082,-0.803711,0.258789,0
36930,-0.501953,-0.819336,0.239258,0
36950,-0.422852,-0.822754,0.226074,0
36970,-0.379883,-0.813965,0.247559,0
36990,-0.367188,-0.85791,0.271484,0
37010,-0.371094,-0.895996,0.282715,0
37030,-0.404785,-0.896484,0.280273,0
37050,-0.507812,-0.853027,0.288086,0
37070,-0.625,-0.81543,0.279297,0
37090,-0.633301,-0.79834,0.282715,0
37110,-0.537109,-0.83252,0.249023,0
37130,-0.440918,-0.834961,0.227539,0
37150,-0.383301,-0.824707,0.246582,0
37170,-0.376953,-0.844238,0.266113,0
37190,-0.379883,-0.874023,0.279297,0
37210,-0.376465,-0.899902,0.279297,0
37230,-0.415527,-0.891602,0.279297,0
37250,-0.543945,-0.844727,0.26416,0
37270,-0.651855,-0.794434,0.268066,0
37290,-0.616699,-0.80957,0.278809,0
37310,-0.500488,-0.833984,0.241699,0
37330,-0.421875,-0.815918,0.219238,0
37350,-0.367676,-0.795898,0.23584,0
37370,-0.362305,-0.824219,0.263184,0
37390,-0.375977,-0.869629,0.282715,0
37410,-0.397461,-0.905762,0.297852,0
37430,-0.463379,-0.900879,0.313477,0
37450,-0.591797,-0.868164,0.293945,0
37470,-0.675781,-0.813965,0.294922,0
37490,-0.59082,-0.799316,0.28125,0
37510,-0.487305,-0.80957,0.231445,0
37530,-0.446289,-0.776367,0.232422,0
37550,-0.403809,-0.781738,0.248535,0
37570,-0.40332,-0.835449,0.25,0
37590,-0.413574,-0.878906,0.257324,0
37610,-0.425293,-0.902832,0.273926,0
37630,-0.479004,-0.90332,0.276367,0
37650,-0.60498,-0.85498,0.270508,0
37670,-0.654785,-0.813477,0.289062,0
37690,-0.564453,-0.819336,0.277832,0
37710,-0.456055,-0.823242,0.245605,0
37730,-0.399414,-0.784668,0.242676,0
37750,-0.377441,-0.792969,0.275391,0
37770,-0.39502,-0.847168,0.288086,0
37790,-0.39502,-0.889648,0.289551,0
37810,-0.411621,-0.900391,0.289551,0
37830,-0.521484,-0.875,0.285156,0
37850,-0.65332,-0.817383,0.273926,0
37870,-0.664551,-0.782715,0.29248,0
37890,-0.526855,-0.812012,0.259277,0
37910,-0.461426,-0.814941,0.229004,0
37930,-0.42627,-0.775391,0.234375,0
37950,-0.412109,-0.807617,0.253418,0
37970,-0.419922,-0.859863,0.259766,0
37990,-0.430176,-0.878906,0.261719,0
38010,-0.445801,-0.878418,0.256348,0
38030,-0.54541,-0.849609,0.240723,0
38050,-0.668945,-0.799805,0.260254,0
38070,-0.652344,-0.777344,0.285645,0
38090,-0.532715,-0.808594,0.267578,0
38110,-0.456543,-0.798828,0.237305,0
38130,-0.404785,-0.770996,0.252441,0
38150,-0.406738,-0.804688,0.267578,0
38170,-0.412109,-0.85498,0.257812,0
38190,-0.413086,-0.889648,0.265137,0
38210,-0.453125,-0.903809,0.274414,0
38230,-0.56543,-0.862305,0.261719,0
38250,-0.647949,-0.808105,0.269531,0
38270,-0.587402,-0.790039,0.273926,0
38290,-0.488281,-0.812988,0.245605,0
38310,-0.422852,-0.802246,0.244141,0
38330,-0.406738,-0.818848,0.270508,0
38350,-0.425293,-0.867676,0.265137,0
38370,-0.430664,-0.907227,0.256348,0
38390,-0.449219,-0.89502,0.270996,0
38410,-0.523438,-0.856934,0.282227,0
38430,-0.635254,-0.814453,0.257812,0
38450,-0.67041,-0.777344,0.257812,0
38470,-0.568848,-0.771973,0.22998,0
38490,-0.464355,-0.771484,0.205078,0
38510,-0.415039,-0.751953,0.214355,0
38530,-0.401855,-0.775879,0.240234,0
38550,-0.38916,-0.833008,0.247559,0
38570,-0.394043,-0.889648,0.272949,0
38590,-0.439941,-0.92334,0.299316,0
38610,-0.528809,-0.904297,0.270996,0
38630,-0.582031,-0.866211,0.270996,0
38650,-0.535645,-0.850586,0.271973,0
38660,-0.463379,-0.848145,0.245117,0
38680,-0.395508,-0.850098,0.248535,0
38700,-0.37793,-0.879395,0.251465,0
38720,-0.385254,-0.890625,0.250488,0
38740,-0.38623,-0.882324,0.236816,0
38760,-0.437988,-0.850586,0.252441,0
38780,-0.560059,-0.79834,0.256836,0
38800,-0.621094,-0.762695,0.27002,0
38820,-0.555176,-0.795898,0.274902,0
38840,-0.479492,-0.815918,0.26709,0
38860,-0.430664,-0.815918,0.268066,0
38880,-0.410156,-0.851074,0.28418,0
38900,-0.394531,-0.900391,0.296387,0
38920,-0.40625,-0.919922,0.259766,0
38940,-0.457031,-0.894531,0.242188,0
38960,-0.563965,-0.860352,0.23584,0
38980,-0.591797,-0.828125,0.234863,0
39000,-0.525391,-0.82666,0.222656,0
39020,-0.445801,-0.840332,0.240723,0
39040,-0.378906,-0.842773,0.26416,0
39060,-0.35791,-0.858887,0.297363,0
39080,-0.359375,-0.882812,0.302246,0
39100,-0.378418,-0.887207,0.275391,0
39120,-0.424316,-0.850098,0.26416,0
39140,-0.549316,-0.802246,0.236328,0
39160,-0.646973,-0.785645,0.234375,0
39180,-0.608398,-0.810059,0.242676,0
39200,-0.51123,-0.859863,0.239258,0
39220,-0.405762,-0.864746,0.229004,0
39240,-0.347168,-0.868164,0.257324,0
39260,-0.34082,-0.885742,0.280762,0
39280,-0.35791,-0.890137,0.276855,0
39300,-0.40332,-0.878418,0.269531,0
39320,-0.5,-0.83252,0.252441,0
39340,-0.636719,-0.803711,0.243164,0
39360,-0.669922,-0.795898,0.251465,0
39380,-0.578125,-0.831055,0.244629,0
39400,-0.471191,-0.84375,0.217773,0
39420,-0.381836,-0.834961,0.234375,0
39440,-0.342285,-0.860352,0.26123,0
39460,-0.338867,-0.891113,0.274902,0
39480,-0.366211,-0.907715,0.273438,0
39500,-0.425781,-0.889648,0.256836,0
39520,-0.557617,-0.834473,0.252441,0
39540,-0.680176,-0.784668,0.240723,0
39560,-0.63916,-0.787598,0.25,0
39580,-0.507324,-0.827637,0.22168,0
39600,-0.395996,-0.82666,0.233887,0
39620,-0.325195,-0.831543,0.267578,0
39640,-0.304688,-0.879883,0.291016,0
39660,-0.319336,-0.900391,0.28125,0
39680,-0.371094,-0.900879,0.267578,0
39700,-0.459473,-0.876465,0.253906,0
39720,-0.615723,-0.830566,0.231445,0
39740,-0.723633,-0.792969,0.247559,0
39760,-0.666016,-0.835449,0.274902,0
39780,-0.53125,-0.866211,0.231934,0
39800,-0.388672,-0.833984,0.202148,0
39820,-0.303711,-0.831055,0.230469,0
39840,-0.269043,-0.855469,0.274414,0
39860,-0.302246,-0.870605,0.273926,0
39880,-0.381348,-0.873047,0.282715,0
39900,-0.453125,-0.895508,0.290527,0
39930,-0.709961,-0.806641,0.27832,0
39950,-0.610352,-0.828613,0.265625,0
39970,-0.48877,-0.838379,0.240723,0
39990,-0.390137,-0.803711,0.224121,0
40010,-0.326172,-0.820801,0.242188,0
40030,-0.314941,-0.88623,0.268555,0
40050,-0.345703,-0.929688,0.296875,0
40070,-0.390625,-0.926758,0.290039,0
40090,-0.501465,-0.870117,0.255859,0
40110,-0.662109,-0.783691,0.236328,0
40130,-0.693848,-0.731934,0.257812,0
40150,-0.585938,-0.757324,0.246582,0
40170,-0.462402,-0.782715,0.221191,0
40190,-0.353027,-0.793457,0.218262,0
40210,-0.296387,-0.82959,0.258301,0
40230,-0.309082,-0.90918,0.306641,0
40250,-0.332031,-0.970703,0.321289,0
40270,-0.390137,-0.984863,0.300781,0
40290,-0.476562,-0.941406,0.277832,0
40310,-0.63916,-0.856934,0.249512,0
40330,-0.691895,-0.774902,0.262207,0
40350,-0.570312,-0.777344,0.249023,0
40370,-0.445312,-0.794434,0.242676,0
40390,-0.350586,-0.781738,0.253906,0
40410,-0.311035,-0.8125,0.289551,0
40430,-0.303223,-0.880371,0.324707,0
40450,-0.32666,-0.916016,0.321289,0
40470,-0.40332,-0.890137,0.304688,0
40490,-0.55957,-0.855957,0.278809,0
40510,-0.706543,-0.8125,0.265625,0
40530,-0.673828,-0.805176,0.273926,0
40550,-0.539062,-0.835449,0.237793,0
40570,-0.414062,-0.817871,0.222168,0
40590,-0.317383,-0.793457,0.25,0
40610,-0.291504,-0.835938,0.293945,0
40630,-0.275391,-0.907715,0.330078,0
40650,-0.310059,-0.943359,0.330566,0
40670,-0.39502,-0.921387,0.299316,0
40690,-0.564453,-0.878906,0.275879,0
40710,-0.708984,-0.799805,0.265625,0
40730,-0.658203,-0.78418,0.283691,0
40750,-0.514648,-0.819336,0.236328,0
40770,-0.393066,-0.804688,0.224609,0
40790,-0.311523,-0.782715,0.251953,0
40810,-0.298828,-0.835449,0.287109,0
40830,-0.308105,-0.91748,0.311523,0
40850,-0.339355,-0.965332,0.32373,0
40870,-0.441406,-0.937988,0.307129,0
40890,-0.64502,-0.875,0.277832,0
40910,-0.745605,-0.790039,0.274902,0
40930,-0.625488,-0.768555,0.276855,0
40950,-0.482422,-0.776367,0.236816,0
40970,-0.389648,-0.74707,0.228027,0
40990,-0.333496,-0.754883,0.271484,0
41010,-0.324219,-0.821289,0.289062,0
41030,-0.297852,-0.90625,0.30957,0
41050,-0.333984,-0.953125,0.310059,0
41070,-0.462402,-0.902832,0.272949,0
41090,-0.668457,-0.839844,0.248535,0
41110,-0.734375,-0.79248,0.267578,0
41130,-0.60498,-0.802734,0.272461,0
41150,-0.462402,-0.822266,0.23877,0
41170,-0.351562,-0.799805,0.252441,0
41190,-0.290039,-0.838867,0.294434,0
41210,-0.258301,-0.928223,0.322266,0
41230,-0.306152,-0.956543,0.304688,0
41250,-0.395508,-0.939941,0.303711,0
41270,-0.509277,-0.900391,0.279785,0
41290,-0.688477,-0.813965,0.249023,0
41310,-0.67334,-0.761719,0.270508,0
41330,-0.526367,-0.789062,0.243652,0
41340,-0.425293,-0.787109,0.23584,0
41360,-0.345703,-0.785645,0.26709,0
41380,-0.324219,-0.855469,0.293457,0
41400,-0.313477,-0.931641,0.305664,0
41420,-0.328613,-0.958008,0.294922,0
41440,-0.418457,-0.916992,0.266113,0
41460,-0.607422,-0.837402,0.241211,0
41480,-0.71875,-0.771484,0.243164,0
41500,-0.638672,-0.767578,0.257812,0
41520,-0.501465,-0.790527,0.236816,0
41540,-0.40332,-0.773926,0.23584,0
41560,-0.339355,-0.787109,0.290039,0
41580,-0.325195,-0.874023,0.312988,0
41600,-0.315918,-0.943848,0.3125,0
41620,-0.34668,-0.959473,0.289062,0
41640,-0.485352,-0.901367,0.259277,0
41660,-0.65918,-0.822754,0.228516,0
41680,-0.708496,-0.768066,0.246582,0
41700,-0.583984,-0.782715,0.249023,0
41720,-0.472656,-0.803223,0.223145,0
41740,-0.380859,-0.78418,0.248535,0
41760,-0.335449,-0.827148,0.294434,0
41770,-0.310059,-0.942383,0.317383,0
41790,-0.37207,-0.928711,0.290527,0
41810,-0.54248,-0.87207,0.266113,0
41830,-0.696777,-0.792969,0.246582,0
41850,-0.666016,-0.771973,0.266602,0
41870,-0.524902,-0.800781,0.246094,0
41890,-0.422852,-0.794922,0.231934,0
41910,-0.344727,-0.786621,0.274902,0
41930,-0.318848,-0.854004,0.312012,0
41950,-0.304688,-0.932129,0.312988,0
41970,-0.338379,-0.95166,0.310547,0
41980,-0.441895,-0.915527,0.270996,0
42000,-0.619141,-0.845215,0.249023,0
42020,-0.70166,-0.778809,0.254883,0
42040,-0.60791,-0.781738,0.26123,0
42060,-0.485352,-0.806152,0.229492,0
42080,-0.395508,-0.791016,0.246094,0
42100,-0.333984,-0.812988,0.290039,0
42120,-0.31543,-0.899902,0.316895,0
42140,-0.31543,-0.958496,0.316895,0
42160,-0.378418,-0.948242,0.307129,0
42180,-0.537109,-0.900391,0.291992,0
42200,-0.675293,-0.825195,0.270508,0
42220,-0.654297,-0.795898,0.279297,0
42240,-0.527832,-0.815918,0.256348,0
42260,-0.432129,-0.807129,0.230957,0
42280,-0.358887,-0.796387,0.247559,0
42300,-0.34375,-0.855957,0.268555,0
42320,-0.337402,-0.912109,0.295898,0
42340,-0.342285,-0.927246,0.286621,0
42360,-0.428711,-0.90332,0.269043,0
42380,-0.619629,-0.85791,0.26123,0
42400,-0.750488,-0.803223,0.252441,0
42420,-0.680664,-0.789551,0.238281,0
42440,-0.535156,-0.779297,0.199707,0
42460,-0.424316,-0.762695,0.180176,0
42480,-0.338867,-0.78125,0.208008,0
42500,-0.290527,-0.848145,0.222168,0
42520,-0.354004,-0.894531,0.240234,0
42540,-0.388672,-0.916992,0.26416,0
42560,-0.461426,-0.923828,0.240723,0
42580,-0.642578,-0.854004,0.212402,0
42600,-0.700195,-0.803711,0.231934,0
42620,-0.59668,-0.834473,0.213867,0
42640,-0.455078,-0.830566,0.193848,0
42660,-0.351562,-0.847168,0.202148,0
42680,-0.325195,-0.892578,0.23291,0
42700,-0.349609,-0.927246,0.244629,0
42720,-0.375,-0.918457,0.245117,0
42740,-0.441895,-0.882324,0.226562,0
42760,-0.606445,-0.808105,0.197266,0
42780,-0.743164,-0.754883,0.197266,0
42800,-0.714355,-0.782227,0.208008,0
42810,-0.580078,-0.820312,0.191406,0
42830,-0.446289,-0.823242,0.16748,0
42850,-0.349609,-0.848145,0.189941,0
42870,-0.328613,-0.890625,0.229004,0
42890,-0.345703,-0.928711,0.252441,0
42910,-0.386719,-0.934082,0.255859,0
42930,-0.501465,-0.891602,0.228516,0
42950,-0.660645,-0.818848,0.205566,0
42970,-0.709961,-0.786621,0.212402,0
42990,-0.619141,-0.806152,0.196289,0
43010,-0.502441,-0.815918,0.180664,0
43030,-0.396973,-0.833496,0.184082,0
43050,-0.349609,-0.879395,0.211426,0
43070,-0.351562,-0.921875,0.21875,0
43090,-0.372559,-0.925781,0.233398,0
43110,-0.441406,-0.891602,0.218262,0
43130,-0.598633,-0.827148,0.188477,0
43150,-0.705566,-0.775879,0.174805,0
43170,-0.69043,-0.792969,0.186523,0
43190,-0.590332,-0.829102,0.172852,0
43210,-0.486816,-0.834961,0.160645,0
43230,-0.407715,-0.855469,0.165527,0
43250,-0.38623,-0.884766,0.185059,0
43270,-0.403809,-0.896973,0.200195,0
43290,-0.433594,-0.890625,0.212891,0
43310,-0.532715,-0.847168,0.188477,0
43330,-0.665039,-0.794922,0.167969,0
43350,-0.693848,-0.775879,0.169434,0
43370,-0.618164,-0.802734,0.155762,0
43390,-0.515625,-0.827637,0.137207,0
43410,-0.407715,-0.841797,0.146973,0
43430,-0.356445,-0.874023,0.181152,0
43450,-0.375977,-0.90625,0.19873,0
43470,-0.422363,-0.90918,0.209473,0
43490,-0.478516,-0.881836,0.199707,0
43510,-0.612305,-0.822266,0.168457,0
43530,-0.71875,-0.774902,0.158203,0
43550,-0.682129,-0.79541,0.161621,0
43570,-0.566406,-0.834473,0.147461,0
43590,-0.449707,-0.844727,0.145996,0
43610,-0.370117,-0.854004,0.18457,0
43630,-0.380371,-0.875977,0.215332,0
43650,-0.42041,-0.891602,0.21582,0
43670,-0.447266,-0.895996,0.223145,0
43690,-0.529297,-0.856445,0.205566,0
43710,-0.689453,-0.788086,0.159668,0
43730,-0.750977,-0.762207,0.14502,0
43750,-0.659668,-0.799316,0.140137,0
43770,-0.529297,-0.835938,0.115723,0
43790,-0.381836,-0.841797,0.12793,0
43810,-0.319336,-0.875488,0.1875,0
43830,-0.317383,-0.923828,0.244141,0
43850,-0.378906,-0.932617,0.262207,0
43870,-0.427734,-0.921387,0.262695,0
43890,-0.522461,-0.878906,0.234375,0
43910,-0.674805,-0.797852,0.197754,0
43930,-0.691406,-0.772949,0.196777,0
43950,-0.59668,-0.808594,0.177246,0
43960,-0.470703,-0.817383,0.164062,0
43980,-0.369141,-0.833496,0.189941,0
44000,-0.347656,-0.874023,0.229004,0
44020,-0.376465,-0.90332,0.234375,0
44040,-0.400879,-0.911133,0.238281,0
44060,-0.468262,-0.875,0.232422,0
44080,-0.625488,-0.820801,0.227539,0
44100,-0.734375,-0.788574,0.25293,0
44120,-0.685059,-0.824707,0.240723,0
44140,-0.532227,-0.87207,0.199219,0
44160,-0.396973,-0.868164,0.189453,0
44180,-0.337402,-0.871582,0.219238,0
44200,-0.338867,-0.892578,0.236328,0
44220,-0.340332,-0.896484,0.253906,0
44240,-0.369141,-0.906738,0.266113,0
44260,-0.506348,-0.867188,0.236328,0
44280,-0.678711,-0.797363,0.216309,0
44300,-0.717285,-0.797363,0.231934,0
44320,-0.598633,-0.832031,0.213867,0
44340,-0.463379,-0.838867,0.176758,0
44360,-0.358398,-0.828613,0.195312,0
44380,-0.331055,-0.850098,0.223633,0
44400,-0.346191,-0.882812,0.228027,0
44420,-0.358887,-0.916016,0.254883,0
44440,-0.419922,-0.916992,0.235352,0
44460,-0.599121,-0.869141,0.200684,0
44480,-0.731934,-0.811035,0.190918,0
44500,-0.673828,-0.815918,0.192871,0
44520,-0.530273,-0.833496,0.172852,0
44540,-0.416504,-0.830566,0.182617,0
44560,-0.340332,-0.827637,0.218262,0
44580,-0.336426,-0.862793,0.25,0
44600,-0.349609,-0.88623,0.254883,0
44620,-0.376465,-0.88623,0.254883,0
44640,-0.494629,-0.86084,0.223145,0
44660,-0.668457,-0.815918,0.207031,0
44680,-0.716309,-0.811035,0.22998,0
44700,-0.607422,-0.853516,0.21582,0
44720,-0.467773,-0.875977,0.180176,0
44740,-0.362793,-0.868164,0.197754,0
44760,-0.313477,-0.87207,0.230469,0
44780,-0.30957,-0.884766,0.252441,0
44800,-0.339355,-0.893555,0.258301,0
44820,-0.425293,-0.872559,0.230957,0
44840,-0.597168,-0.838867,0.197266,0
44860,-0.717773,-0.809082,0.194824,0
44880,-0.671875,-0.817383,0.219727,0
44900,-0.536133,-0.846191,0.195312,0
44920,-0.419922,-0.840332,0.192383,0
44940,-0.333496,-0.844238,0.239258,0
44960,-0.314941,-0.894531,0.27002,0
44980,-0.32373,-0.927246,0.280762,0
45000,-0.375488,-0.910645,0.257324,0
45020,-0.520508,-0.859863,0.212891,0
45040,-0.680664,-0.79541,0.178711,0
45060,-0.70459,-0.769043,0.192383,0
45080,-0.585938,-0.810059,0.210938,0
45100,-0.464355,-0.835938,0.210938,0
45120,-0.36377,-0.847168,0.233887,0
45140,-0.310059,-0.882812,0.283691,0
45160,-0.296387,-0.930664,0.299805,0
45180,-0.330566,-0.92627,0.272461,0
45200,-0.419434,-0.89502,0.234863,0
45220,-0.581543,-0.853027,0.205566,0
45240,-0.707031,-0.79834,0.178223,0
45260,-0.670898,-0.803711,0.194824,0
45280,-0.532227,-0.836914,0.188477,0
45300,-0.416016,-0.834473,0.203613,0
45320,-0.339355,-0.845215,0.260254,0
45340,-0.314941,-0.888184,0.297363,0
45360,-0.318848,-0.926758,0.307617,0
45380,-0.359863,-0.919922,0.279785,0
45400,-0.485352,-0.868652,0.23877,0
45410,-0.664551,-0.8125,0.205078,0
45430,-0.719727,-0.780273,0.194824,0
45450,-0.604004,-0.811523,0.186035,0
45470,-0.475586,-0.835449,0.168945,0
45490,-0.367188,-0.83252,0.20752,0
45510,-0.314453,-0.867188,0.270508,0
45530,-0.30957,-0.919434,0.302734,0
45550,-0.334473,-0.928711,0.298828,0
45570,-0.414062,-0.893066,0.253906,0
45590,-0.558594,-0.833984,0.214844,0
45610,-0.69043,-0.783203,0.19873,0
45630,-0.661621,-0.793945,0.216309,0
45650,-0.536133,-0.849609,0.185059,0
45670,-0.424805,-0.854004,0.166016,0
45690,-0.32666,-0.85791,0.214355,0
45710,-0.306152,-0.893555,0.260254,0
45730,-0.320801,-0.915039,0.287598,0
45740,-0.484375,-0.885742,0.273926,0
45750,-0.654785,-0.832031,0.248047,0
45770,-0.705078,-0.794922,0.229492,0
45790,-0.578613,-0.812012,0.200684,0
45810,-0.451172,-0.832031,0.186035,0
45830,-0.356445,-0.825684,0.212891,0
45850,-0.312988,-0.854492,0.259277,0
45870,-0.329102,-0.916504,0.288086,0
45890,-0.355469,-0.928711,0.287598,0
45910,-0.421875,-0.902832,0.253418,0
45930,-0.572754,-0.839355,0.234375,0
45950,-0.701172,-0.780273,0.222656,0
45970,-0.656738,-0.791992,0.223633,0
46010,-0.414551,-0.852051,0.20166,0
46030,-0.333008,-0.853027,0.237793,0
46050,-0.31543,-0.888672,0.267578,0
46070,-0.328613,-0.910645,0.278809,0
46090,-0.373047,-0.90332,0.272461,0
46110,-0.493652,-0.855957,0.240723,0
46130,-0.657715,-0.796875,0.21875,0
46150,-0.704102,-0.776855,0.227539,0
46170,-0.589355,-0.811523,0.228516,0
46190,-0.457031,-0.831055,0.209473,0
46210,-0.351074,-0.839844,0.225098,0
46230,-0.302246,-0.854492,0.255859,0
46250,-0.311523,-0.896484,0.284668,0
46280,-0.424316,-0.890625,0.268066,0
46300,-0.574219,-0.839844,0.237793,0
46320,-0.709961,-0.796387,0.222656,0
46340,-0.66748,-0.799805,0.234375,0
46360,-0.521484,-0.835938,0.204102,0
46380,-0.398926,-0.838379,0.205566,0
46400,-0.30957,-0.855957,0.251465,0
46420,-0.30127,-0.916016,0.280762,0
46440,-0.31543,-0.9375,0.285156,0
46460,-0.36377,-0.923828,0.263672,0
46480,-0.469727,-0.872559,0.238281,0
46500,-0.628418,-0.805664,0.227539,0
46520,-0.693359,-0.768066,0.238281,0
46540,-0.605469,-0.802734,0.241699,0
46560,-0.480957,-0.839355,0.22168,0
46570,-0.376953,-0.836426,0.23291,0
46590,-0.320801,-0.854492,0.254395,0
46610,-0.321777,-0.897949,0.268066,0
46630,-0.356934,-0.930664,0.285645,0
46650,-0.45166,-0.941406,0.272461,0
46670,-0.58252,-0.911621,0.247559,0
46690,-0.65332,-0.82666,0.238281,0
46710,-0.605469,-0.86084,0.215332,0
46730,-0.47998,-0.922852,0.232422,0
46750,-0.350586,-0.947754,0.256348,0
46770,-0.307617,-1.00293,0.23291,0
46790,-0.40332,-1.03516,0.384277,0
46810,-0.446289,-0.847656,0.577148,0
46830,-0.384766,-0.829102,0.525391,0
46850,-0.290527,-0.895508,0.508789,0
46870,-0.227539,-0.896973,0.586914,0
46890,-0.131836,-0.96582,0.492676,0
46910,-0.0854492,-0.924316,0.397949,0
46930,-0.0419922,-0.888672,0.282227,0
46950,-0.0498047,-0.900879,0.355469,0
46970,-0.0664062,-0.90625,0.366211,0
46990,-0.0756836,-0.816895,0.283691,0
47010,-0.102539,-0.792969,0.187012,0
47030,-0.176758,-0.771973,0.230469,0
47050,-0.133789,-0.796875,0.300781,0
47070,-0.0644531,-0.862305,0.35498,0
47090,-0.0297852,-0.829102,0.351074,0
47100,0.0078125,-0.757324,0.344238,0
47120,0.0629883,-0.806152,0.433594,0
47140,0.166992,-0.891602,0.412598,0
47140,0.181152,-0.897949,0.355957,0
47160,0.174316,-0.863281,0.354492,0
47180,0.193848,-0.898438,0.384766,0
47200,0.222656,-0.926758,0.413574,0
47200,0.239258,-0.947266,0.364746,0
47220,0.193359,-0.907715,0.32666,0
47240,0.144531,-0.875488,0.333984,0
47240,0.120117,-0.87793,0.346191,0
47260,0.108887,-0.909668,0.362793,0
47280,0.0493164,-0.901367,0.336914,0
47300,-0.0581055,-0.904785,0.356934,0
47320,-0.111816,-0.869629,0.152344,0
47340,0.286621,-0.864746,0.597656,0
47360,0.619629,-0.805664,0.212891,0
47380,-0.208984,-0.858398,0.0166016,0
47420,-0.423828,-0.84082,0.00146484,0
47440,-0.019043,-0.798828,0.0639648,0
47460,0.80127,-0.80957,0.513672,0
47480,0.226562,-0.973145,0.543945,0
47500,-0.271484,-0.89209,-0.0234375,0
47520,0.753906,-0.919434,0.687012,0
47540,-0.0727539,-0.860352,-0.0195312,0
47560,0.0258789,-1.02246,0.3125,0
47590,0.89502,-0.860352,0.678711,0
47620,0.395508,-0.80957,0.223633,0
47640,-0.234375,-0.919922,-0.136719,0
47660,-0.387207,-1.02393,-0.135254,0
47680,-0.318848,-1.07422,-0.0219727,0
47700,-0.323242,-1.06641,-0.0297852,0
47720,-0.396484,-1.00391,-0.133789,0
47750,-0.343262,-0.916504,-0.20459,0
47780,0.0507812,-0.799805,0.0595703,0
47800,0.704102,-0.731934,0.70752,0
47820,0.557617,-0.873535,0.839355,0
47850,-0.370605,-0.997559,-0.0849609,0
47870,0.202637,-0.75,0.162109,0
47890,0.595703,-0.828613,0.894531,0
47910,-0.333496,-0.98877,-0.325195,0
47930,0.744141,-0.74707,1.02637,0
47950,0.746094,-0.859863,0.582031,0
47970,0.265625,-0.894043,0.261719,0
47990,0.103027,-0.910645,0.303223,0
48010,0.160645,-0.90625,0.335449,0
48030,0.211426,-0.950195,0.331543,0
48050,0.20752,-0.949219,0.331055,0
48060,0.167969,-0.875,0.345703,0
48080,0.15625,-0.848633,0.316895,0
48080,0.151855,-0.944336,0.269531,0
48100,0.208496,-0.947266,0.287109,0
48120,0.22998,-0.959473,0.291504,0
48140,0.138184,-0.96875,0.306641,0
48190,0.0493164,-0.894043,0.0893555,0
48210,0.367188,-0.90332,0.313477,0
48230,0.26416,-0.87207,0.376465,0
48250,0.27832,-0.833008,0.457031,0
48270,0.357422,-0.752441,0.380371,0
48290,0.402832,-0.865234,0.234375,0
48310,0.441895,-0.858398,0.227539,0
48330,0.406738,-0.821289,0.248535,0
48350,0.355469,-0.81543,0.251465,0
48370,0.350586,-0.918457,0.193848,0
48390,0.325195,-1.01953,0.179688,0
48410,0.291992,-0.951172,0.261719,0
48430,0.401367,-0.973145,0.200684,0
48450,0.44873,-0.864258,0.160156,0
48470,0.407227,-0.723633,0.167969,0
48490,0.354004,-0.711914,0.169434,0
48510,0.347656,-0.831543,0.156738,0
48530,0.335449,-0.921875,0.166992,0
48550,0.275391,-0.924316,0.181641,0
48570,0.365234,-0.884277,0.203613,0
48590,0.377441,-0.873047,0.25,0
48610,0.400879,-0.880859,0.228516,0
48630,0.379883,-0.824707,0.211914,0
48650,0.371582,-0.861328,0.299805,0
48670,0.375488,-0.907227,0.29834,0
48690,0.398438,-0.881348,0.228027,0
48710,0.405273,-0.821777,0.197754,0
48730,0.388184,-0.759766,0.210938,0
48750,0.333984,-0.792969,0.223633,0
48770,0.330566,-0.83252,0.259277,0
48790,0.283203,-0.797852,0.212402,0
48810,0.302246,-0.770508,0.182617,0
48830,0.311523,-0.808105,0.240723,0
48850,0.311035,-0.85791,0.238281,0
48870,0.420898,-0.875488,0.179199,0
48890,0.427734,-0.856934,0.189453,0
48910,0.380371,-0.84375,0.219238,0
48930,0.366699,-0.853027,0.215332,0
48950,0.36377,-0.843262,0.255371,0
48970,0.375,-0.821289,0.263672,0
48990,0.394043,-0.833008,0.260254,0
49010,0.424805,-0.861816,0.269043,0
49030,0.435547,-0.859863,0.245605,0
49050,0.456055,-0.814941,0.236328,0
49070,0.492676,-0.80127,0.227051,0
49090,0.482422,-0.786133,0.224609,0
49110,0.475098,-0.805176,0.219727,0
49130,0.485352,-0.821777,0.255371,0
49150,0.479004,-0.855469,0.254883,0
49170,0.441895,-0.828125,0.26123,0
49190,0.44873,-0.813477,0.241699,0
49210,0.460449,-0.819336,0.259766,0
49230,0.46875,-0.800293,0.294434,0
49240,0.465332,-0.793457,0.291504,0
49260,0.471191,-0.774414,0.296875,0
49280,0.466309,-0.767578,0.30957,0
49300,0.448242,-0.774902,0.277344,0
49320,0.414062,-0.77002,0.274902,0
49340,0.437012,-0.78125,0.325684,0
49360,0.485352,-0.813965,0.334473,0
49380,0.471191,-0.804199,0.29541,0
49400,0.450684,-0.79541,0.284668,0
49420,0.472168,-0.779297,0.310059,0
49440,0.505371,-0.777344,0.306641,0
49460,0.489258,-0.809082,0.306641,0
49480,0.430176,-0.762695,0.32666,0
49500,0.472168,-0.76123,0.3125,0
49520,0.484375,-0.816895,0.303223,0
49540,0.443359,-0.825195,0.322266,0
49560,0.423828,-0.794434,0.333008,0
49580,0.48584,-0.784668,0.355469,0
49600,0.45166,-0.795898,0.339844,0
49620,0.431152,-0.787109,0.320312,0
49640,0.422852,-0.796387,0.353027,0
49660,0.444824,-0.805664,0.336914,0
49680,0.456543,-0.792969,0.321289,0
49700,0.450684,-0.833008,0.359375,0
49720,0.37793,-0.80957,0.385742,0
49740,0.368652,-0.772949,0.361816,0
49760,0.408203,-0.817871,0.373047,0
49780,0.413574,-0.804199,0.333008,0
49800,0.404297,-0.775391,0.3125,0
49820,0.365234,-0.76123,0.365234,0
49840,0.285645,-0.776367,0.342773,0
49860,0.319824,-0.794922,0.380371,0
49880,0.364746,-0.812012,0.439453,0
49900,0.38916,-0.806641,0.398926,0
49920,0.376953,-0.774902,0.339844,0
49940,0.322754,-0.751953,0.406738,0
49960,0.295898,-0.78418,0.398926,0
49960,0.389648,-0.809082,0.369629,0
49980,0.333008,-0.788086,0.430664,0
50000,0.300293,-0.772461,0.398926,0
50010,0.337402,-0.758789,0.432617,0
50020,0.348633,-0.832031,0.386719,0
50040,0.373047,-0.853027,0.368652,0
50060,0.304688,-0.823242,0.428711,0
50080,0.289551,-0.814453,0.436523,0
50080,0.323242,-0.826172,0.401855,0
50130,0.311523,-0.818848,0.389648,0
50180,0.283203,-0.822266,0.419434,0
50200,0.279785,-0.838867,0.397949,0
50220,0.279785,-0.808105,0.398438,0
50240,0.26416,-0.777344,0.404297,0
50260,0.239746,-0.810059,0.395508,0
50280,0.24707,-0.80957,0.418945,0
50300,0.26123,-0.793945,0.434082,0
50320,0.250977,-0.789062,0.425293,0
50340,0.228516,-0.795898,0.443359,0
50360,0.21582,-0.816895,0.425293,0
50380,0.193359,-0.791016,0.459473,0
50400,0.210938,-0.801758,0.47998,0
50420,0.210938,-0.793457,0.413574,0
50420,0.140137,-0.750977,0.482422,0
50440,0.146973,-0.794434,0.484863,0
50460,0.164062,-0.778809,0.517578,0
50480,0.145996,-0.787598,0.546875,0
50480,0.121094,-0.776855,0.513184,0
50520,0.0922852,-0.769531,0.518555,0
50530,0.0844727,-0.800781,0.533203,0
50540,0.0854492,-0.805664,0.575195,0
50560,0.104492,-0.767578,0.556641,0
50580,0.101562,-0.703613,0.608398,0
50580,0.128418,-0.751953,0.584961,0
50600,0.126465,-0.764648,0.532715,0
50620,0.0708008,-0.817383,0.540527,0
50640,0.0512695,-0.791504,0.560059,0
50640,0.0664062,-0.792969,0.562988,0
50660,0.0717773,-0.78418,0.539062,0
50690,0.0419922,-0.780273,0.558105,0
50730,0.0268555,-0.771973,0.542969,0
50730,-0.00683594,-0.800781,0.54834,0
50750,-0.027832,-0.842285,0.537109,0
50770,-0.0458984,-0.802246,0.524902,0
50790,-0.0561523,-0.796387,0.542969,0
50790,-0.0737305,-0.821777,0.570312,0
50810,-0.119629,-0.802734,0.586914,0
50830,-0.103027,-0.822266,0.556152,0
50850,-0.0996094,-0.817383,0.556152,0
50890,-0.100098,-0.793457,0.544434,0
50950,-0.124512,-0.837402,0.507812,0
50970,-0.14502,-0.864746,0.539062,0
50990,-0.133789,-0.907227,0.508789,0
50990,-0.133789,-0.82959,0.456055,0
50990,-0.106934,-0.825195,0.467773,0
51030,-0.161133,-0.847168,0.523926,0
51050,-0.174805,-0.844727,0.512695,0
51070,-0.293457,-0.791992,0.446777,0
51090,-0.36084,-0.790039,0.335938,0
51130,0.277832,-0.757812,0.735352,0
51170,-0.479492,-0.761719,0.182129,0
51190,-0.810547,-0.827148,0.460938,0
51210,-0.0541992,-0.77832,0.519043,0
51230,-0.135254,-0.742676,0.507812,0
51250,-0.137207,-0.763672,0.511719,0
51270,-0.12793,-0.779785,0.541504,0
51290,-0.100586,-0.734375,0.489746,0
51310,-0.0629883,-0.79834,0.499512,0
51330,-0.0595703,-0.859863,0.522949,0
51350,-0.120605,-0.852539,0.51123,0
51370,-0.183594,-0.848145,0.535156,0
51390,-0.200684,-0.865234,0.501953,0
51410,-0.173828,-0.821289,0.48877,0
51430,-0.200195,-0.847656,0.520996,0
51450,-0.192871,-0.820312,0.509277,0
51470,-0.15332,-0.797363,0.506836,0
51490,-0.167969,-0.797852,0.486328,0
51510,-0.148926,-0.817871,0.487305,0
51530,-0.147949,-0.834473,0.51123,0
51550,-0.130371,-0.812012,0.503418,0
51550,-0.168457,-0.779785,0.500488,0
51570,-0.141113,-0.778809,0.475586,0
51590,-0.148926,-0.759277,0.458496,0
51610,-0.197266,-0.774414,0.491211,0
51610,-0.168945,-0.817871,0.487793,0
51630,-0.105957,-0.825195,0.476562,0
51670,-0.090332,-0.837891,0.479004,0
51710,-0.0751953,-0.833008,0.518066,0
51730,-0.151367,-0.846191,0.500488,0
51750,-0.114746,-0.811523,0.429199,0
51770,-0.10791,-0.794922,0.415527,0
51790,-0.0830078,-0.874512,0.445801,0
51810,-0.0820312,-0.935547,0.523438,0
51830,-0.0385742,-0.973633,0.584473,0
51850,0.0307617,-0.943848,0.575195,0
51870,0.0322266,-0.901855,0.549316,0
51890,0.0766602,-0.934082,0.492188,0
51910,0.0786133,-0.961914,0.466309,0
51930,0.125488,-0.991211,0.444336,0
51940,0.126953,-1,0.45166,0
51960,0.109863,-0.98291,0.46875,0
51980,0.136719,-0.938477,0.444336,0
52000,0.170898,-0.911133,0.44043,0
52020,0.165039,-0.900879,0.472168,0
52040,0.161133,-0.867188,0.441895,0
52060,0.172363,-0.830078,0.385742,0
52080,0.175781,-0.814941,0.378906,0
52100,0.192383,-0.794922,0.376953,0
52120,0.206055,-0.766602,0.369629,0
52140,0.209473,-0.713867,0.373535,0
52160,0.213867,-0.699707,0.36377,0
52180,0.247559,-0.711426,0.336914,0
52200,0.240234,-0.719238,0.313477,0
52220,0.249512,-0.706543,0.332031,0
52240,0.250977,-0.716309,0.358887,0
52260,0.265137,-0.747559,0.371094,0
52280,0.272461,-0.773926,0.376953,0
52300,0.291504,-0.782715,0.378906,0
52320,0.340332,-0.787109,0.329102,0
52340,0.361328,-0.799805,0.291016,0
52360,0.391602,-0.811035,0.301758,0
52380,0.407227,-0.808594,0.32666,0
52400,0.42041,-0.837402,0.318848,0
52420,0.421387,-0.869629,0.339355,0
52440,0.423828,-0.846191,0.376465,0
52460,0.419922,-0.810059,0.39209,0
52480,0.402344,-0.813965,0.384277,0
52500,0.414551,-0.814453,0.347168,0
52520,0.422852,-0.799316,0.328613,0
52540,0.42041,-0.801758,0.332031,0
52560,0.396973,-0.801758,0.34668,0
52580,0.389648,-0.804688,0.371582,0
52600,0.403809,-0.80957,0.396973,0
52620,0.417969,-0.811035,0.383789,0
52640,0.446289,-0.805664,0.36084,0
52660,0.458984,-0.793945,0.355957,0
52680,0.437988,-0.771973,0.395996,0
52700,0.44043,-0.760742,0.414062,0
52720,0.431152,-0.758789,0.416504,0
52740,0.444336,-0.755859,0.401855,0
52760,0.432617,-0.741211,0.391113,0
52780,0.421387,-0.730957,0.389648,0
52800,0.418457,-0.733398,0.379883,0
52820,0.423828,-0.731934,0.397461,0
52840,0.455078,-0.769043,0.364746,0
52860,0.444336,-0.760742,0.344238,0
52880,0.433594,-0.762207,0.357422,0
52900,0.435059,-0.770996,0.367676,0
52920,0.45752,-0.774414,0.384766,0
52940,0.463867,-0.772949,0.355957,0
52960,0.459473,-0.749023,0.351074,0
52980,0.467285,-0.743164,0.37793,0
53000,0.47998,-0.763672,0.359863,0
53020,0.495117,-0.757324,0.347656,0
53040,0.488281,-0.751465,0.339355,0
53060,0.502441,-0.757812,0.339844,0
53080,0.510742,-0.770996,0.335938,0
53100,0.507324,-0.758789,0.329102,0
53120,0.49707,-0.757812,0.345703,0
53140,0.464844,-0.745605,0.374512,0
53160,0.454102,-0.747559,0.381348,0
53180,0.430176,-0.762695,0.351074,0
53200,0.397949,-0.786621,0.362793,0
53220,0.383301,-0.773926,0.363281,0
53240,0.384766,-0.760742,0.338867,0
53260,0.400879,-0.716797,0.340332,0
53280,0.414551,-0.745117,0.34375,0
53300,0.428223,-0.733398,0.34375,0
53320,0.429688,-0.750488,0.349609,0
53340,0.477051,-0.717773,0.380371,0
53360,0.495605,-0.738281,0.336426,0
53380,0.498535,-0.724609,0.322754,0
53400,0.509766,-0.746582,0.324219,0
53420,0.542969,-0.782715,0.324219,0
53440,0.548828,-0.766113,0.307617,0
53460,0.558105,-0.747559,0.273926,0
53480,0.542969,-0.775879,0.319824,0
53500,0.536133,-0.762207,0.352051,0
53520,0.519043,-0.737793,0.339844,0
53540,0.501953,-0.72168,0.344238,0
53560,0.474121,-0.703613,0.38623,0
53580,0.437012,-0.735352,0.394531,0
53600,0.446777,-0.754395,0.39502,0
53620,0.435059,-0.766602,0.40625,0
53640,0.432129,-0.733398,0.402832,0
53660,0.446777,-0.785156,0.364258,0
53680,0.417969,-0.758789,0.34082,0
53700,0.42041,-0.67627,0.408203,0
53720,0.422852,-0.645508,0.377441,0
53740,0.467285,-0.651855,0.306152,0
53760,0.449219,-0.689453,0.396973,0
53780,0.477051,-0.727051,0.324707,0
53800,0.497559,-0.646484,0.308594,0
53820,0.503418,-0.685059,0.33252,0
53840,0.486328,-0.796387,0.263184,0
53860,0.453613,-0.734375,0.330078,0
53880,0.464844,-0.741211,0.390625,0
53900,0.497559,-0.732422,0.411621,0
53920,0.475586,-0.79834,0.395508,0
53940,0.466309,-0.852539,0.391113,0
53960,0.467285,-0.849609,0.339844,0
53980,0.451172,-0.820312,0.339355,0
54000,0.417969,-0.833008,0.351562,0
54020,0.427246,-0.840332,0.366699,0
54040,0.436035,-0.807617,0.369629,0
54060,0.384766,-0.791016,0.382812,0
54080,0.38623,-0.790527,0.378906,0
54100,0.398438,-0.805664,0.383789,0
54120,0.387695,-0.795898,0.378906,0
54140,0.396973,-0.799316,0.367676,0
54160,0.399414,-0.787598,0.380859,0
54180,0.388184,-0.774414,0.371094,0
54200,0.383789,-0.780762,0.369629,0
54220,0.373047,-0.806152,0.387207,0
54240,0.382324,-0.806641,0.388672,0
54260,0.366699,-0.807129,0.374023,0
54280,0.362305,-0.770508,0.408691,0
54300,0.347168,-0.813477,0.330566,0
54320,0.396973,-0.871582,0.340332,0
54340,0.396973,-0.804199,0.304688,0
54360,0.398438,-0.771484,0.27832,0
54380,0.411621,-0.800293,0.30957,0
54400,0.418945,-0.807129,0.311523,0
54420,0.43457,-0.798828,0.305176,0
54440,0.430664,-0.799316,0.331055,0
54460,0.428223,-0.78418,0.349121,0
54480,0.429688,-0.810547,0.348633,0
54500,0.424316,-0.820801,0.354004,0
54520,0.428223,-0.811523,0.352051,0
54540,0.410156,-0.80127,0.353027,0
54560,0.39209,-0.812012,0.36377,0
54580,0.384277,-0.811035,0.368164,0
54590,0.369141,-0.809082,0.363281,0
54610,0.385254,-0.800781,0.342285,0
54630,0.37207,-0.781738,0.333496,0
54650,0.368164,-0.770508,0.320801,0
54670,0.357422,-0.784668,0.339844,0
54690,0.35498,-0.783203,0.381836,0
54710,0.34668,-0.791992,0.37793,0
54730,0.348145,-0.813477,0.365234,0
54750,0.336426,-0.82373,0.366211,0
54770,0.341797,-0.814453,0.373047,0
54790,0.357422,-0.825195,0.363281,0
54810,0.358887,-0.82959,0.364746,0
54830,0.364258,-0.805176,0.348145,0
54850,0.366211,-0.800781,0.35498,0
54870,0.372559,-0.800293,0.363281,0
54890,0.387695,-0.79541,0.359863,0
54910,0.40332,-0.79541,0.356445,0
54930,0.417969,-0.789551,0.353027,0
54950,0.42627,-0.773926,0.352539,0
54970,0.430664,-0.755371,0.325195,0
54990,0.431641,-0.759766,0.32666,0
55010,0.44873,-0.764648,0.339844,0
55030,0.440918,-0.785156,0.358398,0
55050,0.456055,-0.775391,0.372559,0
55070,0.470215,-0.771484,0.382812,0
55090,0.461426,-0.779785,0.391602,0
55110,0.446777,-0.780273,0.383789,0
55130,0.432617,-0.813965,0.366211,0
55150,0.413574,-0.802246,0.363281,0
55170,0.40332,-0.785156,0.348145,0
55190,0.404785,-0.777832,0.34668,0
55210,0.404785,-0.768555,0.365234,0
55230,0.396973,-0.750977,0.387207,0
55250,0.402832,-0.753418,0.39209,0
55270,0.390625,-0.755371,0.396973,0
55290,0.391602,-0.733398,0.403809,0
55310,0.395996,-0.753906,0.384277,0
55330,0.399414,-0.75293,0.393555,0
55350,0.399902,-0.763672,0.378418,0
55370,0.387695,-0.771973,0.365723,0
55390,0.383789,-0.787598,0.348145,0
55410,0.388672,-0.79541,0.34082,0
55430,0.406738,-0.788574,0.349609,0
55450,0.40918,-0.788086,0.365723,0
55470,0.405762,-0.803223,0.379883,0
55490,0.396484,-0.809082,0.395508,0
55510,0.391113,-0.80957,0.40332,0
55530,0.383789,-0.810059,0.392578,0
55550,0.379395,-0.807617,0.37793,0
55570,0.366699,-0.808105,0.378418,0
55590,0.36084,-0.803223,0.385254,0
55610,0.350586,-0.816406,0.395508,0
55630,0.336914,-0.805664,0.385254,0
55650,0.353516,-0.788086,0.375977,0
55670,0.361328,-0.772949,0.38916,0
55690,0.361328,-0.785156,0.403809,0
55710,0.364258,-0.792969,0.418945,0
55730,0.365723,-0.782227,0.405762,0
55750,0.375,-0.775391,0.394043,0
55770,0.376953,-0.774414,0.390137,0
55790,0.374023,-0.78125,0.37793,0
55810,0.361328,-0.776855,0.376953,0
55830,0.344727,-0.780273,0.35791,0
55850,0.36377,-0.762695,0.361328,0
55870,0.381836,-0.768555,0.384766,0
55890,0.391113,-0.778809,0.40918,0
55910,0.397461,-0.789551,0.410645,0
55930,0.402832,-0.791016,0.400391,0
55950,0.395508,-0.787109,0.391602,0
55970,0.396484,-0.791016,0.378906,0
55990,0.397461,-0.790039,0.380859,0
56010,0.402832,-0.796387,0.376953,0
56030,0.42041,-0.807617,0.358398,0
56050,0.429199,-0.783203,0.344238,0
56070,0.428223,-0.773438,0.341309,0
56090,0.428223,-0.760254,0.341309,0
56110,0.432617,-0.759277,0.377441,0
56130,0.422852,-0.758789,0.398926,0
56150,0.40918,-0.774414,0.412109,0
56170,0.407227,-0.780762,0.427246,0
56190,0.38916,-0.781738,0.415039,0
56210,0.382812,-0.786621,0.385254,0
56230,0.365234,-0.791992,0.390625,0
56250,0.371582,-0.782227,0.386719,0
56270,0.376465,-0.79541,0.379883,0
56290,0.38623,-0.783691,0.391113,0
56310,0.390137,-0.758301,0.410156,0
56330,0.370117,-0.757324,0.413574,0
56350,0.362305,-0.769531,0.421387,0
56370,0.353516,-0.763672,0.430664,0
56390,0.357422,-0.763184,0.428223,0
56410,0.353516,-0.774414,0.407227,0
56430,0.364258,-0.799316,0.404297,0
56450,0.35498,-0.811523,0.408691,0
56470,0.372559,-0.822754,0.397949,0
56490,0.394043,-0.818848,0.351562,0
56510,0.436035,-0.791504,0.348145,0
56530,0.451172,-0.754883,0.378418,0
56550,0.433105,-0.749023,0.39209,0
56570,0.416504,-0.743652,0.393555,0
56590,0.405273,-0.728516,0.391602,0
56610,0.400879,-0.717773,0.394531,0
56630,0.401855,-0.741699,0.397461,0
56650,0.394043,-0.768066,0.404785,0
56670,0.386719,-0.788086,0.389648,0
56690,0.378418,-0.80957,0.388184,0
56710,0.376465,-0.824219,0.384766,0
56730,0.374023,-0.806152,0.376465,0
56750,0.367188,-0.79248,0.397949,0
56770,0.360352,-0.788086,0.430176,0
56790,0.358887,-0.794434,0.454102,0
56810,0.363281,-0.791504,0.455078,0
56830,0.376953,-0.774414,0.427734,0
56850,0.382324,-0.755859,0.393066,0
56870,0.396484,-0.758301,0.383789,0
56890,0.408203,-0.782227,0.39209,0
56910,0.41748,-0.789062,0.384277,0
56930,0.408691,-0.788086,0.364746,0
56950,0.418457,-0.777832,0.364258,0
56970,0.407227,-0.773438,0.355957,0
56990,0.410645,-0.770508,0.352539,0
57010,0.405273,-0.773438,0.367188,0
57030,0.399902,-0.757324,0.376953,0
57050,0.395508,-0.755859,0.383301,0
57070,0.401367,-0.76123,0.39502,0
57090,0.407227,-0.76123,0.393555,0
57110,0.406738,-0.767578,0.391602,0
57130,0.408691,-0.762695,0.398438,0
57150,0.401855,-0.775879,0.397949,0
57170,0.393555,-0.781738,0.404297,0
57190,0.389648,-0.786621,0.398438,0
57210,0.385254,-0.774902,0.390625,0
57230,0.380371,-0.788086,0.395508,0
57250,0.373047,-0.787109,0.392578,0
57270,0.376953,-0.782227,0.389648,0
57280,0.377441,-0.769043,0.38623,0
57300,0.385254,-0.758789,0.383789,0
57320,0.387695,-0.743164,0.394531,0
57340,0.388672,-0.74707,0.387207,0
57360,0.390137,-0.758789,0.405762,0
57380,0.398438,-0.770508,0.398438,0
57400,0.414062,-0.783691,0.390137,0
57420,0.419434,-0.799316,0.373535,0
57440,0.418457,-0.802246,0.367676,0
57460,0.414551,-0.813477,0.362305,0
57480,0.438477,-0.841309,0.375488,0
57500,0.458008,-0.828613,0.381348,0
57520,0.455566,-0.785645,0.389648,0
57540,0.411133,-0.76416,0.425293,0
57560,0.342773,-0.764648,0.43457,0
57580,0.3125,-0.770508,0.421875,0
57600,0.316406,-0.753906,0.420898,0
57620,0.314941,-0.745117,0.406738,0
57640,0.317871,-0.749512,0.395508,0
57660,0.346191,-0.759277,0.395508,0
57680,0.37207,-0.773438,0.403809,0
57700,0.399902,-0.769531,0.389648,0
57720,0.413574,-0.770508,0.374023,0
57740,0.433105,-0.774414,0.366699,0
57760,0.428223,-0.792969,0.362305,0
57780,0.435059,-0.800781,0.354492,0
57800,0.443359,-0.79541,0.36377,0
57820,0.416992,-0.801758,0.368164,0
57840,0.39209,-0.81543,0.371094,0
57860,0.38916,-0.813965,0.370605,0
57880,0.371582,-0.8125,0.379883,0
57900,0.361328,-0.823242,0.37793,0
57920,0.353516,-0.828613,0.375977,0
57940,0.391602,-0.814941,0.393555,0
57960,0.39209,-0.793457,0.395508,0
57980,0.390137,-0.789551,0.368164,0
58000,0.38623,-0.785156,0.371094,0
58020,0.397461,-0.777832,0.370605,0
58040,0.400391,-0.776855,0.352051,0
58060,0.414551,-0.77002,0.364258,0
58080,0.401367,-0.783203,0.361328,0
58100,0.39209,-0.785645,0.344238,0
58120,0.399414,-0.776855,0.356934,0
58140,0.395508,-0.763184,0.366699,0
58160,0.390625,-0.774414,0.385742,0
58180,0.376465,-0.781738,0.404785,0
58200,0.374512,-0.774902,0.39209,0
58220,0.371582,-0.76416,0.380371,0
58240,0.378906,-0.770996,0.373047,0
58260,0.376465,-0.782715,0.375,0
58280,0.364258,-0.799316,0.366211,0
58300,0.349609,-0.818359,0.360352,0
58320,0.32959,-0.823242,0.343262,0
58340,0.333496,-0.829102,0.348633,0
58360,0.338379,-0.838867,0.37207,0
58380,0.344727,-0.858398,0.382812,0
58400,0.336914,-0.84375,0.39209,0
58420,0.339355,-0.835449,0.385254,0
58440,0.347168,-0.822266,0.367188,0
58450,0.353027,-0.805664,0.355469,0
58470,0.36377,-0.78418,0.345215,0
58490,0.34668,-0.787109,0.351562,0
58490,0.351074,-0.793457,0.378906,0
58510,0.341797,-0.788086,0.385742,0
58530,0.342773,-0.794434,0.360352,0
58550,0.334961,-0.793457,0.358398,0
58560,0.319336,-0.772461,0.34082,0
58570,0.341309,-0.78125,0.355957,0
58590,0.369629,-0.811523,0.398926,0
58610,0.386719,-0.809082,0.425293,0
58630,0.408203,-0.8125,0.419434,0
58630,0.415527,-0.802246,0.384766,0
58650,0.413086,-0.782227,0.360352,0
58670,0.416992,-0.785645,0.337891,0
58690,0.413574,-0.791016,0.341797,0
58690,0.402344,-0.787598,0.348145,0
58710,0.390137,-0.779297,0.336914,0
58730,0.382324,-0.80127,0.356934,0
58750,0.376465,-0.805176,0.375488,0
58750,0.365234,-0.816895,0.375,0
58770,0.364258,-0.828125,0.373535,0
58790,0.360352,-0.833496,0.370117,0
58810,0.347168,-0.830566,0.365234,0
58870,0.341309,-0.835938,0.358398,0
58910,0.334961,-0.826172,0.367676,0
58930,0.337891,-0.819336,0.375488,0
58950,0.341309,-0.813477,0.386719,0
58970,0.343262,-0.811035,0.385742,0
58970,0.351562,-0.810059,0.400879,0
58990,0.352051,-0.814941,0.40625,0
59010,0.348145,-0.810059,0.372559,0
59030,0.349121,-0.797363,0.363281,0
59050,0.357422,-0.782715,0.364746,0
59050,0.364746,-0.775391,0.364746,0
59070,0.36084,-0.758789,0.363281,0
59090,0.364258,-0.77002,0.367188,0
59090,0.371582,-0.78418,0.383301,0
59150,0.377441,-0.803223,0.38623,0
59240,0.36084,-0.833496,0.376953,0
59270,0.354004,-0.821777,0.351562,0
59290,0.355957,-0.807617,0.34668,0
59310,0.358398,-0.795898,0.357422,0
59330,0.347168,-0.789062,0.384277,0
59350,0.354492,-0.799316,0.410156,0
59370,0.365234,-0.816406,0.44043,0
59390,0.363281,-0.830078,0.429688,0
59410,0.354492,-0.833984,0.388672,0
59420,0.351074,-0.814453,0.349609,0
59440,0.342285,-0.779785,0.336914,0
59460,0.359375,-0.772461,0.355469,0
59460,0.367188,-0.771484,0.369629,0
59480,0.370117,-0.775391,0.364746,0
59500,0.38916,-0.766113,0.350586,0
59520,0.395996,-0.757324,0.331055,0
59520,0.401855,-0.765137,0.327148,0
59540,0.418457,-0.78125,0.353027,0
59580,0.403809,-0.800781,0.383789,0
59630,0.401367,-0.83252,0.394043,0
59650,0.384766,-0.838379,0.387695,0
59670,0.367676,-0.833496,0.371094,0
59690,0.350098,-0.829102,0.373047,0
59710,0.338379,-0.830566,0.379395,0
59730,0.321289,-0.810059,0.393555,0
59740,0.325684,-0.796387,0.405762,0
59760,0.324219,-0.791992,0.410156,0
59770,0.333008,-0.790527,0.415039,0
59780,0.350098,-0.789062,0.416992,0
59800,0.349609,-0.794434,0.403809,0
59820,0.350098,-0.795898,0.393555,0
59840,0.350098,-0.796875,0.39209,0
59840,0.342285,-0.794922,0.381348,0
59860,0.351074,-0.794434,0.379395,0
59900,0.358398,-0.794434,0.38623,0
59940,0.353027,-0.799316,0.390137,0
59960,0.355957,-0.808105,0.382812,0
59980,0.366699,-0.802246,0.381836,0
60000,0.384277,-0.798828,0.379395,0
60020,0.379395,-0.799805,0.370117,0
60040,0.37793,-0.795898,0.371582,0
60060,0.383789,-0.793457,0.373047,0
60080,0.380371,-0.802734,0.37793,0
60100,0.38916,-0.797363,0.384277,0
60120,0.384766,-0.790527,0.375,0
60140,0.382812,-0.802734,0.380371,0
60160,0.373047,-0.802246,0.373535,0
60180,0.378906,-0.792969,0.375,0
60200,0.373535,-0.790527,0.38916,0
60220,0.367676,-0.799805,0.396484,0
60240,0.358887,-0.800293,0.393555,0
60260,0.361328,-0.792969,0.384766,0
60280,0.356445,-0.788574,0.366211,0
60300,0.361816,-0.787109,0.375,0
60320,0.365234,-0.789551,0.388184,0
60340,0.369141,-0.791504,0.384766,0
60360,0.368652,-0.800781,0.385742,0
60380,0.367676,-0.79248,0.388672,0
60400,0.373535,-0.796875,0.376953,0
60420,0.377441,-0.797852,0.371094,0
60440,0.376465,-0.797363,0.365723,0
60460,0.371582,-0.793945,0.372559,0
60480,0.37207,-0.796875,0.382324,0
60500,0.37793,-0.79834,0.373047,0
60520,0.375,-0.791504,0.376465,0
60540,0.380859,-0.790527,0.36377,0
60560,0.390137,-0.796387,0.362305,0
60580,0.383301,-0.79834,0.362305,0
60600,0.383789,-0.790039,0.371582,0
60620,0.376953,-0.799316,0.374023,0
60640,0.378418,-0.794922,0.367188,0
60660,0.363281,-0.79541,0.37207,0
60680,0.366699,-0.794922,0.374512,0
60700,0.369141,-0.802246,0.379395,0
60720,0.370605,-0.801758,0.382324,0
60740,0.366699,-0.795898,0.376465,0
60760,0.359863,-0.791504,0.379395,0
60780,0.361816,-0.789062,0.379395,0
60800,0.362305,-0.778809,0.379395,0
60820,0.371582,-0.782227,0.378906,0
60840,0.372559,-0.788574,0.377441,0
60860,0.383301,-0.788574,0.378906,0
60880,0.388184,-0.801758,0.383301,0
60900,0.385742,-0.810547,0.376953,0
60920,0.39209,-0.803711,0.368164,0
60940,0.388184,-0.797852,0.361328,0
60960,0.388672,-0.797852,0.368164,0
60980,0.377441,-0.791992,0.368652,0
61000,0.375,-0.788574,0.37793,0
61020,0.388672,-0.793457,0.386719,0
61040,0.384277,-0.800293,0.378906,0
61060,0.37793,-0.794922,0.367188,0
61080,0.379395,-0.785156,0.36084,0
61100,0.379883,-0.787598,0.36377,0
61120,0.386719,-0.786621,0.380859,0
61140,0.380859,-0.791992,0.374512,0
61160,0.383789,-0.793945,0.375,0
61180,0.390625,-0.794922,0.366211,0
61200,0.391602,-0.789062,0.371582,0
61220,0.375977,-0.79248,0.363281,0
61240,0.367188,-0.792969,0.369141,0
61260,0.365234,-0.789062,0.377441,0
61280,0.364746,-0.79541,0.385742,0
61300,0.365723,-0.800293,0.388184,0
61320,0.368164,-0.804199,0.380371,0
61340,0.376465,-0.794922,0.377441,0
61360,0.373047,-0.801758,0.367676,0
61380,0.380371,-0.794434,0.365723,0
61400,0.384766,-0.786133,0.374023,0
61420,0.385742,-0.792969,0.379395,0
61440,0.384766,-0.793945,0.381348,0
61460,0.385254,-0.788574,0.375977,0
61480,0.380859,-0.793945,0.365234,0
61500,0.37793,-0.799316,0.371094,0
61520,0.371094,-0.804688,0.378418,0
61540,0.370117,-0.810547,0.381348,0
61560,0.364258,-0.810059,0.373535,0
61580,0.371582,-0.808594,0.377441,0
61600,0.381836,-0.800293,0.368164,0
61620,0.382324,-0.806152,0.37207,0
61640,0.39209,-0.798828,0.375,0
61660,0.392578,-0.802734,0.37207,0
61680,0.39209,-0.804199,0.370117,0
61690,0.393555,-0.80127,0.368652,0
61710,0.382324,-0.790527,0.373535,0
61730,0.379395,-0.782227,0.377441,0
61750,0.369141,-0.782227,0.36377,0
61770,0.367188,-0.783691,0.361328,0
61790,0.353516,-0.774414,0.359375,0
61810,0.364746,-0.780273,0.366211,0
61830,0.382812,-0.796387,0.393066,0
61850,0.369141,-0.791016,0.376953,0
61870,0.363281,-0.77832,0.369629,0
61890,0.366699,-0.770508,0.364258,0
61910,0.365723,-0.773926,0.379395,0
61930,0.375977,-0.785156,0.384277,0
61950,0.381348,-0.785156,0.387207,0
61970,0.38623,-0.78125,0.377441,0
61990,0.385742,-0.785156,0.371094,0
62010,0.388184,-0.780273,0.377441,0
62030,0.388672,-0.779297,0.38916,0
62050,0.383789,-0.786133,0.393066,0
62070,0.392578,-0.801758,0.404297,0
62090,0.380859,-0.813965,0.401367,0
62110,0.380859,-0.811035,0.384277,0
62130,0.373047,-0.799316,0.379395,0
62150,0.368164,-0.80127,0.374023,0
62170,0.364746,-0.794922,0.37207,0
62190,0.374023,-0.791992,0.372559,0
62210,0.38623,-0.791016,0.372559,0
62230,0.386719,-0.797363,0.365723,0
62250,0.390625,-0.799805,0.365723,0
62270,0.390137,-0.796387,0.371582,0
62290,0.393555,-0.807129,0.401855,0
62310,0.394043,-0.819824,0.415039,0
62330,0.396484,-0.810059,0.410156,0
62350,0.387207,-0.798828,0.40332,0
62370,0.379395,-0.78125,0.395996,0
62390,0.381348,-0.762207,0.383789,0
62410,0.385254,-0.755371,0.377441,0
62430,0.380371,-0.754883,0.381348,0
62450,0.374512,-0.746582,0.377441,0
62470,0.370605,-0.747559,0.364746,0
62490,0.385742,-0.768555,0.373535,0
62510,0.388672,-0.77832,0.375,0
62530,0.397949,-0.786621,0.37793,0
62550,0.394043,-0.811523,0.368164,0
62570,0.391113,-0.813477,0.374023,0
62590,0.380371,-0.81543,0.366211,0
62610,0.379395,-0.803711,0.374023,0
62620,0.376465,-0.8125,0.385742,0
62640,0.375488,-0.807617,0.395996,0
62660,0.373535,-0.796387,0.398926,0
62680,0.362305,-0.790039,0.39209,0
62700,0.362305,-0.775391,0.372559,0
62720,0.360352,-0.765137,0.371094,0
62740,0.362305,-0.771973,0.381836,0
62760,0.35791,-0.777832,0.379883,0
62780,0.363281,-0.791016,0.384766,0
62800,0.378906,-0.797852,0.382812,0
62820,0.390625,-0.818359,0.380859,0
62840,0.393555,-0.823242,0.375,0
62860,0.392578,-0.820312,0.354004,0
62880,0.400391,-0.814453,0.353027,0
62900,0.412598,-0.781738,0.359863,0
62920,0.393066,-0.757324,0.379395,0
62940,0.378418,-0.761719,0.393555,0
62960,0.370117,-0.768555,0.412598,0
62980,0.374023,-0.786621,0.416992,0
63000,0.369141,-0.80127,0.393555,0
63020,0.371094,-0.80127,0.382324,0
63040,0.374023,-0.789062,0.366211,0
63060,0.388672,-0.791016,0.372559,0
63080,0.393066,-0.776855,0.376953,0
63100,0.396484,-0.771484,0.369141,0
63120,0.40625,-0.77002,0.370117,0
63140,0.416504,-0.770996,0.35498,0
63160,0.419434,-0.789062,0.344727,0
63180,0.411133,-0.789062,0.348145,0
63200,0.402344,-0.800293,0.359863,0
63220,0.388184,-0.820312,0.364258,0
63240,0.373047,-0.821289,0.36377,0
63260,0.373535,-0.819824,0.358398,0
63280,0.376465,-0.821777,0.353516,0
63300,0.378418,-0.806152,0.355469,0
63320,0.379883,-0.782227,0.375,0
63340,0.373535,-0.775879,0.386719,0
63360,0.36377,-0.759766,0.387207,0
63380,0.371094,-0.760254,0.38916,0
63400,0.379395,-0.751465,0.390137,0
63420,0.380371,-0.759277,0.39209,0
63440,0.376953,-0.77832,0.395996,0
63460,0.375488,-0.788574,0.393555,0
63480,0.384766,-0.784668,0.39502,0
63500,0.374512,-0.800781,0.38623,0
63520,0.380859,-0.797363,0.378906,0
63540,0.395996,-0.791504,0.372559,0
63560,0.399414,-0.791016,0.376465,0
63580,0.398926,-0.792969,0.378906,0
63600,0.402344,-0.797852,0.385742,0
63620,0.402832,-0.80127,0.385254,0
63640,0.411621,-0.808105,0.377441,0
63660,0.405762,-0.808594,0.371582,0
63680,0.400391,-0.803223,0.364746,0
63700,0.398438,-0.803711,0.369141,0
63720,0.394043,-0.786133,0.383789,0
63740,0.38916,-0.782715,0.382812,0
63760,0.385742,-0.781738,0.382812,0
63780,0.380371,-0.779785,0.381348,0
63800,0.381836,-0.785645,0.379883,0
63820,0.379395,-0.793945,0.37207,0
63840,0.37793,-0.791992,0.37207,0
63860,0.370117,-0.785156,0.379395,0
63880,0.376953,-0.785645,0.386719,0
63900,0.377441,-0.778809,0.385742,0
63920,0.382812,-0.774414,0.382324,0
63940,0.387207,-0.769531,0.36377,0
63960,0.38916,-0.767578,0.358887,0
63980,0.392578,-0.770996,0.373047,0
64000,0.390137,-0.767578,0.376465,0
64020,0.40332,-0.780273,0.389648,0
64040,0.399902,-0.788086,0.407227,0
64060,0.380859,-0.790527,0.386719,0
64080,0.375977,-0.79541,0.362305,0
64100,0.371582,-0.79834,0.354004,0
64120,0.377441,-0.810059,0.358398,0
64140,0.373535,-0.810547,0.375,0
64160,0.377441,-0.807129,0.378418,0
64180,0.379883,-0.799805,0.370605,0
64200,0.401367,-0.785156,0.367676,0
64220,0.40332,-0.785156,0.375,0
64240,0.392578,-0.794434,0.382324,0
64260,0.381836,-0.786133,0.369629,0
64280,0.391113,-0.786621,0.378906,0
64300,0.38916,-0.791992,0.390625,0
64320,0.381836,-0.807617,0.389648,0
64340,0.369141,-0.802734,0.383301,0
64360,0.373047,-0.794922,0.371094,0
64380,0.378906,-0.793457,0.368164,0
64400,0.373047,-0.794434,0.384766,0
64420,0.373535,-0.792969,0.380371,0
64440,0.371582,-0.796387,0.382812,0
64460,0.390137,-0.802734,0.397949,0
64480,0.399414,-0.810059,0.401855,0
64500,0.391602,-0.806152,0.394531,0
64520,0.377441,-0.805176,0.395508,0
64540,0.349609,-0.797363,0.381836,0
64560,0.327637,-0.800781,0.382324,0
64580,0.355957,-0.809082,0.399902,0
64600,0.395996,-0.802246,0.428223,0
64620,0.390137,-0.788574,0.409668,0
64640,0.374512,-0.801758,0.378418,0
64660,0.371094,-0.796875,0.372559,0
64680,0.382812,-0.794922,0.348145,0
64700,0.396973,-0.800781,0.344238,0
64720,0.394043,-0.806152,0.343262,0
64740,0.388184,-0.8125,0.330566,0
64760,0.397949,-0.805176,0.331055,0
64780,0.400879,-0.799316,0.323242,0
64800,0.395996,-0.798828,0.32373,0
64820,0.394043,-0.806152,0.325684,0
64840,0.409668,-0.816406,0.33252,0
64860,0.399902,-0.811035,0.317383,0
64880,0.398438,-0.810547,0.300293,0
64900,0.385742,-0.802246,0.313965,0
64920,0.39209,-0.8125,0.322754,0
64940,0.394531,-0.810547,0.338867,0
64960,0.38916,-0.804199,0.333984,0
64980,0.39502,-0.815918,0.319824,0
65000,0.405762,-0.824219,0.325684,0
65020,0.39209,-0.816895,0.330078,0
65040,0.379883,-0.819824,0.323242,0
65060,0.381348,-0.830566,0.330566,0
65080,0.379883,-0.813965,0.327148,0
65100,0.377441,-0.804199,0.316895,0
65120,0.390137,-0.807129,0.327148,0
65140,0.412598,-0.814453,0.337891,0
65160,0.401367,-0.81543,0.345215,0
65180,0.370117,-0.831055,0.337891,0
65200,0.351562,-0.813477,0.311523,0
65220,0.353027,-0.790039,0.29248,0
65240,0.367676,-0.79541,0.313477,0
65260,0.381836,-0.811035,0.344238,0
65280,0.396484,-0.812988,0.346191,0
65300,0.382324,-0.813477,0.333984,0
65310,0.374023,-0.816895,0.322754,0
65330,0.372559,-0.815918,0.310059,0
65350,0.378906,-0.807129,0.293945,0
65370,0.382324,-0.799316,0.287109,0
65390,0.405762,-0.793945,0.291992,0
65410,0.415527,-0.788574,0.307129,0
65430,0.422852,-0.804688,0.325195,0
