Timestamp, Acceleration x, Acceleration y, Acceleration z, Marker
40,-0.390625,-0.523438,0.688965,0
60,-0.39502,-0.524902,0.683594,0
80,-0.399414,-0.515625,0.681152,0
100,-0.399902,-0.516602,0.67627,0
120,-0.396973,-0.522949,0.683594,0
140,-0.403809,-0.531738,0.675781,0
150,-0.400879,-0.529297,0.666992,0
150,-0.397461,-0.53418,0.674316,0
200,-0.394531,-0.538574,0.676758,0
220,-0.393555,-0.554199,0.679688,0
240,-0.39502,-0.560547,0.685547,0
260,-0.391113,-0.569336,0.689453,0
280,-0.387207,-0.560059,0.690918,0
300,-0.392578,-0.55127,0.683105,0
320,-0.396973,-0.536621,0.680664,0
340,-0.400879,-0.530273,0.671387,0
360,-0.410645,-0.530273,0.675293,0
380,-0.415527,-0.521484,0.675781,0
400,-0.415527,-0.526855,0.67334,0
420,-0.425293,-0.537598,0.683594,0
440,-0.42627,-0.539551,0.680664,0
460,-0.416992,-0.537109,0.6875,0
480,-0.411621,-0.535645,0.691406,0
500,-0.40918,-0.534668,0.691895,0
520,-0.407227,-0.526367,0.690918,0
540,-0.400391,-0.52002,0.696289,0
560,-0.393555,-0.523438,0.699219,0
580,-0.390625,-0.52002,0.700195,0
600,-0.393555,-0.517578,0.692871,0
620,-0.397461,-0.514648,0.691895,0
640,-0.400391,-0.52002,0.691895,0
660,-0.405273,-0.520996,0.690918,0
680,-0.401855,-0.521484,0.683594,0
700,-0.406738,-0.514648,0.691406,0
710,-0.405273,-0.52002,0.685547,0
730,-0.409668,-0.51416,0.69043,0
750,-0.413574,-0.507324,0.691895,0
770,-0.412109,-0.510254,0.700195,0
790,-0.417969,-0.526855,0.695801,0
810,-0.42334,-0.525391,0.702637,0
830,-0.425781,-0.512695,0.700195,0
850,-0.420898,-0.510254,0.69043,0
870,-0.421387,-0.511719,0.694824,0
890,-0.425781,-0.503418,0.699219,0
910,-0.422852,-0.5,0.702148,0
930,-0.42627,-0.505859,0.699219,0
950,-0.425293,-0.498047,0.700684,0
970,-0.427734,-0.501465,0.690918,0
990,-0.425781,-0.5,0.690918,0
1010,-0.419922,-0.5,0.694336,0
1030,-0.416016,-0.490723,0.701172,0
1050,-0.418945,-0.496582,0.699219,0
1070,-0.41748,-0.49707,0.696289,0
1090,-0.42334,-0.496582,0.693359,0
1110,-0.422852,-0.504395,0.695312,0
1130,-0.425781,-0.509766,0.69873,0
1150,-0.425293,-0.5,0.700195,0
1170,-0.420898,-0.500977,0.697266,0
1190,-0.424805,-0.5,0.696777,0
1210,-0.420898,-0.503906,0.702637,0
1230,-0.422852,-0.494629,0.698242,0
1250,-0.416992,-0.5,0.70459,0
1270,-0.416016,-0.50293,0.70166,0
1290,-0.419434,-0.503418,0.70166,0
1310,-0.417969,-0.507324,0.697754,0
1330,-0.416992,-0.505371,0.694336,0
1350,-0.41748,-0.512207,0.696289,0
1370,-0.419434,-0.508301,0.687988,0
1390,-0.423828,-0.509766,0.695312,0
1410,-0.422852,-0.506836,0.696777,0
1430,-0.420898,-0.510742,0.700684,0
1450,-0.425781,-0.50293,0.696777,0
1470,-0.422852,-0.504395,0.696777,0
1490,-0.419434,-0.496094,0.696777,0
1510,-0.421875,-0.500977,0.702148,0
1530,-0.418945,-0.501953,0.699219,0
1550,-0.41748,-0.497559,0.704102,0
1570,-0.416992,-0.49707,0.700195,0
1590,-0.420898,-0.501465,0.700684,0
1610,-0.421875,-0.501465,0.70166,0
1630,-0.416504,-0.508301,0.696289,0
1650,-0.416504,-0.505859,0.700684,0
1670,-0.413086,-0.500977,0.70459,0
1690,-0.412598,-0.504395,0.699707,0
1710,-0.40625,-0.500977,0.697754,0
1730,-0.414551,-0.500488,0.702637,0
1750,-0.41748,-0.497559,0.69873,0
1770,-0.419434,-0.512207,0.702148,0
1790,-0.415039,-0.50293,0.698242,0
1810,-0.416992,-0.504395,0.695312,0
1830,-0.414551,-0.502441,0.705566,0
1850,-0.420898,-0.508789,0.70459,0
1870,-0.413086,-0.500977,0.697754,0
1890,-0.415527,-0.506348,0.695312,0
1910,-0.414062,-0.50293,0.69873,0
1930,-0.41748,-0.508789,0.69873,0
1950,-0.412598,-0.506836,0.698242,0
1970,-0.414551,-0.506348,0.699707,0
1990,-0.413086,-0.505371,0.69873,0
2010,-0.415039,-0.508789,0.694824,0
2030,-0.40918,-0.507324,0.703125,0
2050,-0.410156,-0.503906,0.694336,0
2070,-0.413086,-0.497559,0.702637,0
2090,-0.413086,-0.501465,0.704102,0
2110,-0.414062,-0.504395,0.704102,0
2130,-0.415039,-0.502441,0.699219,0
2150,-0.415039,-0.504395,0.703125,0
2170,-0.413574,-0.5,0.700684,0
2190,-0.411133,-0.509277,0.69873,0
2210,-0.413574,-0.504883,0.703125,0
2230,-0.413086,-0.504883,0.69873,0
2250,-0.412598,-0.501953,0.700195,0
2270,-0.412598,-0.509277,0.700195,0
2290,-0.407715,-0.503906,0.695801,0
2310,-0.411133,-0.510742,0.700684,0
2330,-0.413086,-0.504883,0.699219,0
2350,-0.413086,-0.507812,0.70459,0
2370,-0.404785,-0.49707,0.696777,0
2390,-0.413086,-0.507812,0.70166,0
2410,-0.414062,-0.503418,0.700195,0
2430,-0.413574,-0.504395,0.702637,0
2450,-0.412598,-0.501953,0.700195,0
2470,-0.410645,-0.500977,0.710449,0
2490,-0.407715,-0.499023,0.705078,0
2510,-0.413574,-0.501465,0.70459,0
2530,-0.40918,-0.501953,0.706543,0
2550,-0.407715,-0.506836,0.70459,0
2570,-0.407715,-0.507812,0.705078,0
2590,-0.406738,-0.50293,0.703613,0
2610,-0.406738,-0.5,0.706055,0
2630,-0.406738,-0.504883,0.704102,0
2650,-0.408691,-0.508301,0.69873,0
2670,-0.40625,-0.503418,0.701172,0
2690,-0.410156,-0.502441,0.707031,0
2710,-0.407227,-0.500977,0.705078,0
2730,-0.406738,-0.503906,0.706055,0
2750,-0.410645,-0.499023,0.702637,0
2770,-0.410645,-0.500488,0.70752,0
2790,-0.416016,-0.501465,0.708496,0
2810,-0.411133,-0.49707,0.710938,0
2830,-0.410156,-0.49707,0.700684,0
2850,-0.408691,-0.5,0.705078,0
2870,-0.406738,-0.502441,0.699707,0
2890,-0.411133,-0.504395,0.694824,0
2910,-0.410645,-0.5,0.706055,0
2930,-0.40625,-0.508301,0.710938,0
2950,-0.404785,-0.496582,0.709961,0
2970,-0.40625,-0.507812,0.708984,0
2990,-0.406738,-0.50293,0.701172,0
3010,-0.401855,-0.503906,0.699707,0
3030,-0.400879,-0.502441,0.702148,0
3050,-0.40332,-0.499512,0.707031,0
3070,-0.400879,-0.501465,0.70752,0
3090,-0.408203,-0.499512,0.700195,0
3110,-0.407227,-0.501465,0.706055,0
3130,-0.407715,-0.49707,0.706055,0
3150,-0.40625,-0.497559,0.705078,0
3170,-0.40625,-0.50293,0.703125,0
3190,-0.407227,-0.504395,0.708008,0
3210,-0.405273,-0.5,0.70459,0
3230,-0.40918,-0.500488,0.700684,0
3250,-0.419434,-0.506348,0.691406,0
3270,-0.429199,-0.514648,0.696777,0
3290,-0.430176,-0.47998,0.690918,0
3310,-0.424805,-0.467285,0.713379,0
3330,-0.459473,-0.5,0.705078,0
3350,-0.44873,-0.466309,0.718262,0
3370,-0.416992,-0.431152,0.737793,0
3390,-0.416504,-0.433594,0.740723,0
3400,-0.424805,-0.45166,0.723633,0
3420,-0.356934,-0.470703,0.678223,0
3440,-0.344238,-0.555176,0.703125,0
3460,-0.337891,-0.577637,0.698242,0
3480,-0.337891,-0.590332,0.691895,0
3500,-0.336426,-0.58252,0.686035,0
3520,-0.32666,-0.564941,0.656738,0
3540,-0.271973,-0.668945,0.644043,0
3560,-0.259766,-0.731445,0.645996,0
3580,-0.270996,-0.735352,0.606934,0
3600,-0.30127,-0.71875,0.601074,0
3620,-0.30127,-0.714355,0.611816,0
3640,-0.30127,-0.661621,0.57666,0
3660,-0.286621,-0.667969,0.562012,0
3680,-0.277344,-0.674316,0.581543,0
3700,-0.275879,-0.656738,0.608398,0
3720,-0.257324,-0.67041,0.594727,0
3740,-0.240234,-0.740234,0.587891,0
3760,-0.268555,-0.753418,0.561523,0
3780,-0.278809,-0.745117,0.547852,0
3800,-0.267578,-0.816406,0.516602,0
3820,-0.249023,-0.784668,0.544434,0
3840,-0.225586,-0.77002,0.520508,0
3860,-0.187988,-0.831543,0.518555,0
3880,-0.192871,-0.836426,0.517578,0
3900,-0.197754,-0.827637,0.500488,0
3920,-0.188965,-0.842285,0.493652,0
3940,-0.199219,-0.844727,0.459473,0
3960,-0.197266,-0.855957,0.425781,0
3980,-0.232422,-0.906738,0.427734,0
4000,-0.28125,-0.905273,0.458984,0
4020,-0.314453,-0.819336,0.442871,0
4040,-0.339355,-0.734863,0.452148,0
4060,-0.336426,-0.726074,0.439453,0
4080,-0.359375,-0.712891,0.480469,0
4100,-0.308594,-0.656738,0.590332,0
4120,-0.265137,-0.718262,0.541992,0
4140,-0.283691,-0.798828,0.497559,0
4160,-0.34082,-0.75,0.531738,0
4180,-0.359863,-0.689941,0.532715,0
4200,-0.335938,-0.677246,0.547363,0
4220,-0.331543,-0.678223,0.544922,0
4240,-0.347656,-0.706055,0.545898,0
4260,-0.319824,-0.665039,0.610352,0
4280,-0.299316,-0.664062,0.626465,0
4300,-0.27832,-0.669434,0.65332,0
4320,-0.279785,-0.681152,0.661133,0
4340,-0.289062,-0.700195,0.653809,0
4360,-0.305664,-0.697754,0.647949,0
4380,-0.299316,-0.674805,0.633301,0
4400,-0.270996,-0.687012,0.612793,0
4420,-0.275391,-0.669922,0.626465,0
4440,-0.316895,-0.700195,0.643066,0
4460,-0.346191,-0.691895,0.661133,0
4480,-0.342773,-0.685547,0.683105,0
4500,-0.328125,-0.70166,0.661133,0
4520,-0.313477,-0.669922,0.648926,0
4540,-0.315918,-0.647461,0.611328,0
4560,-0.278809,-0.682129,0.616211,0
4580,-0.273438,-0.666016,0.597656,0
4600,-0.285645,-0.669434,0.570801,0
4620,-0.284668,-0.650879,0.566895,0
4640,-0.299316,-0.625488,0.581055,0
4660,-0.312012,-0.642578,0.585449,0
4680,-0.29541,-0.646484,0.633789,0
4700,-0.318848,-0.636719,0.65332,0
4720,-0.318359,-0.634766,0.633301,0
4740,-0.313965,-0.625977,0.664551,0
4760,-0.34082,-0.596191,0.67627,0
4780,-0.335938,-0.589355,0.638184,0
4800,-0.3125,-0.580566,0.644043,0
4820,-0.300293,-0.589355,0.666016,0
4840,-0.31543,-0.552246,0.6875,0
4860,-0.341797,-0.533691,0.660645,0
4880,-0.335449,-0.498047,0.65332,0
4900,-0.362793,-0.546875,0.674316,0
4920,-0.393555,-0.473633,0.650391,0
4940,-0.344727,-0.578125,0.708496,0
4960,-0.36084,-0.588867,0.720703,0
4980,-0.409668,-0.550293,0.76123,0
5000,-0.322754,-0.508789,0.721191,0
5020,-0.26709,-0.508301,0.710938,0
5040,-0.254883,-0.542969,0.731445,0
5060,-0.301758,-0.497559,0.766602,0
5080,-0.349609,-0.474609,0.754883,0
5100,-0.402344,-0.462402,0.731445,0
5120,-0.477051,-0.45166,0.73877,0
5140,-0.541992,-0.453613,0.733398,0
5160,-0.518555,-0.467285,0.73291,0
5180,-0.417969,-0.412598,0.708496,0
5200,-0.42334,-0.367188,0.720215,0
5220,-0.448242,-0.343262,0.731934,0
5240,-0.513184,-0.336914,0.771484,0
5260,-0.553711,-0.334961,0.752441,0
5280,-0.572754,-0.291504,0.726562,0
5300,-0.59668,-0.305664,0.720215,0
5320,-0.573242,-0.320801,0.731934,0
5340,-0.552734,-0.366699,0.747559,0
5360,-0.526855,-0.392578,0.748535,0
5380,-0.489746,-0.368164,0.746582,0
5390,-0.455566,-0.381348,0.762207,0
5410,-0.414551,-0.403809,0.758301,0
5430,-0.394531,-0.405762,0.742188,0
5450,-0.438477,-0.373535,0.719238,0
5470,-0.477051,-0.375,0.747559,0
5490,-0.495605,-0.424805,0.692871,0
5510,-0.54834,-0.399902,0.70752,0
5530,-0.546387,-0.437012,0.69043,0
5550,-0.524902,-0.481934,0.699707,0
5570,-0.518066,-0.47168,0.750488,0
5590,-0.470703,-0.5,0.718262,0
5610,-0.480469,-0.515625,0.708496,0
5630,-0.515137,-0.479004,0.675293,0
5650,-0.541992,-0.418945,0.680664,0
5670,-0.575195,-0.412109,0.641113,0
5690,-0.592285,-0.434082,0.594727,0
5710,-0.615723,-0.42334,0.625,0
5730,-0.637695,-0.385254,0.632324,0
5750,-0.642578,-0.388672,0.606445,0
5770,-0.680176,-0.383301,0.62793,0
5790,-0.702148,-0.36377,0.55127,0
5810,-0.712402,-0.38623,0.596191,0
5830,-0.602051,-0.394043,0.680664,0
5850,-0.525391,-0.425781,0.648926,0
5870,-0.570801,-0.415527,0.631348,0
5890,-0.552246,-0.430664,0.633789,0
5910,-0.546875,-0.409668,0.637695,0
5930,-0.557617,-0.385254,0.628906,0
5950,-0.601562,-0.380371,0.625488,0
5970,-0.569336,-0.407227,0.683105,0
5990,-0.522949,-0.429199,0.710938,0
6010,-0.554688,-0.392578,0.714355,0
6030,-0.561035,-0.38623,0.716797,0
6050,-0.542969,-0.422852,0.700684,0
6070,-0.57666,-0.415527,0.693359,0
6090,-0.58252,-0.407715,0.682617,0
6110,-0.580078,-0.410645,0.657227,0
6130,-0.581543,-0.397461,0.646484,0
6150,-0.596191,-0.386719,0.650391,0
6170,-0.574219,-0.355957,0.681152,0
6190,-0.602051,-0.389648,0.645508,0
6210,-0.608398,-0.415527,0.662598,0
6230,-0.598145,-0.38623,0.660156,0
6250,-0.59082,-0.397949,0.656738,0
6270,-0.571289,-0.399902,0.66748,0
6290,-0.571777,-0.364746,0.686523,0
6310,-0.595703,-0.391113,0.660156,0
6330,-0.606445,-0.399414,0.665039,0
6350,-0.583984,-0.417969,0.631348,0
6370,-0.590332,-0.395508,0.627441,0
6390,-0.612305,-0.388184,0.626465,0
6410,-0.611328,-0.388672,0.633301,0
6430,-0.637695,-0.405762,0.649414,0
6450,-0.649414,-0.419434,0.643066,0
6470,-0.646973,-0.410645,0.615723,0
6490,-0.64209,-0.403809,0.608887,0
6510,-0.64209,-0.407715,0.583008,0
6530,-0.646973,-0.389648,0.602539,0
6550,-0.634277,-0.371582,0.612305,0
6570,-0.604492,-0.385254,0.621582,0
6590,-0.61377,-0.386719,0.62207,0
6610,-0.63916,-0.399902,0.597168,0
6630,-0.645508,-0.408203,0.603027,0
6650,-0.648438,-0.413574,0.609863,0
6670,-0.662109,-0.382324,0.623047,0
6690,-0.671387,-0.376953,0.583008,0
6710,-0.694824,-0.380859,0.562012,0
6730,-0.733887,-0.425781,0.505859,0
6750,-0.725098,-0.467285,0.534668,0
6770,-0.540527,-0.41748,0.71582,0
6790,-0.493164,-0.366699,0.702637,0
6810,-0.590332,-0.353027,0.672852,0
6830,-0.641602,-0.351562,0.671875,0
6850,-0.599609,-0.346191,0.692383,0
6870,-0.568359,-0.364746,0.661133,0
6890,-0.611816,-0.359863,0.625488,0
6910,-0.662598,-0.368652,0.652344,0
6930,-0.606445,-0.286133,0.677734,0
6950,-0.669434,-0.388184,0.652344,0
6970,-0.629883,-0.417969,0.661621,0
6990,-0.604492,-0.380371,0.667969,0
7010,-0.626953,-0.387207,0.659668,0
7030,-0.608398,-0.361328,0.687988,0
7050,-0.586914,-0.386719,0.708984,0
7070,-0.57373,-0.399414,0.717773,0
7090,-0.532715,-0.401855,0.651855,0
7110,-0.496582,-0.427734,0.667969,0
7130,-0.501465,-0.480469,0.694336,0
7150,-0.521484,-0.449707,0.69043,0
7170,-0.527832,-0.421387,0.672852,0
7190,-0.543945,-0.42334,0.649414,0
7210,-0.552734,-0.408691,0.631836,0
7230,-0.543945,-0.41748,0.638672,0
7250,-0.555176,-0.434082,0.648926,0
7270,-0.575684,-0.437988,0.658691,0
7290,-0.583984,-0.42627,0.655762,0
7310,-0.580078,-0.431641,0.65918,0
7330,-0.578613,-0.4375,0.663574,0
7350,-0.567871,-0.431641,0.656738,0
7370,-0.574219,-0.42627,0.657715,0
7390,-0.574707,-0.423828,0.65625,0
7410,-0.574219,-0.430664,0.637695,0
7430,-0.573242,-0.437012,0.637695,0
7450,-0.569824,-0.449707,0.637695,0
7470,-0.566406,-0.453125,0.630371,0
7490,-0.5625,-0.457031,0.632812,0
7510,-0.559082,-0.449219,0.626953,0
7530,-0.568848,-0.468262,0.640625,0
7550,-0.563477,-0.468262,0.644043,0
7570,-0.564453,-0.46875,0.634277,0
7590,-0.562988,-0.463379,0.633789,0
7610,-0.557617,-0.46875,0.634766,0
7630,-0.558105,-0.466309,0.629395,0
7650,-0.557617,-0.476074,0.631348,0
7670,-0.559082,-0.491699,0.643555,0
7690,-0.557129,-0.493164,0.648926,0
7710,-0.555664,-0.481934,0.658691,0
7730,-0.557617,-0.47168,0.654297,0
7750,-0.561035,-0.467285,0.636719,0
7770,-0.569824,-0.459473,0.637207,0
7790,-0.570801,-0.461426,0.638672,0
7810,-0.562012,-0.454102,0.63623,0
7830,-0.567871,-0.461426,0.631348,0
7850,-0.573242,-0.472168,0.628418,0
7870,-0.566895,-0.479004,0.629883,0
7890,-0.564941,-0.473145,0.627441,0
7910,-0.56543,-0.480469,0.626465,0
7930,-0.562012,-0.483398,0.628418,0
7950,-0.556641,-0.480469,0.620605,0
7970,-0.556641,-0.499023,0.615234,0
7990,-0.556641,-0.505371,0.621582,0
8010,-0.549316,-0.500488,0.620117,0
8030,-0.548828,-0.508789,0.621094,0
8050,-0.54834,-0.514648,0.616699,0
8070,-0.550781,-0.51709,0.619629,0
8090,-0.552246,-0.518555,0.61084,0
8110,-0.539062,-0.51709,0.614746,0
8130,-0.534668,-0.510254,0.621582,0
8150,-0.530273,-0.510742,0.619629,0
8170,-0.532715,-0.517578,0.618652,0
8190,-0.532227,-0.51123,0.614258,0
8210,-0.526855,-0.519531,0.629395,0
8230,-0.519531,-0.512207,0.626953,0
8250,-0.525391,-0.509277,0.62793,0
8270,-0.526367,-0.504883,0.627441,0
8290,-0.529785,-0.512695,0.62207,0
8310,-0.52832,-0.506836,0.618652,0
8330,-0.526855,-0.508789,0.625488,0
8350,-0.532227,-0.522949,0.616211,0
8370,-0.536133,-0.520996,0.615234,0
8390,-0.526367,-0.537598,0.61084,0
8410,-0.51709,-0.549316,0.60791,0
8430,-0.504395,-0.54834,0.617188,0
8450,-0.500977,-0.559082,0.613281,0
8470,-0.497559,-0.568848,0.614746,0
8490,-0.494141,-0.578613,0.606934,0
8510,-0.484863,-0.577148,0.61377,0
8530,-0.483398,-0.586914,0.606445,0
8550,-0.479492,-0.567871,0.603027,0
8570,-0.456543,-0.563965,0.614258,0
8590,-0.44043,-0.552734,0.630371,0
8610,-0.453613,-0.566895,0.637695,0
8630,-0.462891,-0.571289,0.654297,0
8650,-0.439453,-0.576172,0.646973,0
8670,-0.437012,-0.578613,0.628906,0
8690,-0.433105,-0.576172,0.637207,0
8710,-0.4375,-0.557617,0.637207,0
8730,-0.458984,-0.554688,0.625,0
8750,-0.458008,-0.567383,0.633789,0
8770,-0.45166,-0.570312,0.65625,0
8780,-0.467773,-0.562012,0.664551,0
8800,-0.467285,-0.528809,0.666992,0
8820,-0.477539,-0.522461,0.672363,0
8840,-0.47998,-0.507812,0.675781,0
8860,-0.484375,-0.507812,0.666016,0
8880,-0.478027,-0.524414,0.65625,0
8900,-0.462891,-0.530762,0.66748,0
8920,-0.459473,-0.530762,0.65918,0
8940,-0.456055,-0.533203,0.646484,0
8960,-0.453613,-0.532227,0.662109,0
8980,-0.433105,-0.528809,0.659668,0
9000,-0.427246,-0.51709,0.666504,0
9020,-0.432617,-0.515625,0.664062,0
9040,-0.41748,-0.506348,0.666992,0
9060,-0.414062,-0.495605,0.681641,0
9080,-0.414062,-0.490234,0.70459,0
9100,-0.394531,-0.492676,0.721191,0
9120,-0.390625,-0.494629,0.728516,0
9140,-0.380371,-0.484863,0.729004,0
9160,-0.383301,-0.489258,0.727539,0
9180,-0.377441,-0.494629,0.731934,0
9200,-0.375,-0.495605,0.721191,0
9220,-0.365234,-0.488281,0.709961,0
9240,-0.356934,-0.495117,0.713867,0
9260,-0.362305,-0.49707,0.714844,0
9280,-0.355957,-0.51123,0.71875,0
9300,-0.344238,-0.511719,0.726074,0
9320,-0.336914,-0.51416,0.742676,0
9340,-0.334961,-0.511719,0.743164,0
9360,-0.336914,-0.516113,0.729004,0
9380,-0.336426,-0.521973,0.737793,0
9400,-0.337891,-0.526367,0.751953,0
9420,-0.341309,-0.530273,0.750488,0
9440,-0.34082,-0.523438,0.733887,0
9460,-0.331055,-0.532227,0.728027,0
9480,-0.33252,-0.515137,0.719238,0
9500,-0.324219,-0.5,0.721191,0
9520,-0.3125,-0.496582,0.729492,0
9540,-0.314453,-0.502441,0.73584,0
9560,-0.317383,-0.496094,0.733887,0
9580,-0.317871,-0.501465,0.731934,0
9600,-0.318359,-0.497559,0.749512,0
9620,-0.320312,-0.507324,0.744141,0
9640,-0.321289,-0.507812,0.75,0
9660,-0.32373,-0.512207,0.753418,0
9680,-0.327148,-0.496094,0.741211,0
9700,-0.32666,-0.505859,0.734863,0
9720,-0.334473,-0.511719,0.736328,0
9740,-0.336914,-0.513672,0.730469,0
9760,-0.339844,-0.504395,0.731934,0
9780,-0.332031,-0.510742,0.73291,0
9800,-0.333008,-0.506348,0.731934,0
9820,-0.337402,-0.509766,0.729004,0
9840,-0.341797,-0.512207,0.726074,0
9860,-0.341309,-0.508301,0.723145,0
9880,-0.345703,-0.513672,0.730469,0
9900,-0.34375,-0.51416,0.722656,0
9920,-0.348145,-0.51709,0.726074,0
9940,-0.344238,-0.518555,0.723145,0
9960,-0.341797,-0.522949,0.719727,0
9980,-0.34375,-0.523926,0.71875,0
10000,-0.343262,-0.522949,0.724121,0
10020,-0.344238,-0.519531,0.71875,0
10040,-0.342773,-0.523926,0.71582,0
10060,-0.350098,-0.520508,0.722656,0
10080,-0.354004,-0.523438,0.71875,0
10100,-0.359375,-0.51709,0.714355,0
10120,-0.360352,-0.517578,0.713867,0
10140,-0.365234,-0.518555,0.709473,0
10160,-0.375,-0.524902,0.710938,0
10180,-0.379883,-0.524902,0.70752,0
10200,-0.37793,-0.523926,0.705566,0
10220,-0.378418,-0.525391,0.709473,0
10240,-0.380371,-0.524902,0.710938,0
10260,-0.383789,-0.53125,0.695801,0
10280,-0.379395,-0.530273,0.695312,0
10300,-0.377441,-0.532227,0.699707,0
10320,-0.375488,-0.526855,0.699707,0
10340,-0.374023,-0.532227,0.700195,0
10360,-0.374512,-0.529297,0.695801,0
10380,-0.373047,-0.538574,0.697266,0
10400,-0.374512,-0.531738,0.693848,0
10420,-0.375488,-0.53418,0.702637,0
10440,-0.373047,-0.530273,0.69873,0
10460,-0.374512,-0.533203,0.695312,0
10480,-0.373047,-0.530762,0.694336,0
10500,-0.370117,-0.535645,0.694336,0
10520,-0.370117,-0.535156,0.703125,0
10540,-0.371582,-0.534668,0.703125,0
10560,-0.368652,-0.53418,0.693359,0
10580,-0.375,-0.533691,0.700195,0
10600,-0.376465,-0.532227,0.696289,0
10620,-0.372559,-0.532715,0.70166,0
10640,-0.373535,-0.534668,0.702148,0
10660,-0.376953,-0.533203,0.699219,0
10680,-0.378906,-0.536621,0.69873,0
10700,-0.377441,-0.534668,0.695312,0
10720,-0.37793,-0.539062,0.692383,0
10740,-0.377441,-0.53418,0.690918,0
10750,-0.381836,-0.543945,0.695312,0
10770,-0.380371,-0.53418,0.694336,0
10790,-0.384277,-0.538086,0.695801,0
10810,-0.385254,-0.536133,0.688965,0
10830,-0.388184,-0.544434,0.689453,0
10850,-0.388184,-0.540527,0.692383,0
10870,-0.382324,-0.543945,0.694824,0
10890,-0.380859,-0.539551,0.69873,0
10910,-0.381836,-0.542969,0.694824,0
10930,-0.381836,-0.539551,0.695312,0
10950,-0.384766,-0.544434,0.692871,0
10970,-0.386719,-0.54541,0.695312,0
10990,-0.396484,-0.543945,0.702637,0
11010,-0.39209,-0.544922,0.697754,0
11030,-0.393555,-0.541504,0.683594,0
11050,-0.395996,-0.537598,0.674316,0
11070,-0.393066,-0.539551,0.676758,0
11090,-0.392578,-0.547852,0.674805,0
11110,-0.393555,-0.553711,0.675781,0
11130,-0.39502,-0.547852,0.678711,0
11150,-0.389648,-0.540039,0.679199,0
11170,-0.397949,-0.552246,0.681641,0
11190,-0.401855,-0.555664,0.679688,0
11210,-0.404785,-0.561035,0.67334,0
11230,-0.402832,-0.557617,0.665527,0
11250,-0.405273,-0.562988,0.668945,0
11270,-0.406738,-0.563965,0.661621,0
11290,-0.40625,-0.564453,0.664062,0
11310,-0.402344,-0.556641,0.650391,0
11330,-0.403809,-0.556152,0.648438,0
11350,-0.404785,-0.556152,0.649414,0
11370,-0.410156,-0.561035,0.652832,0
11390,-0.417969,-0.562988,0.662109,0
11410,-0.411621,-0.569336,0.662598,0
11430,-0.414551,-0.56543,0.664551,0
11450,-0.411133,-0.554688,0.672852,0
11470,-0.418945,-0.538574,0.683594,0
11490,-0.42041,-0.54248,0.691895,0
11510,-0.42041,-0.542969,0.686035,0
11530,-0.429199,-0.537109,0.676758,0
11550,-0.441406,-0.529297,0.669434,0
11570,-0.447754,-0.519043,0.669434,0
11590,-0.453125,-0.525879,0.658691,0
11610,-0.446777,-0.525391,0.660156,0
11630,-0.445801,-0.52832,0.667969,0
11650,-0.443848,-0.52832,0.664551,0
11670,-0.439941,-0.541016,0.659668,0
11690,-0.436035,-0.539062,0.668457,0
11710,-0.429688,-0.557617,0.659668,0
11730,-0.430176,-0.561035,0.65625,0
11750,-0.424805,-0.558594,0.65918,0
11770,-0.42041,-0.550781,0.647949,0
11790,-0.429199,-0.562988,0.662598,0
11810,-0.432617,-0.559082,0.67627,0
11830,-0.434082,-0.555176,0.673828,0
11850,-0.434082,-0.557617,0.674316,0
11870,-0.425781,-0.541992,0.666992,0
11890,-0.413574,-0.529785,0.669434,0
11910,-0.416016,-0.524414,0.672852,0
11930,-0.416504,-0.536133,0.671387,0
11950,-0.425781,-0.536621,0.685547,0
11970,-0.43457,-0.547363,0.697754,0
11990,-0.44043,-0.535645,0.693359,0
12010,-0.442383,-0.533691,0.687012,0
12030,-0.427734,-0.522949,0.685059,0
12050,-0.42334,-0.508301,0.683105,0
12070,-0.429199,-0.492676,0.692871,0
12090,-0.437988,-0.478516,0.699707,0
12110,-0.447266,-0.466309,0.712891,0
12130,-0.44873,-0.453613,0.69873,0
12150,-0.459961,-0.452148,0.693848,0
12170,-0.462402,-0.459961,0.694824,0
12190,-0.474609,-0.453125,0.693359,0
12210,-0.474121,-0.458984,0.688477,0
12230,-0.47168,-0.443359,0.686523,0
12250,-0.479004,-0.443359,0.678223,0
12270,-0.480469,-0.438477,0.67627,0
12290,-0.470215,-0.41748,0.669922,0
12310,-0.465332,-0.415039,0.678711,0
12330,-0.455078,-0.421387,0.710449,0
12350,-0.442383,-0.444336,0.711914,0
12370,-0.439453,-0.466797,0.735352,0
12390,-0.437988,-0.486816,0.734863,0
12410,-0.430176,-0.489258,0.722656,0
12430,-0.425781,-0.496094,0.713867,0
12450,-0.413574,-0.494629,0.700684,0
12470,-0.407227,-0.519531,0.706055,0
12490,-0.40332,-0.53125,0.708496,0
12510,-0.393066,-0.530762,0.718262,0
12530,-0.387207,-0.533691,0.718262,0
12550,-0.373535,-0.534668,0.715332,0
12570,-0.36084,-0.539551,0.703613,0
12590,-0.354492,-0.552734,0.705078,0
12610,-0.355469,-0.544922,0.700684,0
12630,-0.347656,-0.543457,0.700195,0
12650,-0.357422,-0.541504,0.682617,0
12670,-0.369629,-0.552246,0.687988,0
12690,-0.382812,-0.561035,0.692871,0
12710,-0.38623,-0.562012,0.69873,0
12730,-0.393066,-0.566895,0.688965,0
12750,-0.404297,-0.551758,0.691895,0
12770,-0.404785,-0.549316,0.683105,0
12790,-0.402832,-0.540527,0.668945,0
12810,-0.401855,-0.546875,0.662598,0
12830,-0.40625,-0.553711,0.660156,0
12850,-0.400879,-0.553223,0.66748,0
12870,-0.400879,-0.5625,0.666504,0
12890,-0.39502,-0.560547,0.677734,0
12910,-0.395508,-0.557617,0.691406,0
12930,-0.389648,-0.573242,0.699219,0
12950,-0.382812,-0.574219,0.706543,0
12970,-0.37207,-0.552734,0.691406,0
12990,-0.341797,-0.567383,0.662109,0
13010,-0.334961,-0.573242,0.687012,0
13030,-0.336914,-0.570312,0.685059,0
13050,-0.347656,-0.574707,0.667969,0
13070,-0.34375,-0.580078,0.678223,0
13090,-0.337402,-0.569336,0.696777,0
13110,-0.35498,-0.53418,0.678223,0
13130,-0.358398,-0.542969,0.66748,0
13150,-0.358398,-0.541992,0.681152,0
13170,-0.378418,-0.541504,0.672363,0
13190,-0.396484,-0.549805,0.661133,0
13210,-0.391113,-0.54834,0.652832,0
13230,-0.393066,-0.54834,0.641113,0
13250,-0.384766,-0.549805,0.643066,0
13270,-0.385742,-0.573242,0.65625,0
13290,-0.380859,-0.570801,0.674805,0
13310,-0.390137,-0.584961,0.681152,0
13330,-0.38916,-0.584961,0.679199,0
13350,-0.381348,-0.581055,0.683105,0
13370,-0.377441,-0.575195,0.685059,0
13390,-0.376465,-0.578125,0.678223,0
13410,-0.370117,-0.577637,0.665527,0
13430,-0.364746,-0.575684,0.664551,0
13450,-0.355469,-0.566895,0.673828,0
13470,-0.339844,-0.563477,0.681641,0
13490,-0.350098,-0.563965,0.680176,0
13510,-0.358398,-0.573242,0.681641,0
13530,-0.35791,-0.575684,0.678223,0
13550,-0.357422,-0.572754,0.677734,0
13570,-0.364258,-0.57959,0.67627,0
13590,-0.365234,-0.568848,0.677734,0
13610,-0.369141,-0.572754,0.682617,0
13630,-0.369141,-0.571289,0.672363,0
13650,-0.384277,-0.586914,0.666992,0
13670,-0.388184,-0.583984,0.659668,0
13690,-0.38623,-0.594238,0.658691,0
13710,-0.379883,-0.589355,0.656738,0
13730,-0.379883,-0.580078,0.652344,0
13750,-0.375977,-0.569824,0.668457,0
13770,-0.370117,-0.574707,0.672363,0
13790,-0.362793,-0.580078,0.674316,0
13810,-0.364258,-0.587891,0.675293,0
13830,-0.356445,-0.580078,0.668457,0
13850,-0.352051,-0.581543,0.672363,0
13870,-0.354004,-0.578125,0.674316,0
13890,-0.353516,-0.577637,0.666016,0
13910,-0.35498,-0.57959,0.670898,0
13930,-0.351074,-0.574219,0.670898,0
13950,-0.35498,-0.573242,0.671875,0
13970,-0.353516,-0.575195,0.673828,0
13990,-0.351562,-0.578125,0.67627,0
14010,-0.351562,-0.575684,0.680664,0
14030,-0.349121,-0.57666,0.680664,0
14050,-0.350098,-0.575684,0.674316,0
14070,-0.354004,-0.578613,0.67627,0
14090,-0.352051,-0.567871,0.677734,0
14110,-0.35791,-0.572754,0.678223,0
14130,-0.352539,-0.575684,0.675781,0
14150,-0.360352,-0.575684,0.683594,0
14170,-0.35791,-0.572754,0.6875,0
14180,-0.358398,-0.580078,0.68457,0
14200,-0.365234,-0.576172,0.694336,0
14220,-0.372559,-0.591309,0.699219,0
14240,-0.395508,-0.599121,0.704102,0
14260,-0.408691,-0.620605,0.711914,0
14280,-0.411133,-0.63916,0.705566,0
14300,-0.424805,-0.590332,0.739258,0
14320,-0.405273,-0.549805,0.748535,0
14340,-0.382324,-0.567871,0.753418,0
14360,-0.326172,-0.620605,0.686523,0
14380,-0.275879,-0.663574,0.743164,0
14400,-0.23877,-0.730469,0.825684,0
14420,-0.210938,-0.722168,0.788574,0
14440,-0.155273,-0.729004,0.714355,0
14460,-0.140625,-0.755371,0.744141,0
14480,-0.0625,-0.786133,0.820801,0
14500,-0.0297852,-0.618164,0.700684,0
14520,-0.0175781,-0.435547,0.628418,0
14540,-0.00292969,-0.436035,0.746582,0
14560,0.00976562,-0.538086,0.774902,0
14580,0.0678711,-0.552734,0.694336,0
14600,0.0444336,-0.543945,0.685547,0
14620,0.00537109,-0.544922,0.696777,0
14640,0.00488281,-0.568359,0.701172,0
14660,0.0478516,-0.571777,0.666992,0
14680,0.0327148,-0.529785,0.636719,0
14700,0.0249023,-0.515137,0.684082,0
14720,0.0483398,-0.537598,0.674316,0
14740,0.0410156,-0.535156,0.646484,0
14760,0.0498047,-0.556152,0.661621,0
14780,0.0595703,-0.560547,0.671387,0
14800,0.0498047,-0.556641,0.67334,0
14820,0.0541992,-0.572754,0.669434,0
14840,0.0629883,-0.560059,0.693848,0
14860,0.0541992,-0.5625,0.696777,0
14880,0.0732422,-0.570801,0.704102,0
14900,0.0932617,-0.552734,0.711914,0
14920,0.109375,-0.566895,0.741211,0
14940,0.124023,-0.561523,0.737793,0
14960,0.131836,-0.558105,0.725586,0
14980,0.133789,-0.560547,0.741699,0
15000,0.131348,-0.561035,0.748047,0
15020,0.131348,-0.5625,0.736816,0
15040,0.133789,-0.563965,0.727051,0
15060,0.149414,-0.568848,0.742676,0
15080,0.141113,-0.569824,0.736816,0
15100,0.13916,-0.564941,0.731445,0
15120,0.146973,-0.558594,0.739746,0
15140,0.139648,-0.554688,0.737793,0
15160,0.134766,-0.552246,0.736816,0
15180,0.132324,-0.546387,0.736816,0
15200,0.131836,-0.555664,0.72998,0
15220,0.132324,-0.540039,0.739746,0
15240,0.12793,-0.544922,0.737305,0
15260,0.129883,-0.536621,0.737793,0
15280,0.121582,-0.546875,0.739746,0
15300,0.125,-0.54834,0.740723,0
15320,0.125488,-0.554688,0.744141,0
15340,0.114258,-0.563965,0.733398,0
15360,0.108398,-0.589844,0.717773,0
15380,0.105469,-0.597168,0.711914,0
15400,0.103516,-0.623535,0.731445,0
15420,0.0942383,-0.643066,0.709473,0
15440,0.121582,-0.724609,0.708984,0
15460,0.175293,-0.740234,0.708008,0
15480,0.203613,-0.786621,0.745605,0
15500,0.260742,-0.768066,0.706055,0
15520,0.328613,-0.719238,0.687988,0
15540,0.361816,-0.67627,0.665039,0
15560,0.362793,-0.658691,0.672852,0
15580,0.366699,-0.599609,0.633789,0
15600,0.365234,-0.618652,0.631348,0
15620,0.335449,-0.645996,0.628418,0
15640,0.320801,-0.618652,0.64209,0
15660,0.239258,-0.556152,0.68457,0
15680,0.189941,-0.552246,0.675293,0
15700,0.188477,-0.484863,0.680176,0
15720,0.20752,-0.474121,0.682129,0
15740,0.242188,-0.493164,0.689453,0
15760,0.262695,-0.497559,0.65918,0
15780,0.270508,-0.47998,0.647949,0
15800,0.32373,-0.464355,0.652344,0
15820,0.368164,-0.456543,0.607422,0
15840,0.373535,-0.470703,0.59082,0
15860,0.380371,-0.529785,0.592285,0
15880,0.398926,-0.564941,0.577637,0
15900,0.397949,-0.592285,0.585938,0
15920,0.367676,-0.609375,0.570312,0
15940,0.360352,-0.642578,0.56543,0
15960,0.355957,-0.629883,0.569824,0
15980,0.356445,-0.616211,0.556152,0
16000,0.350098,-0.625488,0.554199,0
16020,0.34082,-0.620605,0.554688,0
16040,0.345215,-0.621582,0.545898,0
16060,0.358398,-0.63916,0.564453,0
16080,0.338379,-0.654297,0.559082,0
16100,0.332031,-0.649902,0.563965,0
16120,0.335938,-0.661133,0.56543,0
16130,0.336914,-0.659668,0.552246,0
16150,0.342285,-0.658203,0.556641,0
16170,0.364746,-0.658203,0.572754,0
16190,0.367676,-0.659668,0.567383,0
16210,0.375488,-0.651855,0.568848,0
16230,0.372559,-0.643066,0.59668,0
16250,0.371582,-0.638672,0.602051,0
16270,0.378418,-0.643066,0.60498,0
16290,0.370605,-0.639648,0.611328,0
16310,0.378906,-0.625977,0.607422,0
16330,0.380371,-0.609375,0.618164,0
16350,0.383301,-0.616211,0.628906,0
16370,0.379395,-0.59668,0.623047,0
16390,0.366211,-0.599121,0.617676,0
16410,0.374023,-0.608398,0.624512,0
16430,0.375,-0.615723,0.615234,0
16450,0.362305,-0.625488,0.609375,0
16470,0.355469,-0.631836,0.605469,0
16490,0.360352,-0.638184,0.606445,0
16510,0.355957,-0.616699,0.612793,0
16530,0.348633,-0.623047,0.595703,0
16550,0.351074,-0.62793,0.601562,0
16570,0.335449,-0.625,0.620605,0
16590,0.322266,-0.616211,0.608887,0
16610,0.314453,-0.626465,0.612793,0
16630,0.3125,-0.623535,0.623047,0
16650,0.294434,-0.621094,0.62207,0
16670,0.295898,-0.626953,0.624512,0
16690,0.290527,-0.630371,0.625,0
16710,0.287109,-0.62793,0.626465,0
16730,0.289062,-0.629395,0.606934,0
16750,0.290039,-0.630859,0.609863,0
16770,0.285645,-0.629395,0.628418,0
16790,0.273926,-0.625488,0.624023,0
16810,0.259766,-0.63623,0.615234,0
16830,0.28125,-0.656738,0.600586,0
16850,0.286621,-0.670898,0.620117,0
16870,0.280273,-0.660645,0.612305,0
16890,0.282227,-0.669922,0.604492,0
16910,0.277832,-0.649414,0.619629,0
16930,0.286133,-0.672852,0.600586,0
16950,0.28418,-0.67334,0.606445,0
16970,0.286133,-0.669434,0.610352,0
16990,0.274902,-0.662598,0.601562,0
17010,0.287598,-0.658203,0.609863,0
17030,0.276367,-0.665527,0.600098,0
17050,0.284668,-0.670898,0.601074,0
17070,0.28125,-0.660645,0.615723,0
17090,0.254395,-0.658203,0.593262,0
17110,0.261719,-0.674316,0.581543,0
17130,0.262207,-0.654297,0.620605,0
17150,0.26123,-0.650391,0.625977,0
17170,0.272461,-0.660156,0.617188,0
17190,0.280273,-0.673828,0.598145,0
17210,0.280762,-0.668457,0.600586,0
17230,0.281738,-0.683105,0.593262,0
17250,0.274414,-0.674805,0.596191,0
17270,0.262207,-0.681641,0.591797,0
17290,0.26123,-0.67334,0.603516,0
17310,0.253906,-0.661621,0.59375,0
17330,0.250488,-0.666504,0.577637,0
17350,0.253906,-0.67041,0.591309,0
17370,0.248535,-0.672852,0.591309,0
17390,0.259277,-0.676758,0.594727,0
17410,0.253906,-0.681641,0.597168,0
17430,0.254395,-0.669922,0.590332,0
17450,0.254395,-0.674805,0.586914,0
17470,0.25293,-0.67334,0.59082,0
17490,0.241211,-0.678223,0.59375,0
17510,0.231934,-0.665527,0.596191,1000
17530,0.244629,-0.67334,0.599609,0
17550,0.253906,-0.67334,0.611328,0
17570,0.242676,-0.669922,0.595215,0
17590,0.242188,-0.669922,0.591309,0
17610,0.242676,-0.673828,0.595703,0
17630,0.242188,-0.666992,0.603516,0
17650,0.244629,-0.667969,0.599609,0
17670,0.248535,-0.666504,0.594238,0
17690,0.270996,-0.663086,0.604004,0
17710,0.294922,-0.648926,0.606934,0
17730,0.305176,-0.635254,0.598633,0
17750,0.311523,-0.640137,0.59375,0
17770,0.333984,-0.646484,0.59375,0
17790,0.347656,-0.665039,0.57959,0
17810,0.348633,-0.674805,0.578125,0
17830,0.352051,-0.671387,0.578613,0
17850,0.35498,-0.652832,0.571777,0
17870,0.359375,-0.660156,0.572266,0
17890,0.375488,-0.654297,0.567871,0
17910,0.388184,-0.65625,0.568359,0
17930,0.383301,-0.644531,0.572754,0
17950,0.384766,-0.658203,0.562988,0
17970,0.395996,-0.658203,0.561035,0
17990,0.390137,-0.655273,0.562012,0
18010,0.38623,-0.645508,0.560059,0
18030,0.391113,-0.652344,0.556152,0
18050,0.404297,-0.651855,0.557617,0
18070,0.393066,-0.654785,0.54834,0
18090,0.388184,-0.652832,0.54541,0
18110,0.396973,-0.644531,0.55127,0
18130,0.38623,-0.638672,0.546875,0
18150,0.396973,-0.641602,0.541504,0
18170,0.404785,-0.643066,0.548828,0
18190,0.411621,-0.631836,0.540527,0
18210,0.405273,-0.638672,0.535156,0
18230,0.407227,-0.63916,0.545898,0
18250,0.408203,-0.628418,0.539062,0
18270,0.414551,-0.626953,0.542969,0
18290,0.408203,-0.631348,0.534668,0
18310,0.418945,-0.628906,0.531738,0
18330,0.432617,-0.628906,0.53125,0
18350,0.45166,-0.631348,0.525879,0
18370,0.459473,-0.63623,0.517578,0
18390,0.459961,-0.625977,0.515137,0
18410,0.450195,-0.640625,0.516602,0
18430,0.473633,-0.630371,0.520996,0
18450,0.48584,-0.637207,0.521484,0
18470,0.480469,-0.62207,0.51709,0
18490,0.46582,-0.621094,0.504395,0
18510,0.487305,-0.616699,0.507324,0
18530,0.51123,-0.621094,0.508301,0
18550,0.492676,-0.613281,0.50293,0
18570,0.486328,-0.613281,0.498047,0
18590,0.494629,-0.609375,0.498047,0
18610,0.515625,-0.609375,0.493164,0
18630,0.513184,-0.604492,0.493164,0
18650,0.507812,-0.600586,0.497559,0
18670,0.506836,-0.600586,0.494629,0
18690,0.516113,-0.588867,0.504395,0
18710,0.526855,-0.594727,0.495117,0
18730,0.530762,-0.598633,0.48584,0
18750,0.527832,-0.597656,0.486816,0
18770,0.552246,-0.575195,0.492676,0
18790,0.556641,-0.571289,0.484863,0
18810,0.560547,-0.568848,0.466309,0
18830,0.581543,-0.58252,0.470215,0
18850,0.587891,-0.564941,0.456543,0
18870,0.597656,-0.56543,0.440918,0
18890,0.606934,-0.572754,0.441406,0
18910,0.616211,-0.558105,0.452148,0
18930,0.618164,-0.552246,0.4375,0
18950,0.606445,-0.560059,0.428223,0
18970,0.609863,-0.553711,0.434082,0
18990,0.611328,-0.550781,0.440918,0
19010,0.601562,-0.550293,0.442383,0
19030,0.602539,-0.554688,0.447754,0
19050,0.603516,-0.53418,0.464355,0
19070,0.606934,-0.537598,0.45459,0
19090,0.595703,-0.538086,0.458984,0
19110,0.61377,-0.539551,0.458984,0
19130,0.617188,-0.529297,0.459473,0
19150,0.61377,-0.541992,0.446777,0
19170,0.625,-0.53418,0.456543,0
19190,0.644531,-0.543457,0.455566,0
19210,0.629395,-0.521973,0.455078,0
19230,0.632812,-0.530762,0.453613,0
19250,0.643555,-0.529297,0.463379,0
19270,0.635742,-0.528809,0.458984,0
19290,0.636719,-0.515625,0.459961,0
19310,0.640625,-0.52002,0.462891,0
19330,0.649414,-0.518555,0.463379,0
19350,0.643066,-0.512207,0.461426,0
19370,0.644043,-0.504883,0.462891,0
19390,0.646973,-0.51416,0.464355,0
19410,0.645508,-0.512695,0.465332,0
19430,0.636719,-0.502441,0.466797,0
19450,0.637207,-0.493652,0.467773,0
19470,0.643066,-0.487793,0.48291,0
19490,0.641602,-0.49707,0.48877,0
19510,0.63623,-0.493652,0.492188,0
19520,0.633301,-0.500977,0.482422,0
19540,0.645508,-0.499023,0.486328,0
19560,0.643066,-0.496582,0.492676,0
19580,0.63916,-0.487793,0.491211,0
19600,0.648926,-0.490234,0.48877,0
19620,0.638184,-0.478516,0.501465,0
19640,0.629395,-0.477051,0.5,0
19660,0.630371,-0.479004,0.500977,0
19680,0.630371,-0.480957,0.511719,0
19700,0.618164,-0.467285,0.516113,0
19720,0.618164,-0.467773,0.515625,0
19740,0.625,-0.466797,0.524902,0
19760,0.60498,-0.470703,0.534668,0
19780,0.597656,-0.474121,0.53125,0
19800,0.606934,-0.471191,0.535645,0
19820,0.597656,-0.474609,0.550781,0
19840,0.567383,-0.470215,0.561035,0
19860,0.554688,-0.469238,0.566406,0
19880,0.561035,-0.483398,0.567871,0
19900,0.550293,-0.483887,0.586914,0
19920,0.555664,-0.472656,0.587891,0
19940,0.55957,-0.474121,0.575684,0
19960,0.543457,-0.46875,0.579102,0
19980,0.543945,-0.48584,0.57373,0
20000,0.548828,-0.495605,0.588379,0
20020,0.537109,-0.483398,0.590332,0
20040,0.526367,-0.483398,0.573242,0
20060,0.528809,-0.494141,0.575195,0
20080,0.525879,-0.504883,0.582031,0
20100,0.517578,-0.513184,0.59082,0
20120,0.510254,-0.497559,0.591309,0
20140,0.514648,-0.489746,0.580566,0
20160,0.527832,-0.497559,0.594727,0
20180,0.52002,-0.504395,0.588867,0
20200,0.498047,-0.511719,0.583984,0
20220,0.489746,-0.507324,0.594727,0
20240,0.50293,-0.510742,0.596191,0
20260,0.506836,-0.510254,0.590332,0
20280,0.492188,-0.525879,0.577148,0
20300,0.49707,-0.533691,0.584961,0
20320,0.507812,-0.536133,0.587891,0
20340,0.515137,-0.514648,0.582031,0
20360,0.518555,-0.530762,0.583496,0
20380,0.502441,-0.538574,0.587402,0
20400,0.47998,-0.539062,0.588867,0
20420,0.472168,-0.543457,0.586914,0
20440,0.478516,-0.561035,0.587402,0
20460,0.481934,-0.555176,0.59082,0
20480,0.461914,-0.549805,0.590332,0
20500,0.44873,-0.543945,0.586426,0
20520,0.452148,-0.547852,0.59082,0
20540,0.438965,-0.54834,0.600586,0
20560,0.42627,-0.55127,0.596191,0
20580,0.422363,-0.55957,0.590332,0
20600,0.426758,-0.560059,0.600098,0
20620,0.429688,-0.552734,0.609375,0
20640,0.402832,-0.55127,0.607422,0
20660,0.402344,-0.572266,0.602539,0
20680,0.427734,-0.580566,0.600586,0
20700,0.425781,-0.568359,0.606934,0
20720,0.413086,-0.560059,0.617676,0
20740,0.402832,-0.577148,0.59668,0
20760,0.418457,-0.579102,0.599121,0
20780,0.407227,-0.582031,0.612793,0
20800,0.397949,-0.583496,0.597656,0
20820,0.393555,-0.601074,0.592285,0
20840,0.39502,-0.59668,0.595703,0
20860,0.397949,-0.605957,0.587891,0
20880,0.405762,-0.600586,0.589355,0
20900,0.401855,-0.612793,0.593262,0
20920,0.38623,-0.611816,0.589355,0
20940,0.387207,-0.625488,0.566895,0
20960,0.400391,-0.625977,0.583496,0
20980,0.38623,-0.612305,0.59668,0
21000,0.37207,-0.629883,0.572266,0
21020,0.369629,-0.643555,0.582031,0
21040,0.357422,-0.638672,0.579102,0
21060,0.345215,-0.630371,0.572754,0
21080,0.334961,-0.620605,0.574219,0
21100,0.335449,-0.633789,0.58252,0
21120,0.334961,-0.655273,0.571777,0
21140,0.342773,-0.650879,0.575195,0
21160,0.342773,-0.652344,0.568359,0
21180,0.339355,-0.651367,0.577637,0
21200,0.319824,-0.651367,0.568359,0
21220,0.324707,-0.663086,0.560059,0
21240,0.328125,-0.67334,0.57666,0
21260,0.304199,-0.661133,0.558105,0
21280,0.310547,-0.663574,0.562012,0
21300,0.310059,-0.668945,0.583008,0
21320,0.304688,-0.67334,0.567383,0
21340,0.299805,-0.672363,0.568359,0
21360,0.305176,-0.687988,0.557129,0
21380,0.326172,-0.697266,0.553711,0
21400,0.317871,-0.6875,0.567383,0
21420,0.3125,-0.66748,0.550781,0
21440,0.339844,-0.686523,0.541504,0
21460,0.362305,-0.699707,0.557129,0
21480,0.381836,-0.691406,0.581543,0
21500,0.371582,-0.711426,0.561035,0
21510,0.36084,-0.71582,0.537598,0
21530,0.328613,-0.719238,0.519531,0
21550,0.299805,-0.702148,0.512207,0
21570,0.314453,-0.700684,0.518066,0
21590,0.328125,-0.693848,0.521973,0
21610,0.325684,-0.691895,0.508789,0
21630,0.333496,-0.702148,0.513184,0
21650,0.349121,-0.716309,0.500977,0
21670,0.349609,-0.713867,0.495117,0
21690,0.345703,-0.719727,0.493164,0
21710,0.366211,-0.729004,0.482422,0
21730,0.374023,-0.731934,0.471191,0
21750,0.374512,-0.724121,0.48291,0
21770,0.388184,-0.726562,0.476074,0
21790,0.394043,-0.726562,0.46582,0
21810,0.37793,-0.726074,0.458496,0
21830,0.381836,-0.73877,0.454102,0
21850,0.395508,-0.739258,0.466309,0
21870,0.369629,-0.727539,0.454102,0
21890,0.347656,-0.730957,0.429688,0
21910,0.373535,-0.737793,0.424316,0
21930,0.385254,-0.734863,0.436035,0
21950,0.369629,-0.746582,0.438477,0
21970,0.362793,-0.740723,0.416504,0
21990,0.370117,-0.745117,0.424805,0
22010,0.372559,-0.73584,0.435059,0
22030,0.368164,-0.739746,0.408691,0
22050,0.37207,-0.738281,0.393066,0
22070,0.398926,-0.728516,0.412109,0
22090,0.40332,-0.722656,0.401855,0
22110,0.412109,-0.736816,0.390625,0
22130,0.430664,-0.73584,0.393555,0
22150,0.45166,-0.740723,0.400879,0
22170,0.446777,-0.733887,0.395508,0
22190,0.453125,-0.727539,0.378418,0
22210,0.47168,-0.733887,0.37207,0
22230,0.458984,-0.715332,0.385742,0
22250,0.45459,-0.713379,0.375977,0
22270,0.474609,-0.727539,0.369629,0
22290,0.498535,-0.738281,0.366699,0
22310,0.508301,-0.734375,0.35498,0
22330,0.520508,-0.727051,0.371582,0
22350,0.543457,-0.707031,0.345215,0
22370,0.574707,-0.712891,0.338379,0
22390,0.594727,-0.71875,0.345215,0
22410,0.580566,-0.703613,0.341797,0
22430,0.582031,-0.689453,0.330078,0
22450,0.60791,-0.70166,0.313477,0
22470,0.621582,-0.694336,0.314941,0
22490,0.599609,-0.674316,0.307617,0
22510,0.611816,-0.675781,0.290527,0
22530,0.623047,-0.680664,0.29248,0
22550,0.601562,-0.661133,0.302734,0
22570,0.600586,-0.661133,0.292969,0
22590,0.60498,-0.650879,0.296387,0
22610,0.637207,-0.644043,0.290527,0
22630,0.630371,-0.635742,0.296875,0
22650,0.643066,-0.624512,0.28418,0
22680,0.680176,-0.616211,0.273438,0
22700,0.689941,-0.605469,0.259277,0
22720,0.70752,-0.599121,0.246094,0
22740,0.713379,-0.599609,0.242188,0
22760,0.719238,-0.595215,0.237793,0
22780,0.722656,-0.587402,0.232422,0
22800,0.727051,-0.57666,0.226562,0
22820,0.728027,-0.584961,0.221191,0
22840,0.727051,-0.581543,0.225098,0
22860,0.721191,-0.565918,0.225586,0
22880,0.722168,-0.553711,0.221191,0
22900,0.737793,-0.563477,0.214355,0
22920,0.74707,-0.552246,0.223145,0
22940,0.737793,-0.54834,0.227051,0
22960,0.748535,-0.541992,0.221191,0
22980,0.765625,-0.552246,0.220215,0
23000,0.77002,-0.538086,0.231445,0
23020,0.779785,-0.518066,0.240723,0
23040,0.796875,-0.512695,0.251465,0
23060,0.791504,-0.505371,0.246582,0
23080,0.797852,-0.500977,0.250488,0
23100,0.790039,-0.494141,0.263672,0
23120,0.803711,-0.492188,0.270996,0
23140,0.79541,-0.477051,0.277832,0
23160,0.791016,-0.464844,0.280762,0
23180,0.799805,-0.462402,0.269043,0
23200,0.819824,-0.466797,0.27832,0
23220,0.818848,-0.456543,0.28418,0
23240,0.792969,-0.463379,0.28418,0
23260,0.793457,-0.489746,0.293457,0
23280,0.775391,-0.478027,0.323242,0
23300,0.739258,-0.438965,0.33252,0
23320,0.751953,-0.45166,0.322266,0
23340,0.770508,-0.460938,0.342773,0
23360,0.766602,-0.467773,0.353516,0
23380,0.729004,-0.459473,0.368652,0
23400,0.715332,-0.457031,0.374023,0
23420,0.730957,-0.456055,0.370117,0
23440,0.742676,-0.446777,0.39209,0
23460,0.721191,-0.441406,0.400879,0
23480,0.72168,-0.450684,0.399414,0
23500,0.732422,-0.462891,0.390625,0
23520,0.749512,-0.467773,0.401367,0
23540,0.722656,-0.46875,0.411133,0
23560,0.706055,-0.458496,0.388672,0
23580,0.722168,-0.495605,0.384277,0
23600,0.742188,-0.502441,0.413086,0
23620,0.696289,-0.486816,0.437988,0
23640,0.661621,-0.475586,0.428711,0
23660,0.658691,-0.487793,0.4375,0
23680,0.675293,-0.502441,0.4375,0
23700,0.678711,-0.516113,0.443848,0
23720,0.652344,-0.496582,0.459473,0
23740,0.636719,-0.520996,0.472168,0
23760,0.611328,-0.523438,0.474609,0
23780,0.590332,-0.514648,0.465332,0
23800,0.608887,-0.523438,0.473145,0
23820,0.610352,-0.537598,0.499023,0
23840,0.597168,-0.538086,0.500488,0
23860,0.563477,-0.533691,0.499512,0
23880,0.547852,-0.556641,0.499512,0
23900,0.556641,-0.560547,0.494141,0
23920,0.54834,-0.560059,0.496582,0
23940,0.545898,-0.5625,0.488281,0
23960,0.551758,-0.573242,0.499512,0
23980,0.552734,-0.567871,0.489746,0
24000,0.520508,-0.567871,0.481445,0
24020,0.518066,-0.584473,0.484863,0
24040,0.531738,-0.587891,0.491211,0
24060,0.54541,-0.590332,0.507324,0
24080,0.548828,-0.616699,0.48877,0
24100,0.545898,-0.616211,0.481445,0
24120,0.536621,-0.616699,0.486328,0
24140,0.513672,-0.621094,0.489258,0
24160,0.496582,-0.614746,0.491211,0
24180,0.474121,-0.615234,0.48291,0
24200,0.47998,-0.612305,0.490723,0
24220,0.470215,-0.606934,0.512695,0
24240,0.422363,-0.602539,0.493164,0
24260,0.433594,-0.608887,0.490723,0
24280,0.449707,-0.621582,0.5,0
24300,0.433594,-0.616699,0.5,0
24320,0.422852,-0.630371,0.490723,0
24340,0.43457,-0.63916,0.492676,0
24360,0.451172,-0.640137,0.483398,0
24380,0.476562,-0.666504,0.475586,0
24400,0.474121,-0.655762,0.483398,0
24420,0.450195,-0.66748,0.473145,0
24440,0.494141,-0.679688,0.466309,0
24460,0.500488,-0.687012,0.472168,0
24480,0.462891,-0.693848,0.449707,0
24500,0.459961,-0.708008,0.433594,0
24520,0.470215,-0.709961,0.438477,0
24540,0.460449,-0.716309,0.425781,0
24560,0.452148,-0.70459,0.424805,0
24580,0.43457,-0.709961,0.432129,0
24600,0.444824,-0.721191,0.412109,0
24620,0.467773,-0.73291,0.415039,0
24640,0.429688,-0.746582,0.410645,0
24660,0.404297,-0.744141,0.375,0
24680,0.450684,-0.76709,0.38623,0
24700,0.467285,-0.765625,0.387207,0
24720,0.427246,-0.751953,0.372559,0
24740,0.418945,-0.755859,0.352539,0
24760,0.445801,-0.770996,0.349609,0
24780,0.462402,-0.779297,0.351074,0
24810,0.476562,-0.788086,0.330566,0
24830,0.512207,-0.777832,0.340332,0
24850,0.491699,-0.753906,0.324219,0
24870,0.484375,-0.765625,0.288086,0
24880,0.515625,-0.769531,0.305176,0
24900,0.508789,-0.757812,0.314941,0
24920,0.485352,-0.745117,0.285156,0
24940,0.486816,-0.746582,0.277832,0
24960,0.47998,-0.731934,0.290527,0
24980,0.468262,-0.731445,0.276855,0
25000,0.495605,-0.747559,0.264648,0
25020,0.504395,-0.739746,0.276367,0
25040,0.48291,-0.728516,0.259277,0
25060,0.478027,-0.731934,0.249023,0
25080,0.50293,-0.754883,0.242676,0
25100,0.511719,-0.728516,0.259277,0
25120,0.497559,-0.729004,0.236816,0
25140,0.52832,-0.730957,0.23291,0
25160,0.577637,-0.733398,0.242188,0
25180,0.577148,-0.713867,0.234375,0
25200,0.584961,-0.712402,0.217285,0
25220,0.623047,-0.706543,0.220215,0
25240,0.633301,-0.69873,0.223145,0
25260,0.623535,-0.689941,0.216309,0
25280,0.61084,-0.68457,0.196777,0
25300,0.646973,-0.674805,0.200195,0
25320,0.655762,-0.676758,0.197754,0
25340,0.634277,-0.673828,0.171387,0
25360,0.652832,-0.674805,0.152344,0
25380,0.681641,-0.666016,0.160645,0
25400,0.711426,-0.661621,0.141113,0
25420,0.719727,-0.669922,0.114746,0
25440,0.700195,-0.657227,0.118164,0
25460,0.727051,-0.637695,0.10791,0
25480,0.757812,-0.629883,0.105469,0
25500,0.755859,-0.620117,0.0991211,0
25520,0.76416,-0.608887,0.0732422,0
25540,0.778809,-0.616211,0.0825195,0
25560,0.768555,-0.597168,0.0839844,0
25580,0.781738,-0.590332,0.0610352,0
25600,0.802246,-0.569336,0.0664062,0
25620,0.796387,-0.554199,0.0742188,0
25640,0.824219,-0.547363,0.0615234,0
25660,0.827148,-0.536621,0.0625,0
25680,0.825684,-0.516113,0.0776367,0
25700,0.832031,-0.50293,0.0732422,0
25720,0.856445,-0.505371,0.0712891,0
25740,0.842285,-0.494141,0.0737305,0
25760,0.844238,-0.478516,0.0722656,0
25780,0.862793,-0.474121,0.0722656,0
25800,0.860352,-0.449707,0.0751953,0
25820,0.862305,-0.440918,0.0771484,0
25840,0.879395,-0.437012,0.0805664,0
25860,0.875488,-0.422363,0.0917969,0
25880,0.874512,-0.404785,0.0864258,0
25900,0.874512,-0.387207,0.0996094,0
25920,0.873047,-0.37793,0.100098,0
25940,0.882324,-0.374023,0.0932617,0
25960,0.896973,-0.377441,0.0961914,0
25980,0.881836,-0.371582,0.10498,0
26000,0.882812,-0.361816,0.114746,0
26020,0.916016,-0.367676,0.114746,0
26040,0.90625,-0.36084,0.122559,0
26060,0.890137,-0.34668,0.12793,0
26080,0.894043,-0.366211,0.133301,0
26100,0.886719,-0.359863,0.158203,0
26120,0.873047,-0.353027,0.165039,0
26140,0.889648,-0.353516,0.178711,0
26160,0.906738,-0.37793,0.20752,0
26180,0.89502,-0.366699,0.22168,0
26200,0.861816,-0.362793,0.234863,0
26220,0.824707,-0.359375,0.249023,0
26240,0.84668,-0.367188,0.256348,0
26260,0.852051,-0.372559,0.291992,0
26280,0.82959,-0.367188,0.291504,0
26300,0.826172,-0.37207,0.29541,0
26320,0.837891,-0.37207,0.322754,0
26340,0.833008,-0.397461,0.328613,0
26360,0.791992,-0.377441,0.344238,0
26380,0.756836,-0.375488,0.347656,0
26400,0.770996,-0.380859,0.344238,0
26420,0.791504,-0.394531,0.359375,0
26440,0.775879,-0.391602,0.371094,0
26460,0.759766,-0.397461,0.383789,0
26480,0.760254,-0.41748,0.39209,0
26500,0.763184,-0.436035,0.387695,0
26520,0.759277,-0.44873,0.382324,0
26540,0.748535,-0.466797,0.381836,0
26560,0.725098,-0.480957,0.38623,0
26580,0.710938,-0.496094,0.394531,0
26600,0.714844,-0.500977,0.38623,0
26620,0.718262,-0.511719,0.383301,0
26640,0.713379,-0.50293,0.38916,0
26660,0.697266,-0.495117,0.406738,0
26680,0.670898,-0.533691,0.388672,0
26700,0.646973,-0.552246,0.376953,0
26720,0.642578,-0.569336,0.393066,0
26730,0.647461,-0.561523,0.402344,0
26760,0.626465,-0.555664,0.400391,0
26780,0.626953,-0.5625,0.406738,0
26800,0.625488,-0.568359,0.412598,0
26820,0.574707,-0.560547,0.41748,0
26840,0.563477,-0.567871,0.40332,0
26860,0.600586,-0.561523,0.426758,0
26870,0.568848,-0.572754,0.427246,0
26890,0.526367,-0.569336,0.411621,0
26910,0.55127,-0.587402,0.412109,0
26930,0.586914,-0.597656,0.411621,0
26950,0.591309,-0.606445,0.417969,0
26970,0.566406,-0.612793,0.38916,0
26990,0.587891,-0.631348,0.391113,0
27010,0.603516,-0.630859,0.39502,0
27030,0.569336,-0.633789,0.387695,0
27050,0.553711,-0.640625,0.379883,0
27070,0.572754,-0.662109,0.374512,0
27090,0.55957,-0.667969,0.369141,0
27110,0.561035,-0.671875,0.369141,0
27130,0.51709,-0.685059,0.354004,0
27150,0.520996,-0.669434,0.35791,0
27170,0.549316,-0.670898,0.387695,0
27190,0.549316,-0.691406,0.375977,0
27210,0.513672,-0.69873,0.370117,0
27230,0.51416,-0.69873,0.345215,0
27250,0.542969,-0.70166,0.352051,0
27270,0.520996,-0.693359,0.327148,0
27290,0.509766,-0.698242,0.326172,0
27310,0.535156,-0.712891,0.338867,0
27330,0.53418,-0.728027,0.333984,0
27350,0.51123,-0.724121,0.311035,0
27380,0.526855,-0.713379,0.30957,0
27400,0.566895,-0.72998,0.299316,0
27420,0.563477,-0.734375,0.299805,0
27440,0.503418,-0.725098,0.282715,0
27460,0.540039,-0.725098,0.272949,0
27470,0.574707,-0.72998,0.283691,0
27490,0.533203,-0.732422,0.268555,0
27510,0.529297,-0.727051,0.248535,0
27530,0.562988,-0.729492,0.256348,0
27550,0.549805,-0.726074,0.251953,0
27570,0.530273,-0.727051,0.243164,0
27590,0.524902,-0.725586,0.234863,0
27610,0.516602,-0.723633,0.22168,0
27630,0.53125,-0.724121,0.211914,0
27650,0.535645,-0.743164,0.213379,0
27670,0.537109,-0.741211,0.207031,0
27690,0.539062,-0.746582,0.212402,0
27710,0.533203,-0.736816,0.212891,0
27730,0.541992,-0.742188,0.197266,0
27750,0.583984,-0.741699,0.195801,0
27770,0.594238,-0.743652,0.205078,0
27790,0.578613,-0.733398,0.188477,0
27810,0.625977,-0.729004,0.190918,0
27830,0.626953,-0.733398,0.197754,0
27850,0.594727,-0.71875,0.181641,0
27870,0.580078,-0.698242,0.169922,0
27890,0.612793,-0.683594,0.16748,0
27910,0.644531,-0.686523,0.165039,0
27930,0.63623,-0.681152,0.161133,0
27950,0.612305,-0.658203,0.15918,0
27970,0.634766,-0.656738,0.145508,0
27990,0.687988,-0.684082,0.128906,0
28010,0.718262,-0.674805,0.105469,0
28030,0.711426,-0.649902,0.120605,0
28050,0.708008,-0.639648,0.133301,0
28070,0.726562,-0.645508,0.104004,0
28090,0.740234,-0.642578,0.0761719,0
28110,0.752441,-0.633301,0.0932617,0
28130,0.767578,-0.620605,0.078125,0
28150,0.775879,-0.605957,0.0566406,0
28170,0.776367,-0.598145,0.0522461,0
28190,0.775879,-0.600098,0.0483398,0
28210,0.794922,-0.602539,0.034668,0
28230,0.79248,-0.583984,0.0170898,0
28250,0.789551,-0.570312,0.00976562,0
28270,0.795898,-0.561523,0.000488281,0
28290,0.800781,-0.569824,-0.019043,0
28310,0.805176,-0.55957,-0.0131836,0
28330,0.818359,-0.567383,-0.0380859,0
28350,0.836426,-0.570801,-0.0527344,0
28370,0.830078,-0.559082,-0.0292969,0
28390,0.827148,-0.540527,-0.0322266,0
28410,0.84375,-0.549805,-0.0458984,0
28430,0.841797,-0.528809,-0.0405273,0
28450,0.841309,-0.518555,-0.0410156,0
28470,0.853027,-0.507324,-0.0424805,0
28490,0.84668,-0.499512,-0.0268555,0
28510,0.835449,-0.492676,-0.0258789,0
28530,0.841797,-0.498535,-0.0253906,0
28550,0.854492,-0.492188,-0.0131836,0
28570,0.848633,-0.488281,-0.00927734,0
28590,0.84668,-0.476562,0.00634766,1001
28610,0.850098,-0.495117,0.0102539,0
28630,0.833496,-0.493164,0.0336914,0
28650,0.831055,-0.471191,0.0410156,0
28670,0.841797,-0.483887,0.0585938,0
28690,0.843262,-0.474121,0.0625,0
28710,0.837891,-0.472168,0.0551758,0
28730,0.842773,-0.494629,0.0581055,0
28750,0.845703,-0.503418,0.0571289,0
28770,0.842773,-0.509766,0.0610352,0
28790,0.822754,-0.501953,0.0571289,0
28810,0.799316,-0.497559,0.0507812,0
28830,0.789062,-0.518555,0.0507812,0
28850,0.789062,-0.517578,0.0473633,0
28870,0.780762,-0.506348,0.0620117,0
28890,0.769531,-0.505859,0.0610352,0
28910,0.777344,-0.515137,0.0585938,0
28930,0.781738,-0.514648,0.0693359,0
28950,0.770508,-0.513672,0.0717773,0
28970,0.75293,-0.527832,0.0698242,0
28990,0.732422,-0.537109,0.0644531,0
29010,0.723145,-0.517578,0.0625,0
29030,0.712891,-0.494629,0.0654297,0
29050,0.70459,-0.489746,0.0610352,0
29070,0.734375,-0.496094,0.0683594,0
29090,0.71582,-0.496094,0.0913086,0
29110,0.668945,-0.489258,0.0888672,0
29130,0.646484,-0.486816,0.0786133,0
29150,0.628418,-0.469727,0.102539,0
29170,0.617188,-0.462402,0.107422,0
29190,0.59668,-0.474609,0.0966797,0
29210,0.589355,-0.496094,0.0893555,0
29230,0.598145,-0.484375,0.122559,0
29250,0.661621,-0.490723,0.165039,0
29270,0.714355,-0.465332,0.192383,0
29290,0.729492,-0.484375,0.151367,0
29310,0.813965,-0.529297,0.15625,0
29330,0.84668,-0.532715,0.249512,0
29350,0.870117,-0.552246,0.230469,0
29370,0.939453,-0.586426,0.194824,0
29390,0.974121,-0.61084,0.266113,0
29410,0.893066,-0.648438,0.318848,0
29430,0.839355,-0.661621,0.317871,0
29450,0.858398,-0.694824,0.379883,0
29470,0.824707,-0.733887,0.403809,0
29490,0.766602,-0.760742,0.400391,0
29510,0.72998,-0.777344,0.420898,0
29530,0.651855,-0.776367,0.458008,0
29550,0.59375,-0.775391,0.450195,0
29570,0.557129,-0.774414,0.458008,0
29590,0.504395,-0.758789,0.484375,0
29610,0.435547,-0.761719,0.47168,0
29630,0.385254,-0.825195,0.441406,0
29650,0.34082,-0.830078,0.450684,0
29670,0.264648,-0.810547,0.464844,0
29690,0.207031,-0.822266,0.471191,0
29710,0.166504,-0.834473,0.470215,0
29730,0.130859,-0.795898,0.474609,0
29750,0.0893555,-0.790039,0.48584,0
29770,0.0673828,-0.781738,0.497559,0
29790,0.0415039,-0.768555,0.506348,0
29810,0.0737305,-0.786133,0.51416,0
29830,0.114258,-0.791016,0.51123,0
29850,0.152344,-0.805176,0.507812,0
29870,0.196777,-0.819824,0.491699,0
29890,0.213867,-0.813965,0.508789,0
29910,0.234863,-0.796387,0.505859,0
29930,0.259277,-0.786133,0.489746,0
29950,0.282715,-0.802246,0.483887,0
29970,0.270996,-0.789551,0.487793,0
29990,0.252441,-0.776367,0.48291,0
30010,0.260742,-0.800293,0.487793,0
30030,0.28125,-0.791504,0.500488,0
30050,0.283203,-0.786133,0.505859,0
30070,0.279297,-0.776367,0.473145,1000
30090,0.287109,-0.778809,0.469238,0
30110,0.324219,-0.761719,0.487305,0
30130,0.329102,-0.752441,0.495117,0
30150,0.3125,-0.747559,0.470703,0
30170,0.310059,-0.753418,0.462891,0
30190,0.335449,-0.757812,0.464844,0
30210,0.365723,-0.750488,0.473145,0
30230,0.366211,-0.745117,0.445312,0
30250,0.381348,-0.736816,0.428223,0
30260,0.39502,-0.72998,0.428223,0
30280,0.421387,-0.721191,0.433594,0
30300,0.428223,-0.73877,0.412109,0
30320,0.413086,-0.731445,0.405273,0
30340,0.443359,-0.745117,0.404297,0
30360,0.453125,-0.72998,0.396973,0
30380,0.441406,-0.732422,0.384766,0
30400,0.437012,-0.731445,0.382812,0
30420,0.462402,-0.739258,0.365723,0
30440,0.465332,-0.74707,0.367676,0
30460,0.477539,-0.742676,0.36377,0
30480,0.477539,-0.729492,0.353516,0
30500,0.484863,-0.748535,0.336914,0
30520,0.49707,-0.734863,0.34375,0
30540,0.507812,-0.711914,0.353027,0
30560,0.506348,-0.710938,0.341309,0
30580,0.516602,-0.724609,0.32666,0
30600,0.532227,-0.722656,0.322754,0
30620,0.541016,-0.711426,0.315918,0
30640,0.555176,-0.709961,0.309082,0
30660,0.568359,-0.708496,0.305176,0
30680,0.561035,-0.699707,0.29541,0
30700,0.578613,-0.69043,0.28418,0
30720,0.591309,-0.689941,0.278809,0
30740,0.591309,-0.68457,0.27832,0
30760,0.603516,-0.686523,0.265625,0
30780,0.619629,-0.684082,0.254395,0
30800,0.635254,-0.680176,0.255371,0
30820,0.621094,-0.668945,0.251953,0
30840,0.634766,-0.662109,0.230957,0
30860,0.656738,-0.654297,0.236328,0
30880,0.660645,-0.656738,0.236816,0
30910,0.695801,-0.62793,0.200684,0
30930,0.694824,-0.626953,0.19873,0
30950,0.700684,-0.624512,0.184082,0
30970,0.708984,-0.63623,0.164062,0
30990,0.716797,-0.631836,0.163574,0
31010,0.715332,-0.626953,0.15918,0
31030,0.71582,-0.617188,0.160156,0
31050,0.716309,-0.625977,0.166992,0
31070,0.714355,-0.618652,0.180664,0
31090,0.715332,-0.611816,0.196289,0
31110,0.70459,-0.60791,0.204102,0
31130,0.692383,-0.61084,0.208496,0
31150,0.708008,-0.589844,0.240723,0
31170,0.727539,-0.579102,0.239258,0
31190,0.725586,-0.59375,0.240234,0
31210,0.722168,-0.593262,0.245117,0
31230,0.720215,-0.566406,0.260254,0
31250,0.739258,-0.556152,0.264648,0
31270,0.748535,-0.557129,0.267578,0
31290,0.758301,-0.55957,0.276855,0
31310,0.744629,-0.562988,0.283203,0
31330,0.722168,-0.547363,0.295898,0
31350,0.736328,-0.541992,0.308594,0
31370,0.740234,-0.547852,0.314941,0
31390,0.715332,-0.55127,0.326172,0
31410,0.702637,-0.536621,0.337891,0
31430,0.70166,-0.547363,0.337402,0
31450,0.708008,-0.548828,0.35498,0
31470,0.691895,-0.544922,0.376953,0
31490,0.67627,-0.539062,0.379395,0
31510,0.675293,-0.544434,0.391602,0
31530,0.669922,-0.544434,0.411621,0
31550,0.644043,-0.541992,0.417969,0
31570,0.645508,-0.546875,0.410156,0
31590,0.677246,-0.547363,0.413574,0
31610,0.661621,-0.538574,0.438965,0
31630,0.633301,-0.533203,0.43457,0
31650,0.627441,-0.556152,0.431152,0
31670,0.635254,-0.561523,0.438965,0
31690,0.617676,-0.563477,0.458008,0
31710,0.614258,-0.559082,0.456055,0
31730,0.599121,-0.551758,0.472656,0
31750,0.59375,-0.543945,0.472656,0
31770,0.587891,-0.556641,0.465332,0
31790,0.600586,-0.550293,0.478516,0
31810,0.600586,-0.55127,0.494629,0
31830,0.578613,-0.545898,0.505859,0
31850,0.562988,-0.554688,0.507324,0
31870,0.575684,-0.557129,0.509766,0
31890,0.56543,-0.568848,0.524414,0
31910,0.539551,-0.556641,0.53418,0
31930,0.54248,-0.55127,0.532227,0
31950,0.551758,-0.538574,0.539062,0
31970,0.552246,-0.554688,0.524902,0
31990,0.55127,-0.560547,0.532227,0
32010,0.531738,-0.558594,0.525879,0
32030,0.514648,-0.555176,0.525879,0
32050,0.519531,-0.558105,0.524414,0
32070,0.53125,-0.577637,0.51416,0
32090,0.539062,-0.571777,0.533691,0
32110,0.520508,-0.56543,0.53418,0
32130,0.501953,-0.56543,0.515137,0
32150,0.505371,-0.57959,0.52002,0
32170,0.522461,-0.59375,0.524414,0
32190,0.500488,-0.587891,0.539062,0
32210,0.483398,-0.57373,0.526855,0
32220,0.492188,-0.580566,0.52832,0
32240,0.495605,-0.57373,0.526855,0
32260,0.48877,-0.580078,0.535156,0
32280,0.479004,-0.577148,0.538574,0
32300,0.486816,-0.581543,0.542969,0
32320,0.498535,-0.577148,0.550781,0
32340,0.480469,-0.58252,0.549316,0
32360,0.466797,-0.59082,0.539551,0
32380,0.461426,-0.598633,0.540527,0
32400,0.468262,-0.598145,0.544922,0
32420,0.46582,-0.602051,0.540527,0
32440,0.459961,-0.601562,0.539062,0
32460,0.44873,-0.601562,0.540039,0
32480,0.443359,-0.605469,0.539551,0
32500,0.446289,-0.605957,0.54541,0
32520,0.445312,-0.619141,0.54248,0
32540,0.445312,-0.614746,0.554199,0
32560,0.420898,-0.616699,0.549805,0
32580,0.431152,-0.629883,0.552246,0
32600,0.422363,-0.637695,0.550781,0
32620,0.40332,-0.626465,0.548828,0
32640,0.406738,-0.638184,0.546875,0
32660,0.408203,-0.635742,0.542969,0
32680,0.395996,-0.631348,0.543457,0
32700,0.406738,-0.640137,0.547363,0
32720,0.407715,-0.638672,0.555176,0
32740,0.401367,-0.632812,0.561035,0
32760,0.39502,-0.645996,0.543457,0
32780,0.411621,-0.652344,0.544434,0
32800,0.408203,-0.649414,0.555664,0
32820,0.404785,-0.654785,0.546387,0
32840,0.40625,-0.664551,0.54541,0
32860,0.406738,-0.664062,0.542969,0
32880,0.395508,-0.661133,0.54541,0
32900,0.366211,-0.65332,0.54248,0
32920,0.381348,-0.665527,0.541504,0
32940,0.373047,-0.673828,0.558105,0
32960,0.34668,-0.665527,0.543457,0
32980,0.359375,-0.679199,0.53418,0
33000,0.367676,-0.681641,0.552246,0
33020,0.347168,-0.686523,0.537109,0
33040,0.358398,-0.690918,0.524902,0
33060,0.367188,-0.699707,0.515137,0
33080,0.377441,-0.695312,0.519531,0
33100,0.375977,-0.700684,0.505371,0
33120,0.387695,-0.697754,0.5,0
33140,0.382812,-0.708496,0.477051,0
33160,0.394043,-0.712891,0.479492,0
33180,0.401367,-0.712891,0.48291,0
33200,0.399902,-0.716797,0.472168,0
33220,0.399902,-0.723633,0.456055,0
33240,0.393066,-0.731445,0.447754,0
33260,0.387695,-0.711914,0.452148,0
33280,0.382812,-0.721191,0.446777,0
33300,0.38916,-0.727539,0.439453,0
33320,0.378418,-0.716309,0.435059,0
33340,0.376953,-0.723145,0.429688,0
33360,0.38623,-0.743164,0.42334,0
33380,0.400879,-0.725098,0.422852,0
33400,0.400879,-0.744141,0.401855,0
33420,0.421387,-0.741211,0.397949,0
33440,0.443848,-0.734375,0.406738,0
33460,0.461914,-0.735352,0.402344,0
33480,0.464355,-0.746582,0.381836,0
33500,0.506836,-0.762207,0.360352,0
33520,0.516113,-0.758789,0.367188,0
33540,0.527344,-0.737305,0.358398,0
33560,0.54248,-0.742188,0.347168,0
33580,0.5625,-0.747559,0.335938,0
33600,0.54541,-0.741699,0.32959,0
33620,0.525879,-0.717285,0.321777,0
33640,0.510254,-0.724121,0.294922,0
33660,0.507324,-0.72168,0.289062,0
33680,0.525391,-0.717773,0.29248,0
33700,0.521973,-0.705078,0.289551,0
33720,0.518066,-0.706055,0.279785,0
33740,0.532715,-0.72168,0.262695,0
33760,0.540039,-0.697266,0.274414,0
33780,0.546875,-0.695312,0.255859,0
33800,0.578613,-0.713379,0.241211,0
33820,0.606934,-0.719727,0.231445,0
33840,0.608398,-0.713867,0.23877,0
33860,0.595703,-0.707031,0.229492,0
33880,0.618652,-0.707031,0.206055,0
33900,0.624512,-0.704102,0.212891,0
33920,0.637695,-0.706055,0.198242,0
33940,0.647461,-0.70166,0.192871,0
33960,0.638184,-0.677734,0.181152,0
33980,0.653809,-0.66748,0.155762,0
34000,0.698242,-0.685059,0.147949,0
34020,0.693848,-0.687012,0.133301,0
34040,0.686523,-0.668457,0.121094,0
34060,0.707031,-0.666016,0.0966797,0
34080,0.719727,-0.644043,0.0898438,0
34100,0.72998,-0.654785,0.0761719,0
34120,0.729492,-0.637207,0.0605469,0
34140,0.735352,-0.621582,0.0380859,0
34160,0.767578,-0.625,0.0200195,0
34180,0.757324,-0.616211,0.0141602,0
34190,0.763672,-0.603516,0,0
34210,0.790527,-0.588379,-0.00830078,0
34230,0.787109,-0.595215,-0.0263672,0
34250,0.780762,-0.575195,-0.0375977,0
34280,0.804199,-0.544922,-0.0493164,0
34300,0.802734,-0.553711,-0.0595703,0
34320,0.798828,-0.546387,-0.0625,0
34340,0.802246,-0.534668,-0.0610352,0
34360,0.804199,-0.540527,-0.0795898,0
34380,0.816895,-0.533691,-0.081543,0
34400,0.828613,-0.505859,-0.0825195,0
34420,0.830078,-0.505371,-0.0800781,0
34440,0.838379,-0.502441,-0.101074,0
34460,0.838379,-0.495605,-0.0898438,0
34480,0.853027,-0.476562,-0.0844727,0
34500,0.854004,-0.473633,-0.0849609,0
34520,0.852051,-0.46582,-0.0952148,0
34540,0.859863,-0.463867,-0.0927734,0
34560,0.869141,-0.461914,-0.0908203,0
34580,0.85791,-0.451172,-0.0986328,0
34600,0.85791,-0.45166,-0.0961914,0
34620,0.882324,-0.436035,-0.100586,0
34640,0.887207,-0.430176,-0.097168,0
34660,0.879395,-0.414551,-0.0966797,0
34690,0.882324,-0.387695,-0.0717773,0
34720,0.879883,-0.382812,-0.0712891,0
34750,0.89209,-0.383789,-0.0444336,0
34770,0.864746,-0.372559,-0.0478516,0
34790,0.875,-0.355469,-0.0405273,0
34810,0.90625,-0.35498,-0.0249023,0
34830,0.916016,-0.348633,-0.012207,0
34850,0.893066,-0.356445,0.0112305,0
34870,0.894531,-0.363281,0.0307617,0
34890,0.909668,-0.352539,0.0507812,0
34910,0.929199,-0.375977,0.0566406,0
34930,0.888672,-0.341309,0.097168,0
34950,0.871094,-0.328613,0.112305,0
34970,0.879883,-0.367676,0.133301,0
34990,0.874512,-0.404297,0.152832,0
35010,0.867676,-0.392578,0.186523,0
35030,0.870117,-0.373535,0.201172,0
35050,0.840332,-0.356445,0.206055,0
35070,0.830078,-0.373047,0.212891,0
35090,0.854004,-0.37793,0.239258,0
35110,0.829102,-0.377441,0.269531,0
35130,0.805176,-0.381836,0.282715,0
35150,0.831543,-0.405273,0.287598,0
35170,0.844727,-0.39502,0.30127,0
35190,0.808105,-0.374023,0.327637,0
35210,0.804688,-0.372559,0.328125,0
35230,0.814941,-0.407715,0.333008,0
35250,0.811523,-0.419434,0.342285,0
35270,0.79248,-0.396484,0.347656,0
35290,0.785645,-0.38916,0.344727,0
35310,0.79541,-0.391602,0.353027,0
35330,0.782227,-0.387207,0.36377,0
35350,0.780273,-0.404785,0.353027,0
35370,0.771973,-0.410156,0.359375,0
35390,0.777832,-0.398926,0.358887,0
35410,0.780762,-0.391113,0.367676,0
35430,0.769043,-0.399902,0.369141,0
35450,0.735352,-0.404297,0.375488,0
35470,0.73877,-0.417969,0.379395,0
35490,0.744141,-0.433594,0.378906,0
35510,0.729004,-0.430664,0.39209,0
35520,0.712891,-0.434082,0.412598,0
35540,0.697754,-0.435059,0.408203,0
35560,0.707031,-0.449707,0.413574,0
35580,0.710938,-0.445801,0.431152,0
35600,0.683594,-0.452148,0.441895,0
35620,0.65918,-0.448242,0.445312,0
35640,0.668457,-0.456055,0.452637,0
35660,0.681641,-0.461914,0.460938,0
35680,0.664062,-0.462402,0.460449,0
35700,0.669922,-0.470703,0.462402,0
35720,0.666992,-0.474121,0.467773,0
35740,0.663574,-0.474609,0.457031,0
35760,0.664062,-0.48291,0.466797,0
35780,0.644531,-0.470703,0.478516,0
35800,0.634766,-0.461914,0.47168,0
35820,0.637207,-0.481445,0.467773,0
35840,0.658691,-0.499512,0.47168,0
35860,0.644531,-0.495605,0.487305,0
35880,0.622559,-0.477051,0.469238,0
35900,0.639648,-0.491211,0.473145,0
35920,0.658691,-0.495117,0.476074,0
35940,0.65332,-0.504883,0.46875,0
35960,0.645996,-0.490723,0.473633,0
35980,0.632812,-0.491211,0.474121,0
36000,0.632324,-0.501953,0.462402,0
36020,0.629883,-0.522949,0.465332,0
36040,0.633301,-0.517578,0.458984,0
36060,0.623047,-0.519531,0.466797,0
36080,0.607422,-0.524414,0.455078,0
36100,0.613281,-0.522949,0.453613,0
36120,0.611328,-0.523926,0.467773,0
36140,0.601074,-0.530273,0.450195,0
36160,0.612793,-0.54248,0.441895,0
36180,0.61084,-0.523438,0.452637,0
36200,0.597656,-0.515625,0.455078,0
36220,0.60498,-0.535156,0.446289,0
36240,0.617188,-0.552734,0.450195,0
36260,0.608887,-0.54541,0.444824,0
36280,0.614746,-0.558594,0.435547,0
36300,0.633301,-0.55957,0.44043,0
36320,0.627441,-0.560059,0.444824,0
36340,0.609375,-0.566406,0.431152,0
36360,0.625488,-0.580566,0.429688,0
36380,0.621582,-0.580566,0.447754,0
36400,0.594727,-0.57373,0.441895,0
36420,0.587891,-0.582031,0.44043,0
36440,0.588379,-0.59375,0.457031,0
36460,0.577637,-0.593262,0.449707,0
36480,0.566406,-0.585938,0.464355,0
36500,0.562988,-0.594238,0.45752,0
36520,0.563477,-0.602539,0.446777,0
36540,0.558594,-0.604004,0.453613,0
36560,0.550781,-0.601562,0.439941,0
36580,0.567383,-0.612305,0.425293,0
36600,0.589355,-0.625977,0.431152,0
36620,0.583008,-0.62207,0.428711,0
36640,0.575195,-0.618652,0.425781,0
36660,0.568359,-0.624512,0.419434,0
36680,0.583496,-0.63623,0.407715,0
36700,0.600098,-0.62793,0.419922,0
36720,0.568848,-0.605957,0.428223,0
36740,0.544434,-0.623047,0.407715,0
36760,0.579102,-0.649902,0.394531,0
36780,0.585449,-0.652344,0.393066,0
36800,0.552246,-0.638672,0.376465,0
36820,0.553223,-0.655273,0.360352,0
36840,0.573242,-0.671387,0.355957,0
36860,0.574219,-0.680176,0.356934,0
36880,0.549805,-0.67041,0.352051,0
36900,0.530762,-0.671387,0.333984,0
36920,0.54248,-0.674316,0.323242,0
36940,0.558594,-0.680176,0.314453,0
36960,0.553223,-0.669922,0.300293,0
36980,0.561523,-0.689941,0.278809,0
37000,0.583984,-0.700195,0.280762,0
37020,0.585449,-0.682617,0.275879,0
37040,0.588867,-0.686035,0.280762,0
37060,0.592773,-0.688477,0.247559,0
37080,0.586914,-0.6875,0.236816,0
37100,0.583008,-0.671875,0.233887,0
37120,0.615723,-0.702637,0.221191,0
37140,0.619141,-0.686035,0.210449,0
37160,0.622559,-0.688965,0.199707,0
37180,0.646973,-0.703613,0.179199,0
37200,0.683594,-0.694336,0.185059,0
37220,0.696777,-0.679688,0.166504,0
37240,0.669922,-0.667969,0.149902,0
37260,0.676758,-0.666016,0.120605,0
37280,0.683105,-0.664062,0.120605,0
37300,0.695801,-0.648438,0.105957,0
37320,0.699219,-0.647461,0.0825195,0
37340,0.705078,-0.641113,0.0810547,0
37360,0.70166,-0.625977,0.0869141,0
37380,0.709961,-0.619141,0.0688477,0
37400,0.739258,-0.614258,0.0488281,0
37420,0.765625,-0.607422,0.0410156,0
37440,0.760254,-0.589355,0.0268555,0
37460,0.759277,-0.584473,0.0151367,0
37480,0.784668,-0.580078,0.000488281,0
37500,0.797363,-0.58252,-0.00488281,0
37510,0.800293,-0.567871,-0.0102539,0
37530,0.804688,-0.561523,-0.0322266,0
37550,0.814453,-0.555664,-0.0390625,0
37570,0.827637,-0.556152,-0.0366211,0
37590,0.819824,-0.535645,-0.0498047,0
37610,0.822266,-0.52832,-0.0581055,0
37630,0.840332,-0.510742,-0.0585938,0
37640,0.838867,-0.506836,-0.0644531,0
37660,0.849609,-0.495117,-0.0737305,0
37670,0.848633,-0.494141,-0.0825195,0
37690,0.855469,-0.479004,-0.0737305,0
37710,0.852539,-0.471191,-0.0673828,0
37730,0.855957,-0.455078,-0.0546875,0
37750,0.848633,-0.445801,-0.0527344,0
37770,0.85498,-0.442871,-0.0551758,0
37790,0.875488,-0.430664,-0.0527344,0
37810,0.875488,-0.42334,-0.0415039,0
37830,0.889648,-0.412109,-0.0498047,0
37850,0.890625,-0.401855,-0.0454102,0
37870,0.89209,-0.384277,-0.0400391,0
37890,0.899414,-0.393066,-0.0449219,0
37910,0.890625,-0.377441,-0.0419922,0
37930,0.888672,-0.37207,-0.0366211,0
37950,0.902832,-0.366699,-0.0375977,0
37970,0.898926,-0.362305,-0.0385742,0
37990,0.905273,-0.333496,-0.0288086,0
38010,0.906738,-0.325195,-0.0136719,0
38030,0.930176,-0.320312,-0.0107422,0
38050,0.924805,-0.315918,0.0102539,0
38070,0.922363,-0.30957,0.0185547,0
38090,0.912109,-0.305664,0.0405273,0
38110,0.911621,-0.286133,0.0517578,0
38130,0.919922,-0.283691,0.0673828,0
38150,0.930176,-0.273438,0.0961914,0
38170,0.928223,-0.269043,0.107422,0
38190,0.925293,-0.279297,0.097168,0
38210,0.912109,-0.284668,0.0961914,0
38230,0.891113,-0.277344,0.115234,0
38250,0.914551,-0.283691,0.121094,0
38270,0.907715,-0.28418,0.147949,0
38290,0.884766,-0.273926,0.160645,0
38310,0.883789,-0.277832,0.163086,0
38330,0.907227,-0.283203,0.167969,0
38350,0.905762,-0.286621,0.18457,0
38370,0.881348,-0.273926,0.171875,0
38390,0.884277,-0.280762,0.187012,0
38410,0.903809,-0.282227,0.199219,0
38430,0.90918,-0.287598,0.207031,0
38450,0.872559,-0.28125,0.20459,0
38470,0.853516,-0.289551,0.205078,0
38490,0.874512,-0.287598,0.237305,0
38510,0.874512,-0.287598,0.251465,0
38530,0.862793,-0.288574,0.243652,0
38550,0.863281,-0.293457,0.24707,0
38570,0.862305,-0.283691,0.260742,0
38590,0.852539,-0.277344,0.274414,0
38610,0.849121,-0.295898,0.280762,0
38630,0.863281,-0.303711,0.276855,0
38650,0.86377,-0.286133,0.295898,0
38670,0.86377,-0.291504,0.285156,0
38690,0.856445,-0.302734,0.277832,0
38710,0.857422,-0.297852,0.30957,0
38730,0.859375,-0.300293,0.320312,0
38750,0.850586,-0.300293,0.315918,0
38770,0.844727,-0.326172,0.319336,0
38790,0.828125,-0.311035,0.337891,0
38810,0.823242,-0.307129,0.347168,0
38830,0.837891,-0.319336,0.360352,0
38850,0.830566,-0.333008,0.381348,0
38870,0.798828,-0.325195,0.382324,0
38890,0.785156,-0.336914,0.381348,0
38910,0.780762,-0.345215,0.392578,0
38930,0.777832,-0.340332,0.40332,0
38950,0.760742,-0.343262,0.406738,0
38970,0.760742,-0.367188,0.416016,0
38990,0.752441,-0.371094,0.414062,0
39010,0.722168,-0.370605,0.424316,0
39030,0.713867,-0.38623,0.410645,0
39050,0.751953,-0.40332,0.422363,0
39070,0.77002,-0.40918,0.430664,0
39090,0.746094,-0.40918,0.418945,0
39110,0.742676,-0.421387,0.406738,0
39130,0.760254,-0.428711,0.408203,0
39150,0.750488,-0.428711,0.411621,0
39170,0.740723,-0.444824,0.391113,0
39190,0.73877,-0.45459,0.394531,0
39210,0.725098,-0.435547,0.403809,0
39230,0.706543,-0.431641,0.411621,0
39250,0.708984,-0.443848,0.401855,0
39270,0.710449,-0.460938,0.398926,0
39290,0.688965,-0.45166,0.430664,0
39310,0.667969,-0.459961,0.419922,0
39330,0.6875,-0.466797,0.400879,0
39350,0.70166,-0.479004,0.413574,0
39370,0.679688,-0.478516,0.401855,0
39390,0.672852,-0.477539,0.388672,0
39410,0.675781,-0.497559,0.398926,0
39430,0.695801,-0.518555,0.405273,0
39450,0.666016,-0.503906,0.419922,0
39470,0.638672,-0.504883,0.39209,0
39490,0.650391,-0.523926,0.38623,0
39510,0.661621,-0.51709,0.398926,0
39530,0.647461,-0.529297,0.398926,0
39550,0.632812,-0.53125,0.383301,0
39570,0.638184,-0.544922,0.387207,0
39590,0.651367,-0.554199,0.377441,0
39610,0.642578,-0.555664,0.379883,0
39630,0.64502,-0.557617,0.372559,0
39650,0.637695,-0.579102,0.369141,0
39670,0.649414,-0.59082,0.362305,0
39690,0.63916,-0.597656,0.375977,0
39710,0.616699,-0.600098,0.364746,0
39730,0.611328,-0.616211,0.353027,0
39750,0.632812,-0.62207,0.363281,0
39770,0.609863,-0.619141,0.361328,0
39790,0.595215,-0.620605,0.336914,0
39810,0.635254,-0.638672,0.325684,0
39830,0.664062,-0.651855,0.328125,0
39850,0.637695,-0.655762,0.323242,0
39870,0.632812,-0.655762,0.300781,0
39890,0.640625,-0.640625,0.298828,0
39910,0.635254,-0.638672,0.29541,0
39930,0.631836,-0.640625,0.271973,0
39940,0.63916,-0.655762,0.265137,0
39950,0.641602,-0.662109,0.256836,0
39960,0.627441,-0.640137,0.222168,0
39980,0.633789,-0.660156,0.193359,0
40000,0.652344,-0.65625,0.20459,0
40020,0.659668,-0.65625,0.193848,0
40040,0.657715,-0.644531,0.172363,0
40050,0.681152,-0.654785,0.162598,0
40090,0.723145,-0.651367,0.148926,0
40110,0.722656,-0.62207,0.131348,0
40130,0.719238,-0.612793,0.114258,0
40150,0.746582,-0.611816,0.110352,0
40170,0.750488,-0.605957,0.081543,0
40190,0.736816,-0.601074,0.0673828,0
40210,0.75,-0.591797,0.0458984,0
40230,0.746582,-0.55957,0.0429688,0
40250,0.750488,-0.555176,0.0131836,0
40270,0.749023,-0.54541,0.0102539,0
40290,0.741211,-0.543457,-0.0078125,0
40310,0.779785,-0.556152,-0.0244141,0
40330,0.784668,-0.546875,-0.0166016,0
40350,0.780273,-0.520996,-0.0380859,0
40370,0.812988,-0.533203,-0.0551758,0
40390,0.835938,-0.506348,-0.0688477,0
40410,0.859863,-0.494629,-0.0600586,0
40430,0.879883,-0.483887,-0.0874023,0
40450,0.897461,-0.48584,-0.0869141,0
40470,0.892578,-0.447266,-0.106445,0
40490,0.894043,-0.439941,-0.137207,0
40510,0.895508,-0.446777,-0.15332,0
40530,0.869141,-0.432617,-0.137207,0
40550,0.856445,-0.40625,-0.14502,0
40570,0.872559,-0.39209,-0.161621,0
40590,0.86377,-0.380371,-0.174316,1001
40610,0.863281,-0.368652,-0.186035,0
40630,0.886719,-0.37207,-0.189941,0
40650,0.890137,-0.358398,-0.195801,0
40670,0.900391,-0.350098,-0.199707,0
40690,0.911133,-0.348633,-0.203613,0
40710,0.910645,-0.35791,-0.195801,0
40730,0.898438,-0.351562,-0.189453,0
40750,0.909668,-0.353516,-0.181641,0
40770,0.913086,-0.347656,-0.182617,0
40790,0.916504,-0.345215,-0.175293,0
40810,0.922852,-0.349121,-0.16748,0
40820,0.916992,-0.374512,-0.173828,0
40840,0.882324,-0.355957,-0.144043,0
40860,0.87793,-0.377441,-0.142578,0
40880,0.879395,-0.385254,-0.118652,0
40900,0.85498,-0.395508,-0.0976562,0
40920,0.82373,-0.394043,-0.0917969,0
40940,0.782715,-0.400391,-0.0727539,0
40960,0.726074,-0.402344,-0.0722656,0
40980,0.623535,-0.406738,-0.0488281,0
41000,0.54834,-0.40625,-0.0253906,0
41020,0.542969,-0.403809,0.000976562,0
41040,0.578613,-0.404297,0.015625,0
41060,0.591797,-0.405762,-0.0185547,0
41080,0.625,-0.419922,-0.0107422,0
41100,0.670898,-0.413086,0.0595703,0
41120,0.729004,-0.369141,0.105957,0
41140,0.787598,-0.370605,0.10791,0
41160,0.817871,-0.418457,0.140137,0
41180,0.855957,-0.41748,0.177246,0
41200,0.896484,-0.423828,0.197266,0
41220,0.916992,-0.467285,0.214844,0
41240,0.919434,-0.517578,0.237793,0
41260,0.939453,-0.533691,0.262207,0
41280,0.975586,-0.595703,0.286621,0
41300,0.976074,-0.65332,0.322754,0
41320,0.918457,-0.669922,0.347656,0
41340,0.862305,-0.689453,0.396973,0
41360,0.799316,-0.740723,0.435547,0
41380,0.722168,-0.76416,0.455078,0
41400,0.673828,-0.797852,0.446777,0
41420,0.589844,-0.831055,0.478027,0
41440,0.492188,-0.795898,0.5,0
41460,0.463379,-0.766602,0.499512,0
41480,0.447754,-0.762207,0.475586,0
41500,0.419434,-0.802246,0.443359,0
41520,0.403809,-0.794434,0.486816,0
41540,0.30957,-0.764648,0.516113,0
41560,0.270996,-0.74707,0.5,0
41580,0.28125,-0.769043,0.494141,0
41600,0.272949,-0.747559,0.518555,0
41620,0.252441,-0.726562,0.508301,0
41640,0.283691,-0.726074,0.492188,0
41660,0.297363,-0.71875,0.519043,0
41680,0.311035,-0.705566,0.517578,0
41700,0.317871,-0.699707,0.51416,0
41720,0.331543,-0.720215,0.514648,0
41740,0.342773,-0.741699,0.504883,0
41760,0.338379,-0.766113,0.50293,0
41780,0.34375,-0.785156,0.497559,0
41800,0.348145,-0.777344,0.48877,1000
41820,0.350098,-0.754395,0.491699,0
41840,0.34082,-0.736816,0.495117,0
41860,0.328613,-0.732422,0.493164,0
41880,0.348633,-0.731445,0.491211,0
41900,0.364258,-0.727051,0.501953,0
41920,0.376465,-0.731934,0.480469,0
41940,0.38916,-0.722656,0.474609,0
41960,0.383789,-0.706055,0.472656,0
41980,0.408691,-0.712891,0.458008,0
42000,0.435059,-0.734375,0.437988,0
42020,0.454102,-0.727051,0.429688,0
42040,0.464844,-0.705566,0.431152,0
42060,0.494141,-0.706055,0.408691,0
42080,0.508789,-0.720703,0.387695,0
42100,0.488281,-0.72168,0.381836,0
42120,0.485352,-0.723145,0.378418,0
42140,0.476562,-0.705566,0.382324,0
42160,0.47998,-0.70459,0.379395,0
42180,0.466309,-0.703613,0.370605,0
42200,0.453613,-0.716797,0.36084,0
42220,0.474609,-0.714355,0.348145,0
42240,0.487793,-0.724609,0.348633,0
42260,0.480957,-0.70752,0.342285,0
42280,0.506836,-0.697266,0.338379,0
42300,0.536621,-0.714844,0.333008,0
42320,0.540039,-0.696289,0.324219,0
42340,0.547363,-0.689453,0.308594,0
42360,0.569336,-0.696777,0.299316,0
42380,0.592773,-0.697266,0.285645,0
42400,0.597656,-0.67627,0.274902,0
42420,0.629883,-0.684082,0.269531,0
42440,0.624023,-0.683105,0.262207,0
42460,0.630371,-0.6875,0.242676,0
42480,0.650879,-0.685059,0.237793,0
42500,0.641113,-0.694824,0.228516,0
42520,0.635254,-0.677246,0.213379,0
42540,0.657227,-0.672852,0.208984,0
42560,0.664551,-0.670898,0.211914,0
42580,0.671387,-0.666016,0.208496,0
42600,0.655762,-0.654785,0.199219,0
42620,0.666016,-0.646484,0.200195,0
42640,0.679688,-0.637695,0.194336,0
42660,0.712402,-0.628906,0.189453,0
42680,0.693359,-0.621582,0.206543,0
42700,0.701172,-0.62207,0.197266,0
42720,0.702148,-0.620605,0.19873,0
42740,0.726074,-0.595703,0.197754,0
42760,0.745605,-0.587402,0.17334,0
42770,0.773438,-0.591309,0.16748,0
42790,0.781738,-0.577148,0.160156,0
42810,0.782227,-0.57666,0.164062,0
42830,0.774414,-0.5625,0.18457,0
42850,0.748535,-0.563477,0.183594,0
42870,0.745117,-0.560547,0.186035,0
42890,0.75,-0.555664,0.20166,0
42910,0.756836,-0.547363,0.20459,0
42930,0.75293,-0.543457,0.211914,0
42950,0.775391,-0.526367,0.219727,0
42970,0.775391,-0.520996,0.226562,0
42990,0.766113,-0.525391,0.213867,0
43010,0.756348,-0.522949,0.225586,0
43030,0.771973,-0.520996,0.231445,0
43050,0.780762,-0.509277,0.248047,0
43070,0.781738,-0.499512,0.246094,0
43090,0.784668,-0.501465,0.23877,0
43110,0.790039,-0.494629,0.249023,0
43130,0.793945,-0.484863,0.249512,0
43150,0.785645,-0.48584,0.254395,0
43170,0.782227,-0.495117,0.270996,0
43190,0.783691,-0.480469,0.277344,0
43210,0.785645,-0.462402,0.295898,0
43230,0.781738,-0.46875,0.29834,0
43250,0.778809,-0.472656,0.29834,0
43270,0.782227,-0.481934,0.300293,0
43290,0.759766,-0.466797,0.323242,0
43310,0.734863,-0.45459,0.344238,0
43330,0.750977,-0.457031,0.356934,0
43350,0.759766,-0.48291,0.357422,0
43370,0.729004,-0.474609,0.385254,0
43390,0.706543,-0.471191,0.398926,0
43410,0.718262,-0.475586,0.398926,0
43430,0.714355,-0.473145,0.406738,0
43450,0.705078,-0.477051,0.412598,0
43470,0.711426,-0.486816,0.415039,0
43490,0.697754,-0.478516,0.45166,0
43510,0.674805,-0.478516,0.444824,0
43530,0.67334,-0.495117,0.441895,0
43550,0.682617,-0.495605,0.458496,0
43570,0.650391,-0.485352,0.460449,0
43590,0.644043,-0.480469,0.458496,0
43610,0.655273,-0.495605,0.465332,0
43630,0.64209,-0.500488,0.476074,0
43650,0.634277,-0.493652,0.480469,0
43670,0.63623,-0.483398,0.48877,0
43690,0.618652,-0.489746,0.498047,0
43710,0.601562,-0.488281,0.501953,0
43730,0.609375,-0.506348,0.492188,0
43750,0.60791,-0.513184,0.499512,0
43770,0.595703,-0.503906,0.512207,0
43790,0.573242,-0.493164,0.518555,0
43810,0.557617,-0.502441,0.513184,0
43830,0.570312,-0.51123,0.524902,0
43850,0.557617,-0.521484,0.535156,0
43870,0.539551,-0.509277,0.530273,0
43890,0.539551,-0.5,0.538574,0
43910,0.532227,-0.508789,0.531738,0
43930,0.53125,-0.527832,0.533691,0
43950,0.525879,-0.524414,0.533203,0
43970,0.531738,-0.516602,0.531738,0
43990,0.54248,-0.521484,0.541016,0
44010,0.54248,-0.530762,0.527344,0
44030,0.540527,-0.544922,0.537109,0
44050,0.548828,-0.542969,0.538574,0
44070,0.553223,-0.538574,0.524414,0
44090,0.547852,-0.54248,0.508301,0
44110,0.556641,-0.554688,0.522949,0
44130,0.561035,-0.546387,0.527832,0
44150,0.557129,-0.550781,0.527832,0
44170,0.540039,-0.547363,0.523926,0
44190,0.535645,-0.541992,0.527832,0
44210,0.539551,-0.540039,0.534668,0
44230,0.540527,-0.54541,0.536621,0
44250,0.531738,-0.541992,0.527344,0
44270,0.534668,-0.550293,0.544434,0
44290,0.546875,-0.560059,0.539062,0
44310,0.533203,-0.558594,0.532715,0
44330,0.510254,-0.559082,0.522949,0
44350,0.51416,-0.560059,0.536133,0
44370,0.519043,-0.561523,0.53125,0
44390,0.502441,-0.558105,0.54834,0
44410,0.486816,-0.565918,0.540527,0
44430,0.481934,-0.567383,0.541992,0
44450,0.476074,-0.570801,0.549805,0
44470,0.470215,-0.566406,0.562988,0
44490,0.46582,-0.567383,0.566406,0
44510,0.47168,-0.579102,0.552734,0
44530,0.46582,-0.582031,0.564941,0
44550,0.453613,-0.57666,0.557129,0
44570,0.458008,-0.595703,0.554199,0
44590,0.474609,-0.606445,0.558105,0
44610,0.466797,-0.594727,0.569336,0
44630,0.443359,-0.591309,0.544922,0
44650,0.463379,-0.613281,0.541992,0
44670,0.464355,-0.614746,0.561035,0
44690,0.442871,-0.618652,0.554688,0
44710,0.441895,-0.631348,0.53418,0
44730,0.466797,-0.625977,0.540527,0
44750,0.463867,-0.620117,0.537598,0
44770,0.459961,-0.616211,0.535645,0
44790,0.462891,-0.629883,0.535645,0
44810,0.472168,-0.639648,0.529297,0
44830,0.465332,-0.630371,0.541016,0
44850,0.454102,-0.625488,0.520996,0
44870,0.469238,-0.641602,0.522949,0
44890,0.460449,-0.62793,0.536133,0
44910,0.436523,-0.625977,0.533203,0
44930,0.44043,-0.63623,0.506836,0
44950,0.449707,-0.65332,0.51123,0
44970,0.426758,-0.630859,0.524902,0
44990,0.416016,-0.637207,0.508789,0
45010,0.444336,-0.655273,0.505371,0
45030,0.445801,-0.665039,0.512695,0
45050,0.415527,-0.654297,0.505371,0
45070,0.413574,-0.665527,0.487793,0
45090,0.431641,-0.670898,0.494141,0
45110,0.433594,-0.68457,0.493652,0
45130,0.429199,-0.686035,0.469727,0
45150,0.438477,-0.686035,0.462891,0
45170,0.439453,-0.68457,0.460449,0
45190,0.464355,-0.697266,0.450684,0
45200,0.470703,-0.703125,0.442871,0
45220,0.461426,-0.694824,0.432617,0
45240,0.466797,-0.698242,0.425293,0
45260,0.495605,-0.705078,0.417969,0
45270,0.505371,-0.693359,0.399902,0
45280,0.496582,-0.681152,0.378418,0
45290,0.500977,-0.700684,0.378418,0
45310,0.525391,-0.706055,0.37207,0
45330,0.527344,-0.700684,0.35791,0
45350,0.537598,-0.691895,0.34668,0
45370,0.543457,-0.696289,0.334473,0
45400,0.555176,-0.690918,0.3125,0
45420,0.548828,-0.673828,0.312012,0
45440,0.553223,-0.67627,0.299805,0
45460,0.576172,-0.681641,0.288086,0
45480,0.591309,-0.672363,0.289062,0
45500,0.57959,-0.657715,0.277344,0
45520,0.601562,-0.664551,0.253418,0
45540,0.633301,-0.677246,0.246094,0
45560,0.662598,-0.670898,0.228516,0
45580,0.681152,-0.67041,0.218262,0
45600,0.690918,-0.652832,0.195801,0
45620,0.700684,-0.657227,0.187012,0
45640,0.712402,-0.66748,0.168945,0
45660,0.70752,-0.655762,0.147949,0
45680,0.726074,-0.625,0.135742,0
45700,0.732422,-0.630859,0.11084,0
45720,0.717285,-0.614258,0.0776367,0
45740,0.730957,-0.621094,0.0605469,0
45780,0.854004,-0.516602,-0.0551758,0
45800,0.844238,-0.501953,-0.0556641,0
45820,0.848145,-0.507324,-0.0639648,0
45840,0.867188,-0.500488,-0.0678711,0
45860,0.865723,-0.495117,-0.0683594,0
45880,0.870117,-0.484375,-0.0722656,0
45900,0.878906,-0.468262,-0.0664062,0
45920,0.876953,-0.455566,-0.0644531,0
45940,0.872559,-0.441406,-0.0498047,0
45950,0.872559,-0.420898,-0.0541992,0
45970,0.879395,-0.414062,-0.0449219,0
45990,0.90332,-0.393066,-0.0375977,0
46010,0.915527,-0.389648,-0.0317383,0
46030,0.895996,-0.364258,-0.0258789,0
46050,0.905273,-0.371582,-0.0185547,0
46070,0.909668,-0.358887,-0.00341797,0
46090,0.908691,-0.344238,-0.000488281,0
46110,0.916992,-0.320312,0.0112305,0
46130,0.936523,-0.309082,0.0180664,0
46150,0.924316,-0.306152,0.0405273,0
46170,0.911133,-0.307129,0.0532227,0
46190,0.907227,-0.305176,0.0629883,0
46210,0.926758,-0.295898,0.0766602,0
46230,0.906738,-0.280762,0.105469,0
46250,0.900391,-0.277344,0.110352,0
46270,0.885742,-0.296387,0.116699,0
46290,0.907715,-0.300781,0.132324,0
46310,0.911133,-0.306152,0.149414,0
46330,0.866211,-0.272949,0.186035,0
46350,0.838379,-0.273438,0.177246,0
46370,0.865234,-0.302246,0.176758,0
46390,0.855957,-0.323242,0.205078,0
46410,0.843262,-0.314941,0.225586,0
46430,0.806641,-0.317383,0.235352,0
46450,0.80957,-0.331543,0.229492,0
46470,0.814941,-0.352051,0.249512,0
46490,0.805664,-0.34082,0.275879,0
46510,0.797852,-0.348145,0.273438,0
46530,0.821289,-0.374023,0.280273,0
46550,0.821289,-0.386719,0.295898,0
46570,0.818848,-0.368652,0.297363,0
46590,0.828125,-0.378418,0.29834,0
46610,0.836914,-0.388672,0.308594,0
46630,0.818359,-0.389648,0.316895,0
46650,0.817871,-0.388184,0.319336,0
46670,0.824219,-0.396973,0.32666,0
46690,0.817871,-0.396484,0.333008,0
46710,0.804688,-0.385742,0.334473,0
46730,0.803711,-0.390137,0.333008,0
46750,0.816406,-0.390625,0.343262,0
46770,0.79834,-0.383301,0.351562,0
46790,0.781738,-0.371582,0.34668,0
46810,0.77832,-0.387695,0.347656,0
46830,0.790039,-0.401855,0.358398,0
46850,0.779297,-0.393066,0.369141,0
46870,0.76416,-0.379395,0.358887,0
46890,0.769043,-0.395996,0.345703,0
46910,0.783691,-0.405273,0.357422,0
46930,0.794434,-0.40918,0.371094,0
46950,0.767578,-0.407227,0.362793,0
46970,0.749023,-0.402344,0.375488,0
46990,0.745117,-0.41748,0.380859,0
47010,0.750977,-0.42334,0.382324,0
47030,0.76123,-0.424316,0.380859,0
47050,0.756836,-0.430176,0.394531,0
47070,0.738281,-0.411133,0.404297,0
47090,0.727539,-0.400391,0.40918,0
47110,0.728027,-0.436035,0.400391,0
47130,0.746582,-0.451172,0.400879,0
47150,0.73877,-0.44043,0.410156,0
47170,0.705566,-0.427246,0.41748,0
47190,0.710449,-0.449707,0.404297,0
47210,0.729492,-0.454102,0.422852,0
47230,0.708984,-0.451172,0.434082,0
47250,0.697266,-0.450195,0.419922,0
47270,0.70459,-0.454102,0.438965,0
47290,0.703125,-0.438965,0.461426,0
47310,0.688965,-0.456543,0.444336,0
47330,0.69043,-0.467773,0.438965,0
47350,0.69043,-0.476074,0.44043,0
47370,0.694824,-0.463379,0.444336,0
47390,0.694824,-0.474121,0.437988,0
47410,0.688477,-0.46875,0.438965,0
47430,0.67334,-0.468262,0.453125,0
47450,0.67334,-0.475586,0.433594,0
47470,0.684082,-0.487793,0.430664,0
47490,0.662598,-0.489258,0.445312,0
47510,0.657227,-0.483398,0.433594,0
47530,0.670898,-0.484863,0.437012,0
47550,0.708984,-0.479492,0.461426,0
47570,0.69873,-0.483887,0.455078,0
47590,0.650391,-0.496094,0.414062,0
47610,0.634277,-0.510742,0.410156,0
47630,0.639648,-0.51709,0.428711,0
47650,0.625977,-0.512695,0.455566,0
47670,0.605469,-0.516602,0.439941,0
47690,0.608398,-0.515625,0.441406,0
47710,0.601562,-0.508301,0.444824,0
47730,0.599609,-0.515625,0.44043,0
47750,0.589844,-0.522461,0.453125,0
47770,0.59375,-0.529297,0.458496,0
47790,0.61084,-0.538086,0.459473,0
47810,0.614258,-0.54541,0.462891,0
47830,0.598145,-0.555176,0.445312,0
47850,0.604004,-0.567383,0.442383,0
47870,0.614258,-0.566406,0.462891,0
47890,0.604004,-0.562988,0.460449,0
47910,0.593262,-0.572266,0.447266,0
47930,0.602539,-0.584961,0.452637,0
47940,0.591797,-0.595215,0.446777,0
47960,0.588379,-0.592773,0.442383,0
47980,0.591797,-0.60498,0.432129,0
48000,0.603027,-0.602051,0.434082,0
48020,0.605469,-0.612305,0.435059,0
48040,0.606934,-0.612793,0.421387,0
48060,0.605469,-0.624023,0.414062,0
48080,0.586426,-0.624023,0.40332,0
48100,0.576172,-0.632812,0.385254,0
48120,0.594727,-0.63623,0.387695,0
48140,0.584473,-0.638184,0.383789,0
48160,0.552734,-0.631836,0.362305,0
48180,0.561523,-0.64209,0.356445,0
48200,0.565918,-0.645508,0.368652,0
48220,0.54834,-0.641113,0.352051,0
48240,0.561035,-0.651367,0.337891,0
48260,0.585938,-0.661621,0.347168,0
48280,0.581055,-0.65918,0.34375,0
48300,0.569824,-0.655273,0.322266,0
48320,0.588867,-0.664062,0.322266,0
48340,0.61084,-0.657715,0.320801,0
48360,0.618164,-0.666504,0.313965,0
48380,0.609863,-0.656738,0.290527,0
48400,0.606934,-0.661621,0.289062,0
48420,0.615234,-0.650391,0.300293,0
48440,0.621582,-0.655273,0.285156,0
48460,0.625977,-0.662109,0.262695,0
48480,0.643555,-0.665527,0.259277,0
48500,0.654785,-0.658203,0.264648,0
48520,0.666504,-0.651855,0.25293,0
48540,0.680664,-0.645996,0.239746,0
48560,0.681641,-0.650879,0.222168,0
48580,0.672852,-0.650879,0.216309,0
48600,0.6875,-0.651855,0.208008,0
48620,0.70459,-0.639648,0.188477,0
48640,0.693359,-0.624512,0.186035,0
48660,0.694824,-0.625,0.165039,0
48680,0.713867,-0.618652,0.155762,0
48700,0.73291,-0.624023,0.147461,0
48720,0.734375,-0.609375,0.131836,0
48740,0.726562,-0.609375,0.114258,0
48760,0.742676,-0.595703,0.112305,0
48780,0.733398,-0.585449,0.106445,0
48800,0.727539,-0.593262,0.0820312,0
48820,0.746582,-0.607422,0.0585938,0
48840,0.749512,-0.593262,0.0668945,0
48860,0.76416,-0.578613,0.0571289,0
48880,0.774414,-0.571289,0.0400391,0
48900,0.785156,-0.57959,0.0180664,0
48920,0.787109,-0.562988,0.00585938,0
48940,0.803711,-0.564941,0.00146484,0
48960,0.822266,-0.543945,-0.0151367,0
48980,0.827148,-0.537598,-0.019043,0
49000,0.816895,-0.521484,-0.0375977,0
49020,0.804199,-0.521484,-0.0439453,0
49040,0.818359,-0.50293,-0.0444336,0
49060,0.83252,-0.48877,-0.0415039,0
49080,0.823242,-0.487793,-0.0429688,0
49100,0.815918,-0.481445,-0.0454102,0
49120,0.824219,-0.487793,-0.0566406,0
49140,0.817383,-0.462402,-0.0429688,0
49160,0.834473,-0.469727,-0.0561523,0
49180,0.838379,-0.46582,-0.0498047,0
49200,0.849121,-0.461426,-0.0532227,0
49220,0.861328,-0.456055,-0.0449219,0
49240,0.854492,-0.446289,-0.0385742,0
49260,0.868652,-0.442871,-0.0366211,0
49280,0.885742,-0.440918,-0.0244141,0
49300,0.888672,-0.431152,-0.0283203,0
49320,0.88916,-0.423828,-0.0151367,0
49340,0.894043,-0.40625,-0.00878906,0
49360,0.908203,-0.404297,-0.0175781,0
49380,0.905273,-0.382812,-0.0195312,0
49400,0.90625,-0.376953,-0.0107422,0
49420,0.913574,-0.370605,-0.00634766,0
49440,0.904297,-0.358887,-0.0151367,0
49460,0.901367,-0.34082,-0.00927734,0
49480,0.90918,-0.32959,-0.00439453,0
49500,0.924805,-0.325195,-0.0126953,0
49520,0.920898,-0.313477,-0.00830078,0
49540,0.911133,-0.305664,-0.0078125,0
49560,0.911133,-0.300293,-0.0107422,0
49580,0.920898,-0.291016,-0.0166016,0
49600,0.918945,-0.274902,-0.00878906,0
49620,0.919434,-0.276367,-0.00488281,0
49640,0.92627,-0.265625,0.00585938,0
49660,0.92334,-0.259277,0.0107422,0
49680,0.923828,-0.243164,0.00634766,0
49700,0.927246,-0.246094,0.0146484,0
49720,0.930664,-0.255371,0.0234375,0
49740,0.931152,-0.262695,0.0307617,0
49760,0.935547,-0.258789,0.0380859,0
49780,0.919922,-0.251465,0.0629883,0
49800,0.915527,-0.237793,0.0708008,0
49820,0.919922,-0.233887,0.0727539,0
49840,0.941895,-0.242188,0.0869141,0
49860,0.944824,-0.244629,0.108398,0
49880,0.930176,-0.246582,0.112305,0
49900,0.930664,-0.253418,0.129395,0
49920,0.938477,-0.256348,0.136719,0
49940,0.937012,-0.266113,0.129883,0
49960,0.922852,-0.283691,0.134766,0
49980,0.901367,-0.271484,0.159668,0
50000,0.885742,-0.288574,0.158691,0
50020,0.891602,-0.304688,0.171387,0
50040,0.896973,-0.327637,0.178223,0
50060,0.885742,-0.318848,0.193848,0
50080,0.867188,-0.310547,0.205078,0
50100,0.873535,-0.320312,0.211426,0
50120,0.878906,-0.339355,0.231934,0
50140,0.847656,-0.330078,0.231445,0
50160,0.837891,-0.334473,0.235352,0
50180,0.845703,-0.325195,0.262695,0
50200,0.851074,-0.333008,0.262207,0
50220,0.841309,-0.34668,0.269531,0
50240,0.841797,-0.35498,0.29541,0
50260,0.82959,-0.350586,0.304688,0
50280,0.80957,-0.349121,0.294434,0
50300,0.816895,-0.362305,0.295898,0
50320,0.831055,-0.368652,0.310547,0
50340,0.822754,-0.370117,0.328613,0
50360,0.819824,-0.366211,0.337891,0
50380,0.808105,-0.375977,0.333984,0
50400,0.80957,-0.374512,0.354492,0
50420,0.799316,-0.37207,0.373047,0
50440,0.774902,-0.358398,0.375977,0
50460,0.736328,-0.375488,0.361328,0
50480,0.767578,-0.388184,0.333496,0
50500,0.818359,-0.401855,0.351562,0
50520,0.791504,-0.380371,0.38623,0
50540,0.757812,-0.395508,0.361328,0
50560,0.765137,-0.393555,0.380859,0
50580,0.746094,-0.397461,0.373535,0
50600,0.758301,-0.410156,0.350586,0
50620,0.779785,-0.417969,0.36084,0
50640,0.786133,-0.417969,0.353027,0
50660,0.777344,-0.418457,0.353516,0
50680,0.756348,-0.410645,0.37207,0
50700,0.734863,-0.409668,0.35791,0
50720,0.750488,-0.414551,0.368164,0
50740,0.760254,-0.424805,0.364258,0
50760,0.743164,-0.428711,0.373047,0
50780,0.725586,-0.432129,0.381348,0
50800,0.70459,-0.433594,0.370605,0
50820,0.728516,-0.44873,0.373047,0
50840,0.720703,-0.458984,0.38623,0
50860,0.711426,-0.465332,0.371582,0
50880,0.728027,-0.474609,0.374023,0
50900,0.708984,-0.471191,0.376465,0
50920,0.686523,-0.489258,0.355469,0
50940,0.709961,-0.499512,0.361328,0
50960,0.721191,-0.501953,0.365234,0
50980,0.699219,-0.510254,0.352539,0
51000,0.693359,-0.518555,0.339844,0
51020,0.727539,-0.51709,0.353027,0
51040,0.71582,-0.512695,0.36377,0
51060,0.703125,-0.522949,0.334473,0
51080,0.700195,-0.530273,0.345215,0
51100,0.694336,-0.530762,0.344727,0
51120,0.706055,-0.534668,0.347168,0
51140,0.693359,-0.539062,0.329102,0
51160,0.68457,-0.537109,0.317383,0
51180,0.698242,-0.553711,0.321777,0
51200,0.70459,-0.561523,0.325195,0
51220,0.666992,-0.546875,0.316406,0
51240,0.657227,-0.533203,0.305176,0
51260,0.708008,-0.561523,0.312988,0
51280,0.679199,-0.568848,0.317871,0
51300,0.655762,-0.582031,0.29834,0
51320,0.677734,-0.589844,0.29541,0
51340,0.683105,-0.597168,0.312012,0
51350,0.661621,-0.600586,0.300293,0
51370,0.664551,-0.612305,0.294922,0
51390,0.670898,-0.611816,0.304688,0
51410,0.65625,-0.61377,0.298828,0
51430,0.65918,-0.627441,0.280273,0
51460,0.660156,-0.638672,0.260254,0
51530,0.684082,-0.640137,0.215332,0
51550,0.685547,-0.649902,0.197266,0
51570,0.689941,-0.647949,0.192383,0
51590,0.693848,-0.64502,0.184082,0
51610,0.697754,-0.641602,0.169434,0
51630,0.704102,-0.650391,0.160645,0
51650,0.704102,-0.639648,0.158203,0
51670,0.705078,-0.640137,0.146484,0
51690,0.72168,-0.638184,0.129883,0
51710,0.729492,-0.632812,0.116699,0
51730,0.739258,-0.620117,0.0981445,0
51750,0.754395,-0.615723,0.0844727,0
51770,0.754883,-0.596191,0.0810547,0
51790,0.765137,-0.599121,0.0527344,0
51810,0.763672,-0.599121,0.0380859,0
51830,0.746582,-0.588379,0.0288086,0
51850,0.748535,-0.586914,0.00292969,0
51870,0.762207,-0.586426,-0.0146484,0
51890,0.762207,-0.572754,-0.0126953,0
51910,0.75293,-0.556641,-0.0141602,0
51930,0.758789,-0.545898,-0.0395508,0
51950,0.783691,-0.543945,-0.0561523,0
51970,0.791992,-0.533203,-0.0488281,0
51990,0.799805,-0.522949,-0.0512695,0
52010,0.802246,-0.502441,-0.065918,0
52030,0.833008,-0.505859,-0.0869141,0
52050,0.851562,-0.506836,-0.0859375,0
52070,0.84375,-0.481934,-0.0947266,0
52090,0.846191,-0.475586,-0.116699,0
52110,0.867188,-0.475586,-0.119629,0
52130,0.84668,-0.460938,-0.124023,0
52150,0.833496,-0.444824,-0.133301,0
52170,0.854004,-0.438477,-0.146484,0
52190,0.856934,-0.430664,-0.141602,0
52210,0.874512,-0.404785,-0.147461,0
52230,0.876465,-0.383789,-0.153809,0
52250,0.901367,-0.38623,-0.168945,1001
52270,0.908691,-0.381348,-0.155273,0
52290,0.911133,-0.357422,-0.153809,0
52310,0.904785,-0.347656,-0.15625,0
52330,0.918945,-0.354004,-0.181641,0
52350,0.927246,-0.378418,-0.194336,0
52370,0.898926,-0.371094,-0.175293,0
52390,0.878906,-0.365234,-0.174805,0
52410,0.893555,-0.366211,-0.187988,0
52430,0.908691,-0.380371,-0.193848,0
52450,0.890625,-0.365723,-0.179199,0
52470,0.869629,-0.367188,-0.179688,0
52490,0.859863,-0.376465,-0.159668,0
52510,0.825684,-0.37793,-0.134766,0
52530,0.780273,-0.376953,-0.139648,0
52550,0.690918,-0.372559,-0.119629,0
52570,0.608398,-0.367676,-0.0942383,0
52590,0.581543,-0.400391,-0.114746,0
52610,0.582031,-0.409668,-0.125,0
52630,0.587891,-0.419434,-0.0424805,0
52650,0.643555,-0.401367,-0.0209961,0
52670,0.719238,-0.384766,-0.0546875,0
52690,0.736816,-0.410156,-0.0175781,0
52710,0.773438,-0.396973,0.103516,0
52730,0.805664,-0.399414,0.139648,0
52750,0.77832,-0.423828,0.104004,0
52770,0.79834,-0.475098,0.180176,0
52790,0.848633,-0.512207,0.313477,0
52810,0.854492,-0.527832,0.3125,0
52830,0.805176,-0.518066,0.331055,0
52850,0.825195,-0.571289,0.393066,0
52870,0.859863,-0.619629,0.416504,0
52890,0.848145,-0.644043,0.400879,0
52910,0.810059,-0.674316,0.391602,0
52930,0.787109,-0.72168,0.414062,0
52950,0.777344,-0.725586,0.414062,0
52970,0.741699,-0.725098,0.39502,0
52990,0.674316,-0.734863,0.375488,0
53010,0.630371,-0.759766,0.347656,0
53030,0.60791,-0.806152,0.323242,0
53050,0.571289,-0.820312,0.335938,0
53070,0.510254,-0.810547,0.365234,0
53090,0.504395,-0.751953,0.382324,0
53110,0.513672,-0.728516,0.394531,0
53130,0.506836,-0.761719,0.416016,0
53150,0.467285,-0.765137,0.429688,0
53170,0.477539,-0.73291,0.440918,0
53190,0.487793,-0.726074,0.45166,0
53210,0.465332,-0.721191,0.441406,0
53230,0.45459,-0.726562,0.451172,1000
53250,0.464355,-0.723633,0.444824,0
53260,0.45752,-0.733887,0.448242,0
53280,0.446289,-0.763672,0.441895,0
53300,0.400391,-0.775391,0.443359,0
53320,0.364258,-0.767578,0.430176,0
53340,0.34668,-0.761719,0.429199,0
53360,0.30957,-0.777344,0.438477,0
53380,0.272949,-0.75,0.461426,0
53400,0.240234,-0.73877,0.467773,0
53420,0.236328,-0.74707,0.485352,0
53440,0.257324,-0.763672,0.51123,0
53460,0.293457,-0.755859,0.520508,0
53480,0.309082,-0.760254,0.490723,0
53500,0.306641,-0.749512,0.471191,0
53520,0.310059,-0.755859,0.477051,0
53540,0.327637,-0.746094,0.476074,0
53560,0.33252,-0.749023,0.480469,0
53580,0.343262,-0.762207,0.461426,0
53600,0.365723,-0.777832,0.461914,0
53620,0.366699,-0.749023,0.462402,0
53640,0.37207,-0.749512,0.468262,0
53660,0.401367,-0.741211,0.458984,0
53680,0.408691,-0.742188,0.452148,0
53700,0.425781,-0.740234,0.442871,0
53720,0.435547,-0.73877,0.431152,0
53740,0.430664,-0.726074,0.425781,0
53760,0.446777,-0.729492,0.414062,0
53780,0.465332,-0.73584,0.407715,0
53800,0.452637,-0.733887,0.397949,0
53820,0.448242,-0.720215,0.384766,0
53840,0.478516,-0.713379,0.365723,0
53860,0.493164,-0.723145,0.363281,0
53880,0.505371,-0.719727,0.35498,0
53900,0.495605,-0.702148,0.338379,0
53920,0.538574,-0.690918,0.328613,0
53940,0.55957,-0.680176,0.319336,0
53960,0.58252,-0.673828,0.306641,0
53980,0.603516,-0.671875,0.287109,0
54000,0.631836,-0.664551,0.269043,0
54020,0.629395,-0.669434,0.257812,0
54040,0.620605,-0.647461,0.242188,0
54060,0.665039,-0.644531,0.236328,0
54080,0.674316,-0.634766,0.236328,0
54100,0.666504,-0.629395,0.205078,0
54120,0.686035,-0.628418,0.198242,0
54140,0.699707,-0.625977,0.201172,0
54160,0.713379,-0.620117,0.192871,0
54180,0.695801,-0.603516,0.184082,0
54200,0.720703,-0.586426,0.183594,0
54220,0.730469,-0.571777,0.189941,0
54240,0.734375,-0.560547,0.17627,0
54260,0.756836,-0.570312,0.15918,0
54280,0.759277,-0.557129,0.163086,0
54300,0.772949,-0.547363,0.151855,0
54330,0.807129,-0.523926,0.13623,0
54350,0.807129,-0.524902,0.127441,0
54370,0.819824,-0.518066,0.124023,0
54390,0.82959,-0.509277,0.12793,0
54410,0.833984,-0.50293,0.125977,0
54430,0.834473,-0.485352,0.13623,0
54450,0.833496,-0.47168,0.149902,0
54470,0.835938,-0.464844,0.164062,0
54490,0.837891,-0.449219,0.174805,0
54510,0.838379,-0.443848,0.180664,0
54530,0.839355,-0.438477,0.186523,0
54550,0.853516,-0.43457,0.182129,0
54570,0.856445,-0.419922,0.206543,0
54590,0.853027,-0.416504,0.222656,0
54610,0.843262,-0.431152,0.219727,0
54630,0.842773,-0.442871,0.219238,0
54650,0.847656,-0.437012,0.250488,0
54670,0.827637,-0.430664,0.276367,0
54690,0.797363,-0.413086,0.295898,0
54710,0.794434,-0.431152,0.30127,0
54730,0.805664,-0.4375,0.325195,0
54750,0.811035,-0.452148,0.342773,0
54770,0.753418,-0.443848,0.356445,0
54790,0.74707,-0.430664,0.354004,0
54810,0.769531,-0.44873,0.381348,0
54830,0.758789,-0.460449,0.373535,0
54850,0.731934,-0.456543,0.407715,0
54870,0.703613,-0.426758,0.433105,0
54890,0.717285,-0.433594,0.445312,0
54910,0.713867,-0.454102,0.444824,0
54930,0.726562,-0.477539,0.437988,0
54950,0.699219,-0.455078,0.472168,0
54970,0.665527,-0.442383,0.487793,0
54990,0.680176,-0.444824,0.473145,0
55010,0.708008,-0.445801,0.462891,0
55030,0.721191,-0.467285,0.464844,0
55050,0.711426,-0.491211,0.476562,0
55070,0.638184,-0.481934,0.48584,0
55090,0.585449,-0.452148,0.501953,0
55110,0.603516,-0.471191,0.505371,0
55130,0.624023,-0.492188,0.514648,0
55150,0.592773,-0.480957,0.540039,0
55170,0.554199,-0.457031,0.543457,0
55190,0.550781,-0.460938,0.548828,0
55210,0.570801,-0.478027,0.549805,0
55230,0.576172,-0.485352,0.56543,0
55250,0.563965,-0.482422,0.561523,0
55270,0.553223,-0.503418,0.558594,0
55290,0.55957,-0.51416,0.552734,0
55310,0.545898,-0.508789,0.556152,0
55330,0.53125,-0.500488,0.558594,0
55350,0.534668,-0.507812,0.554688,0
55370,0.540039,-0.51123,0.555664,0
55390,0.522461,-0.523926,0.560059,0
55410,0.505859,-0.523438,0.566895,0
55430,0.502441,-0.530273,0.556152,0
55450,0.494629,-0.529785,0.567383,0
55470,0.483887,-0.51709,0.573242,0
55490,0.476074,-0.532715,0.56543,0
55510,0.486816,-0.552246,0.564941,0
55530,0.479004,-0.550781,0.585938,0
55550,0.450684,-0.554199,0.562012,0
55570,0.467285,-0.542969,0.5625,0
55590,0.469727,-0.533691,0.583008,0
55610,0.441406,-0.556152,0.568359,0
55630,0.463379,-0.566895,0.564453,0
55650,0.462891,-0.566895,0.591797,0
55670,0.439941,-0.562012,0.581543,0
55690,0.45166,-0.570801,0.567383,0
55710,0.473633,-0.577637,0.576172,0
55730,0.470215,-0.590332,0.578125,0
55750,0.447754,-0.600098,0.549805,0
55770,0.468262,-0.612793,0.546875,0
55790,0.475098,-0.611328,0.561523,0
55810,0.458008,-0.603027,0.542969,0
55830,0.484375,-0.603027,0.550293,0
55850,0.480469,-0.618164,0.565918,0
55870,0.453613,-0.632324,0.557129,0
55890,0.449707,-0.633301,0.549805,0
55910,0.415527,-0.63623,0.566895,0
55930,0.388184,-0.637207,0.532715,0
55950,0.390625,-0.643066,0.544922,0
55970,0.384766,-0.64209,0.552734,0
55990,0.34375,-0.657227,0.537598,0
56010,0.374512,-0.675293,0.536621,0
56030,0.388184,-0.688965,0.551758,0
56050,0.336426,-0.682129,0.516602,0
56070,0.349121,-0.708984,0.484375,0
56090,0.404785,-0.723633,0.506348,0
56110,0.391602,-0.711426,0.506836,0
56130,0.348145,-0.705566,0.462891,0
56150,0.370605,-0.730957,0.458984,0
56170,0.380371,-0.716309,0.479004,0
56190,0.375,-0.711914,0.459473,0
56210,0.384277,-0.726074,0.421387,0
56230,0.415527,-0.740723,0.411621,0
56250,0.418945,-0.737793,0.42041,0
56270,0.419434,-0.708984,0.413086,0
56290,0.432129,-0.704102,0.394531,0
56310,0.447754,-0.711426,0.375977,0
56330,0.478516,-0.719238,0.369629,0
56350,0.476562,-0.697754,0.35791,0
56370,0.486816,-0.707031,0.32959,0
56390,0.532227,-0.700195,0.313477,0
56410,0.568359,-0.693359,0.318359,0
56430,0.581543,-0.664062,0.305176,0
56450,0.593262,-0.675781,0.269043,0
56470,0.64209,-0.668457,0.268555,0
56490,0.663574,-0.649902,0.270996,0
56500,0.666504,-0.645508,0.235352,0
56520,0.666504,-0.659668,0.202148,0
56540,0.694336,-0.640625,0.197754,0
56560,0.735352,-0.637207,0.19043,0
56580,0.723145,-0.642578,0.169434,0
56600,0.708984,-0.625488,0.146973,0
56620,0.713867,-0.602539,0.146484,0
56630,0.747559,-0.601562,0.129395,0
56650,0.738281,-0.605469,0.116211,0
56670,0.732422,-0.583984,0.105469,0
56690,0.742188,-0.569824,0.0942383,0
56710,0.763672,-0.5625,0.0878906,0
56730,0.77832,-0.558594,0.0712891,0
56750,0.791504,-0.555176,0.0605469,0
56770,0.79541,-0.53125,0.0664062,0
56790,0.807129,-0.523926,0.0571289,0
56810,0.813965,-0.514648,0.0400391,0
56830,0.834473,-0.504883,0.0327148,0
56850,0.863281,-0.506836,0.0239258,0
56870,0.837891,-0.493652,0.0185547,0
56890,0.855469,-0.487305,0.0161133,0
56910,0.865234,-0.477539,0.0102539,0
56930,0.870117,-0.452148,0.00927734,0
56950,0.879395,-0.433594,0.019043,0
56970,0.886719,-0.422363,0.03125,0
56990,0.882812,-0.413574,0.0273438,0
57010,0.879883,-0.398926,0.0415039,0
57030,0.88916,-0.391602,0.0473633,0
57050,0.891602,-0.379883,0.0507812,0
57070,0.892578,-0.358398,0.0605469,0
57090,0.905273,-0.358398,0.0688477,0
57110,0.916016,-0.349121,0.074707,0
57130,0.917969,-0.337402,0.0717773,0
57150,0.913574,-0.333496,0.0766602,0
57170,0.922363,-0.320801,0.0834961,0
57190,0.921875,-0.309082,0.0986328,0
57210,0.898926,-0.297852,0.106445,0
57230,0.907227,-0.299805,0.102539,0
57250,0.894043,-0.297363,0.106445,0
57270,0.890625,-0.291992,0.117676,0
57290,0.893066,-0.278809,0.121094,0
57310,0.88916,-0.272461,0.126465,0
57330,0.893066,-0.26123,0.141113,0
57350,0.902832,-0.277832,0.149414,0
57370,0.883789,-0.268066,0.178711,0
57390,0.875488,-0.255371,0.183594,0
57410,0.868164,-0.250488,0.187012,0
57430,0.891113,-0.25,0.194824,0
57450,0.882812,-0.249512,0.212891,0
57470,0.874512,-0.243652,0.239258,0
57490,0.871582,-0.251953,0.241699,0
57510,0.884766,-0.256348,0.241211,0
57530,0.894531,-0.248535,0.266602,0
57550,0.887207,-0.257812,0.26416,0
57570,0.875977,-0.263672,0.263672,0
57590,0.860352,-0.258301,0.30957,0
57610,0.850586,-0.272949,0.307617,0
57630,0.878906,-0.285645,0.29248,0
57650,0.893066,-0.289062,0.321289,0
57670,0.859375,-0.268555,0.344238,0
57690,0.835449,-0.271484,0.333984,0
57710,0.873047,-0.285645,0.335449,0
57730,0.873535,-0.291504,0.368164,0
57750,0.843262,-0.280273,0.369141,0
57770,0.834961,-0.300293,0.35498,0
57790,0.831543,-0.30127,0.376465,0
57810,0.808594,-0.285156,0.391113,0
57830,0.793457,-0.293457,0.389648,0
57850,0.820801,-0.3125,0.400879,0
57870,0.812988,-0.3125,0.429688,0
57890,0.77002,-0.306641,0.424316,0
57910,0.770508,-0.334473,0.418457,0
57930,0.76416,-0.339355,0.433105,0
57950,0.737793,-0.344727,0.453125,0
57970,0.717773,-0.356445,0.452637,0
57990,0.711426,-0.376953,0.447266,0
58010,0.740723,-0.387695,0.443848,0
58030,0.724609,-0.381836,0.474609,0
58050,0.704102,-0.380859,0.470215,0
58070,0.708984,-0.40918,0.459473,0
58090,0.717285,-0.428711,0.466309,0
58110,0.682617,-0.440918,0.474121,0
58130,0.668945,-0.442383,0.483398,0
58150,0.646484,-0.456055,0.48877,0
58170,0.640137,-0.461914,0.498535,0
58190,0.588379,-0.460938,0.523926,0
58210,0.537598,-0.458496,0.512695,0
58230,0.549316,-0.463379,0.529297,0
58250,0.57959,-0.464355,0.544922,0
58270,0.542969,-0.460938,0.536621,0
58290,0.520508,-0.467773,0.539062,0
58310,0.541504,-0.492676,0.555664,0
58330,0.551758,-0.503418,0.54834,0
58350,0.54834,-0.503906,0.531738,0
58370,0.562988,-0.506348,0.524902,0
58390,0.567383,-0.513672,0.51709,0
58410,0.577637,-0.524414,0.500977,0
58430,0.584473,-0.519531,0.503906,0
58450,0.59082,-0.523438,0.496094,0
58470,0.607422,-0.524902,0.480469,0
58490,0.618652,-0.539551,0.46582,0
58510,0.631836,-0.551758,0.469238,0
58530,0.612305,-0.556641,0.45752,0
58550,0.634766,-0.554199,0.442383,0
58570,0.657227,-0.572266,0.445312,0
58580,0.645996,-0.569336,0.4375,0
58600,0.625977,-0.566895,0.424316,0
58620,0.634766,-0.573242,0.414551,0
58640,0.632324,-0.585449,0.416504,0
58660,0.615723,-0.575195,0.407715,0
58680,0.601074,-0.58252,0.396484,0
58700,0.599121,-0.599609,0.388672,0
58720,0.587891,-0.603516,0.379395,0
58740,0.550781,-0.605957,0.376465,0
58760,0.547852,-0.604492,0.35498,0
58780,0.578613,-0.624512,0.352539,0
58800,0.580078,-0.626953,0.354492,0
58820,0.560059,-0.630859,0.334961,0
58840,0.567383,-0.627441,0.330078,0
58860,0.59082,-0.647461,0.33252,0
58880,0.60791,-0.65332,0.319336,0
58900,0.617188,-0.660156,0.320312,0
58920,0.629883,-0.654785,0.317383,0
58940,0.658203,-0.65918,0.305664,0
58960,0.666504,-0.651367,0.294434,0
58980,0.655273,-0.646484,0.286133,0
59000,0.669922,-0.631836,0.27002,0
59020,0.679688,-0.624512,0.275391,0
59040,0.668457,-0.630859,0.239746,0
59060,0.65918,-0.615723,0.222656,0
59080,0.657715,-0.605469,0.21582,0
59100,0.677734,-0.604492,0.199707,0
59120,0.677246,-0.611816,0.181152,0
59140,0.679688,-0.617676,0.159668,0
59160,0.706543,-0.627441,0.14502,0
59180,0.721191,-0.605469,0.132812,0
59200,0.720215,-0.590332,0.127441,0
59220,0.753418,-0.589844,0.112793,0
59240,0.77002,-0.602539,0.0922852,0
59260,0.77002,-0.581543,0.074707,0
59280,0.763672,-0.570801,0.0756836,0
59300,0.788086,-0.557129,0.0556641,0
59320,0.808105,-0.54541,0.0341797,0
59340,0.802734,-0.538574,0.0244141,0
59360,0.793945,-0.522949,0.0166016,0
59380,0.810547,-0.510254,0.00878906,0
59400,0.829102,-0.50293,-0.0102539,0
59420,0.831055,-0.486816,-0.0249023,0
59440,0.836914,-0.479004,-0.046875,0
59460,0.852051,-0.458008,-0.0419922,0
59480,0.867188,-0.445312,-0.0581055,0
59500,0.86377,-0.442871,-0.065918,0
59520,0.87793,-0.438965,-0.0727539,0
59540,0.896484,-0.411621,-0.0629883,0
59560,0.898438,-0.390137,-0.0834961,0
59580,0.891602,-0.393066,-0.0839844,0
59600,0.898438,-0.388672,-0.0795898,0
59620,0.91748,-0.377441,-0.078125,0
59640,0.908691,-0.342285,-0.0605469,0
59660,0.90332,-0.327148,-0.0610352,0
59680,0.921875,-0.317871,-0.059082,0
59700,0.920898,-0.3125,-0.0424805,0
59720,0.915039,-0.287598,-0.0424805,0
59740,0.926758,-0.270996,-0.034668,0
59760,0.948242,-0.254395,-0.0288086,0
59780,0.937988,-0.233887,-0.00976562,0
59800,0.929688,-0.230957,-0.0209961,0
59820,0.944336,-0.236328,-0.0141602,0
59840,0.941895,-0.214844,0.00292969,0
59860,0.929688,-0.194824,0.00537109,0
59880,0.923828,-0.179688,0.00585938,0
59900,0.938965,-0.163574,0.012207,0
59920,0.938477,-0.156738,0.0205078,0
59940,0.926758,-0.14209,0.046875,0
59960,0.929688,-0.128418,0.0458984,0
59980,0.951172,-0.130371,0.0512695,0
60000,0.960449,-0.137207,0.059082,0
60020,0.952637,-0.109863,0.0878906,0
60040,0.937012,-0.0932617,0.102051,0
60060,0.957031,-0.0996094,0.104492,0
60080,0.978516,-0.109375,0.114258,0
60100,0.97168,-0.111328,0.140137,0
60120,0.949219,-0.133789,0.149414,0
60140,0.915527,-0.0976562,0.178223,0
60160,0.912598,-0.0869141,0.19043,0
60180,0.92627,-0.10498,0.191406,0
60200,0.932617,-0.116211,0.192383,0
60220,0.933594,-0.118652,0.199219,0
60240,0.943359,-0.130859,0.21875,0
60260,0.941895,-0.127441,0.233887,0
60280,0.908203,-0.13916,0.252441,0
60300,0.879395,-0.152344,0.268555,0
60320,0.880371,-0.146484,0.285156,0
60340,0.892578,-0.151367,0.317871,0
60360,0.871582,-0.158691,0.31543,0
60380,0.873047,-0.162109,0.313477,0
60400,0.879883,-0.151855,0.338379,0
60420,0.870117,-0.15918,0.348145,0
60440,0.869629,-0.175781,0.350586,0
60460,0.87793,-0.185059,0.366211,0
60480,0.86084,-0.153809,0.390625,0
60500,0.814453,-0.164551,0.382324,0
60520,0.826172,-0.193359,0.364258,0
60540,0.850098,-0.219238,0.381836,0
60560,0.81543,-0.205078,0.407715,0
60580,0.78125,-0.191895,0.405273,0
60600,0.803711,-0.197754,0.396973,0
60620,0.834473,-0.207031,0.413086,0
60640,0.820801,-0.212402,0.416016,0
60660,0.80957,-0.217773,0.410645,0
60680,0.809082,-0.220215,0.414551,0
60700,0.830078,-0.235352,0.422363,0
60720,0.851074,-0.260742,0.417969,0
60740,0.886719,-0.301758,0.404785,0
60760,0.885254,-0.285645,0.463379,0
60780,0.835449,-0.26123,0.47168,0
60800,0.834473,-0.301758,0.446777,0
60820,0.793945,-0.325684,0.463867,0
60840,0.723145,-0.317871,0.4375,0
60860,0.737793,-0.291992,0.462891,0
60880,0.720215,-0.323242,0.452148,0
60900,0.687988,-0.337402,0.453125,0
60920,0.704102,-0.339355,0.476074,0
60940,0.683105,-0.330566,0.477539,0
60960,0.688477,-0.358887,0.460938,0
60980,0.674316,-0.355469,0.45752,0
61000,0.623047,-0.351562,0.462402,0
61020,0.648438,-0.354004,0.450684,0
61040,0.687012,-0.385742,0.452637,0
61060,0.633301,-0.380859,0.437988,0
61080,0.679688,-0.383301,0.416504,0
61100,0.736816,-0.409668,0.466309,0
61120,0.662109,-0.407715,0.459961,0
61140,0.609863,-0.430176,0.419434,0
61160,0.711914,-0.447754,0.419922,0
61180,0.703613,-0.446289,0.45166,0
61200,0.629395,-0.423828,0.427246,0
61230,0.750977,-0.472656,0.439941,0
61250,0.720703,-0.477051,0.428711,0
61270,0.670898,-0.470703,0.397461,0
61290,0.682129,-0.481445,0.378418,0
61310,0.787109,-0.494629,0.414551,0
61330,0.702148,-0.504883,0.416016,0
61350,0.638672,-0.496094,0.359375,0
61370,0.720703,-0.49707,0.352539,0
61390,0.75293,-0.480957,0.385254,0
61410,0.694824,-0.503418,0.358887,0
61430,0.685059,-0.520996,0.335449,0
61450,0.740234,-0.537598,0.343262,0
61470,0.726562,-0.546387,0.325684,0
61490,0.679688,-0.556152,0.304199,0
61520,0.705078,-0.55127,0.30127,0
61550,0.679688,-0.57959,0.255371,0
61570,0.714355,-0.584473,0.252441,0
61590,0.700195,-0.609375,0.225098,0
61600,0.688965,-0.598145,0.219238,0
61620,0.734375,-0.603516,0.222656,0
61640,0.752441,-0.621094,0.218262,0
61660,0.728516,-0.624023,0.178711,0
61680,0.719727,-0.616211,0.167969,0
61700,0.720703,-0.616211,0.179688,0
61720,0.70752,-0.604004,0.149414,0
61740,0.708496,-0.629883,0.125,0
61760,0.704102,-0.623047,0.123047,0
61780,0.691895,-0.611328,0.112793,0
61800,0.727539,-0.613281,0.0917969,0
61820,0.766602,-0.618652,0.0825195,0
61840,0.73877,-0.604492,0.0742188,0
61860,0.747559,-0.595703,0.0498047,0
61880,0.784668,-0.61084,0.0336914,0
61900,0.79248,-0.606934,0.0263672,0
61920,0.783203,-0.588379,0.00634766,0
61930,0.804688,-0.560547,-0.00976562,0
61950,0.834473,-0.543945,-0.0283203,0
61970,0.832031,-0.517578,-0.0493164,0
61990,0.81543,-0.504395,-0.0766602,0
62010,0.811035,-0.480469,-0.0820312,0
62030,0.822754,-0.47168,-0.105957,0
62050,0.828613,-0.45752,-0.124023,0
62070,0.827637,-0.447266,-0.130371,0
62090,0.84082,-0.435547,-0.141113,0
62110,0.849609,-0.4375,-0.180176,0
62130,0.852051,-0.430664,-0.17041,0
62150,0.862305,-0.399414,-0.171387,0
62170,0.881348,-0.397461,-0.200195,0
62190,0.907227,-0.380371,-0.178711,1001
62210,0.919922,-0.364746,-0.150391,0
62230,0.930664,-0.337891,-0.166016,0
62250,0.936035,-0.320312,-0.179199,0
62270,0.932129,-0.296875,-0.177246,0
62290,0.919922,-0.304199,-0.175781,0
62310,0.919434,-0.306641,-0.172363,0
62330,0.914062,-0.290039,-0.158691,0
62350,0.915039,-0.279297,-0.148438,0
62370,0.907715,-0.283691,-0.155762,0
62390,0.914062,-0.288574,-0.146973,0
62410,0.918945,-0.303223,-0.146484,0
62430,0.922852,-0.300293,-0.134766,0
62450,0.919434,-0.297852,-0.12207,0
62470,0.921875,-0.297363,-0.106445,0
62490,0.916504,-0.302246,-0.0996094,0
62510,0.919922,-0.331543,-0.0986328,0
62530,0.902344,-0.338379,-0.0810547,0
62550,0.878418,-0.336914,-0.0805664,0
62570,0.861328,-0.349121,-0.081543,0
62590,0.835449,-0.367676,-0.0776367,0
62610,0.811523,-0.373535,-0.065918,0
62630,0.789062,-0.380371,-0.0546875,0
62650,0.743652,-0.380371,-0.0327148,0
62670,0.691895,-0.381836,-0.0307617,0
62690,0.666016,-0.388184,-0.0693359,0
62710,0.665039,-0.388672,-0.0732422,0
62730,0.681152,-0.355957,-0.0131836,0
62750,0.682617,-0.343262,0.0166016,0
62770,0.6875,-0.311035,-0.000976562,0
62790,0.754883,-0.338379,-0.0405273,0
62810,0.808105,-0.331543,0.00390625,0
62830,0.797852,-0.317871,0.0395508,0
62850,0.791504,-0.300293,0.0356445,0
62870,0.796875,-0.330078,0.0556641,0
62890,0.918457,-0.381836,0.0620117,0
62910,1.00488,-0.396484,0.0800781,0
62930,1,-0.408203,0.128418,0
62960,0.890137,-0.513672,0.193848,0
62980,0.858887,-0.584473,0.171387,0
63000,0.85791,-0.58252,0.299805,0
63000,0.791504,-0.602051,0.365234,0
63020,0.75293,-0.658691,0.328125,0
63040,0.733398,-0.73291,0.352539,0
63060,0.702148,-0.768555,0.421387,0
63080,0.691406,-0.766113,0.395508,0
63100,0.672363,-0.756348,0.38623,0
63120,0.638184,-0.732422,0.42627,0
63140,0.599609,-0.734375,0.433594,0
63160,0.585449,-0.730957,0.43457,0
63180,0.57373,-0.761719,0.44043,0
63200,0.532227,-0.783203,0.439453,0
63220,0.499512,-0.782227,0.444336,0
63240,0.48584,-0.766113,0.437012,0
63260,0.46582,-0.747559,0.453125,0
63280,0.46582,-0.75,0.443848,0
63300,0.43457,-0.75,0.432617,0
63320,0.394531,-0.733887,0.440918,0
63340,0.358887,-0.725586,0.463379,0
63360,0.330078,-0.719727,0.473145,0
63380,0.324707,-0.727539,0.472656,0
63400,0.319824,-0.736816,0.477539,0
63420,0.300781,-0.714355,0.502441,0
63440,0.317871,-0.728516,0.478027,1000
63460,0.360352,-0.75,0.495117,0
63480,0.394043,-0.743164,0.486328,0
63500,0.418457,-0.713379,0.471191,0
63520,0.445312,-0.719727,0.442383,0
63540,0.474121,-0.73877,0.419434,0
63560,0.48584,-0.759766,0.408691,0
63580,0.484863,-0.705566,0.404785,0
63600,0.510254,-0.700684,0.390625,0
63620,0.558594,-0.727539,0.352051,0
63640,0.560059,-0.724609,0.341797,0
63660,0.54834,-0.697266,0.336426,0
63680,0.570312,-0.703613,0.305176,0
63700,0.557129,-0.697266,0.295898,0
63720,0.578613,-0.678223,0.287598,0
63740,0.586914,-0.690918,0.276855,0
63760,0.591797,-0.687012,0.275391,0
63800,0.600586,-0.669434,0.237793,0
63820,0.622559,-0.667969,0.238281,0
63840,0.624023,-0.644043,0.23584,0
63860,0.648926,-0.655762,0.209961,0
63870,0.665039,-0.649414,0.191895,0
63890,0.688477,-0.635742,0.180664,0
63910,0.714844,-0.612793,0.173828,0
63930,0.726562,-0.601074,0.17041,0
63950,0.745117,-0.587402,0.154785,0
63970,0.747559,-0.592773,0.133789,0
63990,0.756836,-0.579102,0.119141,0
64020,0.788086,-0.568359,0.112305,0
64040,0.779785,-0.54541,0.105469,0
64060,0.79541,-0.544922,0.105957,0
64080,0.810547,-0.500488,0.104492,0
64100,0.808594,-0.504883,0.0957031,0
64120,0.820801,-0.499023,0.0825195,0
64130,0.839844,-0.484863,0.0917969,0
64150,0.839355,-0.484863,0.0957031,0
64170,0.839844,-0.482422,0.0771484,0
64190,0.855469,-0.46875,0.0786133,0
64210,0.867188,-0.456055,0.0893555,0
64230,0.875977,-0.4375,0.0756836,0
64250,0.867676,-0.446289,0.074707,0
64270,0.874023,-0.435059,0.0942383,0
64290,0.873047,-0.416016,0.104492,0
64310,0.870117,-0.410645,0.117188,0
64330,0.868164,-0.411133,0.126465,0
64350,0.878906,-0.401367,0.128418,0
64370,0.887207,-0.410645,0.14209,0
64390,0.883301,-0.38916,0.166016,0
64410,0.878418,-0.394043,0.169922,0
64430,0.877441,-0.378418,0.186523,0
64450,0.867676,-0.38916,0.208008,0
64470,0.838867,-0.396973,0.21582,0
64490,0.842285,-0.397461,0.22168,0
64510,0.85791,-0.388672,0.256348,0
64530,0.821289,-0.379395,0.276367,0
64550,0.814941,-0.384277,0.269531,0
64570,0.83252,-0.39209,0.281738,0
64590,0.832031,-0.388672,0.297363,0
64610,0.807129,-0.391602,0.316406,0
64630,0.797852,-0.402832,0.31543,0
64650,0.811035,-0.414551,0.317383,0
64670,0.791016,-0.413574,0.358398,0
64690,0.748535,-0.39502,0.35791,0
64710,0.737793,-0.402344,0.362305,0
64730,0.767578,-0.418945,0.367188,0
64750,0.757812,-0.421387,0.400391,0
64770,0.729492,-0.402832,0.402344,0
64790,0.726562,-0.419434,0.401855,0
64810,0.723633,-0.42334,0.413086,0
64830,0.730469,-0.421875,0.42041,0
64850,0.731934,-0.428711,0.419922,0
64870,0.711914,-0.419434,0.429688,0
64890,0.702148,-0.419434,0.438477,0
64910,0.710449,-0.442383,0.430176,0
64930,0.695312,-0.444824,0.450195,0
64950,0.666992,-0.433594,0.461426,0
64970,0.658203,-0.446289,0.469727,0
64990,0.644531,-0.442871,0.479004,0
65010,0.637207,-0.436035,0.484375,0
65030,0.63623,-0.433105,0.494629,0
65050,0.631348,-0.449219,0.5,0
65070,0.621582,-0.445801,0.510254,0
65090,0.621582,-0.438477,0.517578,0
65110,0.626953,-0.437988,0.517578,0
65130,0.627441,-0.453613,0.515137,0
65150,0.619629,-0.443359,0.535645,0
65170,0.62207,-0.449219,0.538086,0
65190,0.616211,-0.45166,0.543457,0
65210,0.612793,-0.457031,0.530273,0
65230,0.61377,-0.453613,0.536621,0
65250,0.61377,-0.458008,0.546387,0
65270,0.612793,-0.458984,0.543945,0
65290,0.61377,-0.477051,0.542969,0
65310,0.616211,-0.469238,0.538086,0
65330,0.607422,-0.470703,0.531738,0
65350,0.607422,-0.47998,0.531738,0
65370,0.612305,-0.480469,0.541504,0
65390,0.606934,-0.478027,0.543945,0
65410,0.599121,-0.475098,0.540039,0
65430,0.605469,-0.486816,0.53418,0
65450,0.594238,-0.484375,0.55127,0
65470,0.56543,-0.494141,0.549316,0
65490,0.57373,-0.491211,0.540527,0
65510,0.574219,-0.491699,0.556641,0
65530,0.549316,-0.48877,0.567871,0
65550,0.522949,-0.500977,0.555664,0
65570,0.546387,-0.513672,0.553711,0
65590,0.554688,-0.510254,0.558594,0
65610,0.560547,-0.495605,0.544434,0
65630,0.571289,-0.506348,0.543457,0
65650,0.560547,-0.499512,0.546875,0
65670,0.538086,-0.505371,0.537109,0
65690,0.538086,-0.522949,0.533691,0
65710,0.555176,-0.53418,0.530273,0
65730,0.556152,-0.527344,0.529297,0
65750,0.547852,-0.516113,0.523438,0
65770,0.550781,-0.516602,0.524414,0
65790,0.560059,-0.533691,0.53125,0
65810,0.547852,-0.540039,0.525391,0
65830,0.536133,-0.543945,0.524414,0
65850,0.537598,-0.547852,0.524414,0
65870,0.552246,-0.55957,0.522949,0
65890,0.533691,-0.556641,0.53418,0
65910,0.518066,-0.54541,0.532715,0
65930,0.518066,-0.564453,0.521484,0
65950,0.516602,-0.570801,0.524902,0
65970,0.512695,-0.583984,0.521973,0
65990,0.507324,-0.575195,0.524414,0
66010,0.498535,-0.571777,0.524902,0
66030,0.505859,-0.581055,0.521484,0
66050,0.500488,-0.599609,0.518555,0
66070,0.494141,-0.605469,0.510742,0
66090,0.48877,-0.608887,0.512207,0
66110,0.490234,-0.60791,0.518555,0
66130,0.486816,-0.616211,0.51709,0
66150,0.471191,-0.621582,0.514648,0
66170,0.471191,-0.624512,0.504883,0
66190,0.458984,-0.630859,0.498047,0
66210,0.45166,-0.634277,0.497559,0
66230,0.45752,-0.642578,0.486816,0
66250,0.459961,-0.649902,0.489258,0
66270,0.459473,-0.655762,0.484863,0
66290,0.463379,-0.63916,0.483887,0
66310,0.469238,-0.63916,0.47168,0
66330,0.496094,-0.652344,0.458496,0
66350,0.506348,-0.654297,0.449707,0
66370,0.518066,-0.664062,0.450195,0
66390,0.547852,-0.664062,0.450195,0
66410,0.554688,-0.654785,0.435547,0
66430,0.543457,-0.660156,0.40918,0
66440,0.556641,-0.647461,0.412109,0
66460,0.559082,-0.648438,0.388184,0
66480,0.554199,-0.658691,0.369141,0
66500,0.547363,-0.661133,0.368652,0
66520,0.553223,-0.659668,0.350586,0
66540,0.547852,-0.662598,0.338379,0
66560,0.558105,-0.658691,0.329102,0
66580,0.570801,-0.647461,0.337891,0
66600,0.583496,-0.644531,0.311035,0
66620,0.583008,-0.649902,0.299316,0
66640,0.587402,-0.64209,0.299805,0
66660,0.598145,-0.644531,0.277344,0
66680,0.632812,-0.658203,0.269531,0
66700,0.651367,-0.646484,0.274902,0
