Timestamp, Acceleration x, Acceleration y, Acceleration z, Marker
50,-0.197754,-0.900391,0.563965,0
70,-0.107422,-0.822266,0.533203,0
90,-0.230469,-0.713867,0.562988,0
110,-0.345703,-0.736816,0.645508,0
130,-0.197754,-0.982422,0.475586,0
150,-0.0839844,-1.16553,0.40625,0
170,-0.204102,-0.98291,0.47168,0
190,-0.856934,-0.171875,0.609375,0
190,-1.18555,-0.214355,0.914551,0
220,-0.0698242,-0.85498,0.50293,0
240,-0.0185547,-1.09033,0.546387,0
250,-0.388184,-0.970215,0.750488,0
260,-0.340332,-0.778809,0.505371,0
280,-0.151855,-0.693848,0.408691,0
300,-0.0458984,-0.570801,0.410645,0
320,-0.174316,-0.645508,0.442871,0
340,-0.359863,-0.764648,0.525879,0
360,-0.351562,-0.951172,0.515137,0
380,-0.14502,-1.01855,0.405273,0
400,-0.288086,-0.770996,0.538086,0
420,-0.864746,-0.260254,0.766602,0
440,-1,-0.59375,0.854492,0
460,-0.158203,-1.0752,0.468262,0
480,-0.234375,-1.05664,0.561035,0
500,-0.559082,-0.698242,0.566895,0
520,-0.515137,-0.564453,0.459961,0
540,-0.351562,-0.702148,0.498535,0
560,-0.167969,-0.729004,0.515137,0
580,-0.0629883,-0.791016,0.540527,0
600,-0.103027,-0.797363,0.587402,0
620,-0.172363,-0.82959,0.503906,0
640,-0.165527,-0.860352,0.381836,0
660,-0.116211,-0.877441,0.418945,0
680,-0.528809,-0.407227,0.684082,0
700,-0.0800781,-1.33691,0.554688,0
720,-0.420898,-0.961426,0.538086,0
740,-0.623047,-0.479492,0.456055,0
760,-0.556641,-0.363281,0.512695,0
780,-0.366211,-0.547852,0.541992,0
800,-0.328613,-0.765137,0.552734,0
820,-0.398438,-0.822266,0.601074,0
840,-0.323242,-0.787109,0.542969,0
860,-0.234375,-0.736328,0.486816,0
880,-0.272949,-0.706055,0.516602,0
900,-0.275879,-0.69873,0.588379,0
920,-0.168457,-0.817383,0.585938,0
920,-0.105469,-0.824707,0.417969,0
940,-0.209473,-0.921875,0.347168,0
960,-0.680176,-0.870117,0.697266,0
980,-1.25781,-0.632324,1.08398,0
1000,-0.330566,-1.03564,0.561523,0
1020,0.0112305,-1.17334,0.477051,0
1040,-0.246094,-0.859375,0.553223,0
1060,-0.504395,-0.513184,0.464355,0
1080,-0.51416,-0.532715,0.550293,0
1100,-0.315918,-0.658203,0.593262,0
1120,-0.278809,-0.752441,0.572266,0
1140,-0.297852,-0.771973,0.563477,0
1160,-0.23877,-0.719727,0.529297,0
1180,-0.174316,-0.677734,0.519043,0
1200,-0.16748,-0.732422,0.523926,0
1220,-0.158203,-0.734375,0.509277,0
1240,-0.169922,-0.645996,0.543945,0
1260,-0.136719,-0.630859,0.547852,0
1280,-0.0888672,-0.851562,0.540039,0
1300,-0.199219,-0.857422,0.40625,0
1320,-0.125977,-0.949707,0.505859,0
1340,-0.919434,-0.689453,1.10107,0
1360,-1.07227,-1.12012,0.839844,0
1380,-0.050293,-1.25244,0.35498,0
1400,-0.0961914,-1.1792,0.541992,0
1430,-0.638672,-0.36084,0.634277,0
1450,-0.417969,-0.619141,0.563965,0
1470,-0.293457,-0.879883,0.600098,0
1490,-0.356934,-0.830566,0.592285,0
1510,-0.424316,-0.687012,0.5625,0
1530,-0.383789,-0.61377,0.544434,0
1550,-0.314941,-0.684082,0.538086,0
1570,-0.27832,-0.784668,0.537598,0
1590,-0.271484,-0.849609,0.546387,0
1610,-0.206543,-0.813965,0.512695,0
1630,-0.0644531,-0.699707,0.48584,0
1650,-0.0488281,-0.723633,0.518066,0
1670,-0.172852,-0.741211,0.568359,0
1680,-0.190918,-1.01611,0.342285,0
1700,-0.331055,-0.738281,0.542969,0
1720,-1.33105,-0.147949,1.1792,0
1740,-0.771484,-0.733398,0.606445,0
1760,0.145508,-1.24268,0.426758,0
1780,-0.0732422,-1.22705,0.599121,0
1800,-0.398926,-0.850586,0.397461,0
1820,-0.449707,-0.615234,0.5,0
1840,-0.441895,-0.537598,0.662109,0
1860,-0.462402,-0.602539,0.68457,0
1880,-0.499512,-0.736328,0.688965,0
1900,-0.500977,-0.802734,0.673828,0
1920,-0.427246,-0.788574,0.62793,0
1950,-0.20166,-0.684082,0.572754,0
1970,-0.144043,-0.685547,0.586914,0
1990,-0.140137,-0.709961,0.554688,0
2010,-0.124023,-0.694336,0.537598,0
2030,-0.0751953,-0.626953,0.540527,0
2050,-0.000976562,-0.641602,0.51123,0
2070,-0.0161133,-0.638184,0.516113,0
2090,-0.166504,-0.564453,0.506348,0
2110,-0.253906,-0.632324,0.45459,0
2130,-0.271973,-0.685059,0.366699,0
2150,-0.241699,-0.92334,0.533691,0
2170,-1.23877,-0.911133,1.2041,0
2190,-1.33643,-1.06201,1.04639,0
2220,0.00878906,-0.952637,0.53418,0
2240,-0.153809,-0.636719,0.383301,0
2260,-0.368164,-0.362305,0.335938,0
2280,-0.394531,-0.27002,0.467285,0
2320,-0.458008,-0.795898,0.646973,0
2340,-0.432617,-1.02832,0.695312,0
2360,-0.439453,-1.04541,0.721191,0
2380,-0.436523,-0.861328,0.647461,0
2390,-0.497559,-0.694336,0.563477,0
2420,-0.549316,-0.565918,0.524902,0
2430,-0.291016,-0.737305,0.575195,0
2430,-0.319824,-0.81543,0.574219,0
2450,-0.402832,-0.786133,0.61084,0
2470,-0.467285,-0.755859,0.644043,0
2490,-0.492188,-0.706543,0.631348,0
2510,-0.452637,-0.646973,0.614746,0
2530,-0.407715,-0.662598,0.597168,0
2550,-0.378418,-0.72998,0.556641,0
2570,-0.389648,-0.75,0.555176,0
2590,-0.450195,-0.711426,0.574219,0
2610,-0.508789,-0.484375,0.544434,0
2630,-0.59082,-0.527832,0.487793,0
2670,-0.345215,-1.03955,0.575195,0
2690,-0.401367,-0.779785,0.63623,0
2710,-0.286621,-0.777344,0.507812,0
2730,-0.290527,-0.80957,0.479004,0
2750,-0.266602,-0.942871,0.421387,0
2770,-0.445801,-0.655762,0.521484,0
2790,-0.791992,-0.354004,0.521973,0
2810,-0.491211,-0.622559,0.551758,0
2830,-0.210449,-0.913574,0.437988,0
2850,-0.348145,-0.862793,0.534668,0
2870,-0.439941,-0.651855,0.471191,0
2890,-0.50293,-0.563477,0.522949,0
2910,-0.530273,-0.648438,0.548828,0
2930,-0.498535,-0.830566,0.519043,0
2950,-0.455566,-0.875,0.532715,0
2970,-0.474121,-0.793945,0.598633,0
2990,-0.460449,-0.773438,0.609375,0
3010,-0.364746,-0.755859,0.60498,0
3030,-0.291992,-0.848633,0.576172,0
3050,-0.279297,-0.872559,0.496094,0
3070,-0.258789,-0.992676,0.496582,0
3090,-0.329102,-0.868164,0.430664,0
3110,-0.5625,-0.523438,0.481445,0
3130,-0.861816,-0.343262,0.688965,0
3150,-0.32959,-0.729004,0.44873,0
3170,-0.241699,-0.84668,0.486816,0
3180,-0.611328,-0.612305,0.595215,0
3200,-0.487793,-0.724121,0.574219,0
3220,-0.407715,-0.838867,0.546387,0
3240,-0.391113,-0.829102,0.517578,0
3260,-0.428223,-0.765137,0.52832,0
3280,-0.460449,-0.734863,0.526367,0
3300,-0.421387,-0.745117,0.535645,0
3320,-0.338379,-0.746094,0.536621,0
3340,-0.366211,-0.722656,0.556641,0
3360,-0.455078,-0.703613,0.572754,0
3380,-0.465332,-0.761719,0.584473,0
3400,-0.430176,-0.813477,0.585449,0
3430,-0.341309,-0.806641,0.555664,0
3450,-0.27832,-0.918945,0.550781,0
3470,-0.242676,-0.948242,0.518555,0
3490,-0.55957,-0.539551,0.500488,0
3510,-0.676758,-0.577148,0.583984,0
3530,-0.305176,-0.737793,0.42041,0
3550,-0.318848,-0.825684,0.483887,0
3570,-0.400879,-0.744141,0.444336,0
3590,-0.504395,-0.618164,0.51123,0
3610,-0.601562,-0.566895,0.575195,0
3640,-0.334473,-0.702637,0.43457,0
3660,-0.434082,-0.64209,0.48584,0
3680,-0.495605,-0.715332,0.504883,0
3700,-0.506836,-0.895508,0.570312,0
3720,-0.51709,-0.996094,0.722168,0
3740,-0.420898,-0.865723,0.699219,0
3760,-0.201172,-0.769531,0.616699,0
3780,-0.194824,-0.771484,0.504883,0
3800,-0.208496,-0.879883,0.462402,0
3820,-0.223145,-0.833008,0.466309,0
3840,-0.553711,-0.553223,0.469238,0
3860,-1.01318,-0.445801,0.668457,0
3890,-0.406738,-0.810059,0.54541,0
3910,-0.543945,-0.728027,0.570312,0
3930,-0.502441,-0.796387,0.571289,0
3950,-0.421875,-0.771484,0.622559,0
3970,-0.394043,-0.776855,0.681641,0
3990,-0.316406,-0.789062,0.54834,0
4010,-0.286621,-0.838867,0.504395,0
4030,-0.303223,-0.841309,0.48291,0
4050,-0.449219,-0.626953,0.501465,0
4070,-0.83252,-0.481445,0.628418,0
4090,-0.339844,-0.652832,0.54541,0
4110,-0.220703,-0.881836,0.4375,0
4130,-0.431152,-0.787109,0.485352,0
4160,-0.522949,-0.626465,0.494141,0
4180,-0.559082,-0.672852,0.521484,0
4200,-0.529785,-0.782715,0.557129,0
4220,-0.516113,-0.841309,0.567383,0
4240,-0.417969,-0.799805,0.602051,0
4260,-0.328613,-0.786621,0.580566,0
4280,-0.313965,-0.756348,0.556641,0
4300,-0.316895,-0.750977,0.551758,0
4320,-0.391602,-0.743652,0.578125,0
4340,-0.398438,-0.847656,0.527832,0
4360,-0.324707,-0.9375,0.508301,0
4380,-0.342773,-0.833496,0.53418,0
4400,-0.413574,-0.62793,0.639648,0
4420,-0.177734,-0.834473,0.500977,0
4440,-0.291504,-0.790527,0.554688,0
4460,-0.463867,-0.631348,0.478516,0
4480,-0.56543,-0.613281,0.547363,0
4500,-0.535156,-0.734863,0.56543,0
4520,-0.454102,-0.824219,0.553711,0
4540,-0.42334,-0.854492,0.594727,0
4560,-0.354004,-0.80957,0.607422,0
4580,-0.30957,-0.75,0.599121,0
4600,-0.368164,-0.705566,0.664551,0
4620,-0.320312,-0.776855,0.63623,0
4650,-0.416992,-0.893555,0.537598,0
4670,-0.40332,-0.766602,0.475586,0
4690,-0.666016,-0.552734,0.623047,0
4710,-0.384277,-0.686035,0.437012,0
4730,-0.363281,-0.683594,0.519531,0
4750,-0.544922,-0.654297,0.543945,0
4770,-0.671875,-0.562012,0.587891,0
4790,-0.616699,-0.589355,0.605469,0
4810,-0.395508,-0.690918,0.563477,0
4830,-0.328613,-0.773926,0.499023,0
4850,-0.42334,-0.76416,0.513184,0
4870,-0.494629,-0.722656,0.570801,0
4890,-0.345703,-0.682129,0.572266,0
4910,-0.350586,-0.628418,0.522461,0
4930,-0.423828,-0.6875,0.511719,0
4950,-0.443848,-0.80957,0.524902,0
4970,-0.470703,-0.925293,0.576172,0
4990,-0.463867,-0.82666,0.577637,0
5010,-0.42041,-0.695801,0.5625,0
5030,-0.39502,-0.709961,0.529785,0
5050,-0.37793,-0.78418,0.509277,0
5070,-0.395508,-0.798828,0.526855,0
5090,-0.439453,-0.755859,0.529297,0
5110,-0.421387,-0.732422,0.541016,0
5140,-0.433105,-0.762695,0.631836,0
5160,-0.398926,-0.770996,0.621094,0
5180,-0.387207,-0.850586,0.604492,0
5200,-0.243164,-0.902832,0.60791,0
5220,-0.090332,-0.863281,0.520996,0
5240,-0.198242,-0.685059,0.429688,0
5260,-0.797852,-0.455078,0.757324,0
5280,-0.396484,-0.741211,0.472168,0
5300,-0.222656,-0.993164,0.560547,0
5310,-0.380859,-0.921875,0.477051,0
5330,-0.716309,-0.636719,0.416016,0
5350,-0.43457,-0.730957,0.39209,0
5370,-0.390625,-0.777344,0.425293,0
5390,-0.470215,-0.776367,0.441406,0
5410,-0.468262,-0.75,0.484375,0
5430,-0.460449,-0.742188,0.55957,0
5450,-0.45166,-0.748535,0.583008,0
5470,-0.446289,-0.726562,0.594727,0
5490,-0.421387,-0.683105,0.574219,0
5510,-0.385742,-0.681152,0.509766,0
5530,-0.382812,-0.727539,0.489746,0
5550,-0.36377,-0.704102,0.470703,0
5570,-0.39209,-0.733887,0.479492,0
5590,-0.464355,-0.878418,0.571777,0
5610,-0.510254,-0.903809,0.580566,0
5630,-0.413574,-0.855469,0.619141,0
5650,-0.310059,-0.825684,0.608887,0
5670,-0.375,-0.831543,0.56543,0
5690,-0.324707,-0.844727,0.49707,0
5710,-0.258301,-0.932129,0.456543,0
5730,-0.37207,-0.86084,0.45166,0
5750,-0.530273,-0.561523,0.415527,0
5770,-0.759766,-0.371094,0.629395,0
5790,-0.329102,-0.747559,0.417969,0
5810,-0.341309,-0.838867,0.466309,0
5830,-0.464355,-0.757324,0.470703,0
5850,-0.527832,-0.625,0.422363,0
5870,-0.555176,-0.624512,0.481934,0
5890,-0.516602,-0.782227,0.474609,0
5910,-0.549316,-0.887207,0.527832,0
5930,-0.553223,-0.792969,0.567383,0
5950,-0.438477,-0.750977,0.55127,0
5970,-0.362793,-0.752441,0.518555,0
5990,-0.317383,-0.76416,0.543945,0
6010,-0.379395,-0.797852,0.544434,0
6030,-0.366699,-0.812012,0.525879,0
6050,-0.418945,-0.813477,0.567383,0
6070,-0.371582,-0.870605,0.540039,0
6090,-0.344727,-0.944336,0.521973,0
6110,-0.334961,-0.991211,0.543945,0
6130,-0.327637,-0.78418,0.51123,0
6150,-0.437988,-0.501953,0.496582,0
6170,-0.836426,-0.344727,0.756348,0
6190,-0.244629,-0.789551,0.371094,0
6210,-0.166504,-1.00537,0.475586,0
6230,-0.371094,-0.882812,0.440918,0
6250,-0.544434,-0.661133,0.400391,0
6270,-0.682129,-0.58252,0.483887,0
6290,-0.67334,-0.602539,0.520996,0
6310,-0.558594,-0.782227,0.541504,0
6330,-0.39209,-0.874023,0.505371,0
6350,-0.3125,-0.832031,0.45459,0
6370,-0.376465,-0.717773,0.45166,0
6390,-0.452637,-0.668457,0.51416,0
6410,-0.459961,-0.725098,0.589355,0
6430,-0.412109,-0.827148,0.60791,0
6450,-0.375977,-0.871582,0.570312,0
6470,-0.362793,-0.824707,0.521484,0
6490,-0.379883,-0.770508,0.482422,0
6510,-0.408203,-0.742188,0.476074,0
6530,-0.441895,-0.749023,0.433105,0
6550,-0.476562,-0.721191,0.453125,0
6570,-0.46875,-0.676758,0.461914,0
6590,-0.442383,-0.703613,0.48584,0
6610,-0.431641,-0.812988,0.524414,0
6630,-0.4375,-0.865234,0.510742,0
6650,-0.445312,-0.802246,0.532227,0
6670,-0.496582,-0.762695,0.585938,0
6690,-0.460938,-0.762695,0.592773,0
6710,-0.326172,-0.860352,0.535156,0
6730,-0.303223,-0.894531,0.457031,0
6750,-0.286133,-0.913086,0.456055,0
6770,-0.293457,-0.898438,0.476074,0
6790,-0.401855,-0.610352,0.472656,0
6810,-0.635742,-0.524902,0.686035,0
6830,-0.311035,-0.820312,0.461914,0
6850,-0.319824,-0.846191,0.539062,0
6870,-0.404297,-0.797363,0.477539,0
6890,-0.480957,-0.678223,0.47168,0
6910,-0.544922,-0.659668,0.504883,0
6930,-0.594727,-0.694824,0.531738,0
6950,-0.57666,-0.759277,0.581055,0
6970,-0.450684,-0.787598,0.57373,0
7020,-0.474609,-0.689453,0.532227,0
7040,-0.476562,-0.708984,0.540527,0
7060,-0.478027,-0.70752,0.530762,0
7080,-0.460938,-0.724609,0.478027,0
7100,-0.407227,-0.76416,0.48584,0
7120,-0.419922,-0.831543,0.45459,0
7140,-0.441895,-0.800293,0.552246,0
7160,-0.428223,-0.78418,0.556152,0
7180,-0.400391,-0.820801,0.566895,0
7200,-0.362305,-0.78125,0.541016,0
7220,-0.359863,-0.80127,0.519531,0
7240,-0.36084,-0.8125,0.486816,0
7260,-0.391602,-0.805664,0.521484,0
7280,-0.411621,-0.812012,0.51123,0
7300,-0.398438,-0.787109,0.578125,0
7320,-0.399414,-0.749512,0.629883,0
7340,-0.382812,-0.796875,0.567383,0
7360,-0.369141,-0.864258,0.588867,0
7380,-0.237305,-0.910645,0.508301,0
7400,-0.125977,-0.854004,0.455566,0
7420,-0.391113,-0.645508,0.504883,0
7440,-0.804199,-0.422852,0.590332,0
7460,-0.367188,-0.763672,0.54834,0
7480,-0.206055,-0.960938,0.43457,0
7500,-0.276367,-0.875977,0.478027,0
7520,-0.358887,-0.732422,0.467285,0
7540,-0.628906,-0.631836,0.573242,0
7560,-0.806641,-0.671875,0.670898,0
7580,-0.706055,-0.754883,0.69043,0
7600,-0.307129,-0.776367,0.571289,0
7620,-0.106934,-0.780762,0.474609,0
7640,-0.19873,-0.65332,0.418457,0
7660,-0.414551,-0.515137,0.444824,0
7680,-0.591797,-0.620117,0.588379,0
7700,-0.553223,-0.820312,0.70166,0
7720,-0.37207,-0.949707,0.652832,0
7740,-0.29834,-0.88916,0.575684,0
7760,-0.349121,-0.76709,0.54541,0
7780,-0.364258,-0.708496,0.522461,0
7810,-0.406738,-0.712402,0.547852,0
7830,-0.424805,-0.695312,0.570801,0
7850,-0.441406,-0.689453,0.601074,0
7870,-0.45166,-0.706055,0.601074,0
7890,-0.449707,-0.748047,0.571777,0
7910,-0.436523,-0.755859,0.540527,0
7930,-0.42334,-0.734863,0.530762,0
7950,-0.438477,-0.703613,0.544922,0
7970,-0.442383,-0.703613,0.562988,0
7990,-0.427246,-0.722168,0.571289,0
8010,-0.41748,-0.744629,0.569336,0
8040,-0.419922,-0.751465,0.575195,0
8060,-0.407715,-0.730469,0.568848,0
8070,-0.407227,-0.712891,0.575684,0
8100,-0.401367,-0.709961,0.577148,0
8120,-0.397949,-0.720703,0.582031,0
8140,-0.400391,-0.731934,0.59082,0
8160,-0.40625,-0.739746,0.575195,0
8170,-0.418945,-0.73291,0.56543,0
8190,-0.427734,-0.713379,0.565918,0
8210,-0.428223,-0.704102,0.568359,0
8230,-0.428711,-0.710938,0.571289,0
8250,-0.42627,-0.723633,0.572266,0
8270,-0.42041,-0.727539,0.564453,0
8290,-0.418945,-0.730469,0.572754,0
8310,-0.424316,-0.729004,0.57666,0
8330,-0.416992,-0.726562,0.578613,0
8350,-0.427246,-0.722656,0.579102,0
8370,-0.423828,-0.719727,0.577148,0
8390,-0.415039,-0.712891,0.581543,0
8410,-0.415039,-0.709961,0.571289,0
8430,-0.414551,-0.716797,0.583496,0
8450,-0.407715,-0.725098,0.588379,0
8470,-0.40625,-0.719727,0.57959,0
8490,-0.410156,-0.717285,0.586426,0
8510,-0.414551,-0.71582,0.586914,0
8530,-0.429199,-0.728027,0.575684,0
8550,-0.433105,-0.725586,0.577637,0
8570,-0.421875,-0.716309,0.570801,0
8590,-0.423828,-0.708496,0.568359,0
8610,-0.426758,-0.702148,0.568359,0
8630,-0.422852,-0.709473,0.573242,0
8650,-0.421875,-0.715332,0.576172,0
8670,-0.418945,-0.722168,0.569336,0
8690,-0.415527,-0.723145,0.584473,0
8710,-0.415527,-0.719727,0.582031,0
8730,-0.415039,-0.719727,0.580566,0
8750,-0.413086,-0.710449,0.586914,0
8770,-0.418945,-0.720703,0.571289,0
8790,-0.427734,-0.72998,0.578125,0
8810,-0.428711,-0.722168,0.575195,0
8830,-0.419922,-0.71582,0.570801,0
8850,-0.421875,-0.708496,0.571289,0
8870,-0.414551,-0.705566,0.580566,0
8890,-0.419922,-0.710938,0.589844,0
8910,-0.424805,-0.722656,0.574219,0
8930,-0.424805,-0.724121,0.577148,0
8950,-0.419922,-0.72168,0.572754,0
8970,-0.416016,-0.71582,0.57666,0
8990,-0.414062,-0.709961,0.583984,0
9010,-0.413574,-0.709473,0.585449,0
9030,-0.418945,-0.708008,0.587891,0
9050,-0.416504,-0.711914,0.57666,0
9070,-0.41748,-0.729004,0.561035,0
9090,-0.419434,-0.73291,0.574219,0
9110,-0.427246,-0.725586,0.574707,0
9130,-0.432617,-0.722168,0.57959,0
9150,-0.425293,-0.720215,0.568848,0
9170,-0.423828,-0.709473,0.571777,0
9190,-0.418945,-0.711914,0.580078,0
9210,-0.421875,-0.718262,0.587402,0
9230,-0.42334,-0.720703,0.588379,0
9250,-0.431641,-0.715332,0.583984,0
9270,-0.423828,-0.710449,0.572266,0
9290,-0.402832,-0.72168,0.578613,0
9310,-0.421875,-0.728516,0.595703,0
9330,-0.430176,-0.719727,0.588379,0
9350,-0.425293,-0.714355,0.57666,0
9370,-0.432129,-0.70752,0.568848,0
9390,-0.425781,-0.713379,0.571777,0
9410,-0.427734,-0.709473,0.557129,0
9440,-0.411621,-0.697754,0.557129,0
9460,-0.414551,-0.705078,0.557617,0
9480,-0.414551,-0.722656,0.584473,0
9500,-0.416016,-0.739258,0.598633,0
9510,-0.418457,-0.740723,0.595703,0
9530,-0.416016,-0.744141,0.605957,0
9540,-0.422852,-0.732422,0.609375,0
9560,-0.424805,-0.723145,0.612305,0
9580,-0.436035,-0.718262,0.612793,0
9600,-0.44043,-0.705566,0.595215,0
9620,-0.457031,-0.70166,0.581543,0
9640,-0.458496,-0.70166,0.580566,0
9660,-0.464844,-0.693848,0.569824,0
9680,-0.470703,-0.678223,0.5625,0
9690,-0.467773,-0.678711,0.55127,0
9710,-0.453613,-0.68457,0.540039,0
9730,-0.459473,-0.705566,0.560059,0
9750,-0.444824,-0.73584,0.576172,0
9770,-0.429199,-0.749512,0.562012,0
9790,-0.420898,-0.743652,0.559082,0
9810,-0.413574,-0.730469,0.560059,0
9830,-0.413574,-0.719238,0.558594,0
9850,-0.426758,-0.71582,0.567383,0
9890,-0.456543,-0.709473,0.549316,0
9910,-0.464355,-0.704102,0.535645,0
9920,-0.466309,-0.700684,0.543945,0
9940,-0.473633,-0.704102,0.54834,0
9980,-0.467285,-0.708496,0.555176,0
10000,-0.459961,-0.714355,0.538086,0
10020,-0.464355,-0.71582,0.532715,0
10040,-0.479004,-0.710938,0.541016,0
10060,-0.473633,-0.710938,0.533203,0
10080,-0.462402,-0.712891,0.529297,0
10100,-0.458496,-0.718262,0.537598,0
10120,-0.452148,-0.706543,0.554199,0
10130,-0.463379,-0.714355,0.560059,0
10150,-0.46875,-0.720703,0.554199,0
10180,-0.501465,-0.724609,0.533203,0
10200,-0.510742,-0.725586,0.525391,0
10220,-0.516602,-0.719727,0.52002,0
10240,-0.515137,-0.70166,0.511719,0
10260,-0.509277,-0.694824,0.515625,0
10280,-0.499023,-0.695801,0.519531,0
10300,-0.491699,-0.693848,0.532227,0
10320,-0.485352,-0.702148,0.533691,0
10340,-0.470703,-0.700195,0.543457,0
10370,-0.468262,-0.711914,0.570801,0
10390,-0.466797,-0.724609,0.555664,0
10410,-0.469238,-0.71582,0.553711,0
10430,-0.478027,-0.706055,0.548828,0
10450,-0.479004,-0.711426,0.544922,0
10470,-0.480469,-0.712402,0.546875,0
10490,-0.480469,-0.713379,0.539062,0
10510,-0.490234,-0.710938,0.538574,0
10530,-0.495117,-0.703125,0.545898,0
10550,-0.495117,-0.694336,0.544434,0
10580,-0.496094,-0.708008,0.541016,0
10600,-0.481445,-0.708008,0.54248,0
10620,-0.478516,-0.70166,0.543457,0
10640,-0.477539,-0.701172,0.541504,0
10660,-0.480957,-0.723145,0.556152,0
10680,-0.491211,-0.71875,0.530273,0
10700,-0.496582,-0.692383,0.548828,0
10720,-0.485352,-0.710449,0.555664,0
10740,-0.46875,-0.716309,0.52832,0
10760,-0.48291,-0.713379,0.531738,0
10770,-0.504395,-0.78418,0.577637,0
10790,-0.538574,-0.847656,0.602539,0
10810,-0.597168,-0.807129,0.643555,0
10830,-0.556641,-0.833496,0.623047,0
10850,-0.388672,-0.901367,0.621582,0
10870,-0.333984,-0.946289,0.787109,0
10890,-0.32959,-0.896973,0.907227,0
10910,-0.308105,-0.894531,0.905273,0
10930,-0.161133,-0.956055,0.828613,0
10950,-0.019043,-0.986328,0.825684,0
10970,0.0512695,-0.95166,0.874023,0
10990,0.0839844,-0.890625,0.810059,0
11010,0.0825195,-0.84082,0.770996,0
11030,0.0869141,-0.725586,0.764648,0
11050,0.129883,-0.69873,0.749023,0
11070,0.180176,-0.747559,0.630371,0
11080,0.182617,-0.788574,0.524414,0
11090,0.104492,-0.819824,0.555176,0
11100,0.0830078,-0.74707,0.637695,0
11120,0.0537109,-0.764648,0.478027,0
11140,0.00732422,-0.80127,0.354004,0
11160,-0.0585938,-0.712402,0.368652,0
11180,-0.0629883,-0.726074,0.46582,0
11200,0.0341797,-0.799316,0.491699,0
11220,0.10791,-0.869141,0.376465,0
11240,0.046875,-0.797363,0.356445,0
11260,-0.0395508,-0.805664,0.369141,0
11280,0.0356445,-0.885742,0.506348,0
11300,0.216797,-0.893066,0.458984,0
11320,0.281738,-0.779297,0.342773,0
11340,0.232422,-0.665527,0.456543,0
11360,0.320801,-0.786133,0.59375,0
11380,0.461914,-0.891602,0.578125,0
11400,0.54248,-0.872559,0.4375,0
11420,0.54541,-0.82959,0.369141,0
11440,0.543945,-0.719727,0.393555,0
11460,0.574707,-0.702637,0.438965,0
11480,0.594238,-0.730957,0.347168,0
11500,0.547363,-0.818848,0.224609,0
11520,0.342773,-0.786133,0.341309,0
11540,0.29541,-0.760742,0.439453,0
11560,0.473145,-0.78418,0.22998,0
11580,0.463379,-1.02783,0.0136719,0
11600,0.0712891,-0.787109,0.335449,0
11620,0.0649414,-0.769043,0.40332,0
11640,0.268555,-0.724121,0.413574,0
11660,0.500488,-0.831055,0.485352,0
11680,0.608398,-0.888672,0.522461,0
11700,0.474121,-0.792969,0.407227,0
11720,0.32666,-0.781738,0.321289,0
11740,0.249512,-0.842285,0.370117,0
11760,0.29541,-0.750488,0.484375,0
11780,0.444824,-0.804688,0.487305,0
11800,0.369141,-0.838379,0.586426,0
11820,0.414551,-0.80127,0.598633,0
11840,0.541016,-0.762207,0.559082,0
11860,0.592773,-0.739258,0.482422,0
11880,0.572266,-0.819336,0.408691,0
11900,0.478027,-0.894531,0.465332,0
11920,0.469727,-0.965332,0.459473,0
11940,0.588867,-0.960938,0.476074,0
11960,0.573242,-1.04785,0.468262,0
11980,0.466797,-1.11865,0.479004,0
12000,0.454102,-1.06543,0.496094,0
12020,0.469727,-0.936523,0.538574,0
12040,0.494141,-0.791016,0.491699,0
12060,0.416016,-0.701172,0.477539,0
12080,0.34668,-0.677246,0.458984,0
12100,0.343262,-0.665527,0.437012,0
12120,0.345703,-0.638184,0.446777,0
12140,0.358398,-0.62793,0.480957,0
12160,0.425293,-0.597656,0.526855,0
12180,0.48584,-0.569336,0.577637,0
12200,0.523438,-0.505859,0.555176,0
12220,0.521973,-0.560059,0.483398,0
12240,0.518066,-0.608887,0.464844,0
12260,0.54834,-0.575684,0.528809,0
12280,0.590332,-0.549805,0.569336,0
12300,0.556152,-0.527832,0.48584,0
12320,0.543945,-0.569824,0.442871,0
12340,0.554199,-0.560547,0.516602,0
12360,0.58252,-0.513672,0.562012,0
12380,0.602539,-0.555664,0.506836,0
12400,0.569336,-0.629883,0.484375,0
12420,0.611328,-0.636719,0.516113,0
12440,0.6875,-0.577637,0.520996,0
12460,0.737305,-0.550781,0.484863,0
12480,0.72168,-0.54541,0.480957,0
12500,0.725098,-0.555176,0.496094,0
12520,0.740234,-0.580566,0.516113,0
12540,0.761719,-0.598633,0.529297,0
12560,0.777344,-0.62793,0.456543,0
12580,0.73877,-0.619141,0.461426,0
12600,0.719238,-0.571777,0.476074,0
12620,0.703125,-0.562012,0.505859,0
12640,0.683594,-0.533203,0.477051,0
12660,0.651367,-0.592773,0.400391,0
12680,0.612793,-0.641113,0.319336,0
12700,0.499512,-0.549316,0.458008,0
12720,0.474121,-0.500488,0.46875,0
12740,0.473145,-0.476562,0.48877,0
12760,0.539551,-0.506836,0.424316,0
12780,0.424316,-0.42334,0.445801,0
12800,0.414062,-0.430176,0.578613,0
12820,0.421875,-0.439453,0.659668,0
12840,0.495117,-0.654785,0.692383,0
12860,0.50293,-0.677246,0.71875,0
12880,0.520508,-0.601562,0.566895,0
12900,0.382324,-0.520508,0.781738,0
12920,0.284668,-0.537109,0.931152,0
12940,0.547363,-0.719238,0.726074,0
12960,0.730469,-0.893555,0.565918,0
12980,0.614258,-0.922363,0.562988,0
13000,0.390625,-0.867676,0.713867,0
13020,0.375977,-0.841309,0.677734,0
13040,0.491699,-0.812988,0.654785,0
13060,0.547852,-0.740723,0.633301,0
13080,0.562012,-0.739746,0.575684,0
13100,0.529297,-0.713867,0.564941,0
13120,0.458496,-0.661133,0.616699,0
13140,0.521973,-0.72998,0.600586,0
13160,0.625977,-0.757324,0.600098,0
13180,0.591797,-0.696777,0.586426,0
13200,0.577637,-0.665039,0.59375,0
13220,0.547852,-0.643555,0.583008,0
13240,0.541992,-0.650879,0.586914,0
13260,0.560059,-0.639648,0.581543,0
13280,0.575684,-0.630859,0.59082,0
13300,0.560059,-0.606934,0.588867,0
13320,0.566406,-0.595703,0.571289,0
13340,0.557129,-0.597656,0.559082,0
13360,0.519531,-0.624023,0.574707,0
13380,0.540527,-0.657715,0.621094,0
13400,0.576172,-0.687988,0.628906,0
13420,0.550293,-0.757812,0.626953,0
13440,0.542969,-0.687012,0.552734,0
13460,0.522949,-0.603516,0.648926,0
13480,0.510742,-0.635254,0.71875,0
13500,0.504395,-0.666992,0.670898,0
13520,0.480957,-0.691406,0.654785,0
13540,0.456543,-0.62207,0.618164,0
13560,0.397461,-0.491211,0.652344,0
13580,0.38916,-0.438965,0.668457,0
13600,0.450195,-0.53418,0.63916,0
13620,0.444336,-0.637207,0.603516,0
13640,0.430176,-0.612793,0.600586,0
13660,0.411621,-0.572754,0.608398,0
13680,0.381836,-0.613281,0.609375,0
13700,0.346191,-0.586426,0.591309,0
13720,0.354492,-0.605469,0.605957,0
13740,0.401855,-0.549316,0.663086,0
13760,0.498047,-0.539062,0.65918,0
13780,0.467773,-0.574219,0.622559,0
13800,0.394043,-0.580078,0.688965,0
13820,0.320801,-0.562988,0.738281,0
13840,0.294922,-0.543457,0.726562,0
13860,0.240723,-0.464355,0.777832,0
13880,0.323242,-0.523926,0.754395,0
13900,0.399902,-0.480957,0.691406,0
13920,0.339844,-0.447754,0.836426,0
13940,0.276855,-0.470703,0.82959,0
13960,0.206543,-0.386719,0.855469,0
13980,0.184082,-0.333496,1.13672,0
14000,0.237305,-0.491699,1.25195,0
14020,0.319824,-0.630371,1.19189,0
14040,0.688477,-0.666504,1.00977,0
14060,0.771973,-0.638672,0.841797,0
14070,0.560547,-0.546387,0.776855,0
14090,0.468262,-0.480957,0.734375,0
14110,0.48877,-0.538086,0.611816,0
14130,0.520996,-0.677734,0.638184,0
14150,0.493652,-0.749023,0.686523,0
14170,0.476074,-0.697754,0.71875,0
14190,0.480469,-0.575195,0.67041,0
14210,0.496582,-0.529785,0.606445,0
14230,0.479004,-0.508789,0.528809,0
14250,0.466797,-0.546387,0.543945,0
14270,0.407227,-0.532227,0.683594,0
14290,0.363281,-0.484863,0.657227,0
14310,0.310547,-0.504883,0.682129,0
14330,0.396973,-0.506836,0.688477,0
14350,0.486328,-0.57666,0.619141,0
14370,0.571777,-0.57666,0.639648,0
14390,0.615723,-0.535645,0.587402,0
14410,0.560059,-0.563965,0.575684,0
14430,0.582031,-0.588867,0.549805,0
14450,0.573242,-0.584473,0.498047,0
14470,0.614258,-0.661133,0.435547,0
14490,0.701172,-0.664551,0.444336,0
14510,0.745117,-0.677734,0.46875,0
14530,0.813477,-0.694336,0.46875,0
14550,0.805664,-0.622559,0.454102,0
14570,0.761719,-0.552246,0.441895,0
14590,0.791016,-0.52832,0.507324,0
14610,0.833008,-0.553223,0.503418,0
14630,0.761719,-0.494629,0.405762,0
14650,0.697754,-0.400391,0.463379,0
14670,0.684082,-0.461914,0.532227,0
14690,0.660645,-0.519531,0.55957,0
14710,0.583496,-0.516602,0.618652,0
14730,0.593262,-0.490723,0.575684,0
14750,0.571289,-0.481934,0.474121,0
14770,0.541992,-0.48291,0.481934,0
14790,0.527832,-0.52002,0.574219,0
14810,0.562988,-0.586426,0.593262,0
14830,0.57959,-0.631348,0.540039,0
14850,0.575684,-0.592285,0.50293,0
14870,0.592773,-0.578613,0.5,0
14890,0.611328,-0.607422,0.492676,0
14910,0.644043,-0.619141,0.484863,0
14930,0.671875,-0.594238,0.47998,0
14950,0.689453,-0.594238,0.490723,0
14970,0.730957,-0.614258,0.449219,0
14990,0.753418,-0.620605,0.417969,0
15010,0.740723,-0.55127,0.418457,0
15030,0.768555,-0.531738,0.445312,0
15050,0.766602,-0.549805,0.395508,0
15070,0.787598,-0.558105,0.397461,0
15090,0.817871,-0.558594,0.395996,0
15110,0.820312,-0.517578,0.402344,0
15130,0.8125,-0.499023,0.36377,0
15150,0.821289,-0.511719,0.352051,0
15170,0.762207,-0.505859,0.391113,0
15190,0.771484,-0.524902,0.421875,0
15210,0.722656,-0.533203,0.410645,0
15230,0.748535,-0.553223,0.389648,0
15250,0.741699,-0.519043,0.393555,0
15270,0.737793,-0.565918,0.372559,0
15290,0.724121,-0.597656,0.336426,0
15310,0.734863,-0.589355,0.334473,0
15330,0.717773,-0.577637,0.381348,0
15350,0.699707,-0.594727,0.424316,0
15370,0.700684,-0.547363,0.48877,0
15390,0.733398,-0.500488,0.488281,0
15410,0.750488,-0.523926,0.464844,0
15430,0.720703,-0.557617,0.445801,0
15450,0.743652,-0.566895,0.448242,0
15470,0.759277,-0.573242,0.469727,0
15490,0.762695,-0.582031,0.444336,0
15510,0.750488,-0.588867,0.404785,0
15530,0.732422,-0.57959,0.418945,0
15550,0.734863,-0.57666,0.441406,0
15570,0.722168,-0.585449,0.437988,0
15590,0.712402,-0.580078,0.469727,0
15610,0.71875,-0.567383,0.486328,0
15630,0.693359,-0.565918,0.459961,0
15650,0.70166,-0.564453,0.441406,0
15670,0.6875,-0.539551,0.45166,0
15690,0.664551,-0.524414,0.48877,0
15710,0.678711,-0.526855,0.487793,0
15730,0.695801,-0.548828,0.480469,0
15750,0.712402,-0.542969,0.444824,0
15770,0.70752,-0.547852,0.414551,0
15790,0.693359,-0.585938,0.414062,0
15810,0.657715,-0.586426,0.510742,0
15830,0.675781,-0.568359,0.537109,0
15850,0.728516,-0.610352,0.504883,0
15870,0.719727,-0.628418,0.40332,0
15890,0.67041,-0.62793,0.335938,0
15910,0.665527,-0.652344,0.416016,0
15930,0.629883,-0.664062,0.525879,0
15950,0.673828,-0.601074,0.522461,0
15970,0.680664,-0.59668,0.552734,0
15990,0.681152,-0.640137,0.53418,0
16010,0.660645,-0.60791,0.535645,0
16030,0.702148,-0.604004,0.494629,0
16050,0.696777,-0.57666,0.448242,0
16070,0.656738,-0.55957,0.425781,0
16090,0.650391,-0.568359,0.470215,0
16110,0.674316,-0.594727,0.505859,0
16130,0.667969,-0.562012,0.472168,0
16150,0.641113,-0.48877,0.460449,0
16170,0.685059,-0.54834,0.45459,0
16190,0.66748,-0.603516,0.478027,0
16210,0.680176,-0.623535,0.537598,0
16230,0.692871,-0.585449,0.538086,0
16250,0.702148,-0.576172,0.442383,0
16270,0.737793,-0.589355,0.375977,0
16290,0.722656,-0.583984,0.40625,0
16310,0.69043,-0.569336,0.448242,0
16330,0.721191,-0.602539,0.470703,0
16350,0.731934,-0.60498,0.467773,0
16370,0.761719,-0.614746,0.40918,0
16390,0.76123,-0.588379,0.412109,0
16410,0.768555,-0.57373,0.441895,0
16430,0.766602,-0.581543,0.474121,0
16450,0.761719,-0.56543,0.419922,0
16470,0.757812,-0.503906,0.397461,0
16490,0.773926,-0.480957,0.44043,0
16510,0.768066,-0.520508,0.420898,0
16530,0.746094,-0.53125,0.375,0
16550,0.73291,-0.542969,0.365234,0
16570,0.683594,-0.609863,0.376465,0
16590,0.659668,-0.634277,0.431641,0
16610,0.705078,-0.679688,0.464844,0
16630,0.725098,-0.706543,0.45166,0
16650,0.67627,-0.762207,0.369141,0
16670,0.563965,-0.650391,0.444336,0
16690,0.382812,-0.428223,0.647949,0
16710,0.305664,-0.477539,0.652344,0
16730,0.352539,-0.561035,0.712891,0
16750,0.439941,-0.729004,0.780762,0
16770,0.493652,-0.814941,0.773438,0
16790,0.553223,-0.801758,0.606934,0
16810,0.56543,-0.678711,0.558105,0
16830,0.533203,-0.607422,0.568848,0
16850,0.477539,-0.652832,0.525391,0
16870,0.485352,-0.735352,0.521484,0
16890,0.521484,-0.73291,0.525391,0
16910,0.519043,-0.647949,0.549805,0
16930,0.533691,-0.584961,0.503418,0
16950,0.589844,-0.590332,0.472656,0
16970,0.606934,-0.584473,0.469238,0
16990,0.585449,-0.603516,0.509277,0
17010,0.607422,-0.662109,0.51123,0
17030,0.632812,-0.653809,0.467773,0
17050,0.629883,-0.619141,0.419922,0
17070,0.626465,-0.618164,0.424805,0
17090,0.638672,-0.648438,0.460449,0
17110,0.658203,-0.634766,0.460449,0
17130,0.687988,-0.617676,0.456055,0
17150,0.678223,-0.610352,0.44043,0
17170,0.670898,-0.651855,0.470215,0
17190,0.666504,-0.718262,0.474609,0
17210,0.657715,-0.719238,0.453125,0
17230,0.66748,-0.639648,0.435547,0
17250,0.706543,-0.594727,0.479492,0
17260,0.672363,-0.550293,0.509766,0
17280,0.562988,-0.507812,0.571777,0
17300,0.546875,-0.540039,0.552246,0
17320,0.573242,-0.593262,0.530273,0
17340,0.569824,-0.631348,0.550781,0
17360,0.547363,-0.630371,0.619141,0
17380,0.561035,-0.660645,0.606445,0
17400,0.609375,-0.683105,0.521484,0
17420,0.643066,-0.633301,0.48877,0
17440,0.584473,-0.601074,0.563477,0
17460,0.580078,-0.629883,0.585449,0
17480,0.585449,-0.638672,0.546875,0
17500,0.602539,-0.620605,0.519531,0
17520,0.623535,-0.57373,0.479492,0
17540,0.59375,-0.551758,0.505371,0
17560,0.574707,-0.584473,0.570801,0
17580,0.604004,-0.645508,0.579102,0
17600,0.594238,-0.616699,0.57666,0
17620,0.696777,-0.55127,0.447266,0
17640,0.654785,-0.533203,0.48291,0
17660,0.595215,-0.528809,0.592285,0
17680,0.620117,-0.503906,0.700195,0
17700,0.633789,-0.538086,0.539551,0
17720,0.677246,-0.631348,0.469238,0
17740,0.730469,-0.588867,0.370117,0
17760,0.605469,-0.554199,0.456543,0
17780,0.570312,-0.647461,0.651367,0
17800,0.679688,-0.659668,0.543945,0
17820,0.656738,-0.52002,0.568848,0
17840,0.58252,-0.535645,0.524902,0
17860,0.615723,-0.650879,0.433594,0
17880,0.633301,-0.680664,0.449707,0
17900,0.570801,-0.665039,0.506836,0
17920,0.551758,-0.691406,0.492188,0
17940,0.528809,-0.688477,0.547852,0
17960,0.563477,-0.662598,0.598145,0
17980,0.563477,-0.649902,0.568848,0
18000,0.59668,-0.59375,0.458008,0
18020,0.660645,-0.599609,0.495117,0
18040,0.673828,-0.640625,0.515625,0
18060,0.653809,-0.663574,0.549805,0
18080,0.652832,-0.652344,0.500977,0
18100,0.613281,-0.628906,0.558105,0
18120,0.612793,-0.619141,0.570801,0
18140,0.616699,-0.621582,0.553711,0
18160,0.665039,-0.606445,0.532715,0
18180,0.666016,-0.603027,0.525879,0
18200,0.635742,-0.628418,0.518066,0
18220,0.619141,-0.676758,0.521484,0
18240,0.578613,-0.628418,0.556152,0
18260,0.590332,-0.581055,0.525391,0
18280,0.628418,-0.584473,0.487793,0
18300,0.606934,-0.628906,0.499512,0
18320,0.577148,-0.623047,0.588379,0
18340,0.64209,-0.623047,0.601562,0
18360,0.630859,-0.569336,0.543945,0
18380,0.647949,-0.537598,0.456055,0
18400,0.634277,-0.563477,0.476562,0
18420,0.64209,-0.581055,0.52002,0
18440,0.633789,-0.598633,0.526367,0
18460,0.649414,-0.623535,0.515137,0
18480,0.655762,-0.617188,0.490234,0
18500,0.648926,-0.588379,0.449219,0
18520,0.641602,-0.614258,0.499023,0
18540,0.643066,-0.631836,0.533203,0
18560,0.652832,-0.648438,0.525391,0
18580,0.661621,-0.638672,0.485352,0
18600,0.648926,-0.60791,0.473633,0
18620,0.652832,-0.611328,0.499512,0
18640,0.652344,-0.630371,0.503418,0
18660,0.648438,-0.635254,0.494141,0
18680,0.648438,-0.611816,0.462402,0
18700,0.644531,-0.588379,0.439941,0
18720,0.640625,-0.588867,0.45459,0
18740,0.63623,-0.620117,0.45752,0
18760,0.603516,-0.648438,0.480469,0
18780,0.592773,-0.663574,0.492188,0
18800,0.599121,-0.681641,0.504883,0
18820,0.610352,-0.682617,0.481934,0
18840,0.605957,-0.63623,0.462891,0
18860,0.605469,-0.613281,0.473145,0
18880,0.626953,-0.616699,0.462891,0
18900,0.674316,-0.644531,0.474609,0
18920,0.679688,-0.638184,0.48584,0
18940,0.680176,-0.646484,0.477539,0
18960,0.696777,-0.635742,0.432617,0
18980,0.719727,-0.59668,0.425293,0
19000,0.742676,-0.558594,0.447754,0
19020,0.768555,-0.570312,0.435547,0
19040,0.727051,-0.594238,0.419434,0
19060,0.67627,-0.598633,0.416016,0
19080,0.685547,-0.612793,0.436035,0
19100,0.675781,-0.64502,0.458984,0
19120,0.641113,-0.632324,0.490723,0
19140,0.584473,-0.63916,0.536133,0
19160,0.566895,-0.591309,0.496582,0
19180,0.570801,-0.602539,0.459961,0
19200,0.505859,-0.59082,0.483398,0
19220,0.418457,-0.594238,0.526367,0
19240,0.378906,-0.63623,0.541504,0
19260,0.395508,-0.711426,0.555176,0
19280,0.464355,-0.806152,0.539062,0
19300,0.506348,-0.819824,0.525879,0
19310,0.532715,-0.730469,0.580078,0
19340,0.543945,-0.669922,0.530762,0
19360,0.538574,-0.657715,0.510742,0
19380,0.528809,-0.676758,0.500488,0
19400,0.484863,-0.64209,0.529297,0
19420,0.473633,-0.630371,0.52832,0
19470,0.534668,-0.710449,0.50293,0
19490,0.524414,-0.669922,0.531738,0
19530,0.571777,-0.624023,0.506836,0
19570,0.541016,-0.630371,0.54834,0
19590,0.55957,-0.667969,0.526367,0
19610,0.56543,-0.668457,0.503418,0
19630,0.515625,-0.641602,0.496582,0
19650,0.455078,-0.613281,0.51416,0
19670,0.67334,-0.591797,0.482422,0
19690,0.663574,-0.577637,0.507812,0
19710,0.68457,-0.584473,0.564941,0
19730,0.70752,-0.589844,0.585449,0
19750,0.720215,-0.587891,0.590332,0
19770,0.729492,-0.614746,0.600586,0
19790,0.727539,-0.616211,0.588379,0
19810,0.680176,-0.563965,0.585449,0
19830,0.620117,-0.517578,0.60498,0
19850,0.61084,-0.526367,0.617676,0
19870,0.633301,-0.567871,0.612305,0
19890,0.604004,-0.574707,0.591309,0
19910,0.558105,-0.540527,0.549805,0
19930,0.512207,-0.509277,0.553711,0
19950,0.4375,-0.519531,0.597656,0
19970,0.40625,-0.561523,0.600586,0
19990,0.455078,-0.608398,0.55957,0
20010,0.486816,-0.562012,0.557617,0
20020,0.530273,-0.545898,0.59668,0
20040,0.554688,-0.550781,0.65918,0
20060,0.612793,-0.562988,0.651855,0
20090,0.645508,-0.566895,0.744141,0
20110,0.627441,-0.528809,0.753906,0
20130,0.619141,-0.519043,0.727539,0
20150,0.621582,-0.546387,0.714355,0
20170,0.594238,-0.57666,0.708984,0
20190,0.581055,-0.585938,0.708496,0
20210,0.583984,-0.597168,0.69873,0
20230,0.581055,-0.579102,0.662109,0
20250,0.603516,-0.571777,0.615234,0
20270,0.637695,-0.56543,0.592285,0
20290,0.669922,-0.556641,0.563965,0
20310,0.67627,-0.544434,0.541992,0
20330,0.666504,-0.5625,0.511719,0
20350,0.676758,-0.553223,0.524902,0
20370,0.678711,-0.552734,0.496582,0
20390,0.649902,-0.568359,0.510742,0
20410,0.56543,-0.574219,0.51709,0
20430,0.444336,-0.63623,0.495605,0
20460,0.305664,-0.681152,0.556641,0
20490,0.256348,-0.637695,0.592773,0
20510,0.308105,-0.61377,0.593262,0
20530,0.391602,-0.606445,0.564453,0
20540,0.466797,-0.62793,0.560547,0
20560,0.544434,-0.690918,0.556152,0
20580,0.588867,-0.720703,0.57373,0
20600,0.611816,-0.725098,0.610352,0
20620,0.622559,-0.760254,0.585938,0
20640,0.608887,-0.719238,0.554199,0
20660,0.59668,-0.637207,0.553711,0
20680,0.61377,-0.624512,0.554688,0
20700,0.641602,-0.64209,0.545898,0
20720,0.625488,-0.621094,0.549316,0
20740,0.599121,-0.576172,0.598633,0
20760,0.596191,-0.568359,0.611816,0
20780,0.589844,-0.58252,0.609863,0
20800,0.59375,-0.565918,0.586426,0
20820,0.595703,-0.575195,0.57373,0
20840,0.555664,-0.575195,0.613281,0
20860,0.578125,-0.585449,0.610352,0
20880,0.586426,-0.565918,0.563965,0
20900,0.570312,-0.543945,0.541504,0
20920,0.571289,-0.516602,0.584473,0
20940,0.601074,-0.505371,0.618652,0
20960,0.609375,-0.500977,0.567383,0
20980,0.579102,-0.501953,0.564453,0
21000,0.589355,-0.527832,0.568848,0
21020,0.585449,-0.546387,0.580566,0
21040,0.572754,-0.581055,0.603027,0
21060,0.59082,-0.624512,0.606445,0
21080,0.638184,-0.67041,0.590332,0
21100,0.645508,-0.711914,0.579102,0
21120,0.649902,-0.678223,0.577148,0
21140,0.649902,-0.608398,0.588867,0
21160,0.634766,-0.600098,0.581055,0
21180,0.606934,-0.638672,0.563965,0
21200,0.601562,-0.67041,0.568359,0
21220,0.562988,-0.679199,0.569824,0
21240,0.51709,-0.648926,0.541992,0
21260,0.496094,-0.629395,0.541016,0
21280,0.487305,-0.633789,0.552734,0
21300,0.481934,-0.654785,0.54541,0
21320,0.479004,-0.662109,0.54541,0
21340,0.462891,-0.652832,0.568848,0
21360,0.432617,-0.652832,0.591309,0
21380,0.437012,-0.67627,0.587402,0
21400,0.462402,-0.699219,0.562988,0
21420,0.482422,-0.678711,0.555664,0
21440,0.499512,-0.648926,0.541992,0
21460,0.492676,-0.661621,0.538574,0
21480,0.483887,-0.638184,0.574707,0
21500,0.499512,-0.636719,0.598633,0
21520,0.521973,-0.64502,0.575195,0
21540,0.534668,-0.64502,0.549805,0
21560,0.54248,-0.632324,0.537598,0
21580,0.552246,-0.642578,0.540039,0
21600,0.527344,-0.671875,0.554199,0
21620,0.518066,-0.682617,0.567871,0
21640,0.535156,-0.680176,0.567383,0
21670,0.557129,-0.649902,0.579102,0
21690,0.572266,-0.651367,0.558594,0
21710,0.562988,-0.686523,0.558594,0
21730,0.541016,-0.684082,0.580078,0
21750,0.509277,-0.712891,0.57373,0
21770,0.486816,-0.720215,0.578125,0
21790,0.505859,-0.692383,0.581055,0
21810,0.512207,-0.698242,0.576172,0
21830,0.505859,-0.705078,0.578613,0
21850,0.504395,-0.733887,0.562988,0
21870,0.515137,-0.728027,0.57373,0
21890,0.53125,-0.716309,0.563965,0
21910,0.545898,-0.719238,0.555664,0
21930,0.554688,-0.715332,0.542969,0
21950,0.544922,-0.703125,0.536621,0
21970,0.52002,-0.702637,0.544434,0
21990,0.5,-0.730957,0.544922,0
22010,0.473633,-0.748535,0.53418,0
22030,0.436035,-0.740723,0.519531,0
22050,0.404297,-0.701172,0.532227,0
22070,0.364258,-0.678223,0.52832,0
22090,0.34668,-0.695801,0.541992,0
22110,0.369141,-0.710938,0.539062,0
22130,0.400879,-0.716797,0.54541,0
22150,0.400391,-0.704102,0.538086,0
22170,0.416992,-0.686035,0.532715,0
22190,0.434082,-0.691406,0.536133,0
22210,0.464844,-0.691895,0.541016,0
22230,0.499023,-0.711914,0.546875,0
22250,0.528809,-0.732422,0.532715,0
22270,0.548828,-0.709473,0.523438,0
22290,0.513184,-0.70752,0.537598,0
22310,0.499512,-0.697266,0.552246,0
22330,0.536133,-0.710938,0.564453,0
22350,0.542969,-0.708496,0.547852,0
22370,0.529785,-0.723145,0.529297,0
22390,0.501465,-0.734863,0.537598,0
22410,0.486328,-0.733398,0.534668,0
22430,0.430664,-0.73877,0.525879,0
22450,0.359375,-0.722656,0.536133,0
22470,0.355469,-0.72168,0.530762,0
22490,0.376465,-0.728516,0.547852,0
22510,0.381348,-0.739746,0.541504,0
22530,0.382324,-0.753906,0.544922,2000
22550,0.406738,-0.768555,0.553711,0
22570,0.43457,-0.766602,0.541992,0
22590,0.444336,-0.75,0.551758,0
22610,0.435547,-0.718262,0.529785,0
22630,0.430176,-0.743652,0.528809,0
22650,0.4375,-0.738281,0.577637,0
22670,0.454102,-0.727051,0.54834,0
22690,0.469727,-0.766602,0.557129,0
22710,0.459961,-0.75293,0.539551,0
22730,0.432617,-0.706543,0.535156,0
22750,0.45459,-0.728027,0.54541,0
22770,0.471191,-0.757324,0.540527,0
22790,0.430664,-0.768066,0.543457,0
22810,0.415039,-0.750977,0.550293,0
22830,0.460449,-0.712891,0.551758,0
22850,0.461914,-0.701172,0.52832,0
22870,0.417969,-0.73877,0.530762,0
22890,0.416504,-0.739258,0.558105,0
22910,0.425293,-0.776855,0.554199,0
22930,0.431152,-0.768555,0.53125,0
22950,0.424805,-0.712402,0.518066,0
22970,0.393066,-0.717285,0.51709,0
22990,0.375488,-0.76123,0.546387,0
23010,0.368164,-0.773438,0.536621,0
23030,0.349121,-0.750488,0.528809,0
23050,0.299316,-0.736328,0.500488,0
23070,0.251465,-0.76416,0.499023,0
23090,0.254395,-0.772461,0.557129,0
23110,0.364746,-0.763672,0.587891,0
23130,0.472656,-0.745605,0.522461,0
23150,0.498047,-0.722168,0.494141,0
23160,0.489746,-0.723633,0.515625,0
23180,0.558105,-0.716309,0.503906,0
23200,0.598633,-0.734863,0.478516,0
23220,0.589355,-0.725586,0.464355,0
23240,0.693359,-0.647461,0.413086,0
23260,0.720215,-0.652344,0.412109,0
23280,0.760742,-0.677246,0.394043,0
23300,0.714844,-0.660645,0.379883,0
23320,0.598633,-0.634277,0.411133,0
23340,0.583496,-0.645996,0.393066,0
23360,0.611816,-0.658203,0.408203,0
23390,0.618652,-0.677734,0.416504,0
23410,0.552246,-0.707031,0.41748,0
23430,0.512695,-0.686035,0.44043,0
23450,0.552734,-0.709473,0.40918,0
23470,0.605469,-0.709961,0.438965,0
23490,0.573242,-0.689453,0.490723,0
23510,0.583496,-0.702637,0.475098,0
23530,0.620605,-0.691895,0.453613,0
23550,0.625977,-0.64502,0.460938,0
23570,0.692871,-0.62207,0.458496,0
23590,0.711914,-0.610352,0.442383,0
23610,0.756348,-0.600586,0.427734,0
23630,0.832031,-0.577148,0.433594,0
23650,0.877441,-0.536621,0.429688,0
23670,0.918457,-0.473145,0.432617,0
23690,0.987305,-0.380859,0.459961,0
23710,1.03174,-0.311523,0.426758,0
23730,1.06201,-0.272949,0.390625,0
23750,1.1333,-0.234375,0.388184,0
23770,1.20605,-0.23584,0.418945,0
23790,1.16211,-0.294922,0.459473,0
23810,1.09229,-0.321289,0.506836,0
23830,1.0459,-0.347656,0.59082,0
23850,0.962891,-0.276855,0.636719,0
23870,0.928223,-0.232422,0.646973,0
23890,0.919922,-0.321777,0.674805,0
23910,0.80957,-0.317383,0.780762,0
23930,0.609375,-0.312012,0.83252,0
23950,0.535156,-0.371582,0.812988,0
23970,0.556152,-0.388184,0.859375,0
23990,0.457031,-0.372559,0.841309,0
24010,0.406738,-0.365723,0.869141,0
24030,0.364746,-0.433105,0.853027,0
24050,0.36084,-0.496582,0.870605,0
24070,0.359863,-0.550293,0.870117,0
24090,0.376465,-0.55957,0.833496,0
24110,0.319336,-0.487305,0.84668,0
24130,0.17041,-0.508301,0.77832,0
24150,0.090332,-0.523926,0.727051,0
24170,0.0458984,-0.486816,0.707031,0
24190,-0.0229492,-0.5,0.658203,0
24210,-0.104492,-0.524902,0.566406,0
24250,-0.0629883,-0.598633,0.499512,0
24270,-0.0615234,-0.657227,0.464355,0
24290,-0.019043,-0.752441,0.437012,0
24310,0.0649414,-0.855957,0.387207,0
24330,0.117188,-0.903809,0.353516,0
24350,0.17627,-0.904785,0.381348,0
24370,0.258301,-0.937988,0.373535,0
24390,0.36377,-1.0166,0.32666,0
24410,0.382324,-1.01807,0.339355,0
24430,0.307129,-0.937012,0.347656,0
24450,0.29248,-0.942383,0.29248,0
24470,0.431641,-0.976562,0.248047,0
24490,0.658691,-0.922852,0.286621,0
24510,0.741211,-0.845215,0.300781,0
24530,0.626465,-0.776367,0.274414,0
24550,0.566895,-0.855469,0.222168,0
24570,0.705566,-0.881348,0.245605,0
24590,0.928223,-0.845703,0.214844,0
24610,0.90332,-0.739746,0.209473,0
24630,0.739746,-0.649414,0.208984,0
24650,0.734863,-0.575195,0.178223,0
24670,0.993164,-0.573242,0.139648,0
24690,1.10156,-0.57959,0.150879,0
24710,1.00684,-0.535156,0.132324,0
24730,0.937012,-0.419922,0.11084,0
24750,1.03418,-0.344238,0.169434,0
24770,1.09912,-0.30127,0.16748,0
24790,1.11523,-0.279785,0.140137,0
24810,1.06836,-0.233887,0.223633,0
24830,1.07959,-0.204102,0.261719,0
24850,1.13135,-0.166016,0.23877,0
24870,1.17529,-0.140625,0.253418,0
24890,1.19531,-0.0834961,0.265625,0
24910,1.2207,-0.0810547,0.303711,0
24930,1.22168,-0.118652,0.327637,0
24950,1.20703,-0.152344,0.338379,0
24970,1.12207,-0.189453,0.413086,0
24990,1.03857,-0.211914,0.432129,0
25010,1.03223,-0.229004,0.435059,0
25030,0.995117,-0.229004,0.513184,0
25050,0.867188,-0.230469,0.52832,0
25070,0.774414,-0.291992,0.540527,0
25090,0.766602,-0.331543,0.594238,0
25110,0.728027,-0.347656,0.650391,0
25130,0.580566,-0.423828,0.646973,0
25150,0.560059,-0.484375,0.593262,0
25170,0.632812,-0.478027,0.67334,0
25190,0.568359,-0.532715,0.688477,0
25210,0.500977,-0.632324,0.662109,0
25230,0.363281,-0.652832,0.655273,0
25250,0.214355,-0.651367,0.618164,0
25270,0.211914,-0.632324,0.620117,0
25290,0.158203,-0.618652,0.586914,0
25310,0.03125,-0.682129,0.476074,0
25330,0.0195312,-0.709961,0.441406,0
25360,0.0917969,-0.792969,0.396973,0
25380,0.074707,-0.851074,0.353516,0
25400,0.0385742,-0.896484,0.282715,0
25420,0.0830078,-0.922852,0.253906,0
25440,0.243164,-0.899414,0.251465,0
25460,0.367676,-0.899414,0.28125,0
25480,0.361816,-0.911621,0.242188,0
25500,0.369629,-0.952637,0.229492,0
25520,0.453125,-1.01514,0.164551,0
25540,0.578125,-0.974609,0.108398,0
25560,0.645508,-0.928711,0.0595703,0
25580,0.617676,-0.842773,0.019043,0
25600,0.621094,-0.779785,0.00976562,0
25620,0.686035,-0.793457,0.00341797,0
25640,0.813477,-0.779297,-0.00878906,0
25660,0.89209,-0.775879,-0.034668,0
25680,0.88916,-0.736816,-0.0615234,0
25700,0.922363,-0.595703,-0.0825195,0
25720,0.973145,-0.523926,-0.0888672,0
25740,1.01318,-0.489258,-0.0761719,0
25760,1.04785,-0.436523,-0.108887,0
25780,1.08936,-0.394043,-0.144531,0
25800,1.12305,-0.302734,-0.078125,0
25820,1.1792,-0.246094,-0.0380859,0
25840,1.19922,-0.191895,-0.0297852,0
25860,1.16895,-0.133789,-0.027832,0
25880,1.1665,-0.0874023,-0.00537109,0
25900,1.1748,-0.0649414,0.0732422,0
25920,1.16846,-0.046875,0.112793,0
25940,1.15576,-0.0307617,0.111328,0
25960,1.13135,-0.0161133,0.17041,0
25980,1.12842,-0.00537109,0.199707,0
26000,1.11963,-0.0224609,0.23584,0
26020,1.07959,-0.0561523,0.275391,0
26040,1.03223,-0.0898438,0.355957,0
26060,0.960938,-0.145508,0.396973,0
26080,0.945801,-0.212402,0.428223,0
26090,1.00488,-0.222656,0.421387,0
26110,0.983887,-0.225586,0.475098,0
26130,0.905273,-0.222656,0.564453,0
26150,0.856934,-0.354004,0.557617,0
26170,0.833984,-0.365723,0.625,0
26190,0.618164,-0.376465,0.707031,0
26210,0.408203,-0.375488,0.646973,0
26230,0.485352,-0.411621,0.645996,0
26250,0.414062,-0.48291,0.655762,0
26260,0.404297,-0.535645,0.639648,0
26280,0.447266,-0.57959,0.616211,0
26300,0.414062,-0.661133,0.587891,0
26320,0.35791,-0.703125,0.569824,0
26340,0.327637,-0.713867,0.523438,0
26360,0.37793,-0.705566,0.55127,0
26380,0.376465,-0.661133,0.505371,0
26400,0.307129,-0.702148,0.429199,0
26420,0.268555,-0.776367,0.40332,0
26440,0.312012,-0.802734,0.344238,0
26460,0.416992,-0.804688,0.333984,0
26480,0.390137,-0.783203,0.307617,0
26500,0.345215,-0.786621,0.304199,0
26520,0.39502,-0.832031,0.290527,0
26540,0.516602,-0.865723,0.272949,0
26560,0.570312,-0.897461,0.227051,0
26580,0.547852,-0.849609,0.200684,0
26600,0.481445,-0.80957,0.188965,0
26620,0.556641,-0.821777,0.139648,0
26640,0.627441,-0.864746,0.121094,0
26660,0.617188,-0.873047,0.121094,0
26680,0.549805,-0.880371,0.119141,0
26700,0.534668,-0.847168,0.0888672,0
26720,0.606934,-0.815918,0.090332,0
26740,0.700195,-0.765625,0.0463867,0
26760,0.746094,-0.759766,0.034668,0
26780,0.679688,-0.764648,0.0678711,0
26800,0.646484,-0.745117,0.0849609,0
26820,0.647461,-0.647949,0.0639648,0
26840,0.79248,-0.663574,0.0258789,0
26860,0.960449,-0.585938,0.00683594,0
26880,0.94873,-0.55957,0.0234375,0
26900,0.921875,-0.581055,0.0131836,0
26920,0.988281,-0.590332,0.00830078,0
26940,1.04297,-0.567871,-0.0395508,0
26960,1.03125,-0.516113,-0.0800781,0
26980,1.01758,-0.452637,-0.0869141,0
27000,1.00244,-0.430176,-0.0927734,0
27020,0.998047,-0.440918,-0.097168,0
27040,1.02197,-0.444824,-0.113281,0
27060,1.03076,-0.425781,-0.13623,0
27080,0.976562,-0.416016,-0.102539,0
27100,0.95752,-0.401855,-0.0786133,0
27120,0.962891,-0.377441,-0.0644531,2001
27140,0.929199,-0.402832,-0.0253906,0
27160,0.88623,-0.410645,0.0180664,0
27180,0.875,-0.420898,0.0283203,0
27200,0.876953,-0.449219,0.0214844,0
27220,0.878906,-0.451172,0.027832,0
27240,0.884766,-0.46582,0.0200195,0
27260,0.913574,-0.494141,-0.00195312,0
27280,0.932617,-0.506836,-0.00488281,0
27300,0.939941,-0.476074,-0.00634766,0
27320,0.900391,-0.468262,0.0209961,0
27340,0.821289,-0.485352,0.0375977,0
27360,0.752441,-0.518066,0.0585938,0
27380,0.731934,-0.509277,0.0498047,0
27400,0.742188,-0.465332,0.0224609,0
27420,0.689453,-0.450195,0.0161133,0
27440,0.569824,-0.418945,0.059082,0
27460,0.443848,-0.410645,0.0512695,0
27480,0.435547,-0.506348,-0.0126953,0
27500,0.567383,-0.504395,-0.027832,0
27520,0.661621,-0.481445,0.0380859,0
27540,0.597168,-0.446289,0.102051,0
27560,0.48291,-0.374023,0.146484,0
27580,0.427734,-0.338379,0.166504,0
27600,0.501465,-0.39209,0.137207,0
27620,0.589355,-0.433105,0.171387,0
27640,0.583984,-0.422363,0.238281,0
27660,0.577148,-0.387207,0.342773,0
27680,0.680176,-0.437988,0.367676,0
27700,0.85498,-0.537598,0.479004,0
27720,0.935547,-0.66748,0.615234,0
27740,1.01855,-0.821777,0.499023,0
27760,1.18164,-0.958008,0.469238,0
27780,1.29102,-0.912598,0.725586,0
27800,1.20068,-0.729004,0.868652,0
27820,0.8125,-0.543945,0.871094,0
27840,0.720703,-0.414062,0.891602,0
27860,0.647949,-0.373535,0.911621,0
27880,0.405762,-0.448242,0.844238,0
27900,0.185547,-0.51123,0.893066,0
27920,0.158203,-0.736816,0.981445,0
27940,0.214355,-0.935547,0.989746,0
27960,0.15918,-0.876465,1.0249,0
27980,0.127441,-0.745117,0.997559,0
28000,0.119141,-0.656738,0.94043,0
28020,0.11377,-0.618652,0.870605,0
28040,0.114746,-0.604004,0.871094,0
28050,0.0830078,-0.621582,0.87793,0
28070,0.0532227,-0.626953,0.880859,0
28090,0.015625,-0.637207,0.888184,0
28110,-0.00390625,-0.606934,0.870605,0
28130,-0.0185547,-0.572266,0.827637,0
28150,-0.0292969,-0.577148,0.808594,0
28170,-0.0620117,-0.568359,0.80957,0
28190,-0.0849609,-0.566895,0.797363,0
28210,-0.0991211,-0.585938,0.772461,0
28230,-0.120117,-0.621094,0.770508,0
28250,-0.123047,-0.629883,0.791016,0
28270,-0.122559,-0.677734,0.81543,0
28290,-0.125488,-0.71875,0.791504,0
28310,-0.0678711,-0.773438,0.788086,0
28330,-0.00488281,-0.754883,0.833496,0
28350,0.0161133,-0.694336,0.854492,0
28370,0.0327148,-0.693359,0.856445,0
28390,0.0825195,-0.736816,0.86377,0
28410,0.134277,-0.767578,0.852051,0
28430,0.134277,-0.767578,0.831055,0
28450,0.128906,-0.784668,0.850098,0
28470,0.158203,-0.780273,0.838867,0
28490,0.152832,-0.769043,0.82373,0
28510,0.154297,-0.724609,0.776367,0
28570,0.240723,-0.779785,0.484375,0
28590,0.215332,-0.797852,0.450684,0
28610,0.165527,-0.806641,0.424316,0
28630,0.178711,-0.82373,0.429199,0
28650,0.223145,-0.839355,0.427734,0
28670,0.236328,-0.804199,0.414551,0
28690,0.257812,-0.790039,0.400391,0
28710,0.27832,-0.790527,0.431641,0
28730,0.291992,-0.813965,0.42627,0
28750,0.32666,-0.818848,0.427734,0
28770,0.363281,-0.806152,0.411621,0
28790,0.347656,-0.820312,0.399414,0
28810,0.321289,-0.82373,0.408691,0
28830,0.349609,-0.816406,0.427734,0
28850,0.381836,-0.801758,0.405762,0
28870,0.375977,-0.821777,0.397461,0
28890,0.351074,-0.82959,0.395508,0
28910,0.338379,-0.816406,0.431152,0
28930,0.362305,-0.82959,0.44873,0
28950,0.396484,-0.827148,0.433594,0
28970,0.397949,-0.819336,0.414062,0
28990,0.393066,-0.806641,0.421875,0
29010,0.397461,-0.817383,0.426758,0
29030,0.385254,-0.850098,0.42627,0
29050,0.396484,-0.863281,0.44873,2000
29060,0.434082,-0.86377,0.444336,0
29080,0.464355,-0.838867,0.42627,0
29100,0.445312,-0.785645,0.462402,0
29120,0.424316,-0.784668,0.437012,0
29140,0.426758,-0.819824,0.409668,0
29160,0.365723,-0.841309,0.463867,0
29180,0.313477,-0.864746,0.465332,0
29200,0.310547,-0.846191,0.44873,0
29220,0.32373,-0.841309,0.426758,0
29240,0.311523,-0.814941,0.452637,0
29260,0.301758,-0.830078,0.446777,0
29280,0.30957,-0.816895,0.446777,0
29300,0.300293,-0.855957,0.478027,0
29320,0.27832,-0.852539,0.468262,0
29340,0.21875,-0.841309,0.470215,0
29360,0.194824,-0.822266,0.441895,0
29380,0.233398,-0.85498,0.431152,0
29400,0.256836,-0.854492,0.426758,0
29420,0.245117,-0.851562,0.411621,0
29440,0.211914,-0.84375,0.413086,0
29460,0.233887,-0.827148,0.460449,0
29480,0.375488,-0.84082,0.45752,0
29500,0.471191,-0.867676,0.44043,0
29520,0.44043,-0.844238,0.411621,0
29540,0.35498,-0.790039,0.404297,0
29560,0.387207,-0.84082,0.383789,0
29580,0.554688,-0.792969,0.437012,0
29600,0.611816,-0.711426,0.353516,0
29620,0.650879,-0.699707,0.308105,0
29640,0.729492,-0.67627,0.320312,0
29640,0.858887,-0.525879,0.39502,0
29660,0.946289,-0.478027,0.351562,0
29680,0.962891,-0.432617,0.344238,0
29700,1.00928,-0.369141,0.395508,0
29720,1.12891,-0.391113,0.418457,0
29740,1.21631,-0.427246,0.406738,0
29760,1.13525,-0.438965,0.44043,0
29780,1.02588,-0.366211,0.526367,0
29800,1.01367,-0.328613,0.603027,0
29820,1.06982,-0.319824,0.617188,0
29840,1.02002,-0.314453,0.679199,0
29860,0.843262,-0.30957,0.743164,0
29880,0.762207,-0.317383,0.748535,0
29900,0.774902,-0.355957,0.786621,0
29920,0.776367,-0.321777,0.783203,0
29940,0.682617,-0.295898,0.805664,0
29960,0.480957,-0.302734,0.857422,0
29980,0.395508,-0.368164,0.846191,0
30000,0.418945,-0.433594,0.811035,0
30020,0.400391,-0.449219,0.824707,0
30040,0.277344,-0.40625,0.812012,0
30060,0.212891,-0.404297,0.797363,0
30080,0.237793,-0.438965,0.77832,0
30100,0.26709,-0.472656,0.78418,0
30120,0.228027,-0.559082,0.788086,0
30140,0.157227,-0.619629,0.758789,0
30160,0.0966797,-0.643066,0.70459,0
30190,0.0927734,-0.658203,0.636719,0
30210,0.0649414,-0.67334,0.585938,0
30230,-0.00439453,-0.686523,0.585449,0
30250,0.0185547,-0.716797,0.537109,0
30270,0.0546875,-0.784668,0.455078,0
30290,0.0625,-0.791016,0.410156,0
30310,0.0380859,-0.815918,0.370117,0
30330,0.0551758,-0.877441,0.33252,0
30350,0.0888672,-0.947266,0.277832,0
30370,0.116699,-1.00049,0.27002,0
30390,0.148926,-0.981934,0.260742,0
30410,0.150391,-0.970703,0.240723,0
30430,0.127441,-0.964355,0.200195,0
30450,0.115234,-1.0249,0.197754,0
30470,0.187012,-1.04932,0.222656,0
30490,0.356445,-1.04541,0.231934,0
30510,0.449707,-0.95459,0.239746,0
30530,0.453125,-0.913574,0.215332,0
30550,0.520996,-0.87207,0.187988,0
30570,0.709473,-0.905762,0.203125,0
30590,0.827637,-0.821289,0.259766,0
30610,0.791504,-0.764648,0.227051,0
30630,0.730957,-0.64502,0.141113,0
30650,0.75,-0.563965,0.0854492,0
30670,0.824707,-0.52832,0.116211,0
30690,1.0752,-0.421875,0.200195,0
30710,1.20264,-0.375977,0.144531,0
30730,1.17188,-0.29248,0.0717773,0
30750,1.23584,-0.125488,0.0874023,0
30770,1.37549,0.0126953,0.17627,0
30790,1.39844,0.00976562,0.183105,0
30810,1.38525,-0.0390625,0.189941,0
30830,1.32178,-0.0317383,0.255371,0
30850,1.28369,-0.0214844,0.291016,0
30870,1.28613,-0.0395508,0.367676,0
30890,1.24268,-0.0273438,0.423828,0
30910,1.15039,-0.0683594,0.508789,0
30930,1.11816,-0.0864258,0.559082,0
30950,1.09277,-0.132324,0.588867,0
30970,1.00342,-0.156738,0.62207,0
30990,0.901855,-0.17627,0.643555,0
31010,0.84375,-0.163574,0.682617,0
31030,0.782715,-0.237793,0.815918,0
31050,0.750488,-0.391113,0.899902,0
31070,0.686035,-0.475098,0.870117,0
31090,0.471191,-0.437012,0.816406,0
31110,0.13623,-0.373535,0.760742,0
31120,-0.146484,-0.37207,0.705566,0
31140,-0.129883,-0.459961,0.61084,0
31160,0.043457,-0.622559,0.552734,0
31180,0.0415039,-0.580078,0.488281,0
31200,-0.0527344,-0.666992,0.474121,0
31220,-0.0239258,-0.750977,0.424805,0
31240,0.0385742,-0.831055,0.367676,0
31260,0.0908203,-0.887695,0.312988,0
31280,0.132812,-0.909668,0.260254,0
31300,0.157227,-0.945312,0.199707,0
31320,0.181641,-0.952637,0.166016,0
31340,0.166992,-0.96582,0.100586,0
31360,0.148926,-1.03809,0.0541992,0
31380,0.230957,-1.1123,0.0961914,0
31400,0.32959,-1.08301,0.111816,0
31420,0.378906,-0.983887,0.121582,0
31420,0.941895,-0.782227,0.0400391,0
31440,0.841797,-0.744629,-0.0112305,0
31460,0.838379,-0.691406,-0.0454102,0
31480,0.98584,-0.556641,-0.0351562,0
31500,1.18359,-0.472168,-0.0722656,0
31520,1.12695,-0.342773,-0.108887,0
31540,0.973633,-0.246094,-0.15625,0
31560,0.968262,-0.130371,-0.132812,0
31580,1.09082,-0.0722656,-0.0629883,0
31600,1.17529,-0.0483398,-0.0712891,0
31620,1.11426,0.00341797,-0.106445,0
31640,1.06152,0.0854492,-0.0200195,0
31660,1.07812,0.15625,0.0766602,0
31680,1.17432,0.206055,0.0551758,0
31700,1.21533,0.191406,0.129395,0
31720,1.16992,0.187012,0.200195,0
31740,1.15381,0.15625,0.193359,0
31750,1.18506,0.111816,0.240234,0
31780,1.24268,0.0991211,0.302246,0
31800,1.34082,0.13916,0.316406,0
31820,1.36816,0.12793,0.365234,0
31830,1.20361,0.111328,0.385742,0
31850,1.06836,0.0419922,0.417969,0
31870,0.959961,-0.0717773,0.496094,0
31890,0.912598,-0.202637,0.560547,0
31910,0.909668,-0.28125,0.514648,0
31930,0.861816,-0.268555,0.596191,0
31950,0.719238,-0.259277,0.638184,0
31970,0.594727,-0.274902,0.625,0
31990,0.476074,-0.358398,0.541992,0
32010,0.412109,-0.46875,0.554688,0
32030,0.282227,-0.51416,0.555176,0
32050,0.192871,-0.55957,0.518555,0
32070,0.177734,-0.657227,0.431152,0
32090,0.197266,-0.678223,0.364258,0
32110,0.17041,-0.722656,0.315918,0
32130,0.173828,-0.779785,0.280762,0
32150,0.278809,-0.831055,0.238281,0
32170,0.362793,-0.871094,0.204102,0
32190,0.392578,-0.901367,0.144043,0
32210,0.436035,-0.941406,0.11084,0
32230,0.548828,-0.955566,0.0976562,0
32250,0.575195,-0.956055,0.0869141,0
32270,0.617188,-0.952148,0.0805664,0
32290,0.672363,-0.896973,0.0488281,0
32310,0.678223,-0.860352,0.0224609,0
32330,0.654297,-0.826172,0.0141602,0
32350,0.68457,-0.808105,-0.0136719,0
32370,0.767578,-0.8125,-0.0341797,0
32390,0.830566,-0.72998,-0.0327148,0
32410,0.818359,-0.708496,-0.0317383,0
32430,0.741211,-0.678223,-0.0332031,0
32450,0.711426,-0.611328,-0.0395508,0
32470,0.73291,-0.561523,-0.0292969,0
32490,0.813965,-0.552734,0.00585938,0
32510,0.879395,-0.543457,-0.00439453,0
32530,0.959473,-0.506348,-0.0678711,0
32550,1.03809,-0.458984,-0.0771484,0
32570,1.0376,-0.430664,-0.0219727,0
32590,1.02393,-0.490723,-0.0546875,0
32610,1.05176,-0.516602,-0.109863,0
32630,1.0791,-0.493652,-0.10791,0
32650,1.06299,-0.438477,-0.112305,0
32670,1.02002,-0.399414,-0.141602,2001
32690,1.0166,-0.385254,-0.145508,0
32710,0.995605,-0.403809,-0.131836,0
32730,0.941895,-0.445312,-0.126465,0
32750,0.880859,-0.46875,-0.105469,0
32770,0.814941,-0.473145,-0.104492,0
32790,0.754883,-0.453125,-0.107422,0
32810,0.718262,-0.430664,-0.107422,0
32830,0.711426,-0.423828,-0.0898438,0
32850,0.706055,-0.477051,-0.0996094,0
32870,0.746582,-0.531738,-0.0888672,0
32890,0.819336,-0.550781,-0.0834961,0
32910,0.809082,-0.519531,-0.0742188,0
32930,0.72998,-0.462402,-0.00976562,0
32950,0.623535,-0.408691,0.0268555,0
32970,0.489258,-0.371582,0.0605469,0
32990,0.38916,-0.391113,0.0317383,0
33010,0.353027,-0.406738,0,0
33030,0.381836,-0.413086,-0.0332031,0
33050,0.497559,-0.402344,-0.00390625,0
33070,0.595703,-0.365234,0.0854492,0
33090,0.609375,-0.309082,0.187012,0
33110,0.644531,-0.330078,0.230957,0
33130,0.754883,-0.311035,0.166016,0
33150,1.00684,-0.38623,0.207031,0
33170,0.975586,-0.43457,0.414551,0
33190,0.865723,-0.417969,0.59668,0
33210,1.03076,-0.501465,0.557617,0
33230,1.32471,-0.563965,0.539551,0
33250,1.46631,-0.459961,0.608398,0
33270,1.42871,-0.342285,0.720215,0
33290,1.23682,-0.273926,0.765137,0
33310,1.1582,-0.239258,0.848145,0
33330,1.12109,-0.322266,0.910156,0
33350,1.01221,-0.420898,0.840332,0
33370,0.920898,-0.414062,0.882812,0
33390,0.872559,-0.460449,0.977051,0
33410,0.766602,-0.583496,0.953125,0
33430,0.711914,-0.680664,0.901855,0
33450,0.710938,-0.65625,0.907715,0
33470,0.688965,-0.603027,0.854492,0
33490,0.636719,-0.57373,0.799805,0
33510,0.588379,-0.56543,0.783691,0
33530,0.569336,-0.612305,0.730469,0
33550,0.556152,-0.616211,0.695312,0
33570,0.526855,-0.608398,0.669922,0
33590,0.405762,-0.615234,0.662598,0
33610,0.28125,-0.625977,0.621582,0
33630,0.251953,-0.662598,0.645996,0
33650,0.282715,-0.722168,0.588867,0
33670,0.275391,-0.740234,0.550293,0
33690,0.23291,-0.731445,0.554199,0
33710,0.227539,-0.712402,0.54834,0
33730,0.278809,-0.726074,0.558105,0
33750,0.342773,-0.76123,0.522461,0
33770,0.359863,-0.762207,0.470215,0
33790,0.321289,-0.746094,0.513672,0
33810,0.351562,-0.753906,0.57666,0
33830,0.382812,-0.797363,0.522949,0
33850,0.416504,-0.798828,0.44873,0
33870,0.371582,-0.729492,0.480469,0
33890,0.292969,-0.728516,0.54248,0
33910,0.324707,-0.785645,0.480469,0
33930,0.323242,-0.811035,0.449219,0
33950,0.244141,-0.818848,0.449219,0
33970,0.26123,-0.759766,0.472168,0
33990,0.282715,-0.761719,0.480957,0
34010,0.166016,-0.756836,0.459473,0
34030,0.127441,-0.779297,0.48877,0
34050,0.174316,-0.828613,0.469238,0
34070,0.169922,-0.795898,0.566895,0
34090,0.118652,-0.803711,0.555664,0
34110,0.104004,-0.884766,0.513672,0
34130,0.114746,-0.870605,0.511719,0
34150,0.106934,-0.869141,0.577637,0
34170,0.253906,-0.854492,0.641602,0
34190,0.44873,-0.814453,0.602539,0
34210,0.561035,-0.816406,0.509766,0
34230,0.588379,-0.770508,0.446289,0
34240,0.62793,-0.695312,0.496582,0
34270,0.741211,-0.656738,0.464355,0
34280,0.721191,-0.609863,0.389648,0
34300,0.766602,-0.584961,0.385742,0
34320,0.830566,-0.558105,0.382812,0
34340,0.825684,-0.513672,0.397461,0
34360,0.906738,-0.467773,0.431641,0
34380,1.01318,-0.42627,0.443848,0
34400,0.95459,-0.416504,0.456055,0
34420,0.843262,-0.356934,0.524902,0
34440,0.837402,-0.356934,0.625488,0
34460,0.773438,-0.373535,0.694824,0
34480,0.706543,-0.369141,0.71582,0
34500,0.743164,-0.305664,0.695801,0
34520,0.78125,-0.292969,0.660645,0
34540,0.791504,-0.298828,0.613281,0
34560,0.79248,-0.316895,0.601074,0
34580,0.82666,-0.334961,0.55127,0
34600,0.849609,-0.360352,0.553711,0
34620,0.847168,-0.408203,0.570801,0
34640,0.78125,-0.45459,0.568848,0
34660,0.783203,-0.521973,0.561035,0
34680,0.848145,-0.57373,0.575195,0
34700,0.831543,-0.609863,0.619141,0
34720,0.696777,-0.591309,0.556641,0
34740,0.598145,-0.555664,0.588867,0
34760,0.597656,-0.564941,0.60498,0
34780,0.617676,-0.625,0.556152,0
34800,0.587891,-0.714844,0.534668,0
34840,0.364258,-0.747559,0.522461,0
34860,0.307617,-0.676758,0.560547,0
34880,0.26123,-0.648438,0.547852,0
34900,0.23877,-0.719238,0.547363,0
34920,0.212402,-0.780273,0.599609,0
34930,0.198242,-0.834961,0.597656,0
34950,0.250977,-0.860352,0.57666,0
34970,0.334473,-0.821777,0.540527,0
34990,0.37793,-0.759766,0.534668,0
35010,0.392578,-0.754395,0.522461,0
35030,0.429688,-0.765137,0.522461,0
35050,0.484863,-0.780273,0.523926,0
35070,0.497559,-0.760742,0.51123,0
35090,0.493164,-0.732422,0.527344,0
35110,0.489746,-0.723145,0.554199,0
35130,0.446777,-0.693848,0.549805,0
35150,0.425293,-0.712402,0.503418,0
35170,0.402832,-0.710938,0.490723,0
35190,0.381836,-0.703125,0.522461,0
35210,0.380859,-0.741699,0.537598,0
35230,0.393066,-0.770996,0.493164,0
35250,0.396484,-0.724121,0.525879,2000
35270,0.431641,-0.654297,0.564941,0
35290,0.458496,-0.665527,0.60791,0
35310,0.45459,-0.787598,0.570312,0
35330,0.446289,-0.797363,0.530762,0
35350,0.443848,-0.614258,0.569824,0
35370,0.448242,-0.65918,0.592773,0
35390,0.41748,-0.821289,0.59375,0
35410,0.427246,-0.846191,0.507812,0
35430,0.411621,-0.713379,0.572754,0
35450,0.428711,-0.742188,0.587891,0
35470,0.417969,-0.759766,0.543945,0
35490,0.353027,-0.766113,0.565918,0
35510,0.34375,-0.758789,0.558105,0
35530,0.362793,-0.76709,0.557617,0
35550,0.346191,-0.797363,0.530762,0
35570,0.283691,-0.779297,0.509766,0
35590,0.219727,-0.792969,0.498535,0
35610,0.165039,-0.787598,0.533203,0
35630,0.155273,-0.780762,0.529785,0
35650,0.168457,-0.79834,0.527832,0
35670,0.194824,-0.792969,0.606934,0
35690,0.26709,-0.812012,0.577148,0
35710,0.373535,-0.803711,0.494629,0
35730,0.399902,-0.780273,0.472656,0
35750,0.382324,-0.779785,0.493652,0
35770,0.428711,-0.793945,0.503906,0
35790,0.626465,-0.736328,0.500488,0
35810,0.773926,-0.70166,0.478516,0
35840,0.735352,-0.560059,0.36377,0
35850,0.722168,-0.5625,0.336914,0
35870,0.708496,-0.563477,0.332031,0
35890,0.712402,-0.59375,0.344238,0
35910,0.735352,-0.631348,0.328125,0
35930,0.693848,-0.611328,0.384766,0
35950,0.669434,-0.583008,0.481445,0
35970,0.705078,-0.556641,0.577637,0
35990,0.743652,-0.523926,0.61084,0
36010,0.794434,-0.492188,0.623535,0
36030,0.897461,-0.433105,0.629395,0
36050,0.937012,-0.443848,0.626465,0
36070,0.922363,-0.437988,0.639648,0
36090,0.992676,-0.443848,0.644531,0
36110,0.991211,-0.422852,0.706055,0
36130,0.95166,-0.410645,0.740234,0
36150,0.858398,-0.39209,0.731445,0
36170,0.739746,-0.309082,0.74707,0
36190,0.6875,-0.274902,0.755859,0
36210,0.741699,-0.301758,0.800293,0
36230,0.767578,-0.282715,0.783203,0
36250,0.654297,-0.287109,0.814941,0
36270,0.535156,-0.291504,0.836914,0
36290,0.496582,-0.318848,0.851562,0
36310,0.489746,-0.342285,0.840332,0
36330,0.487305,-0.369141,0.853516,0
36350,0.527832,-0.397949,0.820312,0
36370,0.560547,-0.455566,0.790039,0
36390,0.539551,-0.454102,0.771973,0
36410,0.493164,-0.497559,0.762207,0
36430,0.507324,-0.473633,0.758789,0
36450,0.44043,-0.506836,0.768555,0
36470,0.305664,-0.557617,0.747559,0
36490,0.278809,-0.57666,0.682129,0
36510,0.304199,-0.625488,0.658691,0
36530,0.320312,-0.663574,0.620117,0
36550,0.285156,-0.651367,0.626465,0
36570,0.19873,-0.660156,0.647461,0
36590,0.0712891,-0.69873,0.571289,0
36610,-0.0317383,-0.707031,0.511719,0
36630,-0.136719,-0.730957,0.430664,0
36650,-0.15332,-0.78125,0.365723,0
36670,-0.102051,-0.76416,0.369629,0
36690,-0.0869141,-0.763184,0.313477,0
36710,-0.0512695,-0.851074,0.276367,0
36730,0.0258789,-0.89502,0.259766,0
36750,0.0605469,-0.943848,0.299316,0
36770,0.0991211,-0.960449,0.359375,0
36790,0.12207,-0.970703,0.374023,0
36810,0.124512,-0.961426,0.37207,0
36830,0.15332,-0.92627,0.367188,0
36850,0.216309,-0.918457,0.367188,0
36870,0.329102,-0.895508,0.404785,0
36890,0.499512,-0.918457,0.412598,0
36910,0.592773,-0.897461,0.365234,0
36930,0.649414,-0.851074,0.338379,0
36950,0.67627,-0.773438,0.292969,0
36970,0.77832,-0.755371,0.264648,0
36990,0.933105,-0.687988,0.227051,0
37010,0.930176,-0.705078,0.167969,0
37050,0.876465,-0.591797,0.118164,0
37070,0.96582,-0.51709,0.130371,0
37090,1.05469,-0.449707,0.0844727,0
37110,0.981445,-0.370605,0.03125,0
37130,1.02979,-0.244141,0.0834961,0
37150,1.21191,-0.130371,0.23584,0
37170,1.39551,-0.0830078,0.217773,0
37190,1.38721,-0.0771484,0.151855,0
37210,1.33838,-0.0424805,0.149414,0
37230,1.34326,-0.0668945,0.231445,0
37250,1.39844,-0.127441,0.277344,0
37270,1.36768,-0.165039,0.306152,0
37290,1.30908,-0.162109,0.411621,0
37310,1.22803,-0.153809,0.54248,0
37330,1.08887,-0.163574,0.553711,0
37350,1.0083,-0.21875,0.600586,0
37370,0.944336,-0.216309,0.663574,0
37390,0.817871,-0.283203,0.666016,0
37410,0.606934,-0.257812,0.760742,0
37430,0.536621,-0.284668,0.761719,0
37450,0.492188,-0.38916,0.765137,0
37470,0.395996,-0.505371,0.760742,0
37490,0.314453,-0.578125,0.708008,0
37510,0.234375,-0.555176,0.650391,0
37530,0.137695,-0.530273,0.609375,0
37550,0.0830078,-0.551758,0.567383,0
37570,0.0610352,-0.623047,0.49707,0
37590,0.0175781,-0.666016,0.413574,0
37610,-0.0268555,-0.731934,0.331055,0
37630,-0.0473633,-0.82666,0.275879,0
37650,-0.0317383,-0.85791,0.219727,0
37660,0.0390625,-0.899902,0.15625,0
37720,0.358887,-1.03223,0.17334,0
37760,0.326172,-0.994629,0.175293,0
37760,0.365234,-1.021,0.117188,0
37770,0.554199,-0.95752,0.102539,0
37790,0.660156,-0.783691,0.0708008,0
37800,0.740234,-0.751465,0.0263672,0
37820,0.966797,-0.759766,0.0283203,0
37840,1.03369,-0.67334,0.0239258,0
37860,0.95166,-0.577148,-0.0297852,0
37880,0.919922,-0.505371,-0.0898438,0
37900,1.05469,-0.429688,-0.186035,0
37920,1.18115,-0.333984,-0.178711,0
37940,1.18994,-0.260254,-0.208008,0
37960,1.10547,-0.209473,-0.192383,0
37980,1.14746,-0.0942383,-0.0761719,0
38000,1.22314,-0.0219727,0.00244141,0
38020,1.27344,0.0302734,-0.0273438,0
38040,1.27783,0.108398,0.0527344,0
38060,1.28027,0.167969,0.19043,0
38080,1.31299,0.162598,0.192871,0
38100,1.32568,0.0722656,0.193848,0
38120,1.22998,0.0302734,0.335449,0
38140,1.14941,-0.0180664,0.396973,0
38160,1.12109,-0.0688477,0.415527,0
38180,1.10059,-0.108398,0.463379,0
38200,1.04443,-0.182617,0.519531,0
38220,0.925293,-0.221191,0.575195,0
38240,0.814453,-0.267578,0.615723,0
38260,0.810059,-0.337891,0.65332,0
38280,0.835449,-0.335938,0.671387,0
38300,0.73291,-0.431152,0.668945,0
38320,0.513672,-0.525879,0.659668,0
38340,0.355957,-0.635254,0.61084,0
38360,0.368652,-0.65918,0.571777,0
38380,0.381348,-0.606445,0.539551,0
38400,0.243652,-0.620117,0.446777,0
38420,0.144043,-0.683594,0.427246,0
38440,0.0732422,-0.745605,0.354004,0
38460,0.0620117,-0.807129,0.299316,0
38480,0.0454102,-0.775391,0.193848,0
38500,0.12207,-0.821777,0.128906,0
38520,0.144043,-0.852539,0.108398,0
38540,0.218262,-0.901855,0.0698242,0
38560,0.354492,-0.955566,0.0332031,0
38580,0.436523,-0.942383,0.0605469,0
38600,0.54248,-0.92334,0.0371094,0
38620,0.555176,-0.956055,0.0078125,0
38640,0.520996,-0.945801,0.0141602,0
38660,0.521973,-0.930176,-0.00537109,0
38680,0.57959,-0.819824,-0.00683594,0
38700,0.678223,-0.759277,-0.0263672,0
38720,0.774902,-0.73291,-0.101562,0
38740,0.78125,-0.729004,-0.0522461,0
38760,0.691406,-0.753906,-0.0200195,0
38780,0.639648,-0.739746,-0.0498047,0
38800,0.8125,-0.685059,-0.0917969,0
38820,1.03125,-0.610352,-0.0200195,0
38840,1.05908,-0.59375,-0.015625,0
38860,0.962891,-0.542969,-0.0581055,0
38880,1.02246,-0.509766,-0.097168,0
38900,1.12158,-0.507812,-0.0561523,0
38920,1.13232,-0.541992,-0.0375977,0
38940,1.08594,-0.503906,-0.0834961,2001
38960,1.0332,-0.426758,-0.102051,0
38980,1.02295,-0.399414,-0.12207,0
39000,0.99707,-0.439941,-0.125488,0
39020,0.958008,-0.463379,-0.103027,0
39040,0.918945,-0.442383,-0.102051,0
39060,0.880371,-0.435059,-0.0888672,0
39080,0.844238,-0.445312,-0.0644531,0
39100,0.805664,-0.476074,-0.0517578,0
39120,0.773438,-0.497559,-0.0532227,0
39140,0.726074,-0.512207,-0.0439453,0
39160,0.640137,-0.515625,-0.0244141,0
39180,0.574707,-0.522949,-0.0195312,0
39200,0.563477,-0.494629,-0.00732422,0
39220,0.533203,-0.45459,0.046875,0
39240,0.456055,-0.450684,0.0766602,0
39260,0.342773,-0.436035,0.10791,0
39280,0.22168,-0.443359,0.0922852,0
39300,0.196289,-0.482422,0.0292969,0
39320,0.35498,-0.483398,0.046875,0
39340,0.495117,-0.421875,0.174805,0
39360,0.509766,-0.43457,0.256836,0
39380,0.524414,-0.500488,0.226562,0
39400,0.601074,-0.585449,0.202637,0
39410,0.850098,-0.612305,0.270996,0
39430,1.00537,-0.659668,0.456055,0
39450,1.00586,-0.647461,0.522461,0
39470,1.10547,-0.768555,0.500488,0
39490,1.42334,-0.743652,0.607422,0
39510,1.64062,-0.55957,0.835449,0
39530,1.32666,-0.319824,0.891113,0
39550,0.907227,-0.251465,0.792969,0
39570,0.910156,-0.14502,0.808105,0
39590,0.832031,-0.329102,0.888672,0
39610,0.620117,-0.480957,1.04297,0
39630,0.57373,-0.763184,1.06396,0
39650,0.607422,-0.961914,1.05957,0
39670,0.64209,-0.939941,1.02979,0
39690,0.682617,-0.751465,0.925293,0
39710,0.654297,-0.577148,0.884766,0
39730,0.586914,-0.489258,0.881348,0
39750,0.546875,-0.560059,0.84082,0
39770,0.524414,-0.657227,0.771484,0
39790,0.47998,-0.697266,0.727539,0
39800,0.422363,-0.689453,0.702148,0
39810,0.348145,-0.635254,0.650879,0
39830,0.299805,-0.64502,0.626953,0
39850,0.244629,-0.662109,0.602051,0
39870,0.241699,-0.666504,0.553223,0
39890,0.233887,-0.67041,0.570312,0
39910,0.275879,-0.696289,0.57373,0
39930,0.306152,-0.761719,0.528809,0
39950,0.305664,-0.771973,0.508789,0
39970,0.319824,-0.773438,0.513672,0
39990,0.332031,-0.729004,0.536621,0
40010,0.347656,-0.725586,0.511719,0
40030,0.355957,-0.765625,0.495117,0
40050,0.372559,-0.750488,0.525879,0
40070,0.387695,-0.716797,0.564941,0
40090,0.394531,-0.70752,0.570312,0
40110,0.434082,-0.72168,0.54248,0
40130,0.46582,-0.705078,0.546875,0
40150,0.479492,-0.669922,0.575195,0
40170,0.473145,-0.666504,0.556641,0
40190,0.492188,-0.713379,0.54834,0
40210,0.512207,-0.714355,0.548828,0
40230,0.490234,-0.677734,0.553223,0
40250,0.472656,-0.64502,0.570801,0
40270,0.443848,-0.678223,0.60498,0
40290,0.411133,-0.765625,0.597168,0
40310,0.406738,-0.719238,0.577637,0
40330,0.425293,-0.666992,0.572266,0
40350,0.401367,-0.724609,0.633789,0
40370,0.356445,-0.76416,0.586914,0
40390,0.317383,-0.706543,0.59375,0
40410,0.308594,-0.724609,0.567871,0
40430,0.286621,-0.748535,0.583984,0
40450,0.247559,-0.802246,0.587402,0
40470,0.193359,-0.793945,0.564453,0
40490,0.146973,-0.725586,0.577637,0
40510,0.132324,-0.786621,0.549316,0
40530,0.140137,-0.778809,0.52832,0
40550,0.0952148,-0.791504,0.55127,0
40570,0.0571289,-0.788086,0.549805,0
40590,0.112793,-0.834473,0.518066,0
40610,0.248047,-0.862793,0.476562,0
40630,0.336426,-0.84668,0.498047,0
40650,0.355957,-0.770508,0.572754,0
40670,0.422363,-0.750488,0.597656,0
40690,0.540527,-0.775391,0.491211,0
40710,0.527832,-0.746094,0.499023,0
40740,0.520508,-0.679688,0.520996,0
40760,0.657227,-0.655273,0.511719,0
40780,0.687988,-0.587891,0.461426,0
40800,0.731934,-0.52002,0.436523,0
40820,0.769531,-0.548828,0.409668,0
40840,0.855469,-0.590332,0.397461,0
40860,0.898438,-0.50293,0.436523,0
40870,1.00537,-0.417969,0.430176,0
40890,1.07861,-0.390625,0.408691,0
40910,1.02588,-0.378418,0.42627,0
40930,0.929688,-0.346191,0.466797,0
40950,0.97998,-0.32373,0.543457,0
40970,0.938965,-0.305176,0.654297,0
40990,0.886719,-0.324707,0.700195,0
41010,0.796875,-0.388184,0.693359,0
41030,0.744141,-0.369629,0.691895,0
41050,0.735352,-0.341309,0.729004,0
41070,0.728027,-0.264648,0.712402,0
41090,0.713379,-0.28125,0.682617,0
41110,0.714355,-0.256836,0.693848,0
41130,0.699219,-0.310059,0.642578,0
41150,0.717285,-0.327637,0.664062,0
41170,0.774902,-0.352539,0.70166,0
41190,0.773926,-0.40918,0.676758,0
41210,0.705566,-0.456543,0.651367,0
41230,0.673828,-0.462402,0.66748,0
41250,0.661133,-0.476074,0.706543,0
41270,0.643555,-0.563965,0.646973,0
41290,0.631348,-0.645508,0.587891,0
41310,0.599609,-0.675293,0.618164,0
41330,0.496582,-0.666992,0.629395,0
41350,0.407715,-0.686035,0.60498,0
41370,0.355957,-0.71582,0.568848,0
41390,0.313477,-0.723145,0.595215,0
41410,0.28418,-0.770508,0.594238,0
41430,0.209961,-0.804688,0.585938,0
41450,0.168945,-0.842285,0.553711,0
41470,0.253418,-0.8125,0.586914,0
41490,0.282227,-0.743652,0.574707,0
41510,0.230957,-0.740234,0.538086,0
41530,0.23877,-0.767578,0.556152,0
41550,0.301758,-0.749512,0.571777,0
41570,0.343262,-0.760742,0.540039,0
41590,0.381836,-0.770508,0.524414,0
41610,0.428223,-0.745117,0.546387,0
41630,0.441406,-0.740234,0.546387,0
41650,0.405273,-0.760742,0.518066,0
41670,0.40332,-0.77832,0.496582,0
41690,0.408203,-0.723145,0.530273,0
41710,0.38916,-0.688477,0.564941,0
41730,0.368652,-0.71875,0.558105,0
41750,0.359375,-0.745117,0.551758,2000
41770,0.352539,-0.708008,0.569336,0
41790,0.361328,-0.711426,0.586426,0
41810,0.351074,-0.713867,0.626953,0
41830,0.329102,-0.755371,0.571777,0
41850,0.382324,-0.713867,0.539062,0
41870,0.407715,-0.689941,0.59668,0
41890,0.364746,-0.739746,0.568848,0
41910,0.366211,-0.743164,0.600586,0
41930,0.401367,-0.762695,0.573242,0
41950,0.405273,-0.755371,0.559082,0
41970,0.393066,-0.754883,0.548828,0
41990,0.408691,-0.755371,0.540527,0
42010,0.366699,-0.749512,0.564941,0
42030,0.388672,-0.754883,0.512695,0
42050,0.433594,-0.75293,0.493652,0
42070,0.420898,-0.763184,0.527832,0
42090,0.353516,-0.784668,0.525391,0
42110,0.336914,-0.769531,0.510742,0
42130,0.35498,-0.783203,0.50293,0
42150,0.335449,-0.783691,0.492676,0
42170,0.314453,-0.783691,0.522949,0
42190,0.303223,-0.770508,0.55957,0
42210,0.316895,-0.79248,0.534668,0
42230,0.348145,-0.803711,0.510742,0
42250,0.431641,-0.809082,0.485352,0
42270,0.521484,-0.750488,0.510254,0
42290,0.509277,-0.757812,0.499512,0
42310,0.462891,-0.785156,0.486816,0
42330,0.499023,-0.795898,0.442871,0
42350,0.486328,-0.766602,0.445312,0
42370,0.476074,-0.707031,0.451172,0
42400,0.542969,-0.716309,0.449219,0
42430,0.61377,-0.717285,0.382812,0
42450,0.694824,-0.715332,0.397949,0
42470,0.751953,-0.644531,0.353027,0
42490,0.846191,-0.594727,0.345215,0
42510,0.92041,-0.527832,0.366211,0
42530,0.937988,-0.496094,0.376953,0
42550,0.932129,-0.437012,0.387207,0
42570,1.01416,-0.365723,0.425781,0
42590,1.1084,-0.364258,0.453125,0
42610,1.21338,-0.407715,0.480469,0
42630,1.146,-0.463867,0.505371,0
42650,1.06689,-0.508789,0.555664,0
42670,0.948242,-0.447266,0.689941,0
42690,0.975586,-0.349609,0.693359,0
42710,0.949707,-0.303223,0.695312,0
42730,0.780762,-0.26123,0.789551,0
42750,0.584473,-0.277344,0.879883,0
42770,0.617188,-0.402344,0.961914,0
42790,0.743652,-0.442383,0.956543,0
42810,0.757324,-0.458496,0.920898,0
42830,0.521484,-0.409668,0.883301,0
42850,0.188965,-0.36377,0.858398,0
42870,0.0629883,-0.464355,0.848145,0
42890,0.138672,-0.525391,0.784668,0
42910,0.157715,-0.57373,0.706543,0
42930,0.0424805,-0.533691,0.632324,0
42950,-0.0537109,-0.521973,0.628418,0
42970,0.00488281,-0.53125,0.609863,0
42990,0.0888672,-0.62207,0.557129,0
43010,0.124512,-0.770508,0.498047,0
43030,0.168457,-0.827148,0.463379,0
43050,0.188477,-0.836426,0.460938,0
43070,0.193848,-0.859863,0.395508,0
43090,0.159668,-0.90332,0.328613,0
43110,0.126953,-0.925293,0.268555,0
43130,0.119629,-0.958984,0.218262,0
43150,0.156738,-0.989746,0.192871,0
43170,0.217285,-0.994629,0.185547,0
43190,0.25293,-0.987793,0.209961,0
43210,0.259766,-0.971191,0.251465,0
43230,0.289551,-0.950195,0.262695,0
43250,0.361328,-0.937012,0.237793,0
43270,0.436035,-0.893066,0.233887,0
43290,0.581055,-0.896973,0.219238,0
43310,0.686035,-0.819824,0.234863,0
43330,0.718262,-0.741211,0.158203,0
43350,0.740723,-0.715332,0.0786133,0
43370,0.73291,-0.696777,0.0961914,0
43390,0.841797,-0.623535,0.147461,0
43410,0.94043,-0.58252,0.151367,0
43430,0.963867,-0.529297,0.126465,0
43470,0.99707,-0.391113,0.0664062,0
43490,1.15479,-0.258301,0.177734,0
43510,1.28223,-0.165039,0.207031,0
43530,1.29443,-0.17334,0.133789,0
43550,1.21338,-0.141113,0.114746,0
43570,1.28223,-0.0922852,0.219727,0
43590,1.35645,-0.109863,0.30127,0
43610,1.33154,-0.169922,0.292969,0
43630,1.25439,-0.162109,0.305176,0
43650,1.12451,-0.175293,0.38623,0
43670,1.07422,-0.148926,0.481445,0
43690,1.09473,-0.196777,0.54834,0
43710,1.08008,-0.25,0.588379,0
43720,1.0083,-0.216797,0.605957,0
43750,0.804199,-0.224609,0.599121,0
43770,0.688965,-0.30127,0.681641,0
43790,0.631836,-0.36377,0.754395,0
43800,0.649414,-0.424316,0.694336,0
43820,0.634277,-0.454102,0.726074,0
43840,0.517578,-0.451172,0.711914,0
43860,0.417969,-0.474121,0.666992,0
43880,0.310059,-0.532227,0.620605,0
43900,0.205566,-0.549805,0.608398,0
43920,0.255371,-0.619629,0.565918,0
43940,0.289551,-0.675293,0.524414,0
43960,0.265137,-0.694824,0.461914,0
43980,0.206055,-0.689453,0.415527,0
44000,0.146484,-0.767578,0.339844,0
44020,0.126465,-0.849121,0.31543,0
44040,0.132324,-0.868164,0.251953,0
44060,0.197266,-0.863281,0.21582,0
44080,0.244629,-0.893555,0.149414,0
44100,0.273926,-0.936523,0.0874023,0
44120,0.307617,-0.975586,0.102051,0
44140,0.386719,-0.966309,0.155273,0
44200,0.66748,-0.81543,0.0424805,0
44220,0.757324,-0.803711,0.0219727,0
44230,0.964355,-0.624512,0.0102539,0
44250,0.916016,-0.533691,-0.0200195,0
44270,0.856445,-0.473633,-0.0546875,0
44290,0.913574,-0.452148,-0.107422,0
44310,1.09521,-0.393555,-0.0820312,0
44330,1.13379,-0.318359,-0.0625,0
44350,1.06494,-0.229004,-0.129395,0
44370,1.04688,-0.143555,-0.113281,0
44390,1.10986,-0.0849609,-0.0175781,0
44410,1.1709,-0.0605469,0.0161133,0
44430,1.16699,-0.0283203,0.000976562,0
44450,1.16406,0.015625,0.0917969,0
44470,1.19336,0.0546875,0.175781,0
44490,1.25977,0.0581055,0.201172,0
44510,1.3252,0.0224609,0.263184,0
44530,1.27588,-0.0146484,0.307129,0
44550,1.17383,-0.0424805,0.291504,0
44570,1.11426,-0.0961914,0.371582,0
44590,1.11328,-0.117676,0.466309,0
44610,1.19922,-0.15332,0.542969,0
44630,1.12598,-0.264648,0.550293,0
44650,0.972168,-0.272461,0.600098,0
44670,0.904297,-0.325684,0.645996,0
44690,0.82373,-0.382324,0.61377,0
44710,0.659668,-0.388184,0.629395,0
44730,0.482422,-0.463867,0.583984,0
44750,0.486328,-0.50293,0.603516,0
44770,0.38916,-0.527344,0.591797,0
44790,0.162598,-0.602539,0.510742,0
44810,0.0761719,-0.595215,0.437012,0
44830,0.104492,-0.622559,0.428711,0
44850,0.254395,-0.687988,0.355957,0
44870,0.345703,-0.688477,0.333008,0
44890,0.403809,-0.745117,0.288086,0
44910,0.508301,-0.803223,0.259766,0
44930,0.521484,-0.862793,0.234375,0
44950,0.520996,-0.933105,0.154785,0
44970,0.57666,-0.910645,0.107422,0
44990,0.621094,-0.853027,0.0898438,0
45010,0.651855,-0.819336,0.0541992,0
45030,0.643555,-0.811035,0.0439453,0
45050,0.615234,-0.818848,0.0268555,0
45070,0.625488,-0.834961,0.0166016,0
45090,0.687012,-0.797852,-0.0439453,0
45110,0.719727,-0.756348,-0.0566406,0
45130,0.693359,-0.692871,-0.0463867,0
45150,0.67334,-0.666504,-0.0620117,0
45170,0.685547,-0.681641,-0.0390625,0
45190,0.751953,-0.684082,-0.00146484,0
45210,0.78125,-0.662109,-0.0234375,0
45230,0.759766,-0.629395,-0.0546875,0
45250,0.747559,-0.561523,-0.0512695,0
45270,0.792969,-0.489258,-0.0429688,0
45290,0.859863,-0.487793,-0.0610352,0
45310,0.927246,-0.547852,-0.0644531,0
45330,0.977539,-0.555664,-0.0776367,0
45350,1.03271,-0.525391,-0.121094,0
45370,1.06396,-0.481445,-0.132324,0
45390,1.05225,-0.48291,-0.128906,2001
45410,1.04639,-0.483887,-0.132324,0
45430,1.03418,-0.486816,-0.151855,0
45450,1.01807,-0.46582,-0.13916,0
45470,0.969238,-0.445312,-0.117188,0
45490,0.876953,-0.416992,-0.0830078,0
45510,0.80127,-0.422852,-0.0410156,0
45530,0.778809,-0.450684,-0.0424805,0
45550,0.76416,-0.444824,-0.0424805,0
45570,0.736328,-0.43457,-0.0415039,0
45590,0.724121,-0.424316,-0.0307617,0
45610,0.666504,-0.421875,0.0180664,0
45630,0.564941,-0.437988,0.0454102,0
45650,0.429688,-0.415527,0.0527344,0
45670,0.348633,-0.38916,0.0791016,0
45690,0.352051,-0.413574,0.0854492,0
45710,0.404297,-0.437012,0.0371094,0
45730,0.479492,-0.417969,0.0585938,0
45750,0.521484,-0.408203,0.0742188,0
45770,0.580078,-0.408691,0.0419922,0
45800,0.647949,-0.422363,0.216309,0
45820,0.717773,-0.519043,0.244629,0
45840,0.867676,-0.598145,0.279297,0
45860,1.04492,-0.592285,0.466797,0
45880,1.23242,-0.648438,0.585938,0
45900,1.36768,-0.65918,0.519043,0
45920,1.30908,-0.638672,0.521973,0
45940,1.1709,-0.444824,0.879395,0
45960,1.05029,-0.177246,0.991211,0
45980,0.932129,-0.200684,0.903809,0
46000,0.686523,-0.433105,0.882812,0
46020,0.47168,-0.691895,0.90918,0
46040,0.311523,-0.830566,0.997559,0
46060,0.20166,-0.833008,1.07178,0
46080,0.187988,-0.813965,0.976562,0
46100,0.203613,-0.736328,0.941406,0
46120,0.178223,-0.639648,0.924805,0
46140,0.163574,-0.614258,0.904785,0
46160,0.0317383,-0.57373,0.95459,0
46180,-0.0751953,-0.572754,1.07666,0
46200,0.0722656,-0.698242,1,0
46220,0.199707,-0.793945,0.980469,0
46240,0.205078,-0.818848,0.999023,0
46260,0.219238,-0.748047,0.941895,0
46280,0.271484,-0.690918,0.888184,0
46300,0.285645,-0.736328,0.836426,0
46320,0.277832,-0.758301,0.844238,0
46340,0.276367,-0.772949,0.80957,0
46360,0.282715,-0.777344,0.755859,0
46380,0.316895,-0.765625,0.717285,0
46400,0.3125,-0.716797,0.660645,0
46420,0.312988,-0.696289,0.605469,0
46440,0.323242,-0.654785,0.546387,0
46480,0.245117,-0.733398,0.466309,0
46500,0.268555,-0.728027,0.450195,0
46520,0.318848,-0.694824,0.446777,0
46540,0.332031,-0.699707,0.460449,0
46560,0.349609,-0.683594,0.430664,0
46580,0.397949,-0.679199,0.436035,0
46600,0.405762,-0.655762,0.476074,0
46620,0.386719,-0.687988,0.50293,0
46640,0.389648,-0.789062,0.490234,0
46660,0.445801,-0.847656,0.465332,0
46680,0.45166,-0.797852,0.483887,0
46700,0.432129,-0.74707,0.520508,0
46720,0.441895,-0.76123,0.521484,0
46740,0.469238,-0.773438,0.517578,0
46760,0.479492,-0.758789,0.525391,0
46780,0.44873,-0.757324,0.517578,0
46800,0.418457,-0.758301,0.519531,0
46820,0.431152,-0.77832,0.496094,0
46840,0.459473,-0.764648,0.501953,0
46860,0.45752,-0.745117,0.503418,0
46870,0.442383,-0.745605,0.505859,0
46890,0.469238,-0.759277,0.495117,0
46910,0.491211,-0.768066,0.487305,0
46930,0.466797,-0.750488,0.508301,0
46950,0.45166,-0.693848,0.529785,0
46970,0.520508,-0.697266,0.51123,0
46990,0.554688,-0.740234,0.471191,0
47010,0.570312,-0.733398,0.445312,0
47030,0.500488,-0.743652,0.46582,0
47050,0.485352,-0.741699,0.510254,0
47070,0.507812,-0.802246,0.522461,0
47090,0.451172,-0.790527,0.5,0
47110,0.428711,-0.739258,0.507812,0
47130,0.410156,-0.733398,0.48291,0
47150,0.416504,-0.779785,0.487305,0
47170,0.376465,-0.799316,0.520996,0
47190,0.303223,-0.782227,0.535645,0
47210,0.29834,-0.758789,0.503418,0
47230,0.322266,-0.763184,0.526367,0
47250,0.322754,-0.774414,0.506836,0
47270,0.296875,-0.805176,0.51123,0
47290,0.297363,-0.828125,0.51123,0
47310,0.322266,-0.807617,0.51123,0
47330,0.337891,-0.799316,0.510742,0
47350,0.328125,-0.808594,0.492676,0
47370,0.352539,-0.814941,0.474609,0
47390,0.380859,-0.788086,0.473145,0
47410,0.435059,-0.761719,0.460449,0
47430,0.499512,-0.790039,0.419434,0
47450,0.490723,-0.774414,0.432129,0
47470,0.493164,-0.762207,0.433105,0
47490,0.519043,-0.720215,0.396973,0
47510,0.619629,-0.767578,0.34668,0
47530,0.717285,-0.76709,0.316895,0
47550,0.697266,-0.729492,0.371582,0
47570,0.584961,-0.688477,0.369141,0
47570,0.679199,-0.691406,0.331543,0
47590,0.914551,-0.704102,0.276855,0
47610,0.919434,-0.655273,0.201172,0
47640,0.740234,-0.59668,0.225098,0
47640,0.704102,-0.57959,0.222656,0
47650,0.974609,-0.581543,0.258301,0
47680,0.730469,-0.684082,0.476562,0
47710,0.604004,-0.68457,0.508301,0
47730,0.518555,-0.669434,0.509277,0
47750,0.486816,-0.666016,0.561035,0
47770,0.496094,-0.695801,0.541992,0
47790,0.504883,-0.700195,0.52832,0
47810,0.504395,-0.710938,0.547363,0
47830,0.462891,-0.73291,0.543457,0
47850,0.365234,-0.713867,0.543457,0
47870,0.320801,-0.726562,0.557617,0
47890,0.376953,-0.765625,0.574219,0
47910,0.393555,-0.745117,0.562012,0
47930,0.356445,-0.745117,0.568359,0
47950,0.33252,-0.770996,0.544922,0
47970,0.370117,-0.776367,0.51709,0
47990,0.38623,-0.700195,0.53418,0
48010,0.387207,-0.678223,0.548828,0
48030,0.403809,-0.719727,0.507812,0
48050,0.416992,-0.76416,0.51123,0
48070,0.411133,-0.763672,0.529297,0
48090,0.444336,-0.696777,0.573242,0
48110,0.471191,-0.6875,0.558105,2000
48130,0.465332,-0.716309,0.552246,0
48150,0.500977,-0.725586,0.533691,0
48170,0.524902,-0.697266,0.55127,0
48190,0.517578,-0.675781,0.560059,0
48210,0.520508,-0.705566,0.556641,0
48230,0.52832,-0.731934,0.557129,0
48250,0.507324,-0.751465,0.544922,0
48270,0.493652,-0.685059,0.55127,0
48290,0.479004,-0.693359,0.540039,0
48310,0.463379,-0.723145,0.566406,0
48330,0.436035,-0.75293,0.554688,0
48350,0.426758,-0.762695,0.544922,0
48370,0.441406,-0.677734,0.527344,0
48390,0.414062,-0.697266,0.542969,0
48410,0.408203,-0.74707,0.529785,0
48430,0.387695,-0.758789,0.52002,0
48450,0.336914,-0.715332,0.584961,0
48470,0.367188,-0.740723,0.57373,0
48490,0.396973,-0.777832,0.557129,0
48510,0.395508,-0.724609,0.58252,0
48530,0.394531,-0.729004,0.534668,0
48550,0.410156,-0.703125,0.519043,0
48570,0.447754,-0.73584,0.496094,0
48590,0.463379,-0.750488,0.515137,0
48610,0.460938,-0.736328,0.506348,0
48630,0.483398,-0.719238,0.48291,0
48650,0.530273,-0.70459,0.45166,0
48670,0.610352,-0.709961,0.474609,0
48690,0.65918,-0.699707,0.466309,0
48710,0.633301,-0.680664,0.44043,0
48730,0.612793,-0.694336,0.420898,0
48750,0.592285,-0.693359,0.42334,0
48770,0.57666,-0.687988,0.437988,0
48790,0.696777,-0.663086,0.444336,0
48840,0.602051,-0.628418,0.385254,0
48880,0.549805,-0.743652,0.388672,0
48920,0.5625,-0.732422,0.371582,0
48940,0.591797,-0.743164,0.42334,0
48980,0.714355,-0.678223,0.461914,0
49000,0.779297,-0.617676,0.46875,0
49020,0.806641,-0.580566,0.419922,0
49040,0.855469,-0.512207,0.409668,0
49060,0.967773,-0.420898,0.435059,0
49080,1.0498,-0.316895,0.436035,0
49100,1.06445,-0.266113,0.400391,0
49120,1.09619,-0.24707,0.386719,0
49140,1.08398,-0.205566,0.393555,0
49160,1.11328,-0.208008,0.397949,0
49180,1.14404,-0.234863,0.39502,0
49200,1.15479,-0.253906,0.400879,0
49220,1.1665,-0.265137,0.476562,0
49240,1.1792,-0.318359,0.575684,0
49260,1.07666,-0.330566,0.634277,0
49280,0.833496,-0.302246,0.703125,0
49300,0.700195,-0.271484,0.740234,0
49320,0.661621,-0.344238,0.785645,0
49340,0.628418,-0.37793,0.798828,0
49360,0.525879,-0.35791,0.856445,0
49380,0.433594,-0.395508,0.845215,0
49400,0.424316,-0.439941,0.833496,0
49420,0.40332,-0.474121,0.855957,0
49430,0.310059,-0.52002,0.8125,0
49450,0.251465,-0.53418,0.769043,0
49470,0.181641,-0.554199,0.796387,0
49490,0.172852,-0.564941,0.759277,0
49510,0.212891,-0.594727,0.725586,0
49540,0.13916,-0.649902,0.643555,0
49560,0.111816,-0.658691,0.588379,0
49580,0.104492,-0.685547,0.532227,0
49600,0.0703125,-0.707031,0.500488,0
49620,0.0644531,-0.733887,0.45752,0
49640,0.0566406,-0.770508,0.41748,0
49660,0.0717773,-0.853027,0.348633,0
49680,0.10498,-0.900879,0.311035,0
49700,0.166992,-0.936035,0.314941,0
49720,0.201172,-0.947754,0.306641,0
49740,0.235352,-0.917969,0.306641,0
49760,0.22168,-0.942871,0.299805,0
49780,0.236328,-1.01514,0.256836,0
49800,0.333984,-1.00586,0.240723,0
49820,0.464844,-0.921387,0.189941,0
49840,0.541504,-0.863281,0.171875,0
49860,0.637695,-0.814453,0.17041,0
49880,0.730469,-0.780273,0.199219,0
49900,0.884766,-0.727051,0.15918,0
49920,0.968262,-0.720703,0.0732422,0
49940,0.810059,-0.660645,0.0854492,0
49960,0.761719,-0.596191,0.0683594,0
49980,0.909668,-0.51416,0.0180664,0
50000,1.13916,-0.478516,-0.034668,0
50020,1.11035,-0.403809,-0.0888672,0
50040,0.99707,-0.302734,-0.111816,0
50060,1.06543,-0.240234,-0.0556641,0
50080,1.18799,-0.185547,0.0131836,0
50100,1.25293,-0.126465,0.00292969,0
50120,1.23291,-0.0859375,-0.00683594,0
50150,1.31738,-0.0761719,0.128906,0
50170,1.3291,-0.0629883,0.224609,0
50190,1.29004,-0.0375977,0.294922,0
50200,1.1958,-0.0209961,0.359375,0
50220,1.1333,-0.0297852,0.401367,0
50240,1.12061,-0.0859375,0.444824,0
50260,1.08105,-0.139648,0.524902,0
50280,1.04004,-0.155273,0.589844,0
50300,0.965332,-0.183594,0.597656,0
50320,0.837402,-0.239258,0.611816,0
50340,0.72998,-0.28418,0.712891,0
50360,0.636719,-0.32666,0.722168,0
50390,0.543457,-0.472656,0.695801,0
50410,0.449707,-0.481445,0.70166,0
50430,0.329102,-0.551758,0.68457,0
50440,0.30127,-0.608887,0.668457,0
50460,0.361328,-0.637695,0.633301,0
50480,0.347168,-0.641113,0.600586,0
50500,0.203125,-0.65625,0.549805,0
50520,0.0546875,-0.708496,0.427246,0
50540,0.0302734,-0.77832,0.32373,0
50560,0.0317383,-0.766602,0.243164,0
50580,0.0180664,-0.774414,0.195801,0
50600,0.0522461,-0.861328,0.181152,0
50620,0.132324,-0.915527,0.139648,0
50640,0.214844,-0.930664,0.121094,0
50660,0.312012,-0.972656,0.129883,0
50680,0.375977,-1.00439,0.137695,0
50700,0.413086,-1.00049,0.165527,0
50720,0.490234,-1.00244,0.15625,0
50740,0.59668,-0.994141,0.125488,0
50760,0.598145,-0.908691,0.0888672,0
50780,0.550781,-0.84668,0.0664062,0
50800,0.57373,-0.803711,0.012207,0
50820,0.706543,-0.713379,0.0249023,0
50840,0.835938,-0.641602,0.0200195,0
50860,0.84668,-0.596191,0.0292969,0
50880,0.81543,-0.57373,-0.00195312,0
50900,0.847656,-0.574219,-0.0458984,0
50920,0.95459,-0.557129,-0.0664062,0
50940,0.993164,-0.520508,-0.0976562,0
50960,0.963379,-0.42041,-0.133301,0
50980,1.03369,-0.313965,-0.127441,0
51000,1.11572,-0.258301,-0.100586,0
51020,1.08984,-0.235352,-0.0664062,0
51040,1.03223,-0.201172,-0.0175781,0
51060,1.06885,-0.116211,0.0864258,0
51080,1.13135,-0.0449219,0.172363,0
51100,1.12354,-0.0078125,0.160645,0
51120,1.07764,0.0522461,0.146484,0
51140,1.12891,0.0888672,0.238281,0
51160,1.19727,0.0576172,0.313965,0
51180,1.2207,0.00634766,0.334473,0
51200,1.2124,-0.0668945,0.365234,0
51220,1.19092,-0.106934,0.394531,0
51240,1.19629,-0.109375,0.471191,0
51260,1.13281,-0.118652,0.495605,0
51280,1.10938,-0.133301,0.516602,0
51300,1.08936,-0.200684,0.576172,0
51320,1.03564,-0.302246,0.640625,0
51340,0.901855,-0.386719,0.663574,0
51360,0.786621,-0.410645,0.620117,0
51380,0.784668,-0.436523,0.620117,0
51400,0.765625,-0.453613,0.604492,0
51420,0.666016,-0.508789,0.575684,0
51440,0.602051,-0.51709,0.587891,0
51450,0.620605,-0.508301,0.595215,0
51470,0.588379,-0.564941,0.571777,0
51490,0.46582,-0.588867,0.526367,0
51510,0.32373,-0.625,0.479004,0
51530,0.34668,-0.633301,0.471191,0
51550,0.361328,-0.657227,0.38916,0
51570,0.340332,-0.65918,0.332031,0
51590,0.35498,-0.665527,0.311523,0
51610,0.379883,-0.692871,0.333496,0
51630,0.331543,-0.742676,0.298828,0
51650,0.283691,-0.814941,0.239746,0
51670,0.296387,-0.827148,0.181152,0
51690,0.270996,-0.80957,0.134277,0
51710,0.300293,-0.805176,0.119141,0
51730,0.382812,-0.834473,0.116699,0
51750,0.468262,-0.836426,0.147949,0
51770,0.481934,-0.857422,0.148438,0
51790,0.504883,-0.883789,0.150391,0
51810,0.543457,-0.879395,0.118164,0
51830,0.5625,-0.898926,0.09375,0
51850,0.569824,-0.88916,0.0771484,0
51870,0.644531,-0.842773,0.0620117,0
51890,0.740723,-0.804199,0.0195312,0
51910,0.736816,-0.745117,0.00146484,0
51930,0.713379,-0.723145,0.00683594,0
51950,0.719238,-0.686035,0.0219727,0
51970,0.770996,-0.649902,0.0258789,0
51990,0.850586,-0.663574,-0.0161133,0
52010,0.90625,-0.633789,-0.0419922,0
52030,0.920898,-0.5625,-0.0258789,0
52050,0.971191,-0.514648,-0.0751953,0
52070,1.00586,-0.453125,-0.117188,0
52090,0.989258,-0.416504,-0.104492,0
52110,1.00439,-0.407715,-0.142578,2001
52130,1.03467,-0.376953,-0.189453,0
52150,1.01904,-0.375488,-0.188477,0
52170,1.01025,-0.367188,-0.176758,0
52190,1.01465,-0.359375,-0.20752,0
52210,1.02295,-0.369141,-0.211426,0
52230,0.999512,-0.378418,-0.20459,0
52250,0.978027,-0.37793,-0.204102,0
52270,0.973633,-0.394531,-0.182129,0
52290,0.936035,-0.399414,-0.182129,0
52310,0.902832,-0.400879,-0.172363,0
52330,0.890137,-0.407715,-0.157715,0
52350,0.90918,-0.411133,-0.15625,0
52370,0.930176,-0.415527,-0.151855,0
52390,0.910645,-0.424316,-0.150391,0
52410,0.88916,-0.429688,-0.127441,0
52430,0.852051,-0.485352,-0.121582,0
52450,0.832031,-0.504395,-0.0878906,0
52470,0.802734,-0.489258,-0.0698242,0
52490,0.77002,-0.494629,-0.108887,0
52510,0.766602,-0.48877,-0.0849609,0
52520,0.749023,-0.46582,-0.090332,0
52540,0.711914,-0.479004,-0.0810547,0
52560,0.605469,-0.45166,-0.0249023,0
52580,0.519531,-0.428711,-0.0268555,0
52600,0.460938,-0.429199,-0.0458984,0
52620,0.450195,-0.434082,-0.090332,0
52640,0.481934,-0.405273,-0.0693359,0
52660,0.538574,-0.352539,-0.00195312,0
52680,0.571777,-0.332031,0.0483398,0
52700,0.569336,-0.334473,0.0834961,0
52720,0.54541,-0.297363,0.126953,0
52740,0.72168,-0.359375,0.145996,0
52760,0.929199,-0.437988,0.277832,0
52780,0.939453,-0.4375,0.333496,0
52800,0.916992,-0.367188,0.28418,0
52820,1.11084,-0.398926,0.356445,0
52840,1.31494,-0.438965,0.536133,0
52860,1.33984,-0.480469,0.546875,0
52880,1.10693,-0.510742,0.543457,0
52900,0.843262,-0.502441,0.658691,0
52920,0.759766,-0.567383,0.780762,0
52940,0.77832,-0.621582,0.849609,0
52960,0.696777,-0.746094,0.838379,0
52980,0.612305,-0.818848,0.833984,0
53000,0.546387,-0.885742,0.882812,0
53020,0.524902,-0.960449,0.944824,0
53040,0.518066,-0.871094,0.927246,0
53060,0.499023,-0.8125,0.922852,0
53080,0.403809,-0.791016,0.897949,0
53100,0.338867,-0.856445,0.888184,0
53120,0.369141,-0.909668,0.870117,0
53140,0.444336,-0.902344,0.819336,0
53160,0.486816,-0.840332,0.772949,0
53180,0.45459,-0.753906,0.722168,0
53200,0.397461,-0.70752,0.700195,0
53220,0.365234,-0.680664,0.682617,0
53240,0.364746,-0.697754,0.619629,0
53260,0.361328,-0.745117,0.564453,0
53280,0.352051,-0.741211,0.520996,0
53300,0.339355,-0.700684,0.490723,0
53320,0.283203,-0.670898,0.441895,0
53330,0.239746,-0.651855,0.424805,0
53340,0.260742,-0.677246,0.414551,0
53380,0.270996,-0.715332,0.495117,0
53400,0.287109,-0.806641,0.489258,0
53440,0.362305,-1.00195,0.558594,0
53460,0.290039,-0.990723,0.680176,0
53480,0.233398,-0.993652,0.736816,0
53500,0.312988,-1.04736,0.746094,0
53520,0.257324,-0.949219,0.842285,0
53540,0.0966797,-0.845703,0.87793,0
53560,-0.0141602,-0.802246,0.8125,0
53580,0.00976562,-0.723633,0.650391,0
53600,0.11084,-0.626465,0.46875,0
53620,0.193848,-0.416016,0.399902,0
53640,0.270508,-0.349609,0.299805,0
53660,0.370605,-0.42334,0.109375,0
53680,0.550781,-0.398926,0.074707,0
53700,0.606934,-0.36377,0.206543,0
53720,0.625488,-0.291504,0.373535,0
53740,0.525391,-0.326172,0.52002,0
53760,0.407227,-0.475098,0.54248,0
53780,0.362305,-0.562988,0.581543,0
53800,0.505371,-0.729004,0.745605,0
53820,0.674805,-0.842773,1.08203,0
53840,0.583496,-0.860352,1.03711,0
53860,0.53418,-0.896484,0.808105,0
53880,0.666504,-0.950684,0.771484,0
53900,0.696777,-0.912598,0.807129,0
53920,0.612305,-0.849121,0.737305,0
53940,0.577637,-0.777832,0.66748,0
53960,0.619629,-0.703125,0.664062,0
53980,0.628906,-0.600098,0.632324,0
54000,0.592285,-0.569336,0.587402,0
54020,0.54541,-0.599121,0.52002,0
54040,0.548828,-0.651855,0.480469,0
54060,0.583496,-0.627441,0.478027,0
54080,0.551758,-0.554199,0.488281,0
54100,0.519531,-0.543945,0.515625,0
54120,0.497559,-0.568848,0.538086,0
54140,0.453125,-0.64209,0.538574,0
54160,0.421387,-0.743164,0.515137,0
54180,0.418457,-0.754883,0.507812,0
54200,0.445312,-0.72168,0.516602,0
54220,0.47998,-0.697754,0.525391,0
54240,0.499023,-0.741211,0.502441,0
54260,0.501953,-0.784668,0.452637,0
54280,0.504883,-0.79834,0.481934,0
54300,0.496094,-0.788086,0.507324,0
54320,0.466797,-0.774902,0.523926,0
54340,0.473633,-0.747559,0.535156,0
54360,0.487793,-0.722656,0.546387,0
54380,0.469238,-0.741699,0.540527,0
54400,0.419434,-0.763184,0.512207,0
54420,0.422852,-0.776367,0.51709,0
54440,0.44873,-0.759277,0.537109,0
54460,0.436523,-0.762207,0.556152,0
54480,0.381836,-0.739746,0.584473,0
54500,0.352539,-0.769531,0.548828,0
54520,0.39502,-0.728516,0.54248,2000
54540,0.461426,-0.685547,0.536133,0
54560,0.47998,-0.726562,0.537598,0
54580,0.458984,-0.759766,0.509766,0
54600,0.424316,-0.751953,0.473145,0
54620,0.396484,-0.760254,0.507812,0
54640,0.388672,-0.821777,0.521973,0
54660,0.398926,-0.832031,0.487793,0
54680,0.35498,-0.760254,0.516602,0
54700,0.339844,-0.724609,0.5,0
54720,0.373047,-0.76709,0.498047,0
54740,0.378418,-0.783691,0.518555,0
54760,0.378418,-0.785645,0.533203,0
54780,0.382812,-0.773926,0.523438,0
54800,0.405762,-0.744629,0.554688,0
54820,0.413574,-0.750977,0.53418,0
54840,0.405273,-0.771973,0.510254,0
54860,0.384766,-0.782715,0.483887,0
54880,0.358398,-0.747559,0.511719,0
54900,0.403809,-0.742676,0.536133,0
54920,0.47998,-0.746582,0.480469,0
54940,0.498047,-0.743652,0.446777,0
54960,0.475586,-0.70166,0.4375,0
54980,0.457031,-0.739746,0.435547,0
55000,0.51709,-0.816895,0.434082,0
55020,0.535645,-0.817383,0.442383,0
55040,0.492188,-0.788086,0.420898,0
55060,0.48877,-0.77002,0.415039,0
55080,0.588379,-0.758789,0.449219,0
55100,0.713379,-0.783203,0.419434,0
55120,0.759277,-0.783203,0.366699,0
55160,0.626953,-0.710938,0.359375,0
55200,0.554199,-0.779297,0.383301,0
55220,0.581543,-0.77002,0.373535,0
55240,0.611328,-0.766113,0.394531,0
55260,0.595703,-0.715332,0.383789,0
55280,0.661133,-0.699707,0.373535,0
55300,0.760742,-0.69043,0.368652,0
55320,0.773926,-0.648438,0.369141,0
55340,0.803711,-0.606445,0.348633,0
55360,0.878418,-0.554688,0.334961,0
55380,0.973633,-0.470215,0.34082,0
55400,0.980469,-0.390137,0.352539,0
55420,1.01465,-0.330078,0.361816,0
55430,1.10938,-0.325195,0.375,0
55450,1.18359,-0.364746,0.352051,0
55470,1.21973,-0.428711,0.344238,0
55490,1.22705,-0.444824,0.352539,0
55510,1.11719,-0.484863,0.422852,0
55530,1.08105,-0.422363,0.509766,0
55550,1.12207,-0.383301,0.677246,0
55570,0.998047,-0.325195,0.686523,0
55590,0.861816,-0.390625,0.659668,0
55610,0.833984,-0.339844,0.766602,0
55630,0.811523,-0.396484,0.85791,0
55650,0.588867,-0.461426,0.904785,0
55670,0.414551,-0.475586,0.876465,0
55690,0.338379,-0.478516,0.896484,0
55710,0.242188,-0.531738,0.849609,0
55730,0.118164,-0.534668,0.828125,0
55760,-0.217285,-0.574219,0.662598,0
55780,-0.216797,-0.615234,0.635742,0
55800,-0.23291,-0.666504,0.527832,0
55820,-0.217773,-0.689941,0.507324,0
55840,-0.180176,-0.728027,0.458984,0
55860,-0.178223,-0.831055,0.373535,0
55880,-0.152832,-0.928223,0.320801,0
55900,-0.0761719,-0.972168,0.299316,0
55920,-0.0200195,-0.980957,0.312012,0
55940,0.0566406,-0.98291,0.291016,0
55960,0.138672,-0.980469,0.27832,0
55980,0.21582,-0.968262,0.256836,0
56000,0.239258,-0.997559,0.260742,0
56020,0.259277,-1.0332,0.268066,0
56040,0.310547,-1.01318,0.193848,0
56060,0.400879,-0.951172,0.183594,0
56080,0.444824,-0.885254,0.247559,0
56100,0.464844,-0.917969,0.222656,0
56120,0.621094,-0.974609,0.132324,0
56140,0.821289,-0.960449,0.146484,0
56160,0.820801,-0.805664,0.191406,0
56180,0.717285,-0.730957,0.193359,0
56200,0.789062,-0.684082,0.192383,0
56220,0.960449,-0.706055,0.149902,0
56240,1.00439,-0.666992,0.114258,0
56260,0.961914,-0.582031,0.112305,0
56280,0.898926,-0.5,0.126953,0
56300,0.963379,-0.400391,0.17041,0
56320,1.09277,-0.340332,0.193848,0
56340,1.14941,-0.30127,0.15625,0
56360,1.1665,-0.232422,0.152832,0
56380,1.17236,-0.161621,0.219238,0
56400,1.21289,-0.102539,0.233887,0
56420,1.29736,-0.0888672,0.225586,0
56440,1.28223,-0.103516,0.23291,0
56460,1.18555,-0.108398,0.286621,0
56480,1.1416,-0.117676,0.350586,0
56500,1.13232,-0.13916,0.404297,0
56520,1.125,-0.215332,0.425293,0
56540,1.13721,-0.333984,0.48584,0
56560,1.05713,-0.314941,0.550293,0
56580,0.92627,-0.307129,0.543457,0
56600,0.879395,-0.369629,0.614258,0
56620,0.864746,-0.394043,0.649902,0
56640,0.770508,-0.379883,0.666016,0
56660,0.589355,-0.4375,0.666016,0
56680,0.522461,-0.475586,0.708984,0
56700,0.470703,-0.514648,0.681641,0
56720,0.368164,-0.596191,0.655762,0
56740,0.208984,-0.590332,0.646484,0
56760,0.0356445,-0.647461,0.571289,0
56780,-0.00683594,-0.686523,0.492676,0
56800,0.0717773,-0.731934,0.455566,0
56820,0.0844727,-0.776855,0.356934,0
56840,0.0117188,-0.824219,0.32666,0
56870,0.132812,-0.961914,0.200195,0
56890,0.205078,-0.998535,0.124023,0
56910,0.26709,-1.01562,0.101562,0
56930,0.328613,-0.987305,0.074707,0
56950,0.387207,-0.966309,0.0478516,0
56970,0.441406,-0.95459,0.0463867,0
57000,0.60791,-0.824219,-0.0478516,0
57020,0.696777,-0.759277,-0.0654297,0
57040,0.867676,-0.712402,-0.0839844,0
57060,0.974609,-0.682129,-0.0952148,0
57080,0.975098,-0.618164,-0.116699,0
57110,1.05566,-0.388672,-0.196289,0
57130,1.07031,-0.29248,-0.233398,0
57150,1.06396,-0.213867,-0.191895,0
57170,1.05176,-0.177246,-0.131836,0
57190,1.04443,-0.133789,-0.0830078,0
57210,1.05078,-0.0395508,-0.0405273,0
57230,1.08643,0.0751953,0.0517578,0
57250,1.13818,0.130371,0.0834961,0
57270,1.20508,0.148438,0.0864258,0
57290,1.21191,0.144043,0.174316,0
57310,1.22998,0.108398,0.249023,0
57330,1.21875,0.0239258,0.281738,0
57350,1.16455,-0.0351562,0.319824,0
57370,1.13477,-0.0610352,0.354492,0
57390,1.18945,-0.0966797,0.442383,0
57410,1.2832,-0.140137,0.513672,0
57430,1.27246,-0.192871,0.526367,0
57450,1.08691,-0.247559,0.628906,0
57470,0.791992,-0.315918,0.653809,0
57490,0.59375,-0.422852,0.616211,0
57510,0.645996,-0.481445,0.615723,0
57530,0.701172,-0.46875,0.605469,0
57550,0.508789,-0.437012,0.582031,0
57570,0.267578,-0.532227,0.5625,0
57590,0.216797,-0.654785,0.513672,0
57610,0.173828,-0.739746,0.407227,0
57630,0.130859,-0.763672,0.365723,0
57650,0.113281,-0.751465,0.277832,0
57670,0.159668,-0.793945,0.226562,0
57690,0.185059,-0.814453,0.192871,0
57710,0.252441,-0.917969,0.144531,0
57730,0.365234,-0.989258,0.0834961,0
57750,0.484375,-0.996094,0.0698242,0
57770,0.495605,-0.941895,0.0561523,0
57790,0.478516,-0.918457,0.0371094,0
57810,0.507812,-0.9375,-0.0136719,0
57830,0.570312,-0.941895,-0.0151367,0
57850,0.594238,-0.913574,-0.0517578,0
57870,0.602539,-0.863281,-0.0639648,0
57890,0.64502,-0.79541,-0.101562,0
57910,0.713379,-0.749023,-0.138672,0
57930,0.756348,-0.726074,-0.108398,0
57950,0.710938,-0.707031,-0.0830078,0
57970,0.670898,-0.691895,-0.0839844,0
57990,0.675293,-0.708496,-0.125488,0
58010,0.785156,-0.660645,-0.129395,0
58030,0.847168,-0.601074,-0.059082,0
58050,0.777832,-0.538574,-0.0693359,0
58070,0.741699,-0.472168,-0.0566406,0
58090,0.841797,-0.463379,-0.0668945,0
58110,0.968262,-0.475586,-0.0302734,0
58130,1.01465,-0.498535,-0.0117188,0
58150,0.964355,-0.458984,-0.0244141,0
58170,0.963867,-0.353516,-0.0166016,0
58190,1.03125,-0.321777,-0.0180664,0
58210,0.997559,-0.357422,-0.0292969,0
58230,0.972656,-0.366699,-0.0253906,0
58250,0.914062,-0.363281,-0.00732422,0
58270,0.858887,-0.341797,-0.00878906,2001
58290,0.848145,-0.349121,-0.0566406,0
58310,0.816406,-0.356934,-0.0703125,0
58330,0.758789,-0.355469,-0.0292969,0
58350,0.727051,-0.380859,-0.03125,0
58370,0.809082,-0.414551,-0.0893555,0
58390,1.02686,-0.441406,-0.116211,0
58410,1.1875,-0.42041,-0.0820312,0
58430,1.20459,-0.404785,-0.122559,0
58450,1.21338,-0.350098,-0.17627,0
58470,1.21582,-0.367188,-0.166016,0
58490,1.15283,-0.398438,-0.155762,0
58510,1.03857,-0.392578,-0.134766,0
58530,0.941406,-0.373047,-0.113281,0
58540,0.828125,-0.361328,-0.0932617,0
58560,0.749023,-0.361328,-0.0498047,0
58580,0.663574,-0.335938,-0.0185547,0
58600,0.560547,-0.338379,-0.00830078,0
58620,0.48877,-0.325684,-0.0161133,0
58640,0.475586,-0.351074,-0.0634766,0
58660,0.516602,-0.348633,-0.134766,0
58680,0.603516,-0.342285,-0.146484,0
58700,0.681641,-0.33252,-0.0654297,0
58720,0.646973,-0.347168,-0.00683594,0
58740,0.61377,-0.348145,0.00195312,0
58780,0.879395,-0.459473,-0.0209961,0
58800,0.870605,-0.41748,0.169434,0
58820,0.859375,-0.416504,0.307617,0
58840,0.934082,-0.519531,0.29834,0
58860,1.14404,-0.657227,0.260254,0
58880,1.31934,-0.658691,0.327637,0
58900,1.33691,-0.580078,0.452148,0
58920,1.21533,-0.481445,0.568359,0
58930,1.13086,-0.607422,0.617188,0
58950,1.14551,-0.710938,0.614258,0
58950,0.848145,-0.674805,0.677734,0
58960,0.714355,-0.734863,0.754395,0
58980,0.574707,-0.818848,0.769531,0
59000,0.532715,-0.901855,0.787109,0
59020,0.492676,-0.909668,0.775879,0
59040,0.42627,-0.854492,0.73877,0
59060,0.388184,-0.798828,0.703125,0
59060,0.383301,-0.744629,0.694824,0
59070,0.395996,-0.736328,0.670898,0
59090,0.378418,-0.709473,0.651855,0
59110,0.333008,-0.725586,0.617676,0
59130,0.308594,-0.717285,0.578613,0
59150,0.287598,-0.720215,0.601074,0
59170,0.307129,-0.74707,0.591797,0
59190,0.354492,-0.744141,0.537109,0
59210,0.349121,-0.725586,0.521484,0
59230,0.303223,-0.694824,0.544434,0
59250,0.320801,-0.6875,0.526855,0
59270,0.348633,-0.719238,0.501465,0
59290,0.352051,-0.743652,0.515625,0
59310,0.333984,-0.755859,0.535645,0
59330,0.338379,-0.738281,0.571289,0
59350,0.388672,-0.766602,0.551758,0
59370,0.399902,-0.797852,0.51709,0
59390,0.40625,-0.759277,0.524414,0
59410,0.39502,-0.719238,0.549805,2000
59430,0.374512,-0.748047,0.551758,0
59450,0.397949,-0.790039,0.517578,0
59470,0.394043,-0.733887,0.536621,0
59490,0.350098,-0.714355,0.553223,0
59510,0.233398,-0.749023,0.550293,0
59530,0.170898,-0.763672,0.543945,0
59550,0.236328,-0.781738,0.540039,0
59570,0.325195,-0.796387,0.560059,0
59590,0.321289,-0.800781,0.536621,0
59610,0.292969,-0.740723,0.553711,0
59630,0.278809,-0.771484,0.562012,0
59650,0.235352,-0.791016,0.569336,0
59670,0.185547,-0.828613,0.549805,0
59690,0.254395,-0.776367,0.560059,0
59710,0.410156,-0.78125,0.532227,0
59730,0.466309,-0.79248,0.489258,0
59750,0.48584,-0.758789,0.494141,0
59770,0.555664,-0.750488,0.444336,0
59790,0.640137,-0.70752,0.487793,0
59810,0.671387,-0.740723,0.398926,0
59830,0.666016,-0.731445,0.325195,0
59850,0.750977,-0.666992,0.315918,0
59870,0.770508,-0.604492,0.254395,0
59890,0.724121,-0.574219,0.249512,0
59910,0.72168,-0.54834,0.241211,0
59930,0.744141,-0.607422,0.222656,0
59950,0.759277,-0.633301,0.222168,0
59970,0.736816,-0.599609,0.269531,0
59990,0.734863,-0.586426,0.299316,0
60010,0.775879,-0.601074,0.336914,0
60030,0.858398,-0.57666,0.373535,0
60050,0.839355,-0.55127,0.379883,0
60070,0.830566,-0.525879,0.370605,0
60090,0.852539,-0.489746,0.384277,0
60110,0.911621,-0.42627,0.423828,0
60130,1.09473,-0.38916,0.460938,0
60150,1.11914,-0.393555,0.489746,0
60170,1.09912,-0.403809,0.439453,0
60190,0.96582,-0.387207,0.485352,0
60210,0.916016,-0.354492,0.546387,0
60230,0.965332,-0.336914,0.583496,0
60250,1.07715,-0.379883,0.630859,0
60270,1.08154,-0.337402,0.62207,0
60290,0.901855,-0.248047,0.685059,0
60310,0.82959,-0.274902,0.694336,0
60330,0.918457,-0.41748,0.79248,0
60350,0.887695,-0.32959,0.867676,0
60370,0.723633,-0.346191,0.885742,0
60390,0.572266,-0.417969,0.92334,0
60410,0.598145,-0.427246,0.950684,0
60430,0.662109,-0.470703,0.932617,0
60450,0.500488,-0.465332,0.810547,0
60470,0.163086,-0.537109,0.81543,0
60490,-0.0102539,-0.536621,0.80127,0
60510,-0.046875,-0.598145,0.671387,0
60530,-0.0361328,-0.623047,0.61084,0
60550,-0.185547,-0.61377,0.51123,0
60570,-0.292969,-0.657715,0.434082,0
60590,-0.228027,-0.692871,0.376465,0
60610,-0.188477,-0.760254,0.363281,0
60630,-0.138672,-0.841309,0.348633,0
60650,-0.090332,-0.906738,0.313477,0
60670,-0.0771484,-0.981934,0.227539,0
60690,-0.0288086,-1.0127,0.161621,0
60710,0.0668945,-0.990723,0.143555,0
60730,0.145508,-0.998047,0.131348,0
60750,0.248535,-1.00195,0.17627,0
60770,0.318848,-0.98291,0.187988,0
60790,0.365234,-0.992676,0.169434,0
60810,0.38623,-0.993164,0.153809,0
60830,0.397461,-0.930176,0.152344,0
60850,0.431152,-0.87793,0.12793,0
60870,0.567383,-0.808105,0.115234,0
60890,0.771484,-0.73291,0.11377,0
60910,0.8125,-0.706055,0.126953,0
60930,0.723633,-0.662109,0.126465,0
60950,0.720215,-0.586426,0.0952148,0
60970,0.825195,-0.481445,0.126465,0
60990,0.982422,-0.359375,0.194824,0
61010,1.16553,-0.350098,0.161621,0
61030,1.19385,-0.318359,0.117188,0
61050,1.2041,-0.209473,0.0839844,0
61070,1.271,-0.108398,0.137695,0
61090,1.38965,-0.0786133,0.157227,0
61110,1.43164,-0.0424805,0.152344,0
61130,1.43701,-0.0649414,0.154785,0
61150,1.37744,-0.0927734,0.22998,0
61170,1.34375,-0.117188,0.358887,0
61190,1.28857,-0.133789,0.445312,0
61210,1.18311,-0.17627,0.441895,0
61230,1.09424,-0.197754,0.477539,0
61250,1.07764,-0.170898,0.585449,0
61270,1.03125,-0.217773,0.570312,0
61290,0.932617,-0.277344,0.676758,0
61310,0.752441,-0.262695,0.70752,0
61330,0.578125,-0.353516,0.715332,0
61350,0.533691,-0.458984,0.70752,0
61360,0.5,-0.562988,0.710449,0
61380,0.387207,-0.580566,0.658691,0
61400,0.249023,-0.598633,0.599121,0
61420,0.109375,-0.603027,0.468262,0
61440,0.0424805,-0.642578,0.451172,0
61460,-0.0356445,-0.696289,0.39502,0
61480,-0.106934,-0.821777,0.306641,0
61500,-0.0883789,-0.893066,0.260742,0
61520,-0.0117188,-0.924805,0.202637,0
61540,0.0595703,-0.988281,0.13916,0
61560,0.112305,-1.02393,0.0712891,0
61580,0.146484,-1.00635,0.0395508,0
61600,0.171875,-1.04102,0.0375977,0
61620,0.284668,-1.03516,0.0751953,0
61640,0.43457,-0.986328,0.112793,0
61660,0.533203,-0.963867,0.0839844,0
61680,0.563965,-0.943359,0.0546875,0
61700,0.55127,-0.895996,0.027832,0
61730,0.702148,-0.79834,-0.0698242,0
61760,0.822754,-0.61377,-0.0712891,0
61780,0.862793,-0.515137,-0.0273438,0
61800,0.967285,-0.454102,-0.0795898,0
61810,1.0918,-0.299805,-0.155762,0
61830,1.04248,-0.185547,-0.155762,0
61860,1.21338,-0.0478516,-0.0976562,0
61880,1.1958,-0.0419922,-0.0742188,0
61900,1.10156,-0.0332031,0.00439453,0
61920,1.1167,0.0297852,0.12793,0
61940,1.16846,0.0610352,0.164062,0
61960,1.22803,0.0527344,0.213867,0
61980,1.23975,0.0395508,0.296875,0
62000,1.22363,0.0166016,0.343262,0
62020,1.19238,-0.0893555,0.326172,0
62040,1.16357,-0.149414,0.410645,0
62060,1.04492,-0.148438,0.58252,0
62080,0.897949,-0.137207,0.577148,0
62100,0.898438,-0.192871,0.543945,0
62120,0.970215,-0.228027,0.638184,0
62140,0.911621,-0.289062,0.70166,0
62160,0.725586,-0.314941,0.753418,0
62180,0.586426,-0.421387,0.726074,0
62200,0.573242,-0.48291,0.674316,0
62220,0.45166,-0.543945,0.625,0
62240,0.266602,-0.626953,0.549316,0
62260,0.186035,-0.719238,0.476562,0
62280,0.241211,-0.773926,0.418457,0
62300,0.260254,-0.759766,0.342773,0
62320,0.223145,-0.816406,0.210938,0
62340,0.205566,-0.849609,0.109863,0
62360,0.237793,-0.874512,0.0415039,0
62380,0.263672,-0.88623,0.0629883,0
62400,0.339355,-0.886719,0.100586,0
62420,0.396484,-0.924316,0.0737305,0
62440,0.431641,-0.95752,0.0102539,0
62460,0.467773,-0.957031,-0.0112305,0
62480,0.54834,-0.928223,-0.0522461,0
62500,0.63916,-0.896484,-0.0649414,0
62520,0.655273,-0.822754,-0.0473633,0
62540,0.647949,-0.775391,-0.0498047,0
62560,0.72168,-0.748047,-0.074707,0
62580,0.820801,-0.713867,-0.12207,0
62600,0.8125,-0.683105,-0.0966797,0
62620,0.735352,-0.696777,-0.0561523,0
62640,0.72998,-0.672852,-0.0336914,0
62660,0.841797,-0.558105,-0.00537109,0
62680,0.913086,-0.48291,-0.034668,0
62700,0.913574,-0.425781,-0.0581055,0
62720,0.907227,-0.416016,-0.0297852,0
62730,0.947754,-0.412109,-0.00830078,0
62750,0.964844,-0.45166,-0.0234375,0
62770,0.962402,-0.461426,-0.0473633,2001
62790,0.978516,-0.431152,-0.0454102,0
62810,0.944824,-0.405762,-0.0390625,0
62830,0.95459,-0.411621,-0.0571289,0
62850,0.976562,-0.447266,-0.0888672,0
62870,0.95166,-0.421875,-0.0927734,0
62890,0.885254,-0.399902,-0.0610352,0
62910,0.81543,-0.407715,-0.0703125,0
62930,0.802734,-0.443848,-0.0698242,0
62950,0.884766,-0.458008,-0.0517578,0
62970,0.921387,-0.461426,-0.0556641,0
62990,0.874512,-0.415527,-0.0493164,0
63010,0.807617,-0.414062,-0.00830078,0
63030,0.728027,-0.420898,0.00878906,0
63050,0.645508,-0.366699,0.00195312,0
63070,0.592773,-0.36084,0.0273438,0
63090,0.513184,-0.398926,0.0400391,0
63110,0.446289,-0.410156,0.00488281,0
63130,0.467773,-0.407715,-0.0517578,0
63150,0.596191,-0.410156,-0.0839844,0
63170,0.723145,-0.375977,-0.00488281,0
63210,0.696289,-0.333984,0.0581055,0
63230,0.947266,-0.402832,0.40332,0
63250,0.977539,-0.432129,0.41748,0
63270,0.973145,-0.489746,0.26123,0
63290,1.13574,-0.495605,0.272949,0
63310,1.4248,-0.455566,0.663574,0
63330,1.26367,-0.364258,0.828125,0
63350,0.958984,-0.312012,0.766602,0
63370,0.856934,-0.428711,0.740723,0
63390,0.84668,-0.40332,0.886719,0
63410,0.696777,-0.421387,0.901367,0
63430,0.444336,-0.523438,0.937012,0
63450,0.253418,-0.568848,0.98584,0
63470,0.212891,-0.752441,1.11133,0
63490,0.203125,-0.950195,1.14648,0
63510,0.212891,-0.934082,1.01416,0
63530,0.258301,-0.753418,0.980957,0
63550,0.3125,-0.630859,0.964355,0
63570,0.314453,-0.59082,0.927734,0
63590,0.291504,-0.608887,0.887695,0
63610,0.294434,-0.646973,0.819336,0
63630,0.29834,-0.685547,0.78125,0
63650,0.347168,-0.708008,0.770508,0
63670,0.387207,-0.661133,0.735352,0
63690,0.410156,-0.618164,0.69873,0
63710,0.412598,-0.631348,0.71875,0
63720,0.387695,-0.647949,0.70459,0
63740,0.389648,-0.686035,0.667969,0
63760,0.39209,-0.692871,0.637207,0
63790,0.397949,-0.649902,0.6875,0
63810,0.415039,-0.654785,0.624512,0
63830,0.417969,-0.70166,0.601074,0
63850,0.414551,-0.700195,0.63623,0
63870,0.428711,-0.632812,0.625488,0
63890,0.416016,-0.602539,0.606934,0
63910,0.390625,-0.617188,0.592773,0
63920,0.404297,-0.640625,0.596191,0
63940,0.42041,-0.650879,0.563477,0
63960,0.420898,-0.67041,0.551758,0
63980,0.402344,-0.69043,0.549805,0
64000,0.38916,-0.641113,0.572266,0
64020,0.399902,-0.651367,0.574219,0
64040,0.407227,-0.666504,0.569824,0
64060,0.428223,-0.669434,0.567383,0
64080,0.382324,-0.695801,0.61377,0
64100,0.301758,-0.727539,0.619629,0
64120,0.330566,-0.771484,0.573242,0
64140,0.410645,-0.756836,0.568848,0
64160,0.419434,-0.675781,0.583496,0
64180,0.404785,-0.655762,0.593262,0
64200,0.410645,-0.686523,0.598145,0
64220,0.421387,-0.775879,0.57666,0
64240,0.42334,-0.795898,0.569336,0
64260,0.411133,-0.755371,0.603516,0
64280,0.391602,-0.716797,0.60498,0
64300,0.373047,-0.713867,0.601562,0
64320,0.334473,-0.727539,0.552734,0
64340,0.290527,-0.716797,0.554199,0
64360,0.312012,-0.742188,0.552734,0
64380,0.263184,-0.746094,0.54541,0
64390,0.206055,-0.673828,0.579102,0
64410,0.20166,-0.678223,0.597656,0
64430,0.20752,-0.717285,0.556152,0
64450,0.186035,-0.750488,0.594727,0
64470,0.223633,-0.790527,0.615723,0
64490,0.308594,-0.777832,0.584961,0
64510,0.39209,-0.77002,0.520508,0
64530,0.449707,-0.733398,0.521973,0
64550,0.4375,-0.757324,0.477539,0
64570,0.458008,-0.810059,0.431152,0
64590,0.578613,-0.865723,0.42627,0
64610,0.662109,-0.851074,0.4375,0
64630,0.61377,-0.802246,0.422852,0
64650,0.583496,-0.751465,0.403809,0
64670,0.583008,-0.742188,0.416016,0
64690,0.73584,-0.722656,0.405762,0
64710,0.775391,-0.685059,0.366699,0
64730,0.647949,-0.635742,0.316406,0
64750,0.646973,-0.612793,0.294434,0
64770,0.686035,-0.583984,0.277832,0
64790,0.76709,-0.544922,0.308594,0
64810,0.856445,-0.513672,0.371582,0
64830,0.866211,-0.487305,0.33252,0
64850,0.819336,-0.459473,0.302734,0
64870,0.838867,-0.430664,0.356934,0
64890,0.943359,-0.441895,0.412598,0
64910,0.98584,-0.429688,0.425293,0
64930,1.08008,-0.414062,0.404785,0
64950,1.08936,-0.361816,0.439941,0
64970,1.07617,-0.341309,0.438477,0
64990,1.04102,-0.383789,0.424805,0
65010,1.0127,-0.429688,0.391113,0
65030,0.959473,-0.452148,0.444824,0
65050,0.846191,-0.437988,0.495117,0
65070,0.814941,-0.477051,0.477539,0
65090,0.822266,-0.57373,0.458496,0
65110,0.772949,-0.55127,0.484375,0
65130,0.730469,-0.569336,0.5,0
65150,0.644043,-0.557617,0.5,0
65170,0.598145,-0.55127,0.556152,0
65190,0.587891,-0.651367,0.548828,0
65210,0.544434,-0.791992,0.559082,0
65230,0.435547,-0.723633,0.574219,0
65250,0.331543,-0.727051,0.574219,0
65290,0.392578,-0.749512,0.54541,0
65310,0.420898,-0.824707,0.535645,0
65330,0.306641,-0.854492,0.547363,0
65350,0.175293,-0.822266,0.563965,0
65370,0.19873,-0.841797,0.544434,0
65390,0.246094,-0.809082,0.520508,0
65410,0.26709,-0.765137,0.541504,0
65430,0.285645,-0.753906,0.553223,0
65450,0.308105,-0.785645,0.512207,0
65470,0.345703,-0.816406,0.480957,0
65490,0.385254,-0.797852,0.490234,0
65510,0.391113,-0.790039,0.501953,0
65530,0.383301,-0.772949,0.516602,0
65550,0.379395,-0.770996,0.503418,2000
65570,0.375977,-0.788574,0.512695,0
65590,0.396973,-0.771484,0.512695,0
65610,0.426758,-0.726562,0.546875,0
65630,0.443359,-0.709473,0.581055,0
65650,0.437988,-0.726562,0.576172,0
65670,0.40332,-0.787109,0.543945,0
65690,0.383789,-0.734375,0.51709,0
65710,0.342773,-0.695312,0.512207,0
65730,0.321289,-0.749023,0.539551,0
65750,0.317383,-0.779785,0.564941,0
65770,0.330078,-0.819824,0.55957,0
65790,0.37207,-0.815918,0.521484,0
65810,0.385742,-0.750977,0.510742,0
65830,0.344727,-0.733398,0.534668,0
65850,0.327637,-0.773438,0.52832,0
65870,0.328613,-0.84668,0.537109,0
65890,0.331543,-0.897461,0.480469,0
65910,0.300293,-0.826172,0.491211,0
65930,0.284668,-0.799805,0.476562,0
65950,0.310059,-0.775879,0.476074,0
65970,0.370117,-0.811035,0.474609,0
65990,0.41748,-0.820801,0.495117,0
66010,0.444824,-0.833984,0.448242,0
66030,0.468262,-0.765625,0.449219,0
66050,0.49707,-0.728516,0.450684,0
66070,0.631348,-0.748535,0.395996,0
66090,0.715332,-0.663086,0.385742,0
66110,0.807129,-0.666504,0.315918,0
66110,0.742676,-0.637695,0.308594,0
66130,0.70459,-0.59668,0.27002,0
66150,0.736816,-0.586426,0.261719,0
66170,0.708008,-0.560059,0.248535,0
66190,0.722168,-0.59375,0.200684,0
66210,0.770996,-0.572266,0.188965,0
66230,0.808594,-0.584473,0.181641,0
66250,0.883301,-0.571777,0.204102,0
66270,0.979492,-0.54541,0.189941,0
66290,1.02295,-0.504883,0.197754,0
66310,0.970703,-0.461914,0.262207,0
66330,1.00146,-0.405762,0.325195,0
66350,1.09473,-0.361816,0.37207,0
66370,1.17383,-0.363281,0.397949,0
66390,1.21484,-0.39502,0.444824,0
66410,1.11865,-0.405762,0.503906,0
66430,1.06592,-0.431641,0.501465,0
66450,1.05566,-0.42041,0.51123,0
66470,1.0459,-0.413086,0.603027,0
66490,1.03418,-0.360352,0.731445,0
66510,0.933594,-0.316406,0.763184,0
66530,0.812012,-0.397461,0.78125,0
66550,0.828613,-0.391602,0.835938,0
66570,0.869141,-0.354004,0.888672,0
66590,0.672852,-0.32666,0.905273,0
66610,0.431641,-0.37793,0.949219,0
66630,0.348145,-0.487305,0.930664,0
66650,0.370117,-0.506836,0.918945,0
66670,0.297363,-0.536133,0.807129,0
66690,0.248535,-0.44873,0.884277,0
66710,0.166504,-0.461426,0.824219,0
66730,0.0585938,-0.575684,0.688477,0
66750,0.00146484,-0.637695,0.588867,0
66770,-0.0898438,-0.638672,0.587891,0
66790,-0.252441,-0.654297,0.512207,0
66810,-0.3125,-0.712402,0.39502,0
66830,-0.238281,-0.782715,0.299805,0
66850,-0.183594,-0.8125,0.27002,0
66870,-0.154297,-0.844238,0.247559,0
66890,-0.12207,-0.916016,0.196777,0
66910,-0.0737305,-0.993164,0.188965,0
66930,0.0117188,-1.05811,0.1875,0
66950,0.102539,-1.07275,0.225586,0
66970,0.190918,-1.03564,0.260254,0
66990,0.268555,-1.02393,0.26709,0
67010,0.294434,-0.975586,0.213379,0
67030,0.30957,-0.983398,0.121582,0
67050,0.370117,-0.961914,0.101562,0
67070,0.472168,-0.871582,0.161621,0
67090,0.638672,-0.770508,0.178223,0
67110,0.804688,-0.750488,0.128906,0
67130,0.947754,-0.751465,0.0380859,0
67150,0.992676,-0.72998,0.0390625,0
67170,0.979004,-0.62793,0.0512695,0
67190,1.07715,-0.51709,0.043457,0
67210,1.20361,-0.420898,0.0449219,0
67230,1.24121,-0.308594,0.0146484,0
67250,1.18213,-0.247559,0.0078125,0
67270,1.20068,-0.168457,0.0639648,0
67290,1.30811,-0.0869141,0.163086,0
67310,1.354,-0.0585938,0.191406,0
67330,1.3457,-0.0375977,0.185059,0
