Timestamp, Acceleration x, Acceleration y, Acceleration z, Marker
40,-0.491699,-0.699219,0.523926,0
60,-0.501465,-0.678223,0.531738,0
80,-0.515137,-0.657715,0.530273,0
100,-0.515625,-0.635742,0.528809,0
120,-0.51709,-0.62793,0.53125,0
130,-0.524414,-0.631836,0.530762,0
130,-0.523438,-0.629395,0.536621,0
180,-0.52002,-0.628906,0.537598,0
200,-0.513672,-0.639648,0.536133,0
220,-0.510742,-0.635254,0.541992,0
240,-0.506836,-0.638672,0.541992,0
260,-0.507324,-0.629883,0.554688,0
280,-0.498535,-0.627441,0.561523,0
300,-0.492676,-0.626953,0.570801,0
320,-0.474121,-0.620605,0.567871,0
340,-0.473633,-0.624512,0.569824,0
360,-0.476074,-0.62207,0.569824,0
380,-0.477539,-0.621582,0.563477,0
400,-0.484375,-0.631836,0.563477,0
420,-0.489746,-0.637695,0.560059,0
440,-0.490723,-0.634766,0.558105,0
460,-0.48584,-0.636719,0.563965,0
480,-0.491699,-0.625977,0.560059,0
500,-0.498047,-0.629395,0.551758,0
520,-0.505371,-0.634766,0.544922,0
530,-0.49707,-0.630371,0.552246,0
550,-0.504883,-0.634277,0.545898,0
570,-0.510742,-0.62793,0.553711,0
590,-0.509277,-0.625488,0.553711,0
610,-0.499023,-0.625977,0.567383,0
630,-0.495605,-0.62207,0.567871,0
650,-0.490723,-0.612793,0.578125,0
670,-0.466309,-0.617676,0.590332,0
690,-0.470703,-0.661621,0.591797,0
710,-0.466797,-0.666992,0.571289,0
730,-0.474121,-0.61377,0.569336,0
750,-0.48877,-0.547852,0.571777,0
770,-0.494629,-0.556152,0.568848,0
790,-0.494629,-0.59375,0.570312,0
810,-0.478027,-0.621094,0.575195,0
830,-0.470703,-0.634277,0.580566,0
850,-0.47168,-0.623047,0.584961,0
870,-0.489746,-0.617188,0.581055,0
890,-0.503418,-0.610352,0.589844,0
910,-0.508301,-0.598145,0.594727,0
930,-0.510742,-0.598145,0.608398,0
950,-0.48877,-0.580078,0.625,0
970,-0.462891,-0.562012,0.626953,0
990,-0.455566,-0.56543,0.630859,0
1010,-0.453613,-0.567383,0.625977,0
1030,-0.451172,-0.581055,0.617676,0
1050,-0.451172,-0.597168,0.612793,0
1070,-0.446289,-0.609375,0.605469,0
1090,-0.453613,-0.611816,0.605957,0
1110,-0.45459,-0.602539,0.615723,0
1130,-0.452637,-0.592773,0.614746,0
1150,-0.454102,-0.587402,0.615723,0
1170,-0.463379,-0.556641,0.614746,0
1190,-0.473633,-0.549805,0.621582,0
1210,-0.475098,-0.581543,0.61377,0
1230,-0.475098,-0.586914,0.602051,0
1250,-0.475098,-0.598633,0.614258,0
1270,-0.47168,-0.584473,0.61084,0
1290,-0.446289,-0.550293,0.608398,0
1310,-0.486328,-0.583984,0.631348,0
1330,-0.484375,-0.574219,0.625488,0
1350,-0.469727,-0.563477,0.632812,0
1370,-0.452637,-0.569336,0.627441,0
1390,-0.453125,-0.561523,0.636719,0
1410,-0.45459,-0.556152,0.646484,0
1430,-0.459961,-0.588379,0.642578,0
1450,-0.448242,-0.588379,0.636719,0
1470,-0.453125,-0.574219,0.636719,0
1490,-0.440918,-0.552734,0.640137,0
1510,-0.424316,-0.551758,0.647461,0
1530,-0.439453,-0.5625,0.662109,0
1550,-0.436035,-0.563965,0.674805,0
1570,-0.428711,-0.555664,0.666504,0
1590,-0.426758,-0.550781,0.655273,0
1610,-0.42627,-0.549805,0.652344,0
1630,-0.42627,-0.550293,0.658203,0
1650,-0.441406,-0.551758,0.659668,0
1670,-0.441895,-0.549316,0.660156,0
1690,-0.42334,-0.560059,0.658691,0
1710,-0.42334,-0.54834,0.668457,0
1730,-0.418457,-0.537109,0.65332,0
1750,-0.438477,-0.567871,0.664551,0
1770,-0.437988,-0.538086,0.666016,0
1790,-0.429199,-0.533203,0.677734,0
1810,-0.420898,-0.55127,0.671387,0
1830,-0.432617,-0.549316,0.661621,0
1850,-0.438477,-0.535645,0.656738,0
1870,-0.433594,-0.53125,0.662598,0
1890,-0.430176,-0.54248,0.657227,0
1910,-0.438477,-0.542969,0.665039,0
1930,-0.436523,-0.545898,0.668945,0
1950,-0.415527,-0.550781,0.677734,0
1970,-0.406738,-0.553223,0.687012,0
1990,-0.404785,-0.537598,0.692383,0
2010,-0.411133,-0.527344,0.688477,0
2030,-0.414551,-0.532715,0.689453,0
2050,-0.411133,-0.529785,0.692383,0
2070,-0.40625,-0.541992,0.685547,0
2090,-0.406738,-0.541016,0.682129,0
2110,-0.402344,-0.545898,0.677734,0
2130,-0.398926,-0.550781,0.681152,0
2150,-0.399414,-0.544434,0.68457,0
2170,-0.395996,-0.536133,0.688965,0
2190,-0.396973,-0.533203,0.692871,0
2210,-0.396484,-0.532715,0.692383,0
2230,-0.400879,-0.534668,0.688965,0
2250,-0.399902,-0.547852,0.681152,0
2270,-0.403809,-0.550781,0.678711,0
2290,-0.390625,-0.546387,0.6875,0
2310,-0.385254,-0.54541,0.697754,0
2330,-0.387695,-0.530762,0.69043,0
2350,-0.39502,-0.538086,0.692383,0
2370,-0.371582,-0.538086,0.691895,0
2390,-0.381348,-0.582031,0.698242,0
2410,-0.379395,-0.57373,0.676758,0
2430,-0.404297,-0.506348,0.695801,0
2450,-0.411133,-0.466797,0.689453,0
2470,-0.405273,-0.498535,0.679688,0
2490,-0.405762,-0.547852,0.672852,0
2510,-0.406738,-0.567871,0.679199,0
2530,-0.40625,-0.550781,0.68457,0
2550,-0.407227,-0.530762,0.683594,0
2570,-0.415527,-0.527344,0.686523,0
2590,-0.418945,-0.521484,0.687012,0
2610,-0.415527,-0.531738,0.700195,0
2630,-0.406738,-0.539062,0.708496,0
2650,-0.389648,-0.521484,0.705078,0
2670,-0.390625,-0.506348,0.712402,0
2690,-0.394043,-0.493164,0.712402,0
2710,-0.396484,-0.488281,0.71582,0
2730,-0.398926,-0.508789,0.709961,0
2750,-0.393555,-0.542969,0.6875,0
2770,-0.391113,-0.57373,0.675293,0
2790,-0.390625,-0.55957,0.681641,0
2810,-0.391602,-0.538574,0.701172,0
2830,-0.393066,-0.521484,0.703125,0
2850,-0.413574,-0.510742,0.702148,0
2870,-0.416504,-0.496094,0.696777,0
2890,-0.410645,-0.5,0.69043,0
2910,-0.416016,-0.515625,0.680664,0
2930,-0.421387,-0.54248,0.675781,0
2950,-0.421387,-0.544922,0.67627,0
2970,-0.416504,-0.53418,0.68457,0
2990,-0.426758,-0.534668,0.693359,0
3010,-0.435059,-0.523926,0.684082,0
3030,-0.419922,-0.519043,0.700684,0
3050,-0.415527,-0.522949,0.698242,0
3070,-0.416016,-0.516602,0.699219,0
3090,-0.415527,-0.510254,0.695801,0
3110,-0.419922,-0.510254,0.686035,0
3130,-0.419922,-0.498535,0.684082,0
3150,-0.421875,-0.496582,0.691406,0
3170,-0.422363,-0.518555,0.69873,0
3190,-0.426758,-0.535645,0.702148,0
3210,-0.425781,-0.523926,0.704102,0
3230,-0.416992,-0.500488,0.703613,0
3240,-0.40918,-0.475098,0.708008,0
3260,-0.405762,-0.474609,0.718262,0
3280,-0.403809,-0.492188,0.71582,0
3300,-0.387695,-0.503906,0.703125,0
3320,-0.402344,-0.535156,0.698242,0
3340,-0.411621,-0.526367,0.686523,0
3360,-0.417969,-0.520996,0.678223,0
3380,-0.395996,-0.507324,0.678223,0
3400,-0.429688,-0.509277,0.687988,0
3420,-0.42041,-0.499512,0.694824,0
3440,-0.428711,-0.50293,0.709473,0
3460,-0.424805,-0.48584,0.69873,0
3480,-0.435059,-0.488281,0.70166,0
3500,-0.435547,-0.479004,0.6875,0
3520,-0.449219,-0.474609,0.682617,0
3540,-0.450684,-0.498047,0.697266,0
3560,-0.421387,-0.478027,0.693848,0
3580,-0.412109,-0.524414,0.708008,0
3600,-0.422852,-0.552246,0.700684,0
3620,-0.408203,-0.470215,0.727051,0
3640,-0.388184,-0.466797,0.728027,0
3660,-0.395508,-0.512207,0.709961,0
3680,-0.424805,-0.539062,0.706055,0
3700,-0.431641,-0.522461,0.711914,0
3720,-0.419434,-0.49707,0.725586,0
3740,-0.421387,-0.498047,0.719238,0
3760,-0.435547,-0.496582,0.720215,0
3780,-0.428711,-0.477539,0.710449,0
3800,-0.427734,-0.459473,0.713867,0
3820,-0.424316,-0.466797,0.709473,0
3840,-0.428711,-0.484863,0.70752,0
3860,-0.430664,-0.510742,0.696289,0
3880,-0.420898,-0.523438,0.685059,0
3900,-0.428223,-0.523438,0.680664,0
3920,-0.428711,-0.523438,0.682617,0
3940,-0.438965,-0.522949,0.671387,0
3960,-0.438965,-0.542969,0.650879,0
3980,-0.443848,-0.5625,0.652832,0
4000,-0.438477,-0.566895,0.652832,0
4020,-0.438477,-0.575684,0.633301,0
4040,-0.427246,-0.583496,0.650391,0
4060,-0.414551,-0.574707,0.651855,0
4080,-0.404785,-0.563965,0.66748,0
4100,-0.390625,-0.558105,0.675293,0
4120,-0.389648,-0.547852,0.674316,0
4140,-0.392578,-0.564941,0.668945,0
4160,-0.389648,-0.568848,0.662109,0
4180,-0.396484,-0.583008,0.658691,0
4200,-0.40625,-0.589844,0.647461,0
4220,-0.404785,-0.59082,0.641602,0
4240,-0.412109,-0.59082,0.635254,0
4260,-0.410156,-0.590332,0.630859,0
4280,-0.403809,-0.586914,0.644531,0
4300,-0.403809,-0.574707,0.654785,0
4320,-0.402344,-0.565918,0.670898,0
4340,-0.407715,-0.568359,0.681152,0
4360,-0.412598,-0.566406,0.670898,0
4380,-0.410645,-0.569336,0.664551,0
4400,-0.411621,-0.568848,0.651367,0
4420,-0.422852,-0.574707,0.648438,0
4440,-0.422363,-0.571289,0.640625,0
4460,-0.429199,-0.583008,0.63916,0
4480,-0.421875,-0.583496,0.63623,0
4500,-0.412109,-0.590332,0.640137,0
4520,-0.404785,-0.59375,0.642578,0
4540,-0.400391,-0.582031,0.646973,0
4560,-0.402832,-0.588379,0.642578,0
4580,-0.403809,-0.595703,0.650879,0
4600,-0.399902,-0.587402,0.653809,0
4620,-0.408203,-0.588379,0.648438,0
4640,-0.414062,-0.580566,0.65332,0
4660,-0.415527,-0.577637,0.652344,0
4680,-0.420898,-0.575684,0.651367,0
4700,-0.421387,-0.575684,0.646484,0
4720,-0.420898,-0.583008,0.638672,0
4740,-0.419434,-0.587402,0.640625,0
4760,-0.408203,-0.586914,0.650391,0
4780,-0.413574,-0.587891,0.647461,0
4800,-0.405762,-0.586914,0.652344,0
4820,-0.402344,-0.585449,0.64502,0
4840,-0.405273,-0.589355,0.643555,0
4860,-0.402832,-0.584473,0.651855,0
4880,-0.402832,-0.582031,0.652344,0
4900,-0.406738,-0.581055,0.657715,0
4920,-0.409668,-0.570312,0.663574,0
4940,-0.414062,-0.574707,0.663086,0
4960,-0.414551,-0.570312,0.659668,0
4980,-0.421387,-0.564453,0.657715,0
5000,-0.422363,-0.57373,0.648926,0
5020,-0.419434,-0.57373,0.654297,0
5040,-0.423828,-0.574707,0.648926,0
5060,-0.42041,-0.580566,0.649414,0
5080,-0.412598,-0.579102,0.650391,0
5100,-0.412598,-0.577148,0.640137,0
5120,-0.414551,-0.582031,0.643066,0
5140,-0.408691,-0.591309,0.643555,0
5160,-0.410156,-0.594727,0.640625,0
5170,-0.40918,-0.602051,0.645996,0
5200,-0.405762,-0.595215,0.63916,0
5220,-0.40625,-0.59668,0.63916,0
5230,-0.40625,-0.593262,0.642578,0
5250,-0.40918,-0.584961,0.639648,0
5270,-0.416992,-0.588379,0.640137,0
5290,-0.412598,-0.587402,0.647461,0
5310,-0.413086,-0.585938,0.644531,0
5330,-0.408203,-0.589844,0.64209,0
5350,-0.406738,-0.588867,0.642578,0
5370,-0.408691,-0.589844,0.646973,0
5390,-0.413086,-0.584473,0.650391,0
5410,-0.412109,-0.579102,0.650391,0
5430,-0.40918,-0.581055,0.646973,0
5450,-0.412109,-0.574707,0.652832,0
5470,-0.414062,-0.577637,0.649902,0
5490,-0.415527,-0.581543,0.648438,0
5510,-0.412598,-0.57666,0.650391,0
5530,-0.415527,-0.575684,0.649902,0
5550,-0.418945,-0.581543,0.650879,0
5570,-0.41748,-0.578125,0.647949,0
5590,-0.416016,-0.576172,0.651855,0
5610,-0.414551,-0.578125,0.648926,0
5630,-0.405762,-0.585938,0.650879,0
5650,-0.404785,-0.582031,0.661133,0
5670,-0.401855,-0.572754,0.66748,0
5690,-0.404785,-0.571777,0.662109,0
5710,-0.398926,-0.574219,0.668457,0
5730,-0.400391,-0.567383,0.679688,0
5750,-0.400391,-0.575684,0.665039,0
5770,-0.399902,-0.575684,0.674316,0
5790,-0.399414,-0.566895,0.677734,0
5810,-0.401367,-0.5625,0.678711,0
5830,-0.400879,-0.556152,0.679688,0
5850,-0.402832,-0.556152,0.67627,0
5870,-0.414551,-0.562988,0.674805,0
5890,-0.423828,-0.557129,0.662109,0
5910,-0.443359,-0.5625,0.650391,0
5930,-0.415527,-0.564453,0.626953,0
5950,-0.35498,-0.486328,0.644043,0
5970,-0.309082,-0.621094,0.701172,0
5990,-0.599121,-0.490723,0.667969,0
6010,-0.633789,-0.541016,0.545898,0
6030,-0.413086,-0.721191,0.564453,0
6050,-0.408203,-0.683594,0.55127,0
6070,-0.476074,-0.643066,0.577637,0
6090,-0.467773,-0.576172,0.649414,0
6110,-0.428711,-0.552246,0.686523,0
6130,-0.40332,-0.550781,0.691895,0
6150,-0.370605,-0.471191,0.682617,0
6170,-0.410645,-0.443848,0.646973,0
6190,-0.514648,-0.486328,0.615723,0
6210,-0.541016,-0.557129,0.617188,0
6230,-0.541016,-0.601562,0.604492,0
6250,-0.500488,-0.607422,0.609375,0
6270,-0.477051,-0.591309,0.615234,0
6290,-0.468262,-0.571777,0.618652,0
6310,-0.47168,-0.560059,0.620605,0
6330,-0.471191,-0.53125,0.640625,0
6350,-0.45752,-0.540527,0.64502,0
6370,-0.44043,-0.554688,0.657227,0
6390,-0.428711,-0.558105,0.652344,0
6410,-0.431641,-0.566895,0.653809,0
6430,-0.43457,-0.56543,0.655762,0
6450,-0.432129,-0.577637,0.645996,0
6470,-0.436523,-0.58252,0.646973,0
6490,-0.44043,-0.569824,0.644043,0
6510,-0.445801,-0.570312,0.64502,0
6530,-0.456055,-0.56543,0.647949,0
6550,-0.452637,-0.553223,0.641602,0
6570,-0.452148,-0.547363,0.645996,0
6590,-0.448242,-0.540039,0.652832,0
6610,-0.445312,-0.54248,0.657715,0
6630,-0.436035,-0.542969,0.664551,0
6650,-0.432129,-0.547852,0.67334,0
6670,-0.425781,-0.559082,0.668457,0
6690,-0.408203,-0.551758,0.685547,0
6710,-0.403809,-0.571289,0.682617,0
6730,-0.413086,-0.602539,0.675293,0
6750,-0.428711,-0.533203,0.67334,0
6770,-0.45166,-0.457031,0.682129,0
6790,-0.472656,-0.476074,0.655762,0
6810,-0.470703,-0.536621,0.641602,0
6830,-0.452148,-0.563965,0.638184,0
6850,-0.45459,-0.570312,0.638672,0
6870,-0.460938,-0.566406,0.634277,0
6890,-0.466309,-0.555176,0.648926,0
6910,-0.462891,-0.538086,0.666504,0
6930,-0.454102,-0.534668,0.67627,0
6950,-0.437988,-0.539551,0.680664,0
6970,-0.42041,-0.546387,0.681152,0
6990,-0.400879,-0.541016,0.676758,0
7010,-0.390137,-0.545898,0.673828,0
7030,-0.395508,-0.554688,0.663574,0
7050,-0.398926,-0.575195,0.661133,0
7070,-0.393555,-0.578125,0.654297,0
7090,-0.39502,-0.588867,0.644043,0
7110,-0.406738,-0.594727,0.645508,0
7130,-0.409668,-0.578613,0.660645,0
7150,-0.422852,-0.556152,0.65918,0
7170,-0.431152,-0.555176,0.661133,0
7190,-0.427734,-0.553223,0.663086,0
7210,-0.424316,-0.544434,0.661133,0
7230,-0.433105,-0.537109,0.659668,0
7250,-0.453125,-0.527832,0.658203,0
7270,-0.456055,-0.542969,0.654297,0
7290,-0.448242,-0.556641,0.662598,0
7310,-0.436523,-0.546387,0.668457,0
7330,-0.430176,-0.54248,0.665527,0
7350,-0.426758,-0.543457,0.67041,0
7370,-0.429688,-0.548828,0.675781,0
7390,-0.42627,-0.548828,0.671387,0
7410,-0.420898,-0.537109,0.665039,0
7430,-0.42627,-0.529785,0.660156,0
7450,-0.428223,-0.539551,0.669922,0
7470,-0.435059,-0.566895,0.668945,0
7490,-0.438965,-0.57959,0.671387,0
7510,-0.427246,-0.559082,0.674805,0
7530,-0.42041,-0.532227,0.668945,0
7550,-0.419434,-0.51416,0.682617,0
7570,-0.418945,-0.509766,0.691895,0
7590,-0.419922,-0.518555,0.690918,0
7610,-0.428223,-0.546387,0.681152,0
7630,-0.426758,-0.555176,0.665527,0
7650,-0.431152,-0.550781,0.65332,0
7670,-0.435547,-0.542969,0.652832,0
7690,-0.433105,-0.531738,0.665039,0
7710,-0.433105,-0.535156,0.666504,0
7730,-0.442383,-0.538086,0.666016,0
7750,-0.45459,-0.537598,0.663574,0
7770,-0.458008,-0.542969,0.65918,0
7790,-0.455078,-0.537109,0.663086,0
7810,-0.444336,-0.536133,0.658691,0
7830,-0.448242,-0.529785,0.666016,0
7850,-0.445801,-0.526855,0.669434,0
7870,-0.440918,-0.532715,0.665527,0
7890,-0.43457,-0.553223,0.669922,0
7910,-0.426758,-0.560059,0.66748,0
7930,-0.431152,-0.555176,0.664551,0
7950,-0.428223,-0.548828,0.662109,0
7970,-0.431641,-0.546387,0.665039,0
7990,-0.430176,-0.549316,0.663574,0
8010,-0.4375,-0.549316,0.650879,0
8030,-0.435547,-0.553711,0.654297,0
8050,-0.435059,-0.552734,0.651855,0
8070,-0.432617,-0.543945,0.657227,0
8090,-0.440918,-0.53418,0.662598,0
8110,-0.442383,-0.538086,0.658203,0
8130,-0.435547,-0.536133,0.663574,0
8150,-0.441895,-0.539551,0.674805,0
8170,-0.445801,-0.540527,0.661621,0
8190,-0.441406,-0.550781,0.661621,0
8210,-0.437012,-0.557129,0.65332,0
8230,-0.442383,-0.552734,0.662598,0
8250,-0.434082,-0.557129,0.663086,0
8270,-0.42627,-0.553711,0.665527,0
8290,-0.423828,-0.542969,0.675781,0
8310,-0.428711,-0.53418,0.67041,0
8330,-0.427734,-0.53418,0.66748,0
8350,-0.4375,-0.53418,0.663086,0
8370,-0.4375,-0.552246,0.664062,0
8390,-0.431641,-0.55127,0.665527,0
8410,-0.434082,-0.548828,0.666504,0
8430,-0.428223,-0.551758,0.669922,0
8450,-0.424316,-0.547852,0.669922,0
8470,-0.42334,-0.547852,0.668457,0
8490,-0.42627,-0.546875,0.665039,0
8510,-0.427734,-0.546875,0.662598,0
8530,-0.432617,-0.554688,0.65918,0
8550,-0.435059,-0.551758,0.657227,0
8570,-0.436035,-0.553223,0.654297,0
8590,-0.436035,-0.561035,0.663086,0
8610,-0.430176,-0.556152,0.659668,0
8630,-0.429199,-0.55957,0.661133,0
8640,-0.429199,-0.561035,0.658691,0
8660,-0.427246,-0.553711,0.658203,0
8680,-0.428223,-0.555664,0.661133,0
8700,-0.428223,-0.545898,0.665039,0
8720,-0.429688,-0.54541,0.662109,0
8740,-0.434082,-0.551758,0.660645,0
8760,-0.4375,-0.550293,0.661621,0
8780,-0.442383,-0.544922,0.664551,0
8800,-0.441406,-0.552246,0.655762,0
8820,-0.438477,-0.545898,0.651855,0
8840,-0.44043,-0.54834,0.659668,0
8860,-0.436523,-0.548828,0.664551,0
8880,-0.435547,-0.547363,0.668945,0
8900,-0.437988,-0.556152,0.667969,0
8920,-0.437012,-0.54834,0.659668,0
8940,-0.433105,-0.549805,0.666992,0
8960,-0.436523,-0.555176,0.658203,0
8980,-0.439453,-0.54834,0.65918,0
9000,-0.445801,-0.546875,0.654785,0
9020,-0.440918,-0.552734,0.660156,0
9040,-0.436523,-0.550781,0.654785,0
9060,-0.436035,-0.548828,0.658691,0
9080,-0.439453,-0.555664,0.655273,0
9100,-0.436035,-0.552246,0.657715,0
9120,-0.441895,-0.555664,0.658691,0
9140,-0.43457,-0.550781,0.657715,0
9160,-0.438477,-0.54834,0.654785,0
9180,-0.437012,-0.55127,0.662598,0
9200,-0.441406,-0.548828,0.655273,0
9220,-0.435059,-0.549805,0.655273,0
9240,-0.4375,-0.551758,0.654297,0
9260,-0.437988,-0.542969,0.662109,0
9280,-0.441406,-0.548828,0.657227,0
9300,-0.443848,-0.546387,0.660645,0
9320,-0.441895,-0.545898,0.658691,0
9340,-0.439941,-0.54834,0.660156,0
9360,-0.4375,-0.550781,0.663574,0
9380,-0.437988,-0.547852,0.661133,0
9400,-0.431641,-0.554199,0.660156,0
9420,-0.434082,-0.547363,0.660156,0
9440,-0.4375,-0.554199,0.660645,0
9460,-0.436035,-0.553223,0.662598,0
9480,-0.436035,-0.547363,0.662109,0
9500,-0.435547,-0.548828,0.657715,0
9520,-0.436035,-0.551758,0.658691,0
9540,-0.4375,-0.544434,0.666016,0
9560,-0.437988,-0.548828,0.664062,0
9580,-0.433594,-0.543457,0.663574,0
9600,-0.435547,-0.544922,0.661133,0
9620,-0.442383,-0.543945,0.664551,0
9640,-0.435059,-0.54834,0.663574,0
9660,-0.439453,-0.552246,0.666016,0
9680,-0.437012,-0.550781,0.662109,0
9700,-0.434082,-0.55127,0.663574,0
9720,-0.431641,-0.555176,0.662109,0
9740,-0.434082,-0.550781,0.663574,0
9760,-0.434082,-0.552246,0.662598,0
9780,-0.436035,-0.547363,0.660645,0
9800,-0.432129,-0.547363,0.661621,0
9820,-0.433594,-0.550293,0.658203,0
9840,-0.4375,-0.554199,0.65332,0
9860,-0.432129,-0.555176,0.654297,0
9880,-0.435547,-0.555176,0.657227,0
9900,-0.434082,-0.552246,0.662109,0
9920,-0.437012,-0.549316,0.67041,0
9940,-0.435059,-0.548828,0.667969,0
9960,-0.433105,-0.54834,0.666504,0
9980,-0.430176,-0.546875,0.660645,0
10000,-0.436523,-0.549316,0.661621,0
10020,-0.43457,-0.547363,0.663086,0
10040,-0.436523,-0.555176,0.665039,0
10060,-0.432617,-0.550781,0.661621,0
10080,-0.435059,-0.550781,0.661621,0
10100,-0.430664,-0.551758,0.663574,0
10120,-0.436035,-0.550293,0.65918,0
10140,-0.435059,-0.548828,0.661133,0
10160,-0.433105,-0.556641,0.661621,0
10180,-0.430176,-0.55127,0.657227,0
10200,-0.429199,-0.556152,0.658203,0
10220,-0.430664,-0.553223,0.658691,0
10240,-0.432129,-0.556152,0.658691,0
10260,-0.435547,-0.559082,0.660645,0
10280,-0.433105,-0.554688,0.660645,0
10300,-0.430176,-0.553711,0.657227,0
10320,-0.430664,-0.557129,0.663574,0
10340,-0.436523,-0.555664,0.664551,0
10360,-0.433594,-0.556641,0.658691,0
10380,-0.436035,-0.555664,0.658691,0
10400,-0.433594,-0.554199,0.658203,0
10420,-0.431641,-0.55127,0.65625,0
10440,-0.430664,-0.553223,0.658203,0
10460,-0.427734,-0.556641,0.660156,0
10480,-0.431641,-0.557129,0.653809,0
10500,-0.437012,-0.552246,0.649414,0
10520,-0.436523,-0.5625,0.653809,0
10540,-0.439453,-0.561523,0.650391,0
10560,-0.437012,-0.557617,0.653809,0
10580,-0.444824,-0.559082,0.648926,0
10600,-0.439941,-0.558594,0.662109,0
10620,-0.442383,-0.550781,0.655762,0
10630,-0.443359,-0.553711,0.649902,0
10650,-0.446777,-0.550293,0.649902,0
10670,-0.446289,-0.547363,0.654785,0
10690,-0.443848,-0.560059,0.657227,0
10710,-0.443848,-0.555664,0.65332,0
10730,-0.441406,-0.557617,0.653809,0
10750,-0.439453,-0.564453,0.652832,0
10770,-0.44043,-0.558594,0.646973,0
10790,-0.437988,-0.559082,0.65625,0
10810,-0.4375,-0.5625,0.643066,0
10830,-0.437012,-0.556641,0.654785,0
10850,-0.439941,-0.56543,0.650391,0
10870,-0.436523,-0.5625,0.65332,0
10890,-0.438477,-0.560059,0.646973,0
10910,-0.438477,-0.562012,0.656738,0
10930,-0.439941,-0.556152,0.647949,0
10950,-0.441406,-0.556641,0.658203,0
10970,-0.443359,-0.557617,0.65918,0
10990,-0.442871,-0.554199,0.648926,0
11010,-0.443848,-0.552734,0.652832,0
11030,-0.441406,-0.557617,0.646484,0
11050,-0.439941,-0.555664,0.645996,0
11070,-0.440918,-0.55957,0.648438,0
11090,-0.446289,-0.553711,0.65332,0
11110,-0.441406,-0.554199,0.655762,0
11130,-0.442383,-0.555176,0.662109,0
11150,-0.449219,-0.552246,0.657715,0
11170,-0.441895,-0.556641,0.650391,0
11190,-0.436035,-0.556152,0.651855,0
11210,-0.440918,-0.550781,0.654785,0
11230,-0.443848,-0.554688,0.657715,0
11250,-0.44873,-0.54834,0.654297,0
11270,-0.443359,-0.549316,0.648926,0
11290,-0.445801,-0.555176,0.649902,0
11310,-0.444336,-0.554199,0.650391,0
11330,-0.439941,-0.556152,0.653809,0
11350,-0.44873,-0.550293,0.649902,0
11370,-0.4375,-0.551758,0.651367,0
11390,-0.432617,-0.561035,0.653809,0
11410,-0.436035,-0.556641,0.655762,0
11430,-0.439941,-0.552246,0.655273,0
11450,-0.441406,-0.564453,0.652832,0
11470,-0.441406,-0.561523,0.65332,0
11490,-0.438965,-0.558594,0.650391,0
11510,-0.435547,-0.5625,0.653809,0
11530,-0.437988,-0.553223,0.658203,0
11550,-0.442871,-0.551758,0.663574,0
11570,-0.437988,-0.557617,0.660645,0
11590,-0.438477,-0.549316,0.65332,0
11610,-0.442383,-0.554199,0.658691,0
11630,-0.438965,-0.558594,0.649902,0
11650,-0.435547,-0.557129,0.65332,0
11670,-0.437012,-0.560547,0.657227,0
11690,-0.436523,-0.559082,0.656738,0
11710,-0.439941,-0.555176,0.652344,0
11730,-0.438477,-0.561035,0.656738,0
11750,-0.436523,-0.555664,0.647461,0
11770,-0.437012,-0.557129,0.657715,0
11790,-0.430664,-0.550781,0.664062,0
11810,-0.427734,-0.541992,0.667969,0
11830,-0.439941,-0.548828,0.660645,0
11850,-0.449219,-0.561035,0.646973,0
11870,-0.447754,-0.568848,0.640137,0
11890,-0.441895,-0.571777,0.635254,0
11910,-0.443848,-0.576172,0.639648,0
11930,-0.441406,-0.571777,0.641113,0
11950,-0.437988,-0.578125,0.651367,0
11970,-0.433105,-0.570801,0.650879,0
11990,-0.432617,-0.564941,0.649414,0
12010,-0.429199,-0.563965,0.644043,0
12030,-0.432129,-0.560059,0.651367,0
12050,-0.443848,-0.561523,0.641113,0
12070,-0.447266,-0.564941,0.642578,0
12090,-0.444336,-0.567871,0.647949,0
12110,-0.435547,-0.574707,0.646973,0
12130,-0.431152,-0.556641,0.655762,0
12150,-0.44043,-0.544922,0.644043,0
12170,-0.451172,-0.5625,0.64502,0
12190,-0.445801,-0.58252,0.640625,0
12210,-0.439453,-0.576172,0.641602,0
12230,-0.443359,-0.570801,0.646973,0
12250,-0.439453,-0.560059,0.647461,0
12270,-0.439941,-0.570801,0.652344,0
12290,-0.44043,-0.554199,0.641113,0
12310,-0.450684,-0.56543,0.637207,0
12330,-0.44873,-0.572754,0.634766,0
12350,-0.454102,-0.568359,0.631836,0
12370,-0.45166,-0.574219,0.63623,0
12390,-0.451172,-0.57373,0.640137,0
12410,-0.438965,-0.571289,0.640625,0
12430,-0.441895,-0.567383,0.649902,0
12450,-0.441895,-0.563477,0.652832,0
12470,-0.437988,-0.559082,0.645508,0
12490,-0.441406,-0.565918,0.640137,0
12510,-0.443848,-0.568848,0.640625,0
12530,-0.44043,-0.571289,0.638672,0
12550,-0.430664,-0.581055,0.637207,0
12570,-0.433105,-0.572754,0.641602,0
12590,-0.436523,-0.569336,0.644043,0
12610,-0.438965,-0.570312,0.640625,0
12630,-0.438477,-0.568359,0.648438,0
12650,-0.442383,-0.572754,0.64209,0
12670,-0.442871,-0.574707,0.640625,0
12690,-0.440918,-0.573242,0.637695,0
12710,-0.444336,-0.57373,0.643066,0
12730,-0.441895,-0.564941,0.638184,0
12750,-0.446289,-0.569824,0.643066,0
12770,-0.437988,-0.566895,0.645508,0
12790,-0.439453,-0.561523,0.645996,0
12810,-0.439941,-0.56543,0.646484,0
12830,-0.444336,-0.567871,0.650879,0
12850,-0.442871,-0.568359,0.637207,0
12870,-0.4375,-0.574219,0.643555,0
12890,-0.433594,-0.568359,0.641602,0
12910,-0.4375,-0.564453,0.645508,0
12930,-0.436035,-0.571777,0.652832,0
12950,-0.430176,-0.562012,0.651855,0
12970,-0.431641,-0.567383,0.654785,0
12990,-0.432129,-0.562988,0.651855,0
13010,-0.43457,-0.562012,0.653809,0
13030,-0.435059,-0.562012,0.649902,0
13050,-0.432617,-0.564453,0.648438,0
13070,-0.435059,-0.559082,0.651855,0
13090,-0.437988,-0.562988,0.655273,0
13110,-0.434082,-0.55957,0.657227,0
13130,-0.43457,-0.560059,0.654785,0
13150,-0.435547,-0.5625,0.661133,0
13170,-0.435059,-0.548828,0.656738,0
13190,-0.435059,-0.55957,0.654785,0
13210,-0.431152,-0.558105,0.657227,0
13230,-0.435059,-0.553711,0.661133,0
13250,-0.433105,-0.554688,0.657715,0
13270,-0.432129,-0.554688,0.660156,0
13290,-0.431641,-0.555176,0.665527,0
13310,-0.431152,-0.558105,0.660156,0
13330,-0.429199,-0.554688,0.655273,0
13350,-0.430176,-0.562012,0.659668,0
13370,-0.426758,-0.569336,0.65625,0
13390,-0.42334,-0.564453,0.658203,0
13410,-0.411621,-0.56543,0.665527,0
13430,-0.416016,-0.581543,0.65918,0
13450,-0.416504,-0.569824,0.648438,0
13470,-0.436035,-0.534668,0.651367,0
13490,-0.447266,-0.510742,0.647949,0
13510,-0.447266,-0.544922,0.632812,0
13530,-0.444824,-0.589355,0.625,0
13550,-0.44043,-0.592773,0.634766,0
13570,-0.45166,-0.592773,0.637207,0
13590,-0.449219,-0.572266,0.650879,0
13610,-0.450195,-0.535156,0.667969,0
13630,-0.452637,-0.521973,0.685547,0
13650,-0.445312,-0.513672,0.693359,0
13670,-0.442871,-0.52002,0.689453,0
13690,-0.439453,-0.52832,0.679199,0
13710,-0.433594,-0.523926,0.671387,0
13730,-0.429688,-0.540039,0.662109,0
13750,-0.425781,-0.552734,0.66748,0
13770,-0.416504,-0.548828,0.671875,0
13790,-0.410156,-0.544434,0.677246,0
13810,-0.415527,-0.534668,0.682617,0
13830,-0.41748,-0.530762,0.68457,0
13850,-0.422363,-0.533691,0.68457,0
13870,-0.429199,-0.530762,0.686523,0
13890,-0.433105,-0.536621,0.674805,0
13910,-0.438965,-0.54248,0.673828,0
13930,-0.44043,-0.53418,0.67334,0
13950,-0.442383,-0.529785,0.675781,0
13970,-0.445801,-0.526367,0.670898,0
13990,-0.439941,-0.527344,0.670898,0
14010,-0.43457,-0.539062,0.663574,0
14030,-0.432129,-0.539551,0.660156,0
14050,-0.429199,-0.546875,0.657715,0
14060,-0.427246,-0.557617,0.654785,0
14080,-0.428711,-0.558594,0.657227,0
14100,-0.425781,-0.563477,0.656738,0
14120,-0.433105,-0.555664,0.655762,0
14140,-0.432617,-0.546387,0.65918,0
14160,-0.436523,-0.55127,0.654297,0
14180,-0.444336,-0.55127,0.65332,0
14200,-0.447266,-0.548828,0.647949,0
14220,-0.449707,-0.558105,0.651855,0
14240,-0.444824,-0.554688,0.651367,0
14260,-0.442383,-0.551758,0.650391,0
14280,-0.440918,-0.556152,0.651367,0
14300,-0.439941,-0.554199,0.657227,0
14320,-0.438965,-0.560059,0.65918,0
14340,-0.438477,-0.557617,0.657715,0
14360,-0.438965,-0.554688,0.652344,0
14380,-0.437988,-0.567871,0.64502,0
14400,-0.444336,-0.559082,0.654785,0
14420,-0.434082,-0.556152,0.653809,0
14440,-0.438477,-0.558594,0.655273,0
14460,-0.429199,-0.552734,0.663086,0
14480,-0.429199,-0.554688,0.663086,0
14500,-0.421875,-0.55957,0.663574,0
14520,-0.42041,-0.552246,0.663574,0
14540,-0.416016,-0.551758,0.665527,0
14560,-0.41748,-0.555664,0.66748,0
14580,-0.414062,-0.557129,0.664062,0
14600,-0.414062,-0.559082,0.668457,0
14620,-0.413574,-0.550293,0.672363,0
14640,-0.416016,-0.539551,0.684082,0
14660,-0.419922,-0.533203,0.684082,0
14680,-0.427734,-0.525879,0.679688,0
14700,-0.429199,-0.524902,0.674316,0
14720,-0.431152,-0.532715,0.678223,0
14740,-0.427246,-0.527832,0.676758,0
14760,-0.428711,-0.534668,0.67627,0
14780,-0.427734,-0.539551,0.671875,0
14800,-0.425781,-0.537598,0.676758,0
14820,-0.418457,-0.543457,0.679199,0
14840,-0.415527,-0.544434,0.684082,0
14860,-0.415039,-0.544434,0.682129,0
14880,-0.413086,-0.54834,0.681641,0
14900,-0.418945,-0.535645,0.67627,0
14920,-0.416992,-0.543457,0.66748,0
14940,-0.417969,-0.552734,0.656738,0
14960,-0.415527,-0.549316,0.665039,0
14980,-0.421875,-0.545898,0.67041,0
15000,-0.418457,-0.54541,0.67041,0
15020,-0.413574,-0.541504,0.669434,0
15040,-0.416504,-0.540039,0.672852,0
15060,-0.42041,-0.542969,0.673828,0
15080,-0.41748,-0.538574,0.670898,0
15100,-0.414062,-0.548828,0.674316,0
15120,-0.411133,-0.545898,0.678223,0
15140,-0.413574,-0.540527,0.685547,0
15160,-0.415039,-0.531738,0.685059,0
15180,-0.411133,-0.537598,0.689453,0
15200,-0.413086,-0.529297,0.692871,0
15220,-0.41748,-0.519531,0.689453,0
15240,-0.412109,-0.516113,0.693359,0
15260,-0.411621,-0.519531,0.686523,0
15280,-0.413574,-0.52002,0.687012,0
15300,-0.411133,-0.524414,0.689453,0
15320,-0.409668,-0.525879,0.696289,0
15340,-0.40625,-0.512695,0.695312,0
15360,-0.402344,-0.513184,0.702637,0
15380,-0.404297,-0.505859,0.706543,0
15400,-0.407715,-0.495117,0.706055,0
15420,-0.416016,-0.493164,0.708496,0
15440,-0.427246,-0.490723,0.70166,0
15460,-0.42041,-0.494629,0.70752,0
15480,-0.423828,-0.501465,0.702148,0
15500,-0.421875,-0.483398,0.705078,0
15520,-0.401855,-0.505371,0.70752,0
15540,-0.401367,-0.492188,0.709961,0
15560,-0.391602,-0.49707,0.71875,0
15580,-0.399902,-0.488281,0.71582,0
15600,-0.391113,-0.493164,0.726562,0
15620,-0.407715,-0.475586,0.716797,0
15640,-0.393066,-0.488281,0.729004,0
15660,-0.388184,-0.492676,0.73584,0
15680,-0.390137,-0.46582,0.730469,0
15700,-0.391602,-0.474121,0.732422,0
15720,-0.402344,-0.463379,0.737305,0
15740,-0.401855,-0.462402,0.722168,0
15760,-0.395508,-0.463379,0.736816,0
15780,-0.39502,-0.46582,0.730957,0
15800,-0.396973,-0.467773,0.734863,0
15820,-0.390625,-0.470703,0.73291,0
15840,-0.395996,-0.474609,0.734863,0
15860,-0.393066,-0.478027,0.730957,0
15880,-0.39209,-0.472168,0.73584,0
15900,-0.395508,-0.470703,0.734863,0
15920,-0.396973,-0.467773,0.726562,0
15940,-0.401855,-0.467285,0.730469,0
15960,-0.400391,-0.470215,0.716797,0
15980,-0.408203,-0.469238,0.725586,0
16000,-0.404785,-0.471191,0.718262,0
16020,-0.400391,-0.481934,0.724121,0
16040,-0.398926,-0.482422,0.723633,0
16050,-0.400391,-0.48584,0.726562,0
16070,-0.399902,-0.491211,0.720703,0
16090,-0.393555,-0.492188,0.722656,0
16110,-0.396973,-0.496094,0.717773,0
16130,-0.395996,-0.494141,0.71875,0
16150,-0.401367,-0.489746,0.712891,0
16170,-0.400879,-0.493652,0.714355,0
16190,-0.402344,-0.491699,0.711914,0
16210,-0.405762,-0.485352,0.71875,0
16230,-0.410156,-0.487305,0.716797,0
16250,-0.408203,-0.482422,0.710938,0
16270,-0.406738,-0.479492,0.716309,0
16290,-0.402832,-0.493164,0.706055,0
16310,-0.402344,-0.490234,0.713379,0
16330,-0.408203,-0.495605,0.717285,0
16350,-0.405762,-0.49707,0.711426,0
16370,-0.401367,-0.5,0.703613,0
16390,-0.399902,-0.508301,0.706055,0
16410,-0.407715,-0.506348,0.70752,0
16430,-0.407715,-0.497559,0.702148,0
16450,-0.407715,-0.500488,0.710938,0
16470,-0.411621,-0.496582,0.707031,0
16490,-0.410156,-0.494629,0.709961,0
16510,-0.408203,-0.498535,0.712402,0
16530,-0.409668,-0.487305,0.710449,0
16550,-0.411133,-0.494141,0.704102,0
16570,-0.407715,-0.494141,0.71582,0
16590,-0.408203,-0.489258,0.708496,0
16610,-0.40918,-0.496582,0.711914,0
16630,-0.408203,-0.493652,0.709473,0
16650,-0.400879,-0.495117,0.706543,0
16670,-0.405762,-0.498535,0.715332,0
16690,-0.407715,-0.493652,0.714355,0
16710,-0.407715,-0.491699,0.710449,0
16730,-0.407715,-0.499512,0.715332,0
16750,-0.401855,-0.493164,0.709961,0
16770,-0.402832,-0.492676,0.713867,0
16790,-0.399902,-0.494629,0.711426,0
16810,-0.400391,-0.493652,0.714844,0
16830,-0.405762,-0.499023,0.714844,0
16850,-0.401367,-0.492188,0.714844,0
16870,-0.399902,-0.490234,0.719727,0
16890,-0.400879,-0.495117,0.71582,0
16910,-0.401855,-0.493652,0.711914,0
16930,-0.402832,-0.491211,0.717285,0
16950,-0.408203,-0.48877,0.720703,0
16970,-0.400879,-0.481445,0.720215,0
16990,-0.400391,-0.492188,0.720703,0
17010,-0.40332,-0.486816,0.717773,0
17030,-0.40332,-0.486816,0.717773,0
17050,-0.404297,-0.493652,0.711426,0
17070,-0.401367,-0.488281,0.710938,0
17090,-0.40625,-0.486328,0.719727,0
17110,-0.402344,-0.487305,0.718262,0
17130,-0.399902,-0.490723,0.722656,0
17150,-0.398438,-0.48584,0.721191,0
17170,-0.399414,-0.490723,0.719727,0
17190,-0.397949,-0.481445,0.720703,0
17210,-0.399414,-0.489258,0.719238,0
17230,-0.402832,-0.488281,0.71582,0
17250,-0.398926,-0.48291,0.720215,0
17270,-0.400879,-0.486816,0.716797,0
17290,-0.404297,-0.48291,0.723633,0
17310,-0.405273,-0.479492,0.727539,0
17330,-0.404785,-0.488281,0.72168,0
17350,-0.405273,-0.482422,0.722168,0
17370,-0.404297,-0.48584,0.719727,0
17390,-0.402832,-0.487305,0.719727,0
17410,-0.403809,-0.481934,0.716797,0
17430,-0.410645,-0.486816,0.713867,0
17450,-0.403809,-0.482422,0.716797,0
17470,-0.403809,-0.493164,0.715332,0
17490,-0.404297,-0.495605,0.716309,0
17510,-0.402344,-0.495605,0.711426,0
17530,-0.399414,-0.504395,0.716797,0
17550,-0.402832,-0.504883,0.709961,0
17570,-0.401367,-0.506348,0.709473,0
17590,-0.408203,-0.508789,0.706055,0
17610,-0.416016,-0.515625,0.699707,0
17630,-0.438965,-0.513184,0.70166,0
17650,-0.443359,-0.529785,0.681641,0
17670,-0.453613,-0.58252,0.665527,0
17690,-0.467773,-0.591309,0.672852,0
17710,-0.481934,-0.607422,0.686035,0
17730,-0.454102,-0.598633,0.698242,0
17750,-0.422852,-0.616699,0.697754,0
17770,-0.431152,-0.647461,0.726562,0
17790,-0.435059,-0.626465,0.73877,0
17810,-0.451172,-0.586914,0.741699,0
17830,-0.437988,-0.576172,0.776367,0
17850,-0.413574,-0.569824,0.783203,0
17870,-0.384277,-0.606934,0.779785,0
17890,-0.292969,-0.651367,0.766602,0
17910,-0.233398,-0.802246,0.770508,0
17930,-0.214355,-0.926758,0.831543,0
17950,-0.167969,-0.904297,0.775879,0
17970,-0.120117,-0.786621,0.749023,0
17990,-0.0556641,-0.67334,0.752441,0
18010,-0.00439453,-0.648926,0.71875,0
18030,0.0356445,-0.657227,0.702637,0
18050,0.050293,-0.646484,0.698242,0
18070,0.0439453,-0.646484,0.67627,0
18090,0.0424805,-0.683105,0.661133,0
18110,0.059082,-0.694336,0.649414,0
18130,0.105469,-0.682129,0.625977,0
18150,0.131348,-0.654785,0.612305,0
18170,0.149414,-0.591309,0.572266,0
18190,0.14502,-0.619141,0.561035,0
18210,0.124512,-0.64502,0.588379,0
18230,0.128906,-0.657227,0.541504,0
18250,0.153809,-0.679199,0.484375,0
18270,0.178711,-0.688965,0.504883,0
18290,0.166504,-0.708008,0.500488,0
18310,0.128418,-0.72168,0.477051,0
18330,0.10498,-0.709473,0.469238,0
18350,0.114258,-0.726562,0.442383,0
18370,0.125,-0.741211,0.447754,0
18390,0.123047,-0.746094,0.427734,0
18410,0.0947266,-0.749512,0.416992,0
18430,0.0581055,-0.757812,0.401855,0
18450,0.0258789,-0.771484,0.419434,0
18470,-0.00683594,-0.785156,0.409668,0
18490,-0.0200195,-0.80127,0.390137,0
18510,0.00537109,-0.827637,0.402832,0
18530,0.0527344,-0.82373,0.410645,0
18550,0.0844727,-0.816406,0.40625,0
18570,0.0947266,-0.818359,0.411621,0
18590,0.108887,-0.831543,0.429199,0
18610,0.150391,-0.847656,0.436035,0
18630,0.178711,-0.870117,0.439941,0
18650,0.172852,-0.865234,0.45459,0
18670,0.132812,-0.865234,0.450684,0
18690,0.09375,-0.874023,0.436523,0
18710,0.090332,-0.865723,0.45459,0
18730,0.109863,-0.866211,0.442383,0
18750,0.125,-0.838867,0.431641,0
18770,0.106934,-0.826172,0.414551,0
18790,0.0957031,-0.841309,0.420898,0
18810,0.111816,-0.852051,0.434082,0
18830,0.135742,-0.863281,0.424805,0
18850,0.161621,-0.870605,0.40332,0
18870,0.186523,-0.853516,0.415039,0
18890,0.178711,-0.839355,0.405762,0
18910,0.152344,-0.836914,0.40918,0
18930,0.144531,-0.837891,0.413086,0
18950,0.159668,-0.87207,0.413574,0
18970,0.172852,-0.886719,0.418945,0
18990,0.165527,-0.884766,0.415527,0
19010,0.151367,-0.875977,0.429199,0
19030,0.146973,-0.869629,0.437012,0
19050,0.15918,-0.853027,0.443848,0
19070,0.172363,-0.837402,0.442383,0
19090,0.158203,-0.853516,0.427246,0
19110,0.122559,-0.872559,0.412598,0
19130,0.0883789,-0.87207,0.404297,0
19150,0.0639648,-0.861328,0.402344,0
19170,0.0493164,-0.859375,0.421387,0
19190,0.0390625,-0.84668,0.399414,0
19210,0.0283203,-0.857422,0.380371,0
19230,0.0117188,-0.874512,0.371582,0
19250,0.00390625,-0.883789,0.371094,0
19270,0.0224609,-0.890137,0.377441,0
19290,0.0512695,-0.898926,0.367188,0
19310,0.0458984,-0.893555,0.35791,0
19330,0.0253906,-0.888672,0.375488,0
19350,0.012207,-0.875977,0.385254,0
19370,0.00439453,-0.87793,0.382324,0
19390,0.00488281,-0.891602,0.389648,0
19410,-0.0283203,-0.878906,0.359375,0
19430,-0.0859375,-0.90625,0.369141,0
19450,-0.103516,-0.883301,0.385742,0
19460,-0.0849609,-0.834961,0.380859,0
19480,-0.0556641,-0.867188,0.381348,0
19500,-0.0234375,-0.880371,0.391113,0
19520,-0.00341797,-0.87793,0.404297,0
19540,-0.0151367,-0.876953,0.406738,0
19560,0.00244141,-0.83252,0.396484,0
19580,-0.0107422,-0.832031,0.370605,0
19600,-0.050293,-0.850586,0.374512,0
19620,-0.0336914,-0.858887,0.399902,0
19640,0.0200195,-0.869629,0.409668,0
19660,0.0732422,-0.86377,0.413574,0
19680,0.11377,-0.851074,0.382324,0
19700,0.104004,-0.848145,0.397461,0
19720,0.0893555,-0.843262,0.385254,0
19740,0.0620117,-0.890625,0.381348,0
19760,0.0986328,-0.916992,0.396973,0
19780,0.185059,-0.926758,0.414551,0
19800,0.208984,-0.926758,0.395996,0
19820,0.183594,-0.878906,0.381348,0
19840,0.146484,-0.882324,0.380859,0
19860,0.162598,-0.887207,0.412109,0
19880,0.19043,-0.880859,0.417969,0
19900,0.140625,-0.866211,0.388184,0
19920,0.09375,-0.869629,0.374512,0
19940,0.0854492,-0.866211,0.403809,0
19960,0.0996094,-0.870117,0.425781,0
19980,0.0966797,-0.873047,0.396973,0
20000,0.110352,-0.854492,0.412109,0
20020,0.134766,-0.834473,0.419434,0
20040,0.154297,-0.827148,0.419434,0
20060,0.175293,-0.830566,0.433594,0
20080,0.203613,-0.833496,0.435547,0
20100,0.203613,-0.837891,0.431152,0
20120,0.1875,-0.839844,0.412598,0
20140,0.163574,-0.848633,0.420898,0
20160,0.122559,-0.852051,0.414062,0
20180,0.0957031,-0.856445,0.412109,0
20200,0.0756836,-0.853027,0.433594,0
20220,0.0683594,-0.850098,0.431641,0
20240,0.0751953,-0.841797,0.431152,0
20260,0.109375,-0.833984,0.452148,0
20280,0.164062,-0.84082,0.459961,0
20300,0.226562,-0.858398,0.464844,0
20320,0.268066,-0.888184,0.455566,0
20340,0.282715,-0.900879,0.444824,0
20360,0.258789,-0.884766,0.439941,0
20380,0.196777,-0.870117,0.417969,0
20400,0.160156,-0.878906,0.42041,0
20420,0.196289,-0.901855,0.428711,0
20440,0.254395,-0.898926,0.439453,0
20460,0.264648,-0.888184,0.443848,0
20480,0.232422,-0.867188,0.433594,0
20500,0.210449,-0.834473,0.429199,0
20520,0.228516,-0.838867,0.420898,0
20540,0.272461,-0.841309,0.44873,0
20560,0.280762,-0.837402,0.436523,0
20580,0.269531,-0.810547,0.413086,0
20600,0.281738,-0.786621,0.394531,0
20620,0.292969,-0.797363,0.394531,0
20640,0.294922,-0.803711,0.391113,0
20660,0.299316,-0.810547,0.372559,0
20680,0.294922,-0.804688,0.366211,0
20700,0.299316,-0.819824,0.364258,0
20720,0.313965,-0.814453,0.363281,0
20740,0.319336,-0.803223,0.36377,0
20760,0.31543,-0.803711,0.34668,0
20780,0.32959,-0.796875,0.339355,0
20800,0.340332,-0.805176,0.339355,0
20820,0.336914,-0.799805,0.327637,0
20840,0.331055,-0.805176,0.338379,0
20860,0.320801,-0.821289,0.33252,0
20880,0.309082,-0.834473,0.321777,0
20900,0.310059,-0.83252,0.340332,0
20920,0.305176,-0.835449,0.338379,0
20940,0.313965,-0.833984,0.337891,0
20960,0.319824,-0.842773,0.338867,0
20980,0.317383,-0.849609,0.347168,0
21000,0.32373,-0.830566,0.349121,0
21020,0.315918,-0.833008,0.344727,0
21040,0.316406,-0.82959,0.346191,0
21060,0.321777,-0.826172,0.348145,0
21080,0.322266,-0.83252,0.350098,0
21100,0.321777,-0.828613,0.344727,0
21120,0.31543,-0.834961,0.340332,0
21140,0.300293,-0.831543,0.350586,0
21160,0.289551,-0.817871,0.34375,0
21180,0.281738,-0.81543,0.341797,0
21200,0.273926,-0.81543,0.354492,0
21220,0.276367,-0.816895,0.358887,0
21240,0.283691,-0.81543,0.367676,0
21260,0.276855,-0.817871,0.367676,0
21280,0.272949,-0.807617,0.375977,0
21300,0.271973,-0.815918,0.371582,0
21320,0.276855,-0.822754,0.365234,0
21340,0.286621,-0.832031,0.374512,0
21360,0.293945,-0.82666,0.399902,0
21380,0.297363,-0.813965,0.390137,0
21400,0.303223,-0.802246,0.365723,0
21420,0.296875,-0.811035,0.380859,0
21440,0.264648,-0.831055,0.395996,0
21450,0.223633,-0.847656,0.401367,0
21470,0.195801,-0.852051,0.395508,0
21490,0.173828,-0.885254,0.407715,0
21510,0.163574,-0.882812,0.425293,0
21530,0.165527,-0.890625,0.419434,0
21550,0.157227,-0.891113,0.426758,0
21570,0.15332,-0.872559,0.424316,0
21590,0.136719,-0.867676,0.439941,0
21610,0.118164,-0.879395,0.4375,0
21630,0.103027,-0.882324,0.442871,0
21650,0.0854492,-0.878418,0.443359,0
21670,0.0810547,-0.878906,0.447754,0
21690,0.0878906,-0.890625,0.444824,0
21710,0.0820312,-0.885742,0.444824,0
21730,0.0615234,-0.884766,0.443359,0
21750,0.0424805,-0.870605,0.44873,0
21770,0.0214844,-0.86377,0.4375,0
21790,0.0141602,-0.866699,0.453125,0
21810,-0.000976562,-0.868164,0.444336,0
21830,-0.0175781,-0.881836,0.453613,0
21850,-0.0366211,-0.865234,0.455566,0
21870,-0.0439453,-0.839355,0.471191,0
21890,-0.0620117,-0.846191,0.459961,0
21910,-0.0800781,-0.842285,0.449219,0
21930,-0.101074,-0.864746,0.42041,0
21950,-0.09375,-0.907227,0.429199,0
21970,-0.0869141,-0.904297,0.443359,0
21990,-0.0913086,-0.888672,0.413574,0
22010,-0.0512695,-0.886719,0.430664,0
22030,-0.00830078,-0.897949,0.474121,0
22050,-0.00146484,-0.901367,0.476562,0
22070,0.000976562,-0.897461,0.446777,0
22090,0.0273438,-0.889648,0.446289,0
22110,0.0571289,-0.87793,0.477539,0
22130,0.0957031,-0.846191,0.485352,0
22150,0.111816,-0.837891,0.455566,0
22170,0.120117,-0.837891,0.452148,0
22190,0.123535,-0.816895,0.461426,0
22210,0.119629,-0.821289,0.452637,0
22230,0.130859,-0.834473,0.444824,0
22250,0.150879,-0.827637,0.446289,0
22270,0.171875,-0.821777,0.4375,0
22290,0.169922,-0.794434,0.433594,0
22310,0.181641,-0.790527,0.423828,0
22330,0.183105,-0.786133,0.426758,0
22350,0.171875,-0.783203,0.422363,0
22370,0.167969,-0.803711,0.437012,0
22390,0.161133,-0.813965,0.446777,0
22410,0.164551,-0.812012,0.444336,0
22430,0.171387,-0.818848,0.446777,0
22450,0.178711,-0.822266,0.443359,0
22470,0.176758,-0.81543,0.431152,0
22490,0.174316,-0.820801,0.43457,0
22510,0.167969,-0.818359,0.436035,0
22530,0.159668,-0.827148,0.4375,0
22550,0.149414,-0.834473,0.441895,0
22570,0.14502,-0.837402,0.444824,0
22590,0.137695,-0.847656,0.446777,0
22610,0.137207,-0.853027,0.455566,0
22630,0.137207,-0.849609,0.446777,0
22650,0.128418,-0.859863,0.443848,0
22670,0.114258,-0.850586,0.45752,0
22690,0.11084,-0.862793,0.449707,0
22710,0.104004,-0.86377,0.460449,0
22730,0.0991211,-0.865723,0.460938,0
22750,0.0844727,-0.871582,0.459961,0
22770,0.0595703,-0.857422,0.462891,0
22790,0.0429688,-0.854492,0.477539,0
22810,0.0351562,-0.859863,0.464355,0
22830,0.0224609,-0.849609,0.463867,0
22850,0.0244141,-0.84375,0.474121,0
22870,0.0263672,-0.84082,0.478516,0
22890,0.00683594,-0.833984,0.456055,0
22910,0,-0.842773,0.445312,0
22930,0.000488281,-0.837402,0.446777,0
22950,-0.0166016,-0.830078,0.450195,0
22970,-0.0336914,-0.826172,0.439941,0
22990,-0.050293,-0.84082,0.417969,0
23010,-0.0615234,-0.836426,0.417969,0
23030,-0.0727539,-0.852051,0.416016,0
23050,-0.0913086,-0.848145,0.402344,0
23070,-0.0952148,-0.849609,0.400879,0
23090,-0.0966797,-0.863281,0.407715,0
23110,-0.0791016,-0.868652,0.410645,0
23130,-0.0644531,-0.875,0.419434,0
23150,-0.0703125,-0.888672,0.415527,0
23170,-0.0722656,-0.89502,0.414062,0
23190,-0.078125,-0.899414,0.418457,0
23210,-0.074707,-0.896973,0.431152,0
23230,-0.0708008,-0.891602,0.42334,0
23250,-0.0742188,-0.882324,0.425293,0
23270,-0.0703125,-0.884277,0.414551,0
23290,-0.0600586,-0.875977,0.422363,0
23310,-0.0610352,-0.866211,0.432617,0
23330,-0.0639648,-0.882324,0.429688,0
23350,-0.0463867,-0.896973,0.432617,0
23370,-0.0322266,-0.898926,0.441406,1000
23390,-0.0292969,-0.888672,0.436523,0
23410,-0.0327148,-0.876953,0.432129,0
23430,-0.0263672,-0.867188,0.43457,0
23450,-0.0229492,-0.865234,0.434082,0
23470,0.00732422,-0.871094,0.44873,0
23490,0.0366211,-0.866211,0.452148,0
23510,0.0415039,-0.883301,0.438965,0
23530,0.0375977,-0.875977,0.431152,0
23550,0.0512695,-0.869629,0.439453,0
23570,0.0693359,-0.862793,0.450195,0
23590,0.0766602,-0.861816,0.43457,0
23610,0.0722656,-0.863281,0.439453,0
23630,0.0756836,-0.852539,0.437988,0
23650,0.0664062,-0.841797,0.42334,0
23670,0.0419922,-0.835449,0.432617,0
23690,0.0273438,-0.847656,0.431152,0
23710,0.0219727,-0.845703,0.439453,0
23730,0.0141602,-0.847656,0.439453,0
23750,-0.00488281,-0.851562,0.433594,0
23770,0.00341797,-0.853516,0.429199,0
23790,0.00634766,-0.860352,0.444824,0
23810,-0.00341797,-0.859863,0.450684,0
23830,-0.0126953,-0.856445,0.438965,0
23850,-0.0307617,-0.869141,0.439941,0
23870,-0.046875,-0.872559,0.44873,0
23890,-0.0610352,-0.875,0.445312,0
23910,-0.0629883,-0.881348,0.444336,0
23930,-0.0517578,-0.859375,0.457031,0
23950,-0.0327148,-0.866699,0.45166,0
23970,-0.0200195,-0.876465,0.452637,0
23990,-0.0107422,-0.869629,0.461426,0
24010,-0.0214844,-0.871094,0.458496,0
24030,-0.0224609,-0.87207,0.446777,0
24050,-0.0185547,-0.863281,0.444336,0
24070,-0.0146484,-0.861816,0.451172,0
24090,-0.0112305,-0.854492,0.446777,0
24110,-0.0126953,-0.846191,0.45459,0
24130,-0.015625,-0.847656,0.460449,0
24150,-0.0229492,-0.855469,0.440918,0
24170,-0.0224609,-0.830566,0.45459,0
24190,-0.0102539,-0.816406,0.45459,0
24210,-0.012207,-0.822754,0.462402,0
24230,-0.0239258,-0.859375,0.46875,0
24250,-0.0151367,-0.874512,0.466309,0
24270,-0.00244141,-0.850586,0.455078,0
24290,-0.00244141,-0.841309,0.46875,0
24310,0.00244141,-0.84082,0.461914,0
24330,0.00683594,-0.856934,0.459473,0
24350,-0.00390625,-0.862305,0.466309,0
24370,-0.00927734,-0.874512,0.463867,0
24390,-0.00634766,-0.865723,0.444336,0
24410,0.0102539,-0.869629,0.445801,0
24430,0.00341797,-0.866699,0.446289,0
24450,-0.0112305,-0.854492,0.445312,0
24470,-0.0131836,-0.85498,0.455566,0
24490,0.00292969,-0.882324,0.443848,0
24510,0.00537109,-0.890137,0.43457,0
24530,-0.0136719,-0.886719,0.423828,0
24550,-0.0229492,-0.870605,0.4375,0
24570,-0.0405273,-0.896484,0.42041,0
24590,-0.0126953,-0.933105,0.335938,0
24610,-0.0288086,-0.934082,0.355469,0
24630,-0.0751953,-0.905273,0.387207,0
24650,-0.0839844,-0.911621,0.328125,0
24670,-0.0664062,-0.969238,0.290039,0
24690,-0.0498047,-0.965332,0.312988,0
24710,-0.0205078,-0.983887,0.293945,0
24730,0.000488281,-0.991699,0.243164,0
24750,0.00634766,-0.981934,0.244629,0
24770,-0.00830078,-1.01367,0.20166,0
24790,0.00439453,-0.994629,0.181152,0
24810,-0.0229492,-0.956055,0.17627,0
24830,-0.0454102,-0.956055,0.146484,0
24850,-0.0375977,-0.943848,0.17041,0
24870,-0.0385742,-0.937988,0.166504,0
24880,-0.0825195,-0.951172,0.169434,0
24900,-0.0908203,-0.973145,0.148926,0
24920,-0.0478516,-0.938477,0.156738,0
24940,-0.0551758,-0.905762,0.139648,0
24960,-0.0512695,-0.895996,0.142578,0
24980,-0.0512695,-0.905273,0.131348,0
25000,-0.0107422,-0.959961,0.11377,0
25020,-0.0126953,-0.992188,0.143066,0
25040,-0.0595703,-0.989746,0.183105,0
25060,-0.0839844,-0.973145,0.229492,0
25080,-0.112793,-0.938965,0.226074,0
25100,-0.0805664,-0.951172,0.217285,0
25120,-0.00292969,-0.97168,0.223633,0
25140,0.0405273,-1.00439,0.208008,0
25160,0.0283203,-1.00635,0.243652,0
25180,-0.000976562,-0.974609,0.25,0
25200,-0.00927734,-0.911621,0.263184,0
25220,-0.0288086,-0.880371,0.277344,0
25240,-0.0302734,-0.900391,0.332031,0
25260,-0.0126953,-0.908203,0.370605,0
25280,0.0112305,-0.926758,0.394043,0
25300,0.0332031,-0.942871,0.42041,0
25320,0.0698242,-0.989258,0.433594,0
25340,0.116211,-1,0.431152,0
25360,0.152832,-0.960938,0.458008,0
25380,0.146973,-0.861816,0.465332,0
25400,0.151855,-0.743652,0.51416,0
25420,0.168945,-0.628906,0.524414,0
25440,0.183594,-0.533691,0.554199,0
25460,0.12793,-0.547363,0.614258,0
25480,0.0112305,-0.557129,0.655762,0
25500,0.0410156,-0.424805,0.712891,0
25520,0.136719,-0.470703,0.691406,0
25540,0.228516,-0.578125,0.679688,0
25560,0.175781,-0.536621,0.771484,0
25580,0.174805,-0.484863,0.76123,0
25600,0.31543,-0.53418,0.681152,0
25620,0.359375,-0.552246,0.728027,0
25640,0.317871,-0.49707,0.781738,0
25660,0.29248,-0.439453,0.806152,0
25680,0.34668,-0.45752,0.763184,0
25700,0.376465,-0.424316,0.789062,0
25720,0.348633,-0.363281,0.81543,0
25740,0.335938,-0.385742,0.79541,0
25760,0.366211,-0.400391,0.785156,0
25780,0.35791,-0.342773,0.775391,0
25800,0.333008,-0.388184,0.763184,0
25820,0.316406,-0.382812,0.749023,0
25840,0.287598,-0.310059,0.772461,0
25860,0.306641,-0.328125,0.783203,0
25880,0.32373,-0.319824,0.797363,0
25900,0.332031,-0.321777,0.790527,0
25920,0.369141,-0.304199,0.754883,0
25940,0.388672,-0.275879,0.760254,0
25960,0.385254,-0.257812,0.798828,0
25980,0.39502,-0.274902,0.767578,0
26000,0.395996,-0.276367,0.756348,0
26020,0.37207,-0.266602,0.784668,0
26040,0.345215,-0.272461,0.808105,0
26060,0.356934,-0.308105,0.807617,0
26080,0.405762,-0.334961,0.794434,0
26100,0.4375,-0.343262,0.751465,0
26120,0.441895,-0.322266,0.746582,0
26140,0.420898,-0.304688,0.760742,0
26160,0.426758,-0.330566,0.730469,0
26180,0.430176,-0.364746,0.723145,0
26200,0.408203,-0.356934,0.755371,0
26220,0.407715,-0.344238,0.715332,0
26240,0.397949,-0.373535,0.685059,0
26260,0.375,-0.39209,0.708984,0
26280,0.35498,-0.388184,0.71582,0
26300,0.382812,-0.389648,0.719727,0
26320,0.401855,-0.395508,0.765137,0
26340,0.404785,-0.365234,0.749023,0
26360,0.407227,-0.340332,0.730957,0
26380,0.431641,-0.34668,0.727539,0
26400,0.429688,-0.396973,0.712891,0
26420,0.423828,-0.459961,0.690918,0
26440,0.430664,-0.462402,0.713867,0
26460,0.433105,-0.40918,0.70166,0
26480,0.410156,-0.413574,0.711426,0
26500,0.400391,-0.391113,0.701172,0
26520,0.416992,-0.391113,0.711426,0
26540,0.419922,-0.434082,0.71582,0
26560,0.416992,-0.452637,0.729492,0
26580,0.414062,-0.410156,0.721191,0
26600,0.452637,-0.378906,0.712891,0
26620,0.476074,-0.401367,0.706543,0
26640,0.462402,-0.417969,0.695312,0
26660,0.42041,-0.408691,0.736816,0
26670,0.413086,-0.389648,0.735352,0
26700,0.4375,-0.35791,0.741699,0
26720,0.443848,-0.333496,0.759277,0
26740,0.42627,-0.31543,0.750488,0
26760,0.415527,-0.303711,0.769043,0
26780,0.391602,-0.258301,0.77002,0
26800,0.368652,-0.225098,0.802734,0
26820,0.376953,-0.263672,0.799316,0
26830,0.402832,-0.293457,0.76709,0
26850,0.394043,-0.286133,0.758301,0
26870,0.388672,-0.266602,0.756348,0
26890,0.40918,-0.23291,0.729004,0
26910,0.400391,-0.186035,0.733887,0
26930,0.398438,-0.223145,0.759277,0
26950,0.434082,-0.271973,0.739746,0
26970,0.437012,-0.258789,0.736816,0
26990,0.417969,-0.254883,0.772461,0
27010,0.425293,-0.238281,0.773926,0
27030,0.427734,-0.236816,0.777832,0
27050,0.41748,-0.264648,0.769043,0
27070,0.434082,-0.275879,0.776855,0
27090,0.442871,-0.294922,0.770996,0
27110,0.446289,-0.29834,0.779785,0
27130,0.437988,-0.289062,0.779297,0
27150,0.425781,-0.310547,0.771973,0
27170,0.432617,-0.324219,0.753906,0
27190,0.45752,-0.32666,0.760742,0
27210,0.463379,-0.32373,0.750977,0
27230,0.468262,-0.32373,0.765137,0
27250,0.458496,-0.295898,0.771484,0
27270,0.437988,-0.3125,0.76416,0
27290,0.421387,-0.351562,0.76709,0
27310,0.427246,-0.349121,0.776367,0
27330,0.428223,-0.365234,0.757324,0
27350,0.412598,-0.365723,0.756836,0
27370,0.400879,-0.369141,0.756836,0
27390,0.397949,-0.370605,0.770996,0
27410,0.415039,-0.382324,0.776855,0
27430,0.431641,-0.410645,0.768066,0
27450,0.458496,-0.458008,0.727539,0
27470,0.456543,-0.449707,0.720703,0
27490,0.390137,-0.436523,0.715332,0
27510,0.342285,-0.489258,0.695312,0
27530,0.338379,-0.526855,0.685547,0
27550,0.332031,-0.567871,0.706055,0
27570,0.254395,-0.57959,0.674316,0
27590,0.178711,-0.636719,0.70459,0
27610,0.131836,-0.67334,0.695312,0
27630,0.133789,-0.681152,0.682617,0
27650,0.112305,-0.664062,0.664062,0
27670,0.0678711,-0.658691,0.654785,0
27690,0.0683594,-0.654297,0.629395,0
27710,0.0932617,-0.674805,0.591797,0
27730,0.0913086,-0.685547,0.567383,0
27750,0.0610352,-0.677734,0.551758,0
27770,0.0493164,-0.740234,0.541992,0
27790,0.0478516,-0.753418,0.555176,0
27810,0.0371094,-0.750977,0.529785,0
27830,0.0322266,-0.743652,0.543945,0
27850,0.0395508,-0.749023,0.546875,0
27870,0.0595703,-0.76416,0.54541,0
27890,0.0878906,-0.756348,0.5625,0
27910,0.0981445,-0.76123,0.561523,0
27930,0.109863,-0.766113,0.560059,0
27950,0.116211,-0.764648,0.568359,0
27970,0.110352,-0.763184,0.569336,0
27990,0.0786133,-0.794434,0.570312,0
28010,0.0698242,-0.765137,0.571289,0
28030,0.0605469,-0.774414,0.562012,0
28050,0.0561523,-0.771484,0.560547,0
28070,0.0473633,-0.754883,0.542969,0
28090,0.046875,-0.731445,0.532227,0
28110,0.0395508,-0.709473,0.544922,0
28130,0.0424805,-0.724609,0.54541,0
28150,0.0703125,-0.751953,0.533203,0
28170,0.09375,-0.755859,0.561523,0
28190,0.0922852,-0.780762,0.568359,0
28210,0.103027,-0.791992,0.532227,0
28230,0.116699,-0.773438,0.55127,0
28250,0.118164,-0.74707,0.550781,0
28270,0.10791,-0.758789,0.535156,0
28290,0.104004,-0.763184,0.501953,0
28310,0.122559,-0.775879,0.505371,0
28330,0.156738,-0.76709,0.501465,0
28350,0.206543,-0.806152,0.500488,0
28370,0.23877,-0.791016,0.518066,0
28390,0.235352,-0.775391,0.520996,0
28410,0.227051,-0.788086,0.516602,0
28430,0.261719,-0.770996,0.526855,0
28450,0.314941,-0.761719,0.524414,0
28470,0.337891,-0.736816,0.537109,0
28490,0.286133,-0.700684,0.51123,0
28510,0.269043,-0.724121,0.501465,0
28530,0.333496,-0.71875,0.509766,0
28550,0.42627,-0.71582,0.532227,0
28570,0.416992,-0.692383,0.527344,0
28590,0.364746,-0.671387,0.495605,0
28610,0.38623,-0.690918,0.481934,0
28630,0.431152,-0.694336,0.505859,0
28650,0.418945,-0.669922,0.513672,0
28670,0.399414,-0.660156,0.503906,0
28690,0.405762,-0.655273,0.47168,0
28710,0.45459,-0.670898,0.48584,0
28730,0.486816,-0.663574,0.49707,0
28750,0.466797,-0.642578,0.49707,0
28770,0.483398,-0.640625,0.48584,0
28790,0.489258,-0.64502,0.495605,0
28810,0.516602,-0.637695,0.505371,0
28830,0.513672,-0.617188,0.508301,0
28850,0.512207,-0.613281,0.506348,0
28870,0.498535,-0.592773,0.500977,0
28890,0.520508,-0.606445,0.509766,0
28910,0.541992,-0.60791,0.519531,0
28930,0.547363,-0.589355,0.521484,0
28950,0.556641,-0.585449,0.522949,0
28970,0.550781,-0.584473,0.531738,0
28990,0.52832,-0.566406,0.531738,0
29010,0.524414,-0.556641,0.548828,0
29030,0.530273,-0.557129,0.543945,0
29050,0.549316,-0.563965,0.551758,0
29070,0.575195,-0.55957,0.552734,0
29090,0.579102,-0.557129,0.539062,0
29110,0.575684,-0.563477,0.541992,0
29130,0.582031,-0.55127,0.560059,0
29150,0.584473,-0.554688,0.565918,0
29170,0.563477,-0.55957,0.571777,0
29190,0.560059,-0.554199,0.601074,0
29210,0.5625,-0.558594,0.645508,0
29230,0.56543,-0.532227,0.645996,0
29250,0.553223,-0.515137,0.620117,0
29270,0.534668,-0.484375,0.629883,0
29290,0.482422,-0.524414,0.69043,0
29310,0.459473,-0.494629,0.688477,0
29330,0.462891,-0.557129,0.675293,0
29350,0.479492,-0.557617,0.680664,0
29370,0.436523,-0.516602,0.697754,0
29390,0.327148,-0.502441,0.748047,0
29410,0.254395,-0.52832,0.720703,0
29430,0.271973,-0.530762,0.676758,0
29450,0.290527,-0.532227,0.71875,0
29470,0.247559,-0.534668,0.723633,0
29490,0.190918,-0.578125,0.699219,0
29510,0.160645,-0.599121,0.678711,0
29530,0.157715,-0.611816,0.648438,0
29550,0.152832,-0.593262,0.68457,0
29570,0.120605,-0.611816,0.663086,0
29590,0.0795898,-0.592285,0.662109,0
29610,0.0673828,-0.577637,0.686523,0
29630,0.0712891,-0.59375,0.679688,0
29650,0.0991211,-0.621582,0.683105,0
29670,0.0810547,-0.646973,0.67627,0
29690,0.0737305,-0.653809,0.678711,0
29710,0.113281,-0.655273,0.65918,0
29730,0.140625,-0.654785,0.649902,0
29750,0.13916,-0.652344,0.64502,0
29770,0.110352,-0.658203,0.637207,0
29790,0.0961914,-0.678711,0.635742,0
29810,0.114746,-0.699707,0.615723,0
29830,0.122559,-0.691406,0.621094,0
29850,0.0942383,-0.683594,0.619141,0
29870,0.0742188,-0.683594,0.610352,0
29890,0.0917969,-0.705566,0.617676,0
29910,0.111816,-0.71875,0.601562,0
29930,0.107422,-0.733887,0.593262,0
29950,0.0908203,-0.754883,0.57666,0
29970,0.0800781,-0.751465,0.572754,0
29990,0.0771484,-0.75,0.552734,0
30010,0.0551758,-0.770508,0.536621,0
30030,0.0571289,-0.774414,0.535645,0
30050,0.0776367,-0.79541,0.531738,0
30070,0.0917969,-0.797363,0.522461,0
30090,0.0693359,-0.796875,0.503906,0
30110,0.0244141,-0.794434,0.491699,0
30130,0.0166016,-0.793945,0.486328,0
30150,0.0302734,-0.806641,0.481934,0
30170,0.0498047,-0.817383,0.473145,0
30190,0.0756836,-0.806152,0.473633,0
30210,0.0893555,-0.805664,0.493164,0
30230,0.0961914,-0.800781,0.470215,0
30250,0.0942383,-0.8125,0.466797,0
30270,0.0727539,-0.828613,0.428223,0
30280,0.050293,-0.85791,0.419922,0
30300,0.0356445,-0.871582,0.413086,0
30320,0.0478516,-0.88623,0.402344,0
30340,0.0693359,-0.89209,0.373535,0
30360,0.074707,-0.893066,0.354492,0
30380,0.0786133,-0.874512,0.366211,0
30400,0.0766602,-0.848633,0.388184,0
30420,0.0737305,-0.852051,0.387695,0
30440,0.0732422,-0.851562,0.373047,0
30460,0.100586,-0.842285,0.393555,0
30480,0.109375,-0.841309,0.379395,0
30500,0.111328,-0.857422,0.347168,0
30520,0.149414,-0.876465,0.359375,0
30540,0.196289,-0.872559,0.391602,0
30560,0.205566,-0.84668,0.386719,0
30580,0.208984,-0.881836,0.360352,0
30600,0.249023,-0.90625,0.359375,0
30620,0.276367,-0.90918,0.35791,0
30640,0.277832,-0.877441,0.371582,0
30660,0.286621,-0.851562,0.36084,0
30680,0.314941,-0.827148,0.343262,0
30700,0.333984,-0.818848,0.364258,0
30720,0.349609,-0.794434,0.365723,0
30740,0.356445,-0.8125,0.351562,0
30760,0.370605,-0.823242,0.32666,0
30780,0.372559,-0.815918,0.299805,0
30800,0.376465,-0.813477,0.295898,0
30820,0.392578,-0.765625,0.336426,0
30840,0.428711,-0.745117,0.346191,0
30860,0.470215,-0.751465,0.333496,0
30880,0.476074,-0.743164,0.339355,0
30900,0.453613,-0.763184,0.338379,0
30920,0.458984,-0.757324,0.354492,0
30940,0.498535,-0.755371,0.34375,0
30960,0.509766,-0.755371,0.350586,0
30980,0.5,-0.726074,0.351562,0
31000,0.489258,-0.711426,0.317871,0
31020,0.501465,-0.713379,0.320801,0
31040,0.502441,-0.699707,0.314453,0
31060,0.500488,-0.693359,0.30957,0
31080,0.516602,-0.708984,0.316895,0
31100,0.55127,-0.715332,0.31543,0
31120,0.584961,-0.716797,0.334961,0
31140,0.600586,-0.710938,0.34668,0
31160,0.612305,-0.707031,0.355469,0
31180,0.618652,-0.711914,0.375977,0
31200,0.606445,-0.719727,0.39502,0
31220,0.597168,-0.701172,0.387695,0
31240,0.592285,-0.665527,0.397949,0
31260,0.597168,-0.653809,0.401855,0
31280,0.612305,-0.645996,0.416992,0
31300,0.609863,-0.662109,0.433594,0
31320,0.621094,-0.683594,0.447754,0
31340,0.625488,-0.688965,0.449707,0
31360,0.624512,-0.696777,0.4375,0
31380,0.620605,-0.674805,0.434082,0
31400,0.614746,-0.641113,0.441895,0
31420,0.603027,-0.624023,0.447754,0
31440,0.577637,-0.608887,0.458008,0
31460,0.55127,-0.643555,0.477539,0
31480,0.543945,-0.658691,0.473633,0
31500,0.550781,-0.666504,0.478516,0
31520,0.543945,-0.666016,0.519043,0
31540,0.509766,-0.628906,0.51416,0
31560,0.499023,-0.646973,0.489746,0
31580,0.507324,-0.65332,0.500488,0
31600,0.512207,-0.637207,0.536133,0
31620,0.490234,-0.65918,0.540527,0
31640,0.454102,-0.687988,0.542969,0
31660,0.411133,-0.712891,0.515625,0
31680,0.370605,-0.709961,0.537598,0
31700,0.331543,-0.682129,0.557617,0
31720,0.310059,-0.683594,0.54541,0
31740,0.294434,-0.689941,0.518555,0
31760,0.290527,-0.671387,0.523926,0
31780,0.252441,-0.672852,0.523926,0
31800,0.224121,-0.706055,0.526367,0
31820,0.20459,-0.719238,0.530273,0
31840,0.180664,-0.71875,0.503906,0
31860,0.160156,-0.726074,0.505371,0
31880,0.161621,-0.725098,0.498535,0
31900,0.154297,-0.76416,0.494141,0
31920,0.141602,-0.791504,0.484375,0
31940,0.17627,-0.812012,0.469238,0
31960,0.210449,-0.788086,0.463867,0
31980,0.190918,-0.768066,0.465332,0
32000,0.15332,-0.78418,0.457031,0
32020,0.15332,-0.791992,0.45752,0
32040,0.158691,-0.814453,0.459473,0
32060,0.152832,-0.862305,0.449219,0
32080,0.162598,-0.85498,0.448242,0
32100,0.175293,-0.855957,0.455078,0
32120,0.177734,-0.848633,0.45752,0
32140,0.157715,-0.838379,0.44873,0
32160,0.138184,-0.861328,0.426758,0
32180,0.145996,-0.858398,0.439941,0
32200,0.157227,-0.853027,0.4375,0
32220,0.160645,-0.845703,0.435547,0
32240,0.161133,-0.859375,0.425293,0
32260,0.162109,-0.859863,0.42627,0
32270,0.152344,-0.891113,0.419922,0
32290,0.143066,-0.884277,0.409668,0
32310,0.123535,-0.884277,0.394531,0
32330,0.118652,-0.880859,0.38916,0
32350,0.114746,-0.87207,0.382812,0
32370,0.105469,-0.881348,0.370117,0
32390,0.107422,-0.887695,0.363281,0
32410,0.113281,-0.899902,0.364258,0
32430,0.108887,-0.891602,0.351562,0
32450,0.104492,-0.897461,0.335938,0
32470,0.105957,-0.896973,0.334961,0
32490,0.125488,-0.904785,0.323242,0
32510,0.117676,-0.912598,0.306641,0
32530,0.108398,-0.92627,0.297363,0
32550,0.105469,-0.921875,0.293945,0
32570,0.0966797,-0.907715,0.274902,0
32590,0.103027,-0.90332,0.268066,0
32610,0.107422,-0.901367,0.257812,0
32630,0.097168,-0.883301,0.245605,0
32650,0.101074,-0.888672,0.226074,0
32670,0.107422,-0.902832,0.22168,0
32690,0.111328,-0.910156,0.217773,0
32710,0.127441,-0.915527,0.225098,0
32730,0.149902,-0.922852,0.228516,0
32750,0.152344,-0.895508,0.224121,0
32770,0.135254,-0.87793,0.217773,0
32790,0.155273,-0.890625,0.215332,0
32810,0.209961,-0.880859,0.226074,0
32830,0.246094,-0.879395,0.217285,0
32850,0.248047,-0.882324,0.213379,0
32870,0.26123,-0.900391,0.208496,0
32890,0.296875,-0.880371,0.210449,0
32910,0.348145,-0.870605,0.21582,0
32930,0.401367,-0.867188,0.198242,0
32950,0.407227,-0.861328,0.216309,0
32970,0.376953,-0.848145,0.205566,0
32990,0.384277,-0.874512,0.192383,0
33010,0.453613,-0.885742,0.206543,0
33030,0.496094,-0.870605,0.195312,0
33050,0.481934,-0.849121,0.209473,0
33070,0.461914,-0.812988,0.196777,0
33090,0.460938,-0.829102,0.1875,0
33110,0.48584,-0.82666,0.216309,0
33130,0.5,-0.824219,0.216797,0
33150,0.507324,-0.818359,0.208008,0
33170,0.516113,-0.79541,0.19873,0
33190,0.541992,-0.801758,0.186523,0
33210,0.568359,-0.785156,0.205566,0
33230,0.552246,-0.776855,0.216309,0
33250,0.540039,-0.774414,0.22168,0
33270,0.551758,-0.775879,0.19873,0
33290,0.568359,-0.771484,0.223145,0
33310,0.556152,-0.743652,0.228027,0
33330,0.563965,-0.736328,0.228516,0
33350,0.583496,-0.727539,0.235352,0
33370,0.59375,-0.707031,0.242676,0
33390,0.61084,-0.700684,0.250977,0
33410,0.617188,-0.686523,0.260254,0
33430,0.622559,-0.696289,0.251953,0
33450,0.641602,-0.691406,0.248535,0
33470,0.654785,-0.687012,0.263672,0
33490,0.651367,-0.666504,0.257812,0
33510,0.652832,-0.666504,0.258301,0
33530,0.655762,-0.666016,0.252441,0
33550,0.663574,-0.66748,0.248535,0
33570,0.677246,-0.671387,0.251953,0
33590,0.68457,-0.668945,0.286133,0
33610,0.689941,-0.662598,0.299805,0
33630,0.703613,-0.646973,0.303223,0
33650,0.703613,-0.632812,0.313965,0
33670,0.703613,-0.623535,0.32959,0
33690,0.702148,-0.615234,0.344727,0
33710,0.701172,-0.606934,0.369141,0
33730,0.685547,-0.599609,0.37207,0
33750,0.685059,-0.605469,0.375488,0
33770,0.686523,-0.586914,0.403809,0
33790,0.70752,-0.588379,0.422363,0
33810,0.70752,-0.599609,0.407715,0
33830,0.702637,-0.572754,0.405762,0
33850,0.683594,-0.540039,0.433105,0
33870,0.644531,-0.540039,0.466797,0
33890,0.611816,-0.566895,0.493164,0
33910,0.588379,-0.601562,0.491211,0
33930,0.574219,-0.619141,0.5,0
33950,0.549316,-0.643066,0.524414,0
33970,0.526367,-0.646484,0.521484,0
33990,0.532715,-0.638184,0.524414,0
34010,0.510742,-0.605469,0.516602,0
34030,0.470703,-0.606934,0.515137,0
34050,0.42627,-0.630859,0.534668,0
34070,0.423828,-0.695312,0.522949,0
34090,0.44873,-0.701172,0.50293,0
34110,0.441895,-0.682617,0.491699,0
34130,0.354004,-0.668945,0.494141,0
34150,0.279297,-0.691406,0.518066,0
34170,0.296875,-0.735352,0.504395,0
34190,0.327148,-0.748047,0.490234,0
34210,0.309082,-0.723633,0.483398,0
34230,0.268066,-0.713379,0.486328,0
34250,0.286621,-0.761719,0.458008,0
34270,0.328125,-0.808105,0.457031,0
34290,0.319824,-0.808594,0.463379,0
34310,0.276367,-0.788086,0.447754,0
34330,0.266113,-0.794922,0.445801,0
34350,0.26709,-0.789551,0.458984,0
34370,0.240234,-0.780762,0.443848,0
34390,0.197754,-0.785645,0.415039,0
34410,0.164062,-0.822266,0.395508,0
34430,0.174316,-0.831055,0.402344,0
34450,0.171387,-0.828613,0.401367,0
34470,0.157715,-0.805176,0.375,0
34490,0.13623,-0.80957,0.360352,0
34510,0.119141,-0.858398,0.346191,0
34530,0.141602,-0.894531,0.350586,0
34550,0.151855,-0.88623,0.347168,0
34570,0.147949,-0.852539,0.333496,0
34590,0.158691,-0.864258,0.332031,0
34610,0.18457,-0.896973,0.328613,0
34620,0.210449,-0.916016,0.341797,0
34620,0.226074,-0.934082,0.32373,0
34620,0.192383,-0.921875,0.291016,0
34640,0.191406,-0.938477,0.277832,0
34660,0.175293,-0.943848,0.251465,0
34680,0.148926,-0.92334,0.229492,0
34700,0.146973,-0.917969,0.223145,0
34720,0.161133,-0.919434,0.219238,0
34740,0.13623,-0.927246,0.20166,0
34760,0.114258,-0.943848,0.188965,0
34780,0.127441,-0.937988,0.193359,0
34800,0.161621,-0.927734,0.176758,0
34820,0.178711,-0.913086,0.172363,0
34840,0.196777,-0.883301,0.183105,0
34860,0.205078,-0.867188,0.200684,0
34880,0.228027,-0.859375,0.187012,0
34900,0.26123,-0.89209,0.182617,0
34920,0.291992,-0.899902,0.170898,0
34940,0.305176,-0.893066,0.182129,0
34960,0.312988,-0.896973,0.200195,0
34980,0.371582,-0.872559,0.206055,0
35000,0.447266,-0.831543,0.186523,0
35020,0.463379,-0.822754,0.177734,0
35040,0.445801,-0.825195,0.179199,0
35060,0.42334,-0.825195,0.185547,0
35080,0.398926,-0.828125,0.17627,0
35100,0.416992,-0.848633,0.157227,0
35120,0.496094,-0.861816,0.127441,0
35140,0.508301,-0.843262,0.142578,0
35160,0.458008,-0.810059,0.145508,0
35180,0.447266,-0.797363,0.140625,0
35200,0.467285,-0.802246,0.133789,0
35220,0.469238,-0.801758,0.139648,0
35240,0.425293,-0.808105,0.129395,0
35260,0.437988,-0.826172,0.120605,0
35280,0.491211,-0.822754,0.134277,0
35300,0.508301,-0.78125,0.133789,0
35320,0.505371,-0.758789,0.11084,0
35340,0.529297,-0.769531,0.121582,0
35360,0.546875,-0.789062,0.130859,0
35380,0.563477,-0.791992,0.12207,0
35400,0.578613,-0.766113,0.124023,0
35420,0.594238,-0.761719,0.11377,0
35440,0.623535,-0.762695,0.0961914,0
35460,0.640625,-0.765137,0.124512,0
35480,0.627441,-0.737305,0.130371,0
35500,0.62793,-0.735352,0.0996094,0
35520,0.673828,-0.72998,0.0957031,1001
35540,0.721191,-0.740234,0.126953,0
35560,0.725098,-0.749023,0.113281,0
35580,0.714844,-0.746094,0.102051,0
35590,0.706055,-0.72998,0.11377,0
35610,0.697754,-0.737793,0.103027,0
35630,0.695801,-0.730469,0.0927734,0
35650,0.683105,-0.732422,0.0942383,0
35670,0.661621,-0.728027,0.090332,0
35690,0.663086,-0.730469,0.0810547,0
35710,0.640625,-0.724609,0.074707,0
35730,0.60791,-0.707031,0.0722656,0
35750,0.570801,-0.715332,0.0825195,0
35770,0.538086,-0.72168,0.0761719,0
35790,0.504883,-0.733887,0.0771484,0
35810,0.474609,-0.741699,0.0893555,0
35830,0.455078,-0.734375,0.104492,0
35850,0.439941,-0.722656,0.0991211,0
35870,0.412109,-0.70166,0.119629,0
35890,0.368164,-0.6875,0.109863,0
35910,0.347656,-0.6875,0.105469,0
35930,0.364746,-0.681641,0.134277,0
35950,0.374023,-0.657715,0.185547,0
35970,0.365723,-0.649414,0.203125,0
35990,0.382812,-0.673828,0.214844,0
36010,0.424316,-0.691406,0.255859,0
36030,0.448242,-0.699707,0.310059,0
36050,0.451172,-0.728027,0.294434,0
36070,0.484863,-0.726562,0.32959,0
36090,0.508301,-0.759277,0.382324,0
36110,0.553223,-0.819824,0.404785,0
36130,0.62207,-0.819824,0.414551,0
36150,0.657227,-0.852539,0.445801,0
36170,0.654297,-0.903809,0.453613,0
36190,0.639648,-0.944824,0.444336,0
36210,0.634277,-0.964844,0.496582,0
36230,0.616211,-0.946289,0.54541,0
36250,0.55127,-0.942383,0.48584,0
36270,0.494629,-0.947266,0.45459,0
36290,0.446777,-0.914551,0.485352,0
36310,0.382324,-0.891602,0.507812,0
36330,0.337402,-0.871582,0.461426,0
36350,0.318359,-0.86084,0.433105,0
36370,0.267578,-0.872559,0.446289,0
36390,0.205566,-0.884766,0.43457,0
36410,0.150391,-0.855957,0.445312,0
36430,0.101074,-0.839844,0.463867,0
36450,0.0795898,-0.844727,0.439453,0
36470,0.0625,-0.839355,0.421387,0
36490,0.0175781,-0.829102,0.412598,0
36510,-0.0288086,-0.810059,0.40332,0
36530,-0.0371094,-0.808594,0.399414,0
36550,0,-0.830078,0.418457,0
36570,0.0498047,-0.857422,0.405273,0
36590,0.0844727,-0.877441,0.389648,0
36610,0.102539,-0.881348,0.393066,0
36630,0.102051,-0.887695,0.398926,1000
36650,0.0957031,-0.897949,0.387695,0
36670,0.101562,-0.90625,0.373535,0
36690,0.0981445,-0.919922,0.374023,0
36710,0.108398,-0.919434,0.370117,0
36730,0.125488,-0.909668,0.382324,0
36750,0.133789,-0.915527,0.379883,0
36770,0.128906,-0.915039,0.366211,0
36790,0.11084,-0.911621,0.368164,0
36810,0.0996094,-0.898438,0.374023,0
36830,0.106934,-0.872559,0.379395,0
36850,0.10791,-0.865234,0.376953,0
36870,0.0957031,-0.875977,0.368164,0
36890,0.0834961,-0.871582,0.39502,0
36910,0.0771484,-0.862793,0.397949,0
36930,0.0839844,-0.876465,0.399902,0
36950,0.111328,-0.874023,0.402344,0
36970,0.109863,-0.881348,0.404297,0
36990,0.0947266,-0.862305,0.401855,0
37010,0.0766602,-0.862793,0.40625,0
37030,0.0717773,-0.870605,0.394043,0
37050,0.081543,-0.879395,0.405762,0
37070,0.0805664,-0.875,0.409668,0
37090,0.0859375,-0.868652,0.407227,0
37110,0.0913086,-0.862305,0.407715,0
37130,0.0756836,-0.851562,0.40918,0
37150,0.0625,-0.845703,0.412109,0
37170,0.0795898,-0.851074,0.424805,0
37190,0.0957031,-0.865234,0.434082,0
37210,0.0981445,-0.873535,0.413574,0
37230,0.0976562,-0.862305,0.405273,0
37250,0.106445,-0.844727,0.398438,0
37270,0.127441,-0.851562,0.416992,0
37290,0.137207,-0.849609,0.445312,0
37310,0.117676,-0.835449,0.442871,0
37330,0.10791,-0.836914,0.430664,0
37350,0.135254,-0.833984,0.424316,0
37370,0.187988,-0.850586,0.419434,0
37390,0.228516,-0.842773,0.428711,0
37410,0.225586,-0.834473,0.416016,0
37430,0.209961,-0.831055,0.398926,0
37450,0.205566,-0.829102,0.399414,0
37470,0.216309,-0.86084,0.387207,0
37490,0.243652,-0.843262,0.376953,0
37510,0.246582,-0.839844,0.391602,0
37530,0.249023,-0.827148,0.378906,0
37550,0.248047,-0.821289,0.383301,0
37560,0.260254,-0.838379,0.384766,0
37580,0.268555,-0.821289,0.391113,0
37600,0.264648,-0.822266,0.375488,0
37620,0.277832,-0.820801,0.373047,0
37640,0.285645,-0.828125,0.385742,0
37660,0.274902,-0.805176,0.387695,0
37680,0.279297,-0.806641,0.387695,0
37700,0.306152,-0.82373,0.396484,0
37720,0.333984,-0.810059,0.417969,0
37740,0.352539,-0.798828,0.418945,0
37760,0.366699,-0.769531,0.400879,0
37780,0.37207,-0.753906,0.431641,0
37800,0.368164,-0.746582,0.433594,0
37820,0.36084,-0.775391,0.401855,0
37840,0.39209,-0.784668,0.410156,0
37860,0.40918,-0.755371,0.434082,0
37880,0.400879,-0.741211,0.426758,0
37910,0.401855,-0.752441,0.411133,0
37930,0.42627,-0.74707,0.438477,0
37950,0.435059,-0.716309,0.452148,0
37970,0.428711,-0.699219,0.439453,0
37990,0.429688,-0.716797,0.439453,0
38010,0.452637,-0.709473,0.456055,0
38030,0.470215,-0.694824,0.472168,0
38050,0.482422,-0.695801,0.456055,0
38070,0.475586,-0.688965,0.439941,0
38090,0.505371,-0.694336,0.4375,0
38110,0.511719,-0.679688,0.458008,0
38130,0.512207,-0.67041,0.447266,0
38150,0.512207,-0.676758,0.442871,0
38170,0.519043,-0.671875,0.454102,0
38190,0.515137,-0.65918,0.471191,0
38210,0.494629,-0.645508,0.467773,0
38230,0.506836,-0.646484,0.478027,0
38250,0.52832,-0.640625,0.47998,0
38270,0.546387,-0.638184,0.478027,0
38290,0.53125,-0.624023,0.475098,0
38310,0.526855,-0.617188,0.478516,0
38330,0.543457,-0.619141,0.485352,0
38350,0.55957,-0.612793,0.477051,0
38370,0.585938,-0.599609,0.477539,0
38390,0.587891,-0.591309,0.482422,0
38410,0.582031,-0.593262,0.47998,0
38430,0.567383,-0.595703,0.478027,0
38450,0.579102,-0.597656,0.490234,0
38470,0.563477,-0.581543,0.489258,0
38490,0.563477,-0.584961,0.494141,0
38510,0.569336,-0.584473,0.500488,0
38530,0.5625,-0.583008,0.504395,0
38550,0.557129,-0.57373,0.515625,0
38570,0.550781,-0.565918,0.528809,0
38590,0.555664,-0.575195,0.526855,0
38610,0.579102,-0.589355,0.52832,0
38630,0.532715,-0.562988,0.538086,0
38650,0.526367,-0.542969,0.537109,0
38670,0.54541,-0.558594,0.554688,0
38690,0.538574,-0.557129,0.54248,0
38710,0.523438,-0.561035,0.557617,0
38730,0.500977,-0.545898,0.550781,0
38750,0.492188,-0.561523,0.561035,0
38770,0.482422,-0.563477,0.560547,0
38790,0.474121,-0.560059,0.537598,0
38810,0.483398,-0.55127,0.566895,0
38830,0.485352,-0.575684,0.594727,0
38850,0.467773,-0.558105,0.601074,0
38870,0.4375,-0.587891,0.604492,0
38890,0.415527,-0.567871,0.608398,0
38910,0.418457,-0.568359,0.624023,0
38930,0.441895,-0.5625,0.635254,0
38950,0.439941,-0.566895,0.634277,0
38970,0.422852,-0.574219,0.627441,0
38990,0.388184,-0.569336,0.624512,0
39010,0.372559,-0.570801,0.612793,0
39030,0.380371,-0.575684,0.625488,0
39050,0.408203,-0.563477,0.628418,0
39070,0.430176,-0.566895,0.610352,0
39090,0.407227,-0.552734,0.624512,0
39110,0.391602,-0.557617,0.655273,0
39130,0.39502,-0.584961,0.650391,0
39150,0.393555,-0.613281,0.619629,0
39170,0.355957,-0.59668,0.626465,0
39190,0.311035,-0.595215,0.661133,0
39210,0.289062,-0.57666,0.665527,0
39230,0.296387,-0.598633,0.647949,0
39250,0.303223,-0.596191,0.644043,0
39270,0.272461,-0.597168,0.671875,0
39290,0.257324,-0.608887,0.66748,0
39310,0.270996,-0.632812,0.641602,0
39330,0.280273,-0.621094,0.655762,0
39350,0.268066,-0.59375,0.668457,0
39370,0.257324,-0.595703,0.653809,0
39390,0.262695,-0.606934,0.641602,0
39410,0.275391,-0.620117,0.636719,0
39430,0.278809,-0.599121,0.647461,0
39450,0.263672,-0.598145,0.656738,0
39470,0.245605,-0.622559,0.646484,0
39490,0.261719,-0.636719,0.643555,0
39510,0.280762,-0.63916,0.645996,0
39530,0.28125,-0.635254,0.649902,0
39550,0.257812,-0.631836,0.644043,0
39570,0.244629,-0.644531,0.654785,0
39590,0.237793,-0.642578,0.637695,0
39610,0.23291,-0.639648,0.626953,0
39630,0.22998,-0.647949,0.621582,0
39650,0.217773,-0.654785,0.612305,0
39670,0.229492,-0.655762,0.623047,0
39690,0.247559,-0.638672,0.62793,0
39710,0.225586,-0.63916,0.620117,0
39730,0.19873,-0.65918,0.607422,0
39750,0.187012,-0.681641,0.621094,0
39770,0.171875,-0.682129,0.618652,0
39790,0.167969,-0.673828,0.618652,0
39810,0.164551,-0.67041,0.614258,0
39830,0.147461,-0.675781,0.624023,0
39850,0.128418,-0.693359,0.61377,0
39870,0.128418,-0.700195,0.601562,0
39890,0.141113,-0.712891,0.606445,0
39910,0.149414,-0.714355,0.603516,0
39930,0.144531,-0.709473,0.59082,0
39950,0.138672,-0.713379,0.587402,0
39970,0.144531,-0.726562,0.589355,0
39990,0.136719,-0.730957,0.576172,0
40010,0.119141,-0.737793,0.56543,0
40030,0.129883,-0.746094,0.558105,0
40050,0.137695,-0.746582,0.542969,0
40070,0.131348,-0.760742,0.527832,0
40090,0.137695,-0.765625,0.524414,0
40110,0.146973,-0.759277,0.540527,0
40130,0.151367,-0.772949,0.525879,0
40150,0.157227,-0.776367,0.523438,0
40170,0.15625,-0.800781,0.511719,0
40190,0.164551,-0.801758,0.501953,0
40210,0.179199,-0.799316,0.495605,0
40230,0.185547,-0.805176,0.489258,0
40250,0.185059,-0.792969,0.479492,0
40270,0.182129,-0.789551,0.471191,0
40290,0.196289,-0.807129,0.470703,0
40310,0.218262,-0.80957,0.469727,0
40330,0.21875,-0.811035,0.461914,0
40350,0.207031,-0.791504,0.438477,0
40370,0.20752,-0.791016,0.43457,0
40390,0.234863,-0.806641,0.443359,0
40410,0.248535,-0.796875,0.432129,0
40430,0.238281,-0.805664,0.412109,0
40450,0.231934,-0.807129,0.402832,0
40470,0.242188,-0.793945,0.419434,0
40490,0.259766,-0.811035,0.406738,0
40510,0.291016,-0.821289,0.38916,0
40530,0.327148,-0.81543,0.394531,0
40550,0.337891,-0.800293,0.402832,0
40570,0.32666,-0.790039,0.380371,0
40590,0.343262,-0.81543,0.374023,0
40610,0.368652,-0.816406,0.382812,0
40630,0.369629,-0.820801,0.371094,0
40650,0.350586,-0.825195,0.35498,0
40670,0.36377,-0.819336,0.34668,0
40690,0.402344,-0.821289,0.339355,0
40710,0.435547,-0.861328,0.327148,0
40730,0.422363,-0.845703,0.320312,0
40750,0.411133,-0.84375,0.314941,0
40770,0.4375,-0.811523,0.336426,0
40790,0.447266,-0.792969,0.322266,0
40810,0.432129,-0.782227,0.325684,0
40830,0.422852,-0.772949,0.328125,0
40850,0.437012,-0.791016,0.320312,0
40870,0.462402,-0.774902,0.305664,0
40890,0.458984,-0.751953,0.299316,0
40910,0.45752,-0.739258,0.291016,0
40930,0.478516,-0.744629,0.286133,0
40950,0.495117,-0.750977,0.289062,0
40970,0.504395,-0.748047,0.283691,0
40980,0.509277,-0.749023,0.280273,0
41000,0.51123,-0.748047,0.258301,0
41020,0.527344,-0.751953,0.253906,0
41040,0.54248,-0.76709,0.25,0
41060,0.544434,-0.77002,0.26123,0
41080,0.533203,-0.754883,0.265137,0
41100,0.530273,-0.748047,0.250977,0
41120,0.536133,-0.768066,0.236816,0
41140,0.558594,-0.757324,0.236816,0
41160,0.567871,-0.730469,0.266602,0
41180,0.578613,-0.718262,0.259766,0
41200,0.581543,-0.711426,0.237305,0
41220,0.584961,-0.70752,0.23584,0
41240,0.598633,-0.702637,0.241211,0
41260,0.611816,-0.691895,0.233887,0
41280,0.620117,-0.676758,0.231934,0
41300,0.617676,-0.669922,0.207031,0
41320,0.631348,-0.679199,0.21875,0
41340,0.643555,-0.67627,0.23877,0
41360,0.647461,-0.673828,0.23291,0
41380,0.65625,-0.653809,0.224121,0
41400,0.665527,-0.656738,0.209473,0
41420,0.666016,-0.65625,0.21875,0
41440,0.676758,-0.646973,0.23584,0
41460,0.680176,-0.636719,0.228516,0
41480,0.688965,-0.641113,0.219727,0
41500,0.696777,-0.63623,0.222168,0
41520,0.705566,-0.631836,0.239258,0
41540,0.700684,-0.615234,0.240234,0
41560,0.703613,-0.616699,0.236328,0
41580,0.705566,-0.609375,0.229492,0
41600,0.726074,-0.605957,0.247559,0
41620,0.70752,-0.605957,0.268066,0
41640,0.693848,-0.611328,0.27832,0
41660,0.69873,-0.614258,0.277344,0
41680,0.712402,-0.599609,0.280273,0
41700,0.725098,-0.584473,0.273438,0
41720,0.744629,-0.571777,0.275391,0
41740,0.754395,-0.567871,0.279297,0
41760,0.739746,-0.585938,0.285156,0
41780,0.716797,-0.573242,0.300293,0
41800,0.698242,-0.554688,0.293945,0
41820,0.718262,-0.546387,0.294922,0
41840,0.708008,-0.539551,0.316406,0
41860,0.691895,-0.585938,0.335449,0
41880,0.676758,-0.572754,0.346191,0
41900,0.678223,-0.560059,0.331543,0
41920,0.70752,-0.547852,0.337891,0
41940,0.70752,-0.537598,0.330566,0
41960,0.69873,-0.550293,0.351562,0
41980,0.678711,-0.542969,0.382324,0
42000,0.668457,-0.549805,0.390625,0
42020,0.66748,-0.586426,0.38623,0
42040,0.659668,-0.574707,0.393555,0
42060,0.626465,-0.561035,0.413086,0
42080,0.587402,-0.556152,0.427734,0
42100,0.591797,-0.556641,0.418457,0
42120,0.628418,-0.558105,0.401367,0
42140,0.646484,-0.537109,0.396973,0
42160,0.62793,-0.536133,0.425293,0
42180,0.607422,-0.55957,0.431152,0
42200,0.594727,-0.579102,0.430664,0
42220,0.601562,-0.597168,0.43457,0
42240,0.600098,-0.60498,0.444336,0
42260,0.597168,-0.577637,0.44043,0
42280,0.587402,-0.587891,0.475586,0
42300,0.561523,-0.583008,0.466797,0
42320,0.535156,-0.597656,0.475586,0
42340,0.542969,-0.606934,0.480469,0
42360,0.542969,-0.594727,0.488281,0
42380,0.529785,-0.593262,0.499023,0
42400,0.524902,-0.608398,0.496094,0
42420,0.511719,-0.608398,0.500977,0
42440,0.499023,-0.635742,0.515137,0
42460,0.497559,-0.638184,0.537598,0
42480,0.506836,-0.651855,0.538086,0
42500,0.505371,-0.626953,0.524414,0
42520,0.481934,-0.64209,0.549316,0
42540,0.450195,-0.618652,0.554688,0
42560,0.399902,-0.649902,0.553711,0
42580,0.385254,-0.650391,0.549316,0
42600,0.414062,-0.646973,0.555176,0
42620,0.416504,-0.635742,0.532227,0
42640,0.394043,-0.612793,0.536621,0
42660,0.369629,-0.640625,0.544434,0
42680,0.378906,-0.666016,0.540527,0
42700,0.375488,-0.669922,0.541504,0
42720,0.352539,-0.658691,0.537598,0
42740,0.342285,-0.657227,0.540039,0
42760,0.337891,-0.657227,0.535156,0
42780,0.352051,-0.657227,0.537109,0
42800,0.343262,-0.67627,0.533691,0
42820,0.35498,-0.705566,0.52832,0
42840,0.371094,-0.711426,0.528809,0
42860,0.373047,-0.702148,0.512207,0
42880,0.375,-0.705566,0.523926,0
42900,0.353516,-0.709961,0.513184,0
42920,0.349609,-0.725098,0.499512,0
42940,0.355957,-0.734375,0.507812,0
42950,0.370605,-0.734863,0.504395,0
42970,0.356445,-0.737793,0.509277,0
42990,0.331055,-0.75,0.497559,0
43010,0.319824,-0.745117,0.492188,0
43030,0.334961,-0.739258,0.498047,0
43050,0.34668,-0.739746,0.487305,0
43070,0.335449,-0.751465,0.487793,0
43090,0.325684,-0.763672,0.485352,0
43110,0.32666,-0.774414,0.480469,0
43130,0.323242,-0.768066,0.484375,0
43150,0.306152,-0.771484,0.466797,0
43170,0.303223,-0.776855,0.470215,0
43190,0.311523,-0.775879,0.452637,0
43210,0.295898,-0.766602,0.460938,0
43230,0.283203,-0.779785,0.450195,0
43250,0.286133,-0.783691,0.458008,0
43270,0.284668,-0.797852,0.442383,0
43290,0.289062,-0.771973,0.430664,0
43310,0.282227,-0.78418,0.419922,0
43330,0.29248,-0.80127,0.417969,0
43350,0.288574,-0.837891,0.416016,0
43370,0.268066,-0.851562,0.39209,0
43390,0.270508,-0.841797,0.393555,0
43410,0.279297,-0.834961,0.373047,0
43430,0.275391,-0.843262,0.364746,0
43450,0.279297,-0.833496,0.361816,0
43470,0.259277,-0.84375,0.339844,0
43490,0.246094,-0.849609,0.324219,0
43510,0.269043,-0.844727,0.317871,0
43530,0.274414,-0.855957,0.310059,0
43550,0.265137,-0.858398,0.303711,0
43570,0.254395,-0.859863,0.289551,0
43590,0.247559,-0.876953,0.281738,0
43610,0.262207,-0.878906,0.256348,0
43630,0.288574,-0.885254,0.259277,0
43650,0.29541,-0.879395,0.260742,0
43670,0.291504,-0.867676,0.250488,0
43690,0.297852,-0.855957,0.25293,0
43710,0.320312,-0.856445,0.249512,0
43730,0.345703,-0.854004,0.243164,0
43750,0.369141,-0.875977,0.238281,0
43770,0.368164,-0.890625,0.241211,0
43790,0.335938,-0.879395,0.244629,0
43810,0.333496,-0.857422,0.236816,0
43830,0.369629,-0.838867,0.228516,0
43850,0.388184,-0.835938,0.21875,0
43870,0.377441,-0.851074,0.206055,0
43890,0.366211,-0.840332,0.214844,0
43910,0.357422,-0.840332,0.21582,0
43930,0.351562,-0.834961,0.203613,0
43950,0.356445,-0.844238,0.202148,0
43970,0.381836,-0.851074,0.206543,0
43990,0.433594,-0.851562,0.20459,0
44010,0.458496,-0.848633,0.193848,0
44030,0.469727,-0.842773,0.187988,0
44050,0.462402,-0.831055,0.187012,0
44070,0.466797,-0.848145,0.173828,0
44090,0.493652,-0.872559,0.154297,0
44110,0.512207,-0.862305,0.178711,0
44130,0.502441,-0.845215,0.164551,0
44150,0.518066,-0.828613,0.144043,0
44170,0.537598,-0.818848,0.151367,0
44190,0.540527,-0.812012,0.145996,0
44210,0.536621,-0.796387,0.134277,0
44230,0.533203,-0.797363,0.125488,0
44250,0.527832,-0.793457,0.119629,0
44270,0.542969,-0.783691,0.112793,0
44290,0.562012,-0.780273,0.101074,0
44310,0.558594,-0.782227,0.0981445,0
44330,0.561523,-0.76416,0.0986328,0
44350,0.573242,-0.776367,0.0922852,0
44370,0.593262,-0.777344,0.0693359,0
44390,0.615723,-0.775391,0.0678711,0
44410,0.609863,-0.773926,0.0756836,0
44430,0.617188,-0.753418,0.0673828,0
44450,0.626953,-0.756836,0.0634766,0
44470,0.632324,-0.754395,0.0512695,0
44490,0.629883,-0.75,0.0576172,0
44510,0.634277,-0.746094,0.0493164,0
44530,0.645996,-0.736328,0.0605469,0
44550,0.641113,-0.709961,0.0522461,0
44570,0.644531,-0.711914,0.0429688,0
44590,0.654785,-0.702148,0.0371094,0
44610,0.663086,-0.703613,0.0351562,0
44630,0.667969,-0.70752,0.0307617,0
44650,0.669922,-0.697754,0.0302734,0
44670,0.682617,-0.694824,0.0288086,0
44690,0.682617,-0.691895,0.0292969,0
44710,0.690918,-0.6875,0.0131836,0
44730,0.705078,-0.675781,0.0239258,0
44750,0.720215,-0.668457,0.0263672,0
44770,0.711914,-0.65918,0.00439453,0
44790,0.71875,-0.648438,0.00585938,0
44810,0.713379,-0.640625,0.0161133,0
44830,0.727539,-0.635254,0.00927734,0
44850,0.736328,-0.639648,0.00732422,0
44870,0.754395,-0.623047,0.0078125,0
44890,0.764648,-0.623047,0.0234375,0
44910,0.756836,-0.618652,0.0375977,0
44930,0.743164,-0.604492,0.0419922,0
44950,0.745117,-0.603027,0.0522461,0
44970,0.762695,-0.59668,0.0541992,0
44990,0.77832,-0.591309,0.0546875,0
45010,0.780762,-0.594727,0.0595703,0
45030,0.777832,-0.584961,0.0629883,0
45050,0.775391,-0.595703,0.0649414,0
45070,0.78418,-0.588379,0.0688477,0
45090,0.785645,-0.581543,0.0771484,0
45110,0.798828,-0.580566,0.0839844,0
45130,0.791504,-0.572266,0.0947266,0
45150,0.787109,-0.567383,0.0952148,0
45170,0.778809,-0.568848,0.10791,0
45190,0.780273,-0.552246,0.116699,0
45210,0.788574,-0.535645,0.128906,0
45230,0.800781,-0.525391,0.126953,0
45250,0.812012,-0.521973,0.117676,0
45270,0.828125,-0.525391,0.146484,0
45290,0.821289,-0.537109,0.163086,0
45310,0.821289,-0.555664,0.160156,0
45330,0.826172,-0.555176,0.173828,0
45350,0.820312,-0.541992,0.187988,0
45370,0.8125,-0.523438,0.193359,0
45390,0.803223,-0.537109,0.210938,0
45410,0.79541,-0.520996,0.230469,0
45430,0.79541,-0.506836,0.246094,0
45450,0.799316,-0.490723,0.239258,0
45470,0.799805,-0.51123,0.244629,0
45490,0.76709,-0.536133,0.276367,0
45510,0.699707,-0.571289,0.316406,0
45530,0.67041,-0.566406,0.298828,0
45550,0.685547,-0.58252,0.302734,0
45570,0.689941,-0.568359,0.31543,0
45590,0.655273,-0.552734,0.33252,0
45610,0.623047,-0.57959,0.350098,0
45630,0.621582,-0.592285,0.335449,0
45650,0.611816,-0.648926,0.320312,0
45670,0.583008,-0.630859,0.346191,0
45690,0.533203,-0.651855,0.369629,0
45710,0.529785,-0.662598,0.375488,0
45730,0.560547,-0.658203,0.376953,0
45750,0.581055,-0.638184,0.383301,0
45770,0.573242,-0.633789,0.388184,0
45790,0.548828,-0.648438,0.396973,0
45810,0.55127,-0.661621,0.41748,0
45830,0.554688,-0.658203,0.412109,0
45850,0.566406,-0.637207,0.408203,0
45870,0.555176,-0.629883,0.396973,0
45890,0.560547,-0.667969,0.39209,0
45910,0.575195,-0.695801,0.396973,0
45930,0.581055,-0.686523,0.402344,0
45950,0.562988,-0.661621,0.408203,0
45970,0.55127,-0.657715,0.415527,0
45990,0.528809,-0.675781,0.421875,0
46010,0.516113,-0.676758,0.422363,0
46030,0.509766,-0.675781,0.433105,0
46050,0.504395,-0.678223,0.429199,0
46070,0.516113,-0.6875,0.441895,0
46090,0.505859,-0.694824,0.439453,0
46110,0.484863,-0.706543,0.431152,0
46130,0.47168,-0.721191,0.422363,0
46150,0.466797,-0.713379,0.418457,0
46170,0.467773,-0.727539,0.416992,0
46190,0.465332,-0.727539,0.40918,0
46210,0.44043,-0.730469,0.40918,0
46230,0.414551,-0.731934,0.401367,0
46250,0.410645,-0.741211,0.396484,0
46270,0.430664,-0.758789,0.401855,0
46290,0.416016,-0.761719,0.381836,0
46310,0.392578,-0.758789,0.383789,0
46330,0.393066,-0.772949,0.38623,0
46350,0.416016,-0.751953,0.378906,0
46370,0.40918,-0.775879,0.361328,0
46390,0.408691,-0.800293,0.358398,0
46400,0.391602,-0.789551,0.368164,0
46420,0.354004,-0.787109,0.366699,0
46440,0.34668,-0.772461,0.361816,0
46460,0.369141,-0.78418,0.361816,0
46480,0.384277,-0.818359,0.348145,0
46500,0.387207,-0.830078,0.348145,0
46520,0.381836,-0.854004,0.341309,0
46540,0.374023,-0.858887,0.342285,0
46560,0.383301,-0.852539,0.325684,0
46580,0.374023,-0.862793,0.326172,0
46600,0.35498,-0.861816,0.322266,0
46620,0.338379,-0.856934,0.318848,0
46640,0.331543,-0.853516,0.30957,0
46660,0.299805,-0.856445,0.296387,0
46680,0.285156,-0.853027,0.279785,0
46700,0.293457,-0.849609,0.273438,0
46720,0.317383,-0.830078,0.271973,0
46740,0.334473,-0.826172,0.25293,0
46760,0.32959,-0.847168,0.260742,0
46780,0.327148,-0.878418,0.251953,0
46800,0.333496,-0.898926,0.219727,0
46820,0.328613,-0.910645,0.214355,0
46840,0.335938,-0.898926,0.196289,0
46860,0.348145,-0.905762,0.19043,0
46880,0.370117,-0.897949,0.15918,0
46900,0.373535,-0.889648,0.147461,0
46920,0.365723,-0.907715,0.144043,0
46940,0.36377,-0.907227,0.138672,0
46960,0.37793,-0.919922,0.121094,0
46980,0.385742,-0.897461,0.102051,0
47000,0.375977,-0.882812,0.0869141,0
47020,0.377441,-0.895508,0.0722656,0
47040,0.410645,-0.890137,0.0737305,0
47060,0.429199,-0.882812,0.0742188,0
47080,0.428711,-0.873535,0.0541992,0
47100,0.411133,-0.86084,0.0380859,0
47120,0.38623,-0.876465,0.0400391,0
47140,0.38916,-0.875,0.0380859,0
47160,0.415527,-0.874023,0.00830078,0
47180,0.4375,-0.859863,-0.00244141,0
47200,0.44873,-0.826172,-0.015625,0
47220,0.455566,-0.79248,-0.0195312,0
47240,0.463379,-0.792969,-0.0253906,0
47260,0.479004,-0.800781,-0.0395508,0
47280,0.494629,-0.816406,-0.0292969,0
47300,0.508301,-0.827637,-0.0356445,0
47320,0.535645,-0.805664,-0.0649414,0
47340,0.578125,-0.79541,-0.0791016,0
47360,0.625,-0.808105,-0.090332,0
47380,0.626465,-0.798828,-0.081543,0
47400,0.601562,-0.821777,-0.0683594,0
47420,0.588867,-0.832031,-0.0712891,0
47440,0.604004,-0.816895,-0.0844727,0
47460,0.644531,-0.782715,-0.100586,0
47480,0.687012,-0.758301,-0.0991211,0
47500,0.675293,-0.739746,-0.10791,0
47520,0.64502,-0.743164,-0.105957,0
47540,0.643066,-0.749512,-0.121582,0
47560,0.653809,-0.753418,-0.142578,0
47580,0.647949,-0.727539,-0.152832,0
47600,0.640625,-0.703613,-0.154785,0
47620,0.634277,-0.6875,-0.151367,1001
47640,0.628906,-0.683105,-0.163574,0
47660,0.615723,-0.669434,-0.171387,0
47680,0.615723,-0.678711,-0.151367,0
47700,0.628418,-0.661621,-0.153809,0
47720,0.654785,-0.676758,-0.181641,0
47740,0.69873,-0.685059,-0.185547,0
47760,0.716309,-0.680664,-0.192871,0
47780,0.716309,-0.678711,-0.169922,0
47800,0.742188,-0.67627,-0.200684,0
47820,0.749023,-0.657227,-0.194336,0
47840,0.741211,-0.637695,-0.188477,0
47860,0.716309,-0.62793,-0.199707,0
47880,0.687988,-0.641602,-0.194824,0
47900,0.660645,-0.631348,-0.168457,0
47920,0.623047,-0.60498,-0.180176,0
47940,0.591309,-0.59375,-0.158203,0
47960,0.57373,-0.584473,-0.146973,0
47980,0.559082,-0.583496,-0.131348,0
48000,0.539062,-0.58252,-0.0976562,0
48020,0.539551,-0.571777,-0.0820312,0
48040,0.556641,-0.587402,-0.0932617,0
48060,0.557617,-0.605469,-0.0888672,0
48080,0.554688,-0.620117,-0.0742188,0
48100,0.51709,-0.631836,-0.0297852,0
48120,0.501465,-0.626953,-0.0268555,0
48140,0.516602,-0.615234,0.0449219,0
48160,0.605957,-0.646973,0.133789,0
48180,0.707031,-0.669434,0.180664,0
48200,0.756348,-0.703613,0.177734,0
48220,0.776855,-0.741211,0.166016,0
48240,0.803223,-0.77002,0.156738,0
48260,0.82666,-0.78418,0.150879,0
48280,0.839355,-0.800781,0.165039,0
48300,0.857422,-0.838867,0.186035,0
48320,0.840332,-0.869141,0.16748,0
48330,0.782227,-0.862305,0.21875,0
48360,0.709961,-0.85791,0.255371,0
48370,0.675293,-0.912109,0.253418,0
48390,0.677734,-0.935547,0.244141,0
48410,0.652832,-0.905762,0.291504,0
48430,0.574707,-0.92041,0.318359,0
48450,0.489746,-0.888184,0.38623,0
48470,0.413574,-0.821289,0.402344,0
48490,0.350098,-0.864746,0.427734,0
48510,0.307617,-0.907227,0.41748,0
48530,0.299316,-0.899902,0.394043,0
48550,0.262207,-0.852051,0.424316,0
48570,0.188965,-0.784668,0.426758,0
48590,0.15918,-0.784668,0.401367,0
48610,0.192383,-0.806641,0.394531,0
48630,0.211426,-0.838867,0.408203,0
48650,0.223633,-0.845215,0.42627,0
48670,0.206543,-0.866699,0.402344,0
48690,0.181152,-0.913086,0.371094,0
48710,0.143555,-0.916016,0.37207,0
48730,0.148438,-0.853516,0.384766,0
48750,0.138672,-0.86084,0.385254,0
48770,0.123535,-0.896973,0.400879,0
48790,0.11084,-0.919922,0.395508,0
48810,0.128418,-0.922852,0.362305,0
48830,0.164551,-0.894531,0.367188,0
48850,0.187988,-0.872559,0.390137,0
48870,0.19043,-0.861816,0.374512,0
48890,0.203613,-0.839355,0.375488,0
48910,0.21582,-0.844238,0.381348,0
48930,0.213379,-0.860352,0.387695,0
48950,0.206055,-0.875,0.380859,0
48970,0.176758,-0.860352,0.389648,0
48990,0.151367,-0.847168,0.401855,1000
49010,0.175293,-0.840332,0.412598,0
49030,0.195801,-0.86377,0.398926,0
49050,0.216797,-0.886719,0.395508,0
49070,0.219727,-0.876465,0.396973,0
49090,0.224121,-0.875488,0.386719,0
49110,0.233887,-0.853027,0.369629,0
49130,0.223145,-0.842285,0.384766,0
49150,0.225098,-0.838867,0.39209,0
49170,0.225098,-0.851562,0.387207,0
49190,0.248047,-0.873047,0.376465,0
49210,0.261719,-0.859375,0.376953,0
49230,0.27002,-0.853516,0.366211,0
49250,0.287109,-0.837402,0.354492,0
49270,0.294922,-0.82666,0.370605,0
49290,0.299805,-0.813965,0.353516,0
49310,0.291504,-0.833008,0.350098,0
49330,0.300293,-0.865234,0.351562,0
49350,0.318359,-0.875,0.344238,0
49370,0.318848,-0.85791,0.336914,0
49390,0.337402,-0.842773,0.31543,0
49410,0.361328,-0.845703,0.306641,0
49430,0.379395,-0.82373,0.326172,0
49450,0.373047,-0.776367,0.319824,0
49470,0.375,-0.780762,0.316895,0
49490,0.418457,-0.795898,0.289551,0
49510,0.440918,-0.805176,0.300781,0
49530,0.451172,-0.788086,0.276367,0
49550,0.47168,-0.774414,0.256836,0
49570,0.496094,-0.771484,0.242188,0
49590,0.496094,-0.758789,0.254395,0
49610,0.494629,-0.73877,0.250977,0
49630,0.491699,-0.758301,0.234375,0
49650,0.510742,-0.757812,0.245605,0
49670,0.527832,-0.764648,0.25293,0
49690,0.52832,-0.784668,0.242188,0
49710,0.508301,-0.753906,0.239746,0
49730,0.523926,-0.73291,0.246582,0
49750,0.526367,-0.73291,0.243164,0
49770,0.529785,-0.724609,0.236816,0
49790,0.54834,-0.731934,0.207031,0
49810,0.582031,-0.729004,0.206055,0
49830,0.594238,-0.70459,0.197754,0
49840,0.613281,-0.692383,0.19873,0
49860,0.636719,-0.689941,0.181641,0
49870,0.64502,-0.676758,0.174805,0
49880,0.748535,-0.544922,0.265137,0
49900,0.748535,-0.542969,0.286133,0
49920,0.741211,-0.538086,0.294434,0
49940,0.707031,-0.537109,0.317383,0
49960,0.711426,-0.524902,0.331055,0
49980,0.69873,-0.525879,0.352539,0
50000,0.700684,-0.519531,0.345703,0
50020,0.709961,-0.51709,0.35498,0
50040,0.697754,-0.521973,0.387207,0
50060,0.680176,-0.529785,0.393066,0
50080,0.646484,-0.532715,0.413574,0
50100,0.644043,-0.526855,0.416016,0
50120,0.695312,-0.537109,0.436035,0
50140,0.67041,-0.527832,0.454102,0
50160,0.621094,-0.524414,0.455566,0
50180,0.605957,-0.519043,0.462891,0
50200,0.603516,-0.55127,0.474121,0
50220,0.628906,-0.561523,0.491699,0
50240,0.629395,-0.572754,0.476074,0
50260,0.568359,-0.555664,0.521973,0
50280,0.547852,-0.552246,0.536621,0
50300,0.565918,-0.568359,0.538574,0
50320,0.590332,-0.56543,0.533203,0
50340,0.619629,-0.558594,0.51709,0
50360,0.588379,-0.544922,0.513184,0
50380,0.554688,-0.550781,0.528809,0
50400,0.532715,-0.561523,0.53418,0
50420,0.536621,-0.566406,0.525391,0
50440,0.55957,-0.574219,0.538574,0
50460,0.53125,-0.536621,0.537598,0
50480,0.505371,-0.553223,0.563477,0
50500,0.493652,-0.562988,0.553711,0
50520,0.483887,-0.570801,0.539551,0
50540,0.493652,-0.566406,0.536133,0
50560,0.500977,-0.564453,0.541992,0
50580,0.48877,-0.5625,0.554688,0
50600,0.470215,-0.583496,0.556152,0
50620,0.476562,-0.587891,0.553711,0
50640,0.485352,-0.599609,0.562988,0
50660,0.486328,-0.594238,0.571777,0
50680,0.482422,-0.59375,0.598145,0
50700,0.470215,-0.599609,0.585938,0
50720,0.45166,-0.592773,0.572754,0
50740,0.452637,-0.583984,0.57666,0
50760,0.447754,-0.578125,0.583984,0
50780,0.445801,-0.576172,0.583984,0
50800,0.436523,-0.587402,0.561523,0
50820,0.42627,-0.600098,0.583496,0
50840,0.42627,-0.582031,0.60498,0
50860,0.433105,-0.595215,0.587402,0
50880,0.418945,-0.613281,0.57373,0
50900,0.37207,-0.609375,0.59375,0
50920,0.320312,-0.626953,0.618164,0
50940,0.32666,-0.63623,0.609375,0
50960,0.349609,-0.636719,0.59375,0
50980,0.343262,-0.626465,0.607422,0
51000,0.330566,-0.625488,0.605957,0
51020,0.321777,-0.65625,0.61377,0
51040,0.325684,-0.660156,0.607422,0
51060,0.322754,-0.648438,0.586426,0
51080,0.30957,-0.65332,0.594238,0
51100,0.300781,-0.661621,0.599121,0
51120,0.294434,-0.666992,0.61084,0
51140,0.291016,-0.660156,0.602539,0
51160,0.291504,-0.663086,0.59375,0
51180,0.276367,-0.674805,0.600098,0
51200,0.259277,-0.691895,0.603516,0
51220,0.269043,-0.677734,0.611328,0
51240,0.266602,-0.671875,0.600586,0
51260,0.250977,-0.681641,0.585938,0
51280,0.237793,-0.677734,0.58252,0
51300,0.234863,-0.681152,0.596191,0
51320,0.248535,-0.685547,0.585938,0
51340,0.279297,-0.691895,0.576172,0
51360,0.288086,-0.684082,0.567871,0
51380,0.279785,-0.69873,0.561035,0
51400,0.241211,-0.725098,0.5625,0
51420,0.213867,-0.716309,0.57373,0
51440,0.202148,-0.703125,0.572754,0
51460,0.207031,-0.692383,0.564453,0
51470,0.202148,-0.705078,0.595215,0
51490,0.193359,-0.734375,0.598145,0
51510,0.187012,-0.75293,0.585938,0
51530,0.181641,-0.753418,0.580078,0
51550,0.177246,-0.733887,0.583984,0
51570,0.165527,-0.733887,0.586426,0
51590,0.15332,-0.740234,0.572266,0
51610,0.142578,-0.729004,0.571289,0
51630,0.135254,-0.729492,0.568359,0
51650,0.124512,-0.728516,0.55957,0
51670,0.135742,-0.744141,0.555664,0
51690,0.146973,-0.733398,0.541992,0
51710,0.146484,-0.730469,0.533691,0
51730,0.146484,-0.744141,0.530273,0
51750,0.160645,-0.74707,0.517578,0
51770,0.144043,-0.776367,0.512695,0
51790,0.130859,-0.791504,0.503906,0
51810,0.151367,-0.782227,0.499512,0
51830,0.172852,-0.777832,0.484863,0
51850,0.161621,-0.780762,0.487793,0
51870,0.155762,-0.796875,0.46875,0
51890,0.169922,-0.8125,0.463379,0
51910,0.162598,-0.828613,0.47998,0
51930,0.144043,-0.82666,0.467773,0
51950,0.155762,-0.823242,0.462891,0
51970,0.183594,-0.820312,0.45459,0
51990,0.180664,-0.810547,0.438965,0
52010,0.151367,-0.813965,0.444824,0
52030,0.138672,-0.818359,0.43457,0
52050,0.165039,-0.824219,0.435547,0
52070,0.203613,-0.842285,0.417969,0
52090,0.214355,-0.850098,0.394043,0
52110,0.194336,-0.849121,0.395996,0
52130,0.200684,-0.843262,0.394531,0
52150,0.228516,-0.837891,0.388184,0
52170,0.241699,-0.851562,0.394043,0
52190,0.265625,-0.845703,0.388184,0
52210,0.28125,-0.840332,0.375977,0
52230,0.277344,-0.824219,0.376465,0
52250,0.274902,-0.81543,0.371582,0
52270,0.308594,-0.800781,0.370117,0
52290,0.322754,-0.795898,0.374512,0
52310,0.316406,-0.788086,0.361328,0
52330,0.336914,-0.828125,0.346191,0
52350,0.388672,-0.810059,0.347168,0
52370,0.416016,-0.802734,0.348145,0
52390,0.398926,-0.795898,0.311035,0
52410,0.417969,-0.799805,0.310059,0
52430,0.455566,-0.802734,0.314941,0
52450,0.45459,-0.824707,0.294922,0
52470,0.435547,-0.828125,0.277344,0
52490,0.463867,-0.816895,0.274902,0
52510,0.491699,-0.817383,0.26709,0
52530,0.483398,-0.790039,0.254883,0
52550,0.461426,-0.762207,0.263184,0
52570,0.487793,-0.753906,0.262207,0
52590,0.547852,-0.781738,0.239746,0
52610,0.584473,-0.796875,0.225098,0
52630,0.567871,-0.777344,0.233398,0
52650,0.519531,-0.770508,0.231934,0
52670,0.527344,-0.786133,0.244141,0
52690,0.540039,-0.779297,0.251465,0
52710,0.507812,-0.795898,0.244629,0
52730,0.499512,-0.785645,0.236328,0
52750,0.508789,-0.765137,0.233398,0
52770,0.52002,-0.744141,0.22998,0
52790,0.54248,-0.726074,0.210449,0
52810,0.560547,-0.720215,0.208008,0
52830,0.560547,-0.715332,0.228027,0
52850,0.563477,-0.70752,0.227051,0
52870,0.585449,-0.718262,0.19043,0
52890,0.610352,-0.725586,0.17627,0
52910,0.642578,-0.717773,0.167969,0
52930,0.654785,-0.707031,0.180176,0
52950,0.661621,-0.696777,0.16748,0
52970,0.666992,-0.683105,0.147949,0
52990,0.662598,-0.660156,0.141602,0
53010,0.697754,-0.630859,0.15625,0
53030,0.714355,-0.594727,0.172852,0
53050,0.702637,-0.602539,0.163086,0
53070,0.698242,-0.604492,0.145508,0
53090,0.72998,-0.605469,0.14502,0
53110,0.778809,-0.605957,0.146973,0
53130,0.769043,-0.591797,0.143555,0
53150,0.779785,-0.589355,0.144043,0
53170,0.786621,-0.569336,0.156738,0
53210,0.771484,-0.536621,0.164551,0
53230,0.783203,-0.52832,0.163574,0
53250,0.779297,-0.512695,0.180664,0
53270,0.768066,-0.492676,0.183105,0
53290,0.785645,-0.490723,0.174316,0
53310,0.80957,-0.491211,0.178223,0
53330,0.824707,-0.48291,0.185059,0
53350,0.81543,-0.484863,0.166992,0
53360,0.818359,-0.493164,0.172852,0
53390,0.854492,-0.48584,0.154785,0
53410,0.870605,-0.495605,0.149902,0
53430,0.856445,-0.486328,0.196777,0
53440,0.80127,-0.421875,0.249023,0
53460,0.82666,-0.412109,0.276855,0
53480,0.838379,-0.40918,0.294434,0
53500,0.817871,-0.400879,0.3125,0
53520,0.810547,-0.398926,0.319336,0
53530,0.825195,-0.418945,0.314941,0
53550,0.779785,-0.447266,0.327148,0
53570,0.73584,-0.430664,0.375,0
53590,0.736816,-0.436523,0.401855,0
53610,0.75293,-0.44043,0.397949,0
53630,0.781738,-0.425293,0.40918,0
53650,0.822754,-0.412109,0.442871,0
53670,0.782227,-0.420898,0.480957,0
53690,0.706055,-0.437988,0.505371,0
53710,0.67334,-0.456055,0.506836,0
53730,0.645996,-0.451172,0.491211,0
53750,0.617188,-0.436523,0.505859,0
53770,0.57959,-0.452148,0.525879,0
53790,0.528809,-0.490234,0.558594,0
53810,0.486328,-0.545898,0.568848,0
53830,0.486816,-0.57666,0.533203,0
53850,0.508301,-0.551758,0.532227,0
53870,0.493164,-0.539062,0.565918,0
53890,0.468262,-0.530273,0.581055,0
53910,0.466309,-0.554688,0.578613,0
53930,0.473145,-0.5625,0.552734,0
53950,0.467773,-0.552246,0.5625,0
53970,0.455566,-0.562988,0.589355,0
53990,0.46582,-0.552246,0.598145,0
54010,0.474121,-0.544434,0.589844,0
54030,0.479004,-0.560547,0.555664,0
54050,0.475586,-0.585449,0.568359,0
54070,0.455078,-0.598145,0.588379,0
54090,0.438965,-0.608887,0.580566,0
54110,0.449707,-0.614258,0.551758,0
54130,0.44043,-0.625488,0.545898,0
54150,0.405762,-0.649902,0.54248,0
54170,0.382324,-0.647949,0.541016,0
54190,0.338379,-0.686523,0.541992,0
54210,0.345703,-0.695801,0.558594,0
54230,0.372559,-0.677246,0.541504,0
54250,0.385254,-0.680176,0.538574,0
54270,0.381348,-0.70166,0.542969,0
54290,0.380371,-0.751465,0.545898,0
54310,0.380859,-0.777832,0.51709,0
54330,0.366699,-0.777832,0.520508,0
54350,0.305664,-0.760742,0.497559,0
54370,0.283691,-0.743652,0.477539,0
54390,0.276367,-0.736328,0.476562,0
54410,0.258301,-0.746582,0.478027,0
54430,0.25293,-0.744629,0.443848,0
54450,0.261719,-0.72998,0.425293,0
54470,0.262695,-0.756836,0.419434,0
54490,0.266602,-0.768555,0.399414,0
54510,0.282227,-0.789062,0.38623,0
54530,0.299316,-0.808105,0.373535,0
54550,0.300293,-0.807129,0.366699,0
54570,0.288086,-0.801758,0.361816,0
54590,0.28125,-0.797363,0.351074,0
54610,0.291016,-0.817383,0.335449,0
54630,0.30957,-0.831055,0.337402,0
54650,0.306641,-0.845703,0.331055,0
54670,0.332031,-0.833008,0.322266,0
54690,0.333008,-0.843262,0.317871,0
54710,0.339355,-0.844238,0.309082,0
54730,0.339844,-0.849609,0.300781,0
54750,0.35498,-0.867188,0.285156,0
54770,0.354492,-0.874512,0.28418,0
54790,0.335449,-0.898438,0.273926,0
54810,0.322266,-0.894531,0.269043,0
54830,0.312012,-0.879395,0.256348,0
54850,0.30957,-0.865723,0.25293,0
54870,0.311523,-0.843262,0.253418,0
54890,0.325195,-0.837891,0.250977,0
54910,0.333984,-0.850098,0.244629,0
54930,0.349609,-0.85791,0.262207,0
54950,0.362793,-0.819824,0.23877,0
54970,0.382812,-0.827148,0.233887,0
54990,0.421875,-0.828125,0.234375,0
55010,0.44873,-0.82959,0.215332,0
55030,0.466797,-0.794922,0.209473,0
55050,0.499023,-0.78125,0.201172,0
55070,0.518066,-0.820801,0.180176,0
55090,0.531738,-0.868164,0.148438,0
55110,0.554199,-0.883789,0.143555,0
55130,0.57959,-0.853516,0.128906,0
55150,0.580566,-0.800293,0.0898438,0
55170,0.572754,-0.79541,0.0634766,0
55190,0.553711,-0.786133,0.0551758,0
55210,0.544434,-0.808105,0.0498047,0
55230,0.568848,-0.79248,0.0356445,0
55250,0.606445,-0.779785,0.0273438,0
55270,0.616699,-0.75,0.00732422,0
55290,0.626465,-0.740234,-0.00146484,0
55310,0.635254,-0.714844,-0.000488281,0
55330,0.649414,-0.705566,-0.00878906,0
55350,0.632812,-0.709961,-0.0253906,0
55370,0.637207,-0.705566,-0.0478516,0
55390,0.64209,-0.703613,-0.0615234,0
55410,0.65625,-0.671875,-0.0820312,0
55430,0.667969,-0.666504,-0.0996094,0
55450,0.671875,-0.669434,-0.13916,0
55470,0.655762,-0.666016,-0.128418,0
55490,0.669434,-0.668945,-0.118652,0
55510,0.683105,-0.671387,-0.109863,0
55530,0.724121,-0.643066,-0.11084,0
55550,0.76416,-0.635742,-0.102539,0
55570,0.783203,-0.610352,-0.0859375,0
55590,0.786621,-0.598145,-0.0917969,0
55610,0.798828,-0.578125,-0.0776367,0
55630,0.812012,-0.568848,-0.0688477,0
55650,0.820312,-0.548828,-0.0444336,0
55670,0.822754,-0.556641,-0.0629883,0
55690,0.84375,-0.538086,-0.0825195,0
55710,0.867676,-0.525391,-0.0664062,0
55730,0.85498,-0.519531,-0.0620117,0
55750,0.851562,-0.512695,-0.0615234,0
55770,0.871582,-0.504395,-0.0512695,0
55790,0.876465,-0.5,-0.0410156,0
55810,0.859375,-0.473633,-0.0361328,0
55830,0.862793,-0.45752,-0.0297852,0
55850,0.877441,-0.45459,-0.015625,0
55870,0.88623,-0.441406,-0.000976562,0
55890,0.894043,-0.438477,-0.00830078,0
55910,0.904785,-0.435547,-0.00341797,0
55930,0.900879,-0.426758,0.00292969,0
55950,0.89209,-0.429199,0.0214844,0
55970,0.879395,-0.414062,0.0273438,0
55990,0.892578,-0.431641,0.0395508,0
56010,0.898926,-0.446289,0.0375977,0
56030,0.891602,-0.44873,0.0566406,0
56050,0.880859,-0.452637,0.0839844,0
56070,0.899902,-0.470703,0.109375,0
56090,0.932129,-0.484375,0.121094,0
56110,0.930664,-0.516113,0.157715,0
56130,0.905762,-0.507324,0.20166,0
56150,0.858887,-0.512207,0.222656,0
56170,0.83252,-0.524414,0.229492,0
56190,0.831543,-0.503906,0.21875,0
56210,0.810059,-0.501953,0.242188,0
56230,0.768555,-0.529297,0.265137,0
56250,0.740234,-0.565918,0.29834,0
56270,0.710938,-0.602051,0.296875,0
56290,0.695801,-0.580078,0.29541,0
56310,0.671875,-0.555176,0.291504,0
56330,0.643555,-0.541016,0.339844,0
56350,0.605957,-0.529785,0.341797,0
56370,0.566895,-0.553711,0.358398,0
56390,0.541016,-0.602051,0.366699,0
56410,0.523926,-0.63623,0.396973,0
56430,0.523438,-0.677734,0.383301,0
56450,0.539551,-0.667969,0.380371,0
56470,0.521973,-0.630371,0.391113,0
56490,0.493652,-0.624023,0.392578,0
56510,0.498047,-0.651367,0.398926,0
56530,0.5,-0.692871,0.398926,0
56550,0.526855,-0.722168,0.379883,0
56570,0.544922,-0.729492,0.375488,0
56590,0.515625,-0.722168,0.379883,0
56610,0.479004,-0.734375,0.379395,0
56630,0.480469,-0.738281,0.385254,0
56650,0.480957,-0.726562,0.394043,0
56670,0.473633,-0.732422,0.393555,0
56690,0.458008,-0.750488,0.398926,0
56710,0.445801,-0.78418,0.390137,0
56730,0.441895,-0.793457,0.392578,0
56750,0.42627,-0.805664,0.378906,0
56770,0.410156,-0.814453,0.371582,0
56780,0.40332,-0.814941,0.356934,0
56800,0.40625,-0.827637,0.352539,0
56820,0.406738,-0.81543,0.34668,0
56840,0.389648,-0.783203,0.34668,0
56860,0.35498,-0.786133,0.324707,0
56880,0.347168,-0.794434,0.313477,0
56900,0.336914,-0.831055,0.290527,0
56920,0.31543,-0.868652,0.285645,0
56940,0.301758,-0.871094,0.266113,0
56960,0.276367,-0.880371,0.244141,0
56980,0.266602,-0.871582,0.216309,0
57000,0.264648,-0.854004,0.178223,0
57020,0.270996,-0.844727,0.157227,0
57040,0.287109,-0.847168,0.159668,0
57060,0.308594,-0.866699,0.146973,0
57080,0.330078,-0.883789,0.145508,0
57100,0.370605,-0.89502,0.163086,0
57120,0.413574,-0.916504,0.155762,0
57140,0.419434,-0.9375,0.154297,0
57160,0.388184,-0.957031,0.138184,0
57180,0.350586,-0.955566,0.0986328,0
57200,0.344727,-0.989258,0.0546875,0
57220,0.34668,-0.96582,0.0371094,0
57240,0.305664,-0.925293,0.0600586,0
57260,0.269043,-0.866699,0.0566406,0
57280,0.266113,-0.865234,0.00732422,0
57300,0.286621,-0.893555,-0.0454102,0
57320,0.297363,-0.898926,-0.0253906,0
57340,0.294922,-0.900879,-0.0224609,0
57360,0.288574,-0.919922,-0.0585938,0
57380,0.316406,-0.91748,-0.0927734,0
57400,0.342773,-0.914551,-0.104492,0
57420,0.323242,-0.92627,-0.0776367,0
57440,0.297852,-0.903809,-0.0883789,0
57460,0.372559,-0.877441,-0.0996094,0
57480,0.474121,-0.847168,-0.136719,0
57500,0.529297,-0.831055,-0.139648,0
57520,0.515137,-0.855469,-0.110352,0
57540,0.526855,-0.894043,-0.150391,0
57560,0.593262,-0.855469,-0.194824,0
57580,0.571777,-0.789551,-0.155273,0
57600,0.53125,-0.774414,-0.13623,0
57620,0.528809,-0.762695,-0.127441,0
57640,0.581055,-0.794922,-0.177734,0
57660,0.631348,-0.800293,-0.177734,0
57680,0.618652,-0.791016,-0.147461,0
57700,0.567383,-0.78418,-0.131836,0
57720,0.553223,-0.768066,-0.141602,0
57740,0.607422,-0.750488,-0.180176,0
57760,0.666992,-0.735352,-0.178223,0
57780,0.65918,-0.730957,-0.174805,0
57800,0.630371,-0.743652,-0.166016,0
57820,0.632324,-0.76709,-0.174805,0
57840,0.68457,-0.767578,-0.191895,1001
57860,0.748047,-0.750977,-0.206543,0
57880,0.743652,-0.722168,-0.200195,0
57900,0.71875,-0.686035,-0.196777,0
57920,0.726074,-0.662109,-0.185547,0
57940,0.737305,-0.67627,-0.216797,0
57960,0.727051,-0.674316,-0.240234,0
57980,0.711426,-0.641113,-0.225586,0
58000,0.675781,-0.62207,-0.224121,0
58020,0.653809,-0.61084,-0.229492,0
58040,0.640625,-0.619629,-0.222656,0
58060,0.61377,-0.629395,-0.215332,0
58080,0.605957,-0.628906,-0.206543,0
58100,0.598145,-0.662598,-0.217285,0
58120,0.569824,-0.698242,-0.212891,0
58140,0.563477,-0.682129,-0.23584,0
58160,0.570312,-0.683594,-0.218262,0
58180,0.564941,-0.679688,-0.220703,0
58200,0.566895,-0.666992,-0.187012,0
58220,0.568359,-0.669922,-0.166016,0
58240,0.578125,-0.689453,-0.187988,0
58260,0.592285,-0.67627,-0.178223,0
58280,0.583496,-0.677246,-0.13916,0
58300,0.570312,-0.657227,-0.0922852,0
58320,0.577148,-0.660156,-0.0517578,0
58340,0.587402,-0.683594,-0.0327148,0
58360,0.574219,-0.698242,-0.0410156,0
58380,0.572266,-0.699219,0.00878906,0
58400,0.577637,-0.70752,0.0454102,0
58420,0.578125,-0.701172,0.0756836,0
58440,0.58252,-0.678223,0.105957,0
58460,0.564453,-0.673828,0.132324,0
58480,0.592285,-0.6875,0.171875,0
58500,0.645508,-0.713379,0.237305,0
58520,0.644531,-0.728516,0.25293,0
58540,0.647461,-0.768555,0.275391,0
58560,0.655273,-0.811035,0.32666,0
58580,0.629883,-0.828613,0.372559,0
58600,0.55957,-0.827637,0.38623,0
58620,0.509277,-0.830078,0.42334,0
58640,0.504395,-0.831055,0.461914,0
58660,0.49707,-0.838379,0.451172,0
58680,0.488281,-0.841797,0.455078,0
58700,0.446289,-0.865234,0.495117,0
58720,0.383789,-0.881348,0.523438,0
58740,0.326172,-0.870117,0.53125,0
58750,0.287109,-0.900391,0.49707,0
58770,0.293457,-0.924805,0.490234,0
58790,0.287598,-0.899902,0.501465,0
58810,0.244141,-0.866699,0.512207,0
58830,0.174316,-0.847656,0.481445,0
58850,0.131836,-0.867188,0.441406,0
58870,0.135254,-0.887207,0.45166,0
58890,0.179688,-0.869629,0.467773,0
58910,0.208984,-0.838379,0.485352,0
58930,0.210449,-0.816895,0.481445,0
58950,0.208984,-0.790039,0.475586,0
58970,0.211426,-0.776367,0.477539,0
58990,0.213379,-0.791016,0.48877,0
59010,0.206543,-0.79834,0.484375,0
59030,0.217773,-0.818848,0.479004,0
59050,0.224609,-0.8125,0.48584,0
59070,0.248535,-0.810059,0.485352,0
59090,0.269531,-0.815918,0.481934,0
59110,0.276367,-0.829102,0.496582,0
59130,0.255371,-0.818848,0.485352,0
59150,0.236328,-0.798828,0.481445,0
59170,0.248535,-0.782227,0.502441,0
59190,0.237793,-0.784668,0.512695,0
59210,0.219238,-0.795898,0.500488,0
59230,0.216309,-0.797852,0.483887,0
59250,0.224121,-0.806641,0.483887,0
59270,0.237305,-0.775391,0.513184,0
59290,0.227539,-0.758301,0.515137,0
59310,0.215332,-0.766602,0.509766,0
59330,0.208984,-0.77002,0.522949,0
59350,0.213379,-0.777344,0.521484,0
59370,0.213379,-0.785645,0.529785,0
59390,0.230957,-0.774902,0.500488,0
59410,0.238281,-0.764648,0.497559,0
59430,0.23291,-0.751465,0.502441,0
59450,0.232422,-0.751953,0.491211,0
59470,0.230957,-0.768066,0.491211,0
59490,0.243164,-0.779785,0.485352,0
59510,0.249512,-0.781738,0.486816,0
59530,0.245117,-0.788086,0.491699,0
59550,0.246094,-0.775879,0.481934,0
59570,0.25293,-0.763672,0.494629,0
59590,0.243164,-0.765137,0.513672,0
59610,0.235352,-0.766113,0.519043,0
59630,0.234375,-0.770996,0.512207,0
59650,0.225586,-0.779297,0.527344,0
59670,0.233887,-0.796387,0.529785,0
59690,0.242188,-0.79834,0.509766,0
59710,0.256836,-0.78418,0.510254,0
59730,0.242188,-0.771484,0.512207,0
59750,0.234863,-0.760742,0.510742,0
59770,0.246094,-0.758789,0.510742,0
59790,0.254883,-0.753906,0.522461,0
59810,0.245117,-0.759277,0.510254,0
59830,0.243164,-0.766113,0.499512,0
59850,0.252441,-0.771484,0.503418,0
59870,0.255859,-0.765137,0.520996,1000
59890,0.226562,-0.775391,0.519043,0
59910,0.221191,-0.774414,0.529297,0
59930,0.249023,-0.764648,0.522461,0
59950,0.236328,-0.760742,0.529785,0
59970,0.203613,-0.755859,0.530762,0
59990,0.205566,-0.764648,0.526367,0
60010,0.232422,-0.777832,0.516113,0
60030,0.255859,-0.778809,0.508301,0
60050,0.260254,-0.759766,0.508301,0
60070,0.233398,-0.76416,0.508301,0
60090,0.208008,-0.772949,0.509277,0
60110,0.220703,-0.783691,0.50293,0
60130,0.244141,-0.78418,0.503418,0
60150,0.226074,-0.780273,0.506348,0
60170,0.208984,-0.775879,0.495117,0
60190,0.230957,-0.775879,0.489746,0
60210,0.257324,-0.766602,0.500977,0
60230,0.227539,-0.769043,0.501953,0
60250,0.210449,-0.776855,0.48877,0
60270,0.219238,-0.783691,0.491699,0
60290,0.216309,-0.781738,0.494629,0
60310,0.199219,-0.775391,0.48877,0
60330,0.17627,-0.785156,0.494629,0
60350,0.171387,-0.78418,0.490723,0
60370,0.193848,-0.797852,0.489258,0
60390,0.230469,-0.800293,0.481934,0
60410,0.257812,-0.797363,0.471191,0
60430,0.260742,-0.790527,0.466797,0
60450,0.241699,-0.790527,0.445312,0
60470,0.233887,-0.800293,0.444824,0
60490,0.245605,-0.828613,0.426758,0
60510,0.232422,-0.876465,0.407227,0
60530,0.220215,-0.882812,0.40332,0
60550,0.26123,-0.852051,0.423828,0
60570,0.302246,-0.824707,0.425293,0
60590,0.340332,-0.833008,0.408203,0
60610,0.356445,-0.811035,0.40625,0
60630,0.353027,-0.786621,0.395996,0
60650,0.383301,-0.763184,0.384766,0
60670,0.419922,-0.757324,0.366211,0
60690,0.441895,-0.726074,0.358398,0
60710,0.440918,-0.69873,0.356934,0
60730,0.395508,-0.661621,0.338867,0
60750,0.399414,-0.647461,0.328125,0
60770,0.43457,-0.649414,0.333008,0
60790,0.487793,-0.663086,0.329102,0
60810,0.525879,-0.666016,0.317871,0
60830,0.533691,-0.663574,0.328613,0
60850,0.542969,-0.669434,0.317383,0
60870,0.59082,-0.649414,0.319824,0
60890,0.61084,-0.645508,0.330078,0
60910,0.597656,-0.625488,0.333008,0
60930,0.588867,-0.618652,0.338867,0
60950,0.605469,-0.62793,0.344238,0
60970,0.691406,-0.624512,0.348145,0
60990,0.694336,-0.60791,0.339844,0
61010,0.702637,-0.57373,0.347656,0
61030,0.689941,-0.562988,0.359375,0
61050,0.719727,-0.558594,0.365234,0
61070,0.749023,-0.562012,0.368164,0
61090,0.726562,-0.533203,0.360352,0
61110,0.733398,-0.515625,0.36377,0
61130,0.742676,-0.510254,0.351074,0
61150,0.733398,-0.506348,0.355469,0
61170,0.72998,-0.496582,0.365723,0
61190,0.719727,-0.484375,0.365723,0
61210,0.723633,-0.487793,0.353027,0
61230,0.722168,-0.474609,0.371094,0
61250,0.738281,-0.46875,0.368652,0
61270,0.729492,-0.459961,0.368652,0
61290,0.719727,-0.458984,0.359863,0
61310,0.729004,-0.456543,0.371094,0
61330,0.747559,-0.458008,0.37793,0
61350,0.742188,-0.44873,0.367188,0
61370,0.739746,-0.460449,0.374023,0
61390,0.747559,-0.445801,0.395996,0
61410,0.746094,-0.455078,0.414551,0
61430,0.722656,-0.454102,0.425781,0
61450,0.714844,-0.453613,0.410645,0
61470,0.720215,-0.458984,0.414062,0
61490,0.726562,-0.450684,0.425293,0
61510,0.723145,-0.441895,0.429688,0
61530,0.717773,-0.45459,0.426758,0
61550,0.725098,-0.456055,0.418457,0
61570,0.724609,-0.450684,0.42041,0
61590,0.70752,-0.448242,0.427246,0
61610,0.708496,-0.45166,0.4375,0
61630,0.708496,-0.447754,0.425293,0
61650,0.70752,-0.447266,0.444824,0
61670,0.701172,-0.446777,0.446289,0
61690,0.694824,-0.439453,0.45166,0
61710,0.681152,-0.445801,0.446289,0
61730,0.694336,-0.449707,0.449707,0
61750,0.692383,-0.443359,0.45459,0
61770,0.689941,-0.451172,0.447754,0
61790,0.693359,-0.452148,0.447266,0
61810,0.68457,-0.45459,0.450195,0
61830,0.67334,-0.45752,0.437988,0
61850,0.68457,-0.452148,0.435059,0
61870,0.691406,-0.467285,0.442383,0
61890,0.69043,-0.447266,0.437988,0
61910,0.688477,-0.441895,0.448242,0
61930,0.681152,-0.451172,0.448242,0
61950,0.685059,-0.456055,0.450684,0
61970,0.6875,-0.452637,0.465332,0
61990,0.666992,-0.447754,0.451172,0
62010,0.661133,-0.444824,0.45752,0
62030,0.675293,-0.458984,0.47168,0
62050,0.686523,-0.463867,0.478516,0
62070,0.6875,-0.466797,0.461426,0
62090,0.676758,-0.461914,0.446289,0
62110,0.666504,-0.459473,0.452148,0
62130,0.680176,-0.456055,0.473633,0
62150,0.681152,-0.45752,0.475586,0
62160,0.674805,-0.462402,0.458008,0
62180,0.681641,-0.460449,0.453125,0
62200,0.674805,-0.454102,0.461914,0
62220,0.687012,-0.453125,0.465332,0
62240,0.68457,-0.455566,0.455566,0
62260,0.685059,-0.456543,0.447266,0
62280,0.679688,-0.456055,0.442383,0
62300,0.675293,-0.461914,0.440918,0
62320,0.671875,-0.458984,0.452637,0
62340,0.678223,-0.462891,0.449219,0
62360,0.677734,-0.471191,0.455078,0
62380,0.669434,-0.47168,0.446289,0
62400,0.656738,-0.473633,0.463867,0
62420,0.636719,-0.474609,0.459473,0
62440,0.640137,-0.481445,0.470703,0
62460,0.633301,-0.486816,0.474609,0
62480,0.625977,-0.477051,0.474121,0
62500,0.620605,-0.481445,0.481934,0
62520,0.62793,-0.486816,0.477051,0
62540,0.646484,-0.486328,0.474609,0
62560,0.668457,-0.509277,0.472656,0
62580,0.67334,-0.501953,0.452148,0
62600,0.685059,-0.500977,0.465332,0
62620,0.673828,-0.51709,0.465332,0
62640,0.620605,-0.512207,0.482422,0
62660,0.609863,-0.493164,0.489258,0
62680,0.617676,-0.491699,0.491211,0
62700,0.628418,-0.487305,0.491699,0
62720,0.623535,-0.496094,0.513184,0
62740,0.591797,-0.498047,0.527832,0
62760,0.586426,-0.501953,0.516602,0
62780,0.609863,-0.519531,0.490723,0
62800,0.631348,-0.512207,0.489258,0
62820,0.594238,-0.495605,0.500977,0
62840,0.57959,-0.51416,0.535645,0
62860,0.589355,-0.529297,0.547852,0
62880,0.606934,-0.537109,0.555176,0
62900,0.570801,-0.496094,0.541992,0
62920,0.536621,-0.474609,0.572754,0
62940,0.501953,-0.479004,0.58252,0
62960,0.48291,-0.501953,0.599609,0
62980,0.478027,-0.51123,0.604004,0
63000,0.462402,-0.505859,0.607422,0
63020,0.460449,-0.486816,0.623535,0
63040,0.462402,-0.494141,0.616211,0
63060,0.45752,-0.509277,0.624023,0
63080,0.467285,-0.514648,0.637695,0
63100,0.475586,-0.522461,0.656738,0
63120,0.477051,-0.52002,0.64502,0
63140,0.460938,-0.51416,0.654297,0
63160,0.42334,-0.520508,0.648438,0
63180,0.384766,-0.536133,0.654785,0
63200,0.359863,-0.556641,0.665039,0
63220,0.366699,-0.536133,0.652832,0
63240,0.375,-0.512695,0.663574,0
63260,0.347656,-0.513672,0.674316,0
63280,0.313477,-0.527344,0.687012,0
63300,0.305664,-0.558594,0.70459,0
63320,0.310547,-0.547852,0.697754,0
63340,0.307617,-0.559082,0.699219,0
63360,0.30127,-0.543945,0.699707,0
63380,0.303223,-0.559082,0.712402,0
63400,0.308105,-0.575195,0.696777,0
63420,0.316895,-0.564453,0.67041,0
63440,0.30957,-0.553223,0.666992,0
63460,0.294922,-0.553223,0.677246,0
63480,0.299805,-0.553223,0.679199,0
63500,0.308105,-0.55957,0.67041,0
63520,0.31543,-0.543457,0.638184,0
63540,0.305664,-0.53418,0.647949,0
63560,0.28418,-0.557617,0.655762,0
63580,0.282715,-0.600586,0.657715,0
63600,0.26123,-0.61377,0.642578,0
63620,0.243652,-0.618652,0.640137,0
63640,0.233887,-0.637207,0.63623,0
63660,0.235352,-0.646973,0.639648,0
63680,0.23291,-0.662109,0.64209,0
63700,0.208496,-0.686523,0.625488,0
63720,0.209961,-0.690918,0.614746,0
63740,0.219727,-0.688965,0.623047,0
63760,0.205566,-0.69043,0.626953,0
63780,0.1875,-0.68457,0.62207,0
63800,0.173828,-0.708008,0.606445,0
63820,0.181152,-0.717773,0.605957,0
63840,0.192871,-0.710449,0.606445,0
63860,0.1875,-0.706543,0.605469,0
63880,0.19043,-0.70166,0.594727,0
63900,0.186035,-0.707031,0.589844,0
63920,0.188965,-0.722168,0.580566,0
63940,0.203125,-0.722168,0.584961,0
63960,0.199707,-0.727051,0.574707,0
63980,0.160156,-0.73877,0.563477,0
64000,0.15332,-0.726074,0.556641,0
64020,0.197266,-0.736328,0.544434,0
64040,0.220215,-0.735352,0.52832,0
64060,0.209473,-0.716797,0.523438,0
64080,0.177246,-0.725098,0.521484,0
64100,0.171875,-0.720215,0.529785,0
64120,0.200684,-0.724609,0.52832,0
64140,0.253906,-0.749512,0.51123,0
64150,0.302734,-0.73877,0.516602,0
64170,0.29248,-0.731934,0.508789,0
64190,0.272949,-0.712891,0.503906,0
64210,0.278809,-0.734863,0.501953,0
64230,0.306152,-0.772461,0.494629,0
64250,0.336914,-0.778809,0.472656,0
64270,0.352051,-0.777832,0.462891,0
64290,0.368652,-0.766113,0.463867,0
64310,0.384766,-0.737793,0.462402,0
64330,0.388184,-0.734375,0.438477,0
64350,0.401855,-0.733887,0.44043,0
64370,0.422852,-0.726562,0.439453,0
64390,0.433594,-0.728027,0.435059,0
64410,0.442871,-0.711914,0.423828,0
64430,0.447266,-0.714844,0.418945,0
64450,0.457031,-0.702637,0.419434,0
64470,0.465332,-0.695312,0.401855,0
64490,0.482422,-0.694336,0.388672,0
64510,0.516113,-0.69043,0.381348,0
64530,0.544922,-0.694336,0.385254,0
64550,0.52002,-0.676758,0.380371,0
64570,0.50293,-0.67334,0.372559,0
64590,0.523926,-0.674316,0.350098,0
64610,0.546875,-0.685547,0.350586,0
64630,0.556641,-0.690918,0.354004,0
64650,0.55127,-0.67041,0.368164,0
64670,0.545898,-0.666016,0.363281,0
64690,0.553223,-0.675781,0.337402,0
64710,0.582031,-0.682129,0.333496,0
64730,0.600586,-0.676758,0.361816,0
64750,0.591309,-0.651367,0.364746,0
64770,0.598633,-0.638672,0.371094,0
64790,0.609863,-0.651855,0.363281,0
64810,0.618164,-0.642578,0.374512,0
64830,0.624023,-0.64502,0.366699,0
64850,0.619629,-0.634766,0.368164,0
64870,0.619629,-0.621582,0.375977,0
64890,0.643555,-0.620117,0.379395,0
64910,0.646484,-0.619141,0.361816,0
64930,0.651367,-0.612305,0.350098,0
64950,0.650879,-0.597656,0.345215,0
64970,0.666992,-0.584473,0.325684,0
64990,0.678223,-0.589844,0.309082,0
65010,0.665527,-0.585449,0.317383,0
65030,0.67334,-0.585938,0.29834,0
65050,0.684082,-0.577148,0.299805,0
65070,0.686035,-0.567871,0.290527,0
65090,0.696777,-0.563965,0.311523,0
65110,0.716309,-0.555664,0.335449,0
65130,0.714355,-0.544922,0.333984,0
65150,0.700684,-0.530273,0.309082,0
65170,0.712891,-0.499512,0.297852,0
65190,0.739258,-0.493652,0.296387,0
65210,0.742188,-0.488281,0.304199,0
65230,0.759277,-0.500977,0.304688,0
65250,0.743164,-0.499023,0.29541,0
65270,0.753418,-0.510254,0.303223,0
65290,0.751953,-0.503418,0.332031,0
65310,0.73584,-0.486816,0.32959,0
65330,0.724121,-0.489258,0.317383,0
65350,0.721191,-0.475098,0.322754,0
65370,0.721191,-0.466797,0.353027,0
65390,0.735352,-0.471191,0.364746,0
65410,0.736328,-0.471191,0.367676,0
65430,0.73291,-0.458496,0.367188,0
65450,0.735352,-0.435547,0.384766,0
65470,0.749512,-0.420898,0.393066,0
65490,0.75293,-0.40625,0.394531,0
65510,0.757812,-0.40332,0.39502,0
65530,0.750488,-0.396973,0.401855,0
65550,0.745117,-0.407715,0.426758,0
65570,0.752441,-0.405762,0.437988,0
65590,0.73877,-0.405273,0.433105,0
65610,0.72998,-0.393555,0.445312,0
65630,0.739746,-0.387695,0.463379,0
65650,0.748535,-0.365723,0.46582,0
65670,0.758789,-0.369141,0.46582,0
65690,0.769531,-0.371582,0.485352,0
65710,0.749512,-0.384766,0.472656,0
65730,0.720215,-0.395996,0.510742,0
65750,0.691406,-0.401855,0.527344,0
65770,0.679199,-0.421875,0.547852,0
65790,0.670898,-0.416016,0.532715,0
65810,0.666992,-0.406738,0.530273,0
65830,0.662598,-0.426758,0.541504,0
65850,0.649414,-0.455566,0.571289,0
65870,0.594727,-0.447754,0.586914,0
65890,0.51709,-0.484375,0.617188,0
65910,0.494629,-0.47998,0.646484,0
65930,0.507324,-0.469727,0.650391,0
65950,0.500488,-0.457031,0.65625,0
65970,0.453613,-0.433594,0.680176,0
65990,0.399414,-0.48291,0.700195,0
66010,0.385742,-0.524902,0.702148,0
66030,0.392578,-0.544434,0.682617,0
66050,0.362305,-0.561035,0.685547,0
66070,0.342285,-0.546387,0.686035,0
66090,0.330566,-0.516113,0.679688,0
66110,0.338379,-0.518555,0.671875,0
66130,0.354004,-0.531738,0.657227,0
66150,0.353027,-0.544434,0.655762,0
66170,0.331055,-0.549805,0.657715,0
66190,0.317871,-0.569824,0.646973,0
66210,0.34082,-0.580566,0.650879,0
66230,0.365723,-0.587891,0.648438,0
66250,0.363281,-0.595703,0.644043,0
66270,0.348145,-0.618164,0.600586,0
66290,0.352539,-0.633789,0.628418,0
66310,0.357422,-0.643555,0.639648,0
66330,0.334473,-0.625,0.632812,0
66350,0.279297,-0.63623,0.629395,0
66370,0.252441,-0.653809,0.610352,0
66390,0.262207,-0.672852,0.613281,0
66410,0.255859,-0.662109,0.595215,0
