Timestamp, Acceleration x, Acceleration y, Acceleration z, Marker
40,-0.369629,-0.676758,0.585449,0
60,-0.37207,-0.678711,0.583984,0
80,-0.376953,-0.679199,0.586914,0
100,-0.366699,-0.680664,0.583984,0
120,-0.365234,-0.680664,0.58252,0
120,-0.373535,-0.682129,0.588867,0
170,-0.376953,-0.676758,0.59375,0
170,-0.376465,-0.679688,0.587891,0
190,-0.368652,-0.685059,0.577148,0
210,-0.37207,-0.67334,0.574707,0
230,-0.370605,-0.67041,0.591797,0
250,-0.371094,-0.673828,0.587402,0
270,-0.367188,-0.677734,0.588379,0
290,-0.36377,-0.680176,0.580566,0
310,-0.37207,-0.680664,0.57959,0
330,-0.376953,-0.678711,0.576172,0
350,-0.375977,-0.670898,0.57373,0
370,-0.37207,-0.679199,0.581055,0
390,-0.378418,-0.677246,0.583984,0
410,-0.380371,-0.670898,0.577148,0
430,-0.381348,-0.672363,0.581543,0
450,-0.376953,-0.675781,0.580566,0
470,-0.368652,-0.67041,0.575195,0
490,-0.369629,-0.670898,0.580566,0
510,-0.376465,-0.686523,0.584961,0
530,-0.384766,-0.682129,0.587891,0
550,-0.385742,-0.678711,0.585449,0
570,-0.384277,-0.673828,0.57666,0
590,-0.380859,-0.671387,0.574219,0
610,-0.382812,-0.669922,0.584473,0
630,-0.377441,-0.679688,0.57959,0
650,-0.374512,-0.677246,0.581055,0
670,-0.380371,-0.674805,0.575195,0
690,-0.375,-0.674316,0.578125,0
710,-0.376465,-0.678223,0.584473,0
730,-0.374023,-0.675781,0.580078,0
750,-0.376953,-0.680176,0.579102,0
770,-0.380371,-0.680176,0.580566,0
790,-0.376953,-0.67334,0.57666,0
810,-0.373047,-0.669922,0.581543,0
830,-0.378906,-0.680664,0.581543,0
840,-0.37207,-0.677734,0.586426,0
860,-0.378418,-0.674316,0.586914,0
880,-0.383301,-0.678711,0.583984,0
900,-0.376953,-0.670898,0.581055,0
920,-0.374023,-0.667969,0.584473,0
940,-0.375488,-0.678223,0.583008,0
960,-0.378906,-0.680664,0.588867,0
980,-0.373535,-0.679688,0.593262,0
1000,-0.375977,-0.681152,0.580566,0
1020,-0.376465,-0.676758,0.574707,0
1040,-0.380371,-0.670898,0.578125,0
1060,-0.37793,-0.67334,0.577637,0
1080,-0.369141,-0.672363,0.580078,0
1100,-0.376953,-0.668945,0.585938,0
1120,-0.383301,-0.681152,0.586914,0
1140,-0.378906,-0.687988,0.58252,0
1160,-0.375488,-0.681152,0.580078,0
1180,-0.375488,-0.672363,0.571777,0
1200,-0.379883,-0.669922,0.578613,0
1220,-0.378418,-0.672363,0.574707,0
1240,-0.374512,-0.66748,0.573242,0
1260,-0.372559,-0.677734,0.581055,0
1280,-0.37793,-0.685547,0.577148,0
1300,-0.380371,-0.679688,0.57666,0
1320,-0.373535,-0.680664,0.580078,0
1340,-0.381348,-0.678711,0.591797,0
1360,-0.379395,-0.67334,0.587891,0
1380,-0.37207,-0.674316,0.586426,0
1400,-0.375488,-0.682617,0.585938,0
1420,-0.378418,-0.67627,0.581543,0
1440,-0.373047,-0.671387,0.581055,0
1460,-0.375977,-0.674805,0.580566,0
1480,-0.376953,-0.667969,0.57959,0
1500,-0.376953,-0.664551,0.57959,0
1520,-0.366699,-0.66748,0.579102,0
1540,-0.371582,-0.674805,0.577148,0
1560,-0.375488,-0.679199,0.585449,0
1580,-0.379395,-0.679688,0.587891,0
1600,-0.377441,-0.679199,0.575195,0
1620,-0.380371,-0.677246,0.576172,0
1640,-0.373047,-0.673828,0.577148,0
1660,-0.375488,-0.671387,0.588867,0
1680,-0.374023,-0.663086,0.582031,0
1700,-0.375,-0.672852,0.585449,0
1720,-0.375977,-0.679199,0.583496,0
1740,-0.374512,-0.674805,0.581055,0
1760,-0.372559,-0.674316,0.583984,0
1780,-0.375977,-0.682617,0.590332,0
1800,-0.378906,-0.67334,0.582031,0
1820,-0.367188,-0.668945,0.582031,0
1840,-0.372559,-0.664062,0.583984,0
1860,-0.378418,-0.678711,0.58252,0
1880,-0.375488,-0.677734,0.587891,0
1900,-0.37793,-0.683594,0.584473,0
1920,-0.377441,-0.679199,0.583008,0
1940,-0.373047,-0.672363,0.593262,0
1960,-0.377441,-0.669922,0.589355,0
1980,-0.369629,-0.670898,0.583496,0
2000,-0.37207,-0.67041,0.581055,0
2020,-0.379395,-0.675293,0.596191,0
2040,-0.374512,-0.674316,0.586426,0
2060,-0.371094,-0.671875,0.578613,0
2080,-0.370605,-0.672852,0.581543,0
2100,-0.371582,-0.684082,0.583496,0
2120,-0.380859,-0.669922,0.58252,0
2140,-0.375488,-0.661621,0.581543,0
2160,-0.371094,-0.668945,0.579102,0
2180,-0.37207,-0.665039,0.591309,0
2200,-0.366699,-0.666504,0.586914,0
2220,-0.369141,-0.683105,0.59082,0
2240,-0.372559,-0.685059,0.588379,0
2260,-0.369629,-0.685059,0.591797,0
2280,-0.370605,-0.685059,0.583496,0
2300,-0.373535,-0.688965,0.592285,0
2320,-0.361328,-0.668945,0.584961,0
2340,-0.354492,-0.658691,0.591797,0
2360,-0.369141,-0.664062,0.601562,0
2380,-0.373535,-0.665527,0.599121,0
2400,-0.366699,-0.669434,0.594727,0
2420,-0.368164,-0.673828,0.584961,0
2440,-0.369629,-0.666992,0.589844,0
2460,-0.371094,-0.663086,0.595703,0
2480,-0.366699,-0.673828,0.588379,0
2500,-0.367188,-0.675293,0.600098,0
2520,-0.364746,-0.671875,0.592285,0
2540,-0.35791,-0.675293,0.583496,0
2560,-0.365234,-0.67334,0.592773,0
2580,-0.374023,-0.671875,0.598145,0
2600,-0.373047,-0.672363,0.587891,0
2620,-0.353516,-0.67334,0.589355,0
2640,-0.361816,-0.67334,0.585449,0
2660,-0.359375,-0.679688,0.585449,0
2680,-0.367676,-0.675781,0.59082,0
2700,-0.371582,-0.67627,0.591797,0
2720,-0.367188,-0.666504,0.592773,0
2740,-0.367188,-0.670898,0.59375,0
2760,-0.364746,-0.69043,0.580566,0
2780,-0.361328,-0.694824,0.593262,0
2800,-0.368652,-0.694824,0.575684,0
2820,-0.362305,-0.681641,0.575195,0
2840,-0.360352,-0.67334,0.581055,0
2860,-0.367188,-0.671875,0.582031,0
2880,-0.368652,-0.666992,0.592285,0
2900,-0.364746,-0.659668,0.592773,0
2920,-0.366699,-0.662109,0.597656,0
2940,-0.365723,-0.676758,0.590332,0
2960,-0.368164,-0.682129,0.583496,0
2980,-0.371094,-0.683105,0.58252,0
3000,-0.376465,-0.690918,0.590332,0
3020,-0.371094,-0.683105,0.585938,0
3040,-0.366211,-0.679199,0.587891,0
3060,-0.362793,-0.677246,0.584961,0
3080,-0.361328,-0.675293,0.583496,0
3100,-0.362305,-0.675293,0.577637,0
3120,-0.367188,-0.675293,0.57666,0
3140,-0.368164,-0.680176,0.57666,0
3160,-0.367188,-0.683105,0.578125,0
3180,-0.371094,-0.689453,0.583496,0
3200,-0.37207,-0.687012,0.574707,0
3220,-0.370117,-0.6875,0.57666,0
3240,-0.369629,-0.6875,0.578613,0
3260,-0.367676,-0.679199,0.580566,0
3280,-0.367188,-0.672363,0.575684,0
3300,-0.357422,-0.681641,0.577637,0
3320,-0.356934,-0.688477,0.591309,0
3340,-0.36377,-0.685059,0.587402,0
3360,-0.366211,-0.68457,0.583984,0
3380,-0.368652,-0.6875,0.591309,0
3400,-0.375,-0.687012,0.583984,0
3420,-0.375488,-0.681152,0.587891,0
3440,-0.369141,-0.679199,0.582031,0
3460,-0.366699,-0.672363,0.574219,0
3480,-0.365234,-0.676758,0.587402,0
3500,-0.362305,-0.680664,0.578125,0
3520,-0.354004,-0.675781,0.571777,0
3530,-0.362793,-0.674805,0.58252,0
3550,-0.364746,-0.687988,0.585449,0
3570,-0.368652,-0.691406,0.577637,0
3590,-0.378418,-0.688965,0.585938,0
3610,-0.371094,-0.688477,0.578125,0
3630,-0.369141,-0.692871,0.57666,0
3650,-0.372559,-0.686523,0.58252,0
3670,-0.367188,-0.686523,0.57666,0
3690,-0.358887,-0.686035,0.571289,0
3710,-0.365234,-0.678711,0.574219,0
3730,-0.369141,-0.67041,0.58252,0
3750,-0.364746,-0.674316,0.583008,0
3770,-0.367676,-0.681152,0.57959,0
3790,-0.370605,-0.677734,0.569336,0
3810,-0.374023,-0.683594,0.577148,0
3830,-0.37207,-0.688965,0.571777,0
3850,-0.371094,-0.685547,0.570801,0
3870,-0.376953,-0.691895,0.574219,0
3890,-0.369141,-0.695801,0.575195,0
3910,-0.361328,-0.688477,0.579102,0
3930,-0.370117,-0.686523,0.578125,0
3950,-0.369141,-0.68457,0.580566,0
3970,-0.36084,-0.682617,0.580566,0
3990,-0.367676,-0.680176,0.591309,0
4010,-0.378418,-0.690918,0.580566,0
4030,-0.373047,-0.691406,0.566406,0
4050,-0.365723,-0.680664,0.564941,0
4070,-0.371094,-0.683105,0.576172,0
4090,-0.366699,-0.687012,0.576172,0
4110,-0.369629,-0.679688,0.57666,0
4130,-0.367676,-0.687012,0.575684,0
4150,-0.370605,-0.691406,0.580566,0
4170,-0.377441,-0.688965,0.585449,0
4190,-0.367676,-0.685547,0.576172,0
4210,-0.358887,-0.687988,0.568848,0
4230,-0.368652,-0.692871,0.574219,0
4250,-0.37207,-0.683594,0.571289,0
4270,-0.367676,-0.688965,0.572266,0
4290,-0.373535,-0.691406,0.579102,0
4310,-0.386719,-0.699219,0.581055,0
4330,-0.371094,-0.689941,0.579102,0
4350,-0.361816,-0.67334,0.572266,0
4370,-0.358398,-0.670898,0.570801,0
4390,-0.367188,-0.6875,0.578125,0
4410,-0.371582,-0.692871,0.570312,0
4430,-0.376953,-0.6875,0.577148,0
4450,-0.381836,-0.682617,0.575195,0
4470,-0.369141,-0.683594,0.574219,0
4490,-0.373535,-0.686523,0.589844,0
4510,-0.368652,-0.688965,0.585449,0
4530,-0.370117,-0.688965,0.581543,0
4550,-0.374023,-0.681641,0.578613,0
4570,-0.376465,-0.678223,0.583984,0
4590,-0.378906,-0.687012,0.583008,0
4610,-0.375488,-0.679199,0.578125,0
4630,-0.370605,-0.677246,0.571289,0
4650,-0.378906,-0.678223,0.56543,0
4670,-0.378418,-0.674316,0.572754,0
4690,-0.375488,-0.679199,0.576172,0
4710,-0.378906,-0.686523,0.57373,0
4730,-0.37793,-0.685059,0.58252,0
4750,-0.376953,-0.679199,0.576172,0
4770,-0.37793,-0.682129,0.570312,0
4790,-0.384766,-0.6875,0.575684,0
4810,-0.38623,-0.683594,0.568848,0
4830,-0.381348,-0.679688,0.570801,0
4850,-0.381348,-0.680176,0.582031,0
4870,-0.388672,-0.68457,0.578613,0
4890,-0.383789,-0.684082,0.577637,0
4910,-0.383301,-0.683105,0.578613,0
4930,-0.388184,-0.67334,0.580566,0
4950,-0.383301,-0.678711,0.577637,0
4970,-0.373047,-0.684082,0.56543,0
4990,-0.377441,-0.676758,0.573242,0
5010,-0.37793,-0.666992,0.576172,0
5030,-0.387695,-0.674316,0.577637,0
5050,-0.385254,-0.681152,0.571777,0
5070,-0.383301,-0.680664,0.570312,0
5090,-0.386719,-0.679199,0.572266,0
5110,-0.38623,-0.670898,0.577148,0
5130,-0.391113,-0.675781,0.570312,0
5150,-0.384277,-0.679688,0.564941,0
5170,-0.387695,-0.683594,0.567383,0
5190,-0.387207,-0.672852,0.569824,0
5210,-0.387695,-0.67334,0.567871,0
5230,-0.390625,-0.675781,0.584473,0
5250,-0.383301,-0.676758,0.584473,0
5270,-0.385254,-0.678223,0.577637,0
5290,-0.391602,-0.682129,0.570801,0
5310,-0.390625,-0.682129,0.574707,0
5330,-0.394043,-0.671875,0.569824,0
5350,-0.388184,-0.675293,0.575195,0
5370,-0.388672,-0.676758,0.57666,0
5390,-0.387207,-0.675781,0.585938,0
5410,-0.394043,-0.680664,0.588379,0
5430,-0.385742,-0.688477,0.566406,0
5450,-0.391113,-0.678223,0.571777,0
5470,-0.394531,-0.679199,0.571777,0
5490,-0.385254,-0.676758,0.576172,0
5500,-0.386719,-0.669434,0.575195,0
5520,-0.380859,-0.672852,0.575195,0
5540,-0.388672,-0.677734,0.576172,0
5560,-0.38916,-0.679688,0.569824,0
5580,-0.393555,-0.666504,0.56543,0
5600,-0.391113,-0.675293,0.569824,0
5620,-0.39209,-0.674805,0.575195,0
5640,-0.393555,-0.67627,0.578613,0
5660,-0.398926,-0.675293,0.563477,0
5680,-0.396973,-0.673828,0.570312,0
5700,-0.390625,-0.668457,0.571289,0
5720,-0.390625,-0.669434,0.579102,0
5740,-0.39502,-0.67334,0.583008,0
5760,-0.380371,-0.675781,0.565918,0
5780,-0.379395,-0.683594,0.576172,0
5800,-0.393555,-0.689453,0.581543,0
5820,-0.395996,-0.68457,0.577148,0
5840,-0.393066,-0.680664,0.565918,0
5860,-0.382812,-0.675293,0.569336,0
5880,-0.382324,-0.670898,0.579102,0
5900,-0.397461,-0.665039,0.586914,0
5920,-0.398438,-0.663574,0.575195,0
5940,-0.387695,-0.668457,0.571289,0
5960,-0.388184,-0.669434,0.581543,0
5980,-0.391113,-0.674316,0.586914,0
6000,-0.391113,-0.671875,0.586914,0
6020,-0.384277,-0.676758,0.578613,0
6040,-0.383789,-0.679199,0.58252,0
6060,-0.388672,-0.674316,0.584961,0
6080,-0.384766,-0.664062,0.585449,0
6100,-0.383789,-0.662598,0.582031,0
6120,-0.384766,-0.674805,0.586914,0
6140,-0.385254,-0.676758,0.583984,0
6160,-0.38623,-0.678711,0.583008,0
6180,-0.381348,-0.673828,0.57666,0
6200,-0.382812,-0.670898,0.584961,0
6220,-0.383789,-0.67041,0.584961,0
6240,-0.383789,-0.674316,0.587402,0
6260,-0.379883,-0.669434,0.585938,0
6280,-0.38623,-0.661621,0.583008,0
6300,-0.384766,-0.674316,0.578613,0
6320,-0.393555,-0.674316,0.589844,0
6340,-0.382812,-0.666504,0.587402,0
6360,-0.379883,-0.664062,0.583008,0
6380,-0.370117,-0.66748,0.582031,0
6400,-0.375,-0.657715,0.58252,0
6420,-0.387207,-0.657227,0.57959,0
6440,-0.384277,-0.655273,0.578125,0
6460,-0.378906,-0.654297,0.582031,0
6480,-0.385254,-0.664062,0.59082,0
6500,-0.385254,-0.671875,0.591797,0
6520,-0.381836,-0.677734,0.589844,0
6540,-0.365723,-0.68457,0.610352,0
6560,-0.370605,-0.692383,0.611328,0
6580,-0.373047,-0.677734,0.598633,0
6600,-0.376465,-0.659668,0.592773,0
6620,-0.375488,-0.661621,0.596191,0
6640,-0.380371,-0.657715,0.609863,0
6660,-0.376953,-0.648926,0.611816,0
6680,-0.369629,-0.652344,0.610352,0
6700,-0.376953,-0.665527,0.596191,0
6720,-0.386719,-0.665527,0.588379,0
6740,-0.37793,-0.65625,0.57373,0
6760,-0.363281,-0.65625,0.583496,0
6780,-0.36084,-0.65332,0.606445,0
6800,-0.362793,-0.67334,0.611328,0
6820,-0.36377,-0.691406,0.604004,0
6840,-0.368652,-0.681152,0.590332,0
6860,-0.378418,-0.666504,0.574707,0
6880,-0.377441,-0.665527,0.595215,0
6900,-0.365234,-0.663574,0.601074,0
6920,-0.362793,-0.65918,0.605469,0
6940,-0.366211,-0.658691,0.603516,0
6960,-0.374023,-0.669434,0.603027,0
6980,-0.36377,-0.667969,0.602539,0
7000,-0.356445,-0.665039,0.60498,0
7020,-0.358887,-0.66748,0.605469,0
7040,-0.362793,-0.664062,0.597656,0
7060,-0.366211,-0.666992,0.597168,0
7080,-0.369141,-0.662109,0.603027,0
7100,-0.371582,-0.658203,0.601562,0
7120,-0.368652,-0.666016,0.593262,0
7140,-0.37207,-0.671875,0.590332,0
7160,-0.373047,-0.668457,0.597168,0
7180,-0.369141,-0.671387,0.600098,0
7200,-0.37793,-0.667969,0.596191,0
7220,-0.368164,-0.673828,0.587891,0
7240,-0.359375,-0.678711,0.588379,0
7260,-0.365723,-0.68457,0.597656,0
7280,-0.35791,-0.680664,0.590332,0
7300,-0.359863,-0.680176,0.583496,0
7320,-0.359863,-0.673828,0.577148,0
7340,-0.366211,-0.678711,0.577637,0
7360,-0.370117,-0.663086,0.588379,0
7380,-0.366211,-0.664551,0.581543,0
7400,-0.374023,-0.685059,0.583008,0
7420,-0.391602,-0.745605,0.583008,0
7440,-0.404785,-0.802734,0.592285,0
7460,-0.415527,-0.782227,0.616211,0
7480,-0.417969,-0.68457,0.550293,0
7500,-0.516113,-0.588867,0.517578,0
7520,-0.612305,-0.702637,0.684082,0
7540,-0.50293,-0.881348,0.814453,0
7560,-0.403809,-0.965332,0.856934,0
7580,-0.322266,-0.925293,0.875977,0
7600,-0.186523,-0.88623,0.876465,0
7620,0.0214844,-0.797852,0.79248,0
7640,0.227539,-0.817871,0.739746,0
7660,0.349121,-0.792969,0.658203,0
7680,0.55127,-0.740234,0.557617,0
7700,0.841797,-0.77832,0.534668,0
7720,0.668945,-0.771973,0.516602,0
7740,0.691406,-0.683105,0.466309,0
7760,0.640137,-0.563477,0.415527,0
7780,0.68457,-0.48584,0.327148,0
7800,0.629883,-0.408203,0.276855,0
7820,0.654297,-0.361816,0.195312,0
7840,0.641113,-0.293457,0.145996,0
7860,0.63623,-0.20752,0.115234,0
7880,0.642578,-0.186035,0.0927734,0
7900,0.692383,-0.219727,0.0693359,0
7920,0.624023,-0.199707,0.0356445,0
7940,0.591309,-0.197266,-0.0146484,0
7960,0.694336,-0.229492,-0.0229492,0
7980,0.783203,-0.259766,-0.0571289,0
8000,0.809082,-0.262695,-0.0756836,0
8020,0.831543,-0.265137,-0.101074,0
8040,0.833984,-0.299805,-0.0639648,0
8060,0.87207,-0.302246,-0.100586,0
8080,0.884277,-0.314941,-0.0727539,0
8100,0.896973,-0.324219,-0.116699,0
8120,0.930176,-0.312988,-0.111816,0
8140,0.981934,-0.315918,-0.100586,0
8160,0.967285,-0.31543,-0.0605469,0
8180,0.947266,-0.289551,-0.0761719,0
8200,0.945312,-0.304688,-0.0952148,0
8220,0.928223,-0.303223,-0.106445,0
8240,0.979004,-0.277344,-0.101074,0
8260,0.969238,-0.281738,-0.0703125,0
8280,0.91748,-0.278809,-0.0693359,0
8300,0.90332,-0.301758,-0.0874023,0
8320,0.948242,-0.301758,-0.0800781,0
8340,0.887695,-0.293945,-0.0380859,0
8360,0.85498,-0.30957,-0.0517578,0
8380,0.927246,-0.310059,-0.0449219,0
8400,0.934082,-0.291992,-0.0200195,0
8420,1.01953,-0.307129,-0.0356445,0
8440,0.873535,-0.300781,-0.0761719,0
8460,0.889648,-0.310059,-0.102539,0
8480,0.922852,-0.306641,-0.0610352,0
8500,0.942871,-0.314453,-0.0639648,0
8520,0.928223,-0.323242,-0.0541992,0
8540,0.876465,-0.317383,-0.0800781,0
8560,0.865234,-0.322266,-0.0888672,0
8580,0.937012,-0.332031,-0.0888672,0
8600,0.940918,-0.308105,-0.0986328,0
8620,0.951172,-0.299805,-0.0893555,0
8640,0.926758,-0.3125,-0.10498,0
8660,0.90918,-0.300293,-0.117676,0
8680,0.894531,-0.304688,-0.129883,0
8700,0.900391,-0.29834,-0.101074,0
8720,0.922363,-0.285156,-0.0805664,0
8740,0.938477,-0.285645,-0.0795898,0
8760,0.928223,-0.283691,-0.0795898,0
8780,0.912109,-0.278809,-0.0771484,0
8800,0.922363,-0.285645,-0.0859375,0
8820,0.928223,-0.280273,-0.0791016,0
8840,0.925781,-0.29248,-0.0957031,0
8860,0.905762,-0.300781,-0.104004,0
8880,0.900879,-0.300293,-0.10498,0
8890,0.893066,-0.292969,-0.0991211,0
8910,0.893555,-0.280762,-0.0961914,0
8930,0.890625,-0.274414,-0.119141,0
8950,0.884277,-0.259766,-0.120117,0
8970,0.914551,-0.208496,-0.0927734,0
8990,0.929199,-0.202637,-0.0991211,0
9010,0.930664,-0.185059,-0.123535,0
9030,0.87207,-0.205566,-0.148926,0
9050,0.819824,-0.203613,-0.169922,0
9070,0.796875,-0.205566,-0.170898,0
9090,0.756836,-0.212402,-0.157715,0
9110,0.725586,-0.227051,-0.120605,0
9130,0.660156,-0.288574,-0.0776367,0
9150,0.600586,-0.310547,-0.0507812,0
9170,0.58252,-0.305664,0.0317383,0
9190,0.56543,-0.286133,0.0605469,0
9210,0.61084,-0.248047,0.146973,0
9230,0.63916,-0.245605,0.26416,0
9250,0.599609,-0.279785,0.285156,0
9270,0.60791,-0.316895,0.26416,0
9290,0.689941,-0.407227,0.393555,0
9310,0.696289,-0.459961,0.559082,0
9330,0.619629,-0.500488,0.564453,0
9350,0.623535,-0.58252,0.573242,0
9370,0.596191,-0.569824,0.679199,0
9390,0.54541,-0.648926,0.689453,0
9410,0.598145,-0.782715,0.65918,0
9430,0.394531,-0.873535,0.619141,0
9450,0.382324,-0.928223,0.72998,0
9470,0.36377,-0.890625,0.786621,0
9490,0.262695,-0.816895,0.696289,0
9510,0.0839844,-0.768555,0.668945,0
9530,-0.0488281,-0.79248,0.728027,0
9550,-0.0966797,-0.805664,0.744629,0
9570,-0.158203,-0.773438,0.68457,0
9590,-0.222656,-0.712402,0.617188,0
9610,-0.273926,-0.64502,0.604004,0
9630,-0.345703,-0.69043,0.683594,0
9650,-0.565918,-0.844238,0.915039,0
9670,-0.881836,-1.0752,0.945312,0
9690,-0.682617,-0.872559,0.73584,0
9710,-0.182129,-0.79834,0.525391,0
9730,-0.134277,-0.717285,0.475586,0
9750,-0.311035,-0.546387,0.466797,0
9770,-0.359375,-0.46875,0.489746,0
9790,-0.386719,-0.528809,0.613281,0
9810,-0.432129,-0.614746,0.697266,0
9830,-0.402832,-0.65918,0.700684,0
9850,-0.339844,-0.682129,0.637695,0
9870,-0.314941,-0.722656,0.594727,0
9890,-0.345703,-0.702637,0.579102,0
9910,-0.364746,-0.681152,0.581543,0
9930,-0.36377,-0.678223,0.593262,0
9950,-0.358398,-0.672852,0.600098,0
9970,-0.353027,-0.65332,0.606934,0
9990,-0.358887,-0.643555,0.615234,0
10010,-0.351562,-0.651367,0.622559,0
10030,-0.351074,-0.65918,0.620117,0
10050,-0.355957,-0.655273,0.616699,0
10070,-0.360352,-0.653809,0.612305,0
10090,-0.361328,-0.650391,0.61084,0
10110,-0.353027,-0.646484,0.609863,0
10130,-0.354004,-0.647949,0.62207,0
10150,-0.35498,-0.64502,0.625488,0
10170,-0.356445,-0.651855,0.618652,0
10190,-0.354492,-0.649414,0.628418,0
10210,-0.35791,-0.651367,0.619629,0
10230,-0.35498,-0.654297,0.614258,0
10250,-0.356934,-0.64502,0.61377,0
10270,-0.359375,-0.650391,0.612793,0
10290,-0.355469,-0.647461,0.623047,0
10310,-0.354004,-0.643066,0.62207,0
10330,-0.357422,-0.643066,0.620605,0
10350,-0.356934,-0.650391,0.620117,0
10370,-0.350098,-0.650391,0.619141,0
10390,-0.353027,-0.645996,0.617188,0
10410,-0.349609,-0.649414,0.616699,0
10430,-0.345215,-0.640625,0.624023,0
10450,-0.351074,-0.640625,0.625,0
10470,-0.352051,-0.646973,0.620117,0
10490,-0.352051,-0.649902,0.619629,0
10510,-0.349609,-0.646973,0.619141,0
10530,-0.346191,-0.650879,0.625977,0
10550,-0.345703,-0.644043,0.630371,0
10570,-0.342773,-0.641602,0.631348,0
10590,-0.349609,-0.635742,0.636719,0
10610,-0.351562,-0.633789,0.629395,0
10630,-0.347168,-0.637695,0.630859,0
10650,-0.349609,-0.647461,0.634277,0
10670,-0.347656,-0.644531,0.626465,0
10690,-0.349609,-0.644531,0.629395,0
10710,-0.352539,-0.640625,0.629883,0
10730,-0.347168,-0.641113,0.627441,0
10750,-0.351074,-0.633301,0.634277,0
10770,-0.344727,-0.637207,0.633301,0
10790,-0.347656,-0.641113,0.634766,0
10810,-0.348145,-0.640137,0.638672,0
10830,-0.343262,-0.638672,0.629395,0
10850,-0.34375,-0.643066,0.624023,0
10870,-0.34375,-0.63916,0.632324,0
10880,-0.346191,-0.638672,0.636719,0
10900,-0.344727,-0.63623,0.635742,0
10920,-0.350098,-0.629395,0.63916,0
10940,-0.351074,-0.629883,0.637207,0
10960,-0.349609,-0.637695,0.633789,0
10980,-0.351562,-0.637207,0.640137,0
11000,-0.34668,-0.635254,0.629883,0
11020,-0.348633,-0.639648,0.628418,0
11040,-0.34668,-0.641113,0.629883,0
11060,-0.352051,-0.634277,0.633301,0
11080,-0.339844,-0.634766,0.63623,0
11100,-0.344238,-0.644531,0.631836,0
11120,-0.347168,-0.642578,0.634277,0
11140,-0.349609,-0.640625,0.623535,0
11160,-0.348633,-0.639648,0.630859,0
11180,-0.348145,-0.632324,0.631836,0
11200,-0.345703,-0.631836,0.630371,0
11220,-0.347656,-0.638672,0.637207,0
11240,-0.348633,-0.633301,0.633789,0
11260,-0.345215,-0.630371,0.638672,0
11280,-0.341797,-0.629883,0.638184,0
11300,-0.342773,-0.635742,0.647949,0
11320,-0.341797,-0.632812,0.643555,0
11340,-0.345215,-0.630859,0.641113,0
11360,-0.344727,-0.631836,0.642578,0
11380,-0.342285,-0.62793,0.64502,0
11400,-0.342285,-0.625977,0.638184,0
11420,-0.344238,-0.632324,0.642578,0
11440,-0.34668,-0.618652,0.64209,0
11460,-0.345703,-0.616211,0.646973,0
11480,-0.345215,-0.626465,0.639648,0
11500,-0.342285,-0.630371,0.630859,0
11520,-0.343262,-0.630859,0.63623,0
11540,-0.341797,-0.641113,0.635254,0
11560,-0.345703,-0.635254,0.633789,0
11580,-0.337891,-0.635742,0.633789,0
11600,-0.337891,-0.634766,0.636719,0
11620,-0.34082,-0.637207,0.636719,0
11640,-0.344238,-0.633789,0.643066,0
11660,-0.343262,-0.630371,0.637695,0
11680,-0.34375,-0.626953,0.645996,0
11700,-0.341797,-0.628418,0.644043,0
11720,-0.34082,-0.625977,0.643066,0
11740,-0.343262,-0.629883,0.644043,0
11760,-0.343262,-0.625,0.650879,0
11780,-0.343262,-0.628418,0.647461,0
11800,-0.339844,-0.629395,0.647461,0
11820,-0.338867,-0.625977,0.645508,0
11840,-0.338867,-0.624512,0.648438,0
11860,-0.342285,-0.629395,0.647461,0
11880,-0.336426,-0.633301,0.638672,0
11900,-0.339355,-0.631348,0.645508,0
11920,-0.345703,-0.625488,0.644043,0
11940,-0.342773,-0.631836,0.63916,0
11960,-0.339844,-0.632324,0.647949,0
11980,-0.338379,-0.629395,0.644043,0
12000,-0.341797,-0.625977,0.644531,0
12020,-0.34668,-0.625488,0.637695,0
12040,-0.339355,-0.62793,0.640137,0
12060,-0.338867,-0.632324,0.646484,0
12080,-0.338379,-0.626953,0.64209,0
12100,-0.338379,-0.631836,0.64209,0
12120,-0.342773,-0.629883,0.638672,0
12140,-0.341797,-0.631348,0.640625,0
12160,-0.337891,-0.625977,0.63916,0
12180,-0.339844,-0.634277,0.637207,0
12200,-0.341309,-0.633789,0.63916,0
12220,-0.339844,-0.633301,0.641602,0
12240,-0.338867,-0.628418,0.643066,0
12260,-0.339355,-0.633789,0.641602,0
12280,-0.340332,-0.631348,0.64502,0
12300,-0.342285,-0.630371,0.638672,0
12320,-0.339844,-0.637207,0.634277,0
12340,-0.342773,-0.632324,0.640137,0
12360,-0.341309,-0.628906,0.644531,0
12380,-0.338867,-0.637695,0.641113,0
12400,-0.339844,-0.633301,0.63916,0
12420,-0.341797,-0.632812,0.638184,0
12440,-0.338867,-0.634277,0.645508,0
12460,-0.344727,-0.627441,0.641113,0
12480,-0.336914,-0.626465,0.641602,0
12500,-0.341309,-0.635742,0.63623,0
12520,-0.345215,-0.632324,0.638672,0
12540,-0.340332,-0.628418,0.643555,0
12560,-0.338867,-0.635254,0.63916,0
12580,-0.339844,-0.635742,0.634766,0
12600,-0.338867,-0.635254,0.640625,0
12620,-0.345215,-0.632812,0.639648,0
12640,-0.339844,-0.63623,0.637695,0
12660,-0.339844,-0.629883,0.641602,0
12680,-0.335449,-0.631348,0.637695,0
12700,-0.340332,-0.632812,0.642578,0
12720,-0.342285,-0.629395,0.642578,0
12740,-0.337891,-0.631348,0.643555,0
12760,-0.336914,-0.631836,0.643066,0
12780,-0.339355,-0.633301,0.64209,0
12800,-0.337891,-0.627441,0.638672,0
12820,-0.338379,-0.629883,0.63916,0
12840,-0.340332,-0.632324,0.640137,0
12860,-0.337891,-0.636719,0.639648,0
12880,-0.337402,-0.633789,0.63623,0
12900,-0.338379,-0.636719,0.637207,0
12920,-0.340332,-0.63623,0.636719,0
12940,-0.334961,-0.636719,0.637207,0
12960,-0.342285,-0.633301,0.633789,0
12980,-0.341797,-0.632812,0.639648,0
13000,-0.339844,-0.62793,0.644043,0
13020,-0.342285,-0.630859,0.640137,0
13040,-0.342773,-0.633301,0.641113,0
13060,-0.340332,-0.631348,0.644043,0
13080,-0.336914,-0.630859,0.645996,0
13100,-0.337402,-0.633789,0.64209,0
13120,-0.338379,-0.630371,0.643555,0
13140,-0.334473,-0.634277,0.645996,0
13160,-0.336914,-0.635254,0.645996,0
13180,-0.333496,-0.631836,0.640137,0
13200,-0.33252,-0.635254,0.642578,0
13220,-0.329102,-0.641602,0.636719,0
13240,-0.324219,-0.640137,0.63916,0
13260,-0.327148,-0.636719,0.641113,0
13280,-0.337402,-0.64209,0.64209,0
13300,-0.34668,-0.631836,0.638184,0
13320,-0.34668,-0.631836,0.635742,0
13340,-0.348633,-0.637207,0.633789,0
13360,-0.347656,-0.637207,0.638672,0
13380,-0.339844,-0.638672,0.629883,0
13400,-0.338379,-0.642578,0.62207,0
13420,-0.333008,-0.65332,0.625,0
13440,-0.333496,-0.649414,0.633301,0
13460,-0.331055,-0.647461,0.630371,0
13480,-0.336914,-0.652344,0.625977,0
13500,-0.342773,-0.647461,0.626465,0
13520,-0.337891,-0.651367,0.622559,0
13540,-0.348145,-0.645508,0.621094,0
13560,-0.353516,-0.637207,0.623047,0
13580,-0.349121,-0.638672,0.629883,0
13600,-0.354004,-0.644531,0.626953,0
13620,-0.355469,-0.63916,0.621582,0
13640,-0.353027,-0.64209,0.619629,0
13660,-0.350586,-0.646973,0.623047,0
13680,-0.349609,-0.652344,0.630859,0
13700,-0.342285,-0.646973,0.626953,0
13720,-0.348145,-0.646484,0.625,0
13740,-0.344238,-0.649902,0.628906,0
13760,-0.34082,-0.650391,0.625488,0
13780,-0.342285,-0.648438,0.631348,0
13800,-0.342773,-0.645508,0.627441,0
13820,-0.343262,-0.643555,0.632812,0
13840,-0.348145,-0.642578,0.628906,0
13860,-0.348145,-0.64209,0.635254,0
13880,-0.342773,-0.641113,0.634277,0
13900,-0.352051,-0.634766,0.632324,0
13920,-0.352539,-0.640137,0.631348,0
13940,-0.354492,-0.640625,0.633301,0
13960,-0.353027,-0.644043,0.620117,0
13980,-0.345703,-0.645508,0.629395,0
14000,-0.347168,-0.648926,0.632324,0
14020,-0.347656,-0.64502,0.628418,0
14040,-0.352051,-0.643555,0.624023,0
14060,-0.349121,-0.651855,0.621582,0
14080,-0.351074,-0.649902,0.626465,0
14100,-0.350098,-0.647949,0.616211,0
14120,-0.350098,-0.651855,0.628418,0
14140,-0.354004,-0.641113,0.627441,0
14160,-0.358398,-0.639648,0.618164,0
14180,-0.358398,-0.645508,0.615723,0
14200,-0.355469,-0.645508,0.616211,0
14220,-0.352539,-0.639648,0.617188,0
14240,-0.350098,-0.650879,0.620605,0
14260,-0.352539,-0.647949,0.624023,0
14270,-0.351074,-0.646484,0.615234,0
14290,-0.355957,-0.64502,0.619141,0
14310,-0.354004,-0.644531,0.619141,0
14330,-0.35498,-0.644531,0.616699,0
14350,-0.354004,-0.642578,0.618164,0
14370,-0.35791,-0.642578,0.623535,0
14390,-0.356934,-0.641113,0.622559,0
14410,-0.352051,-0.63916,0.622559,0
14430,-0.355469,-0.642578,0.628906,0
14450,-0.352051,-0.640625,0.623047,0
14470,-0.350098,-0.637695,0.627441,0
14490,-0.350586,-0.643555,0.625,0
14510,-0.357422,-0.640625,0.631348,0
14530,-0.352051,-0.645508,0.630859,0
14550,-0.349609,-0.64502,0.62793,0
14570,-0.350098,-0.644531,0.629395,0
14590,-0.349121,-0.640625,0.621094,0
14610,-0.347656,-0.641113,0.626953,0
14630,-0.351562,-0.640625,0.631348,0
14650,-0.349609,-0.641602,0.625,0
14670,-0.351074,-0.64209,0.625977,0
14690,-0.354492,-0.644531,0.625,0
14710,-0.352051,-0.63916,0.628906,0
14730,-0.350098,-0.643555,0.628418,0
14750,-0.353027,-0.640625,0.625488,0
14770,-0.351074,-0.641602,0.626953,0
14790,-0.348145,-0.643555,0.633301,0
14810,-0.353027,-0.645508,0.627441,0
14830,-0.347656,-0.643555,0.628418,0
14850,-0.349609,-0.63916,0.630371,0
14870,-0.34668,-0.645996,0.629395,0
14890,-0.350586,-0.644043,0.632812,0
14910,-0.347656,-0.63623,0.622559,0
14930,-0.348633,-0.634766,0.631836,0
14950,-0.351562,-0.643066,0.62793,0
14970,-0.348145,-0.642578,0.628418,0
14990,-0.348633,-0.643066,0.621582,0
15010,-0.347656,-0.64502,0.631348,0
15030,-0.348633,-0.637207,0.631348,0
15050,-0.347168,-0.639648,0.628906,0
15070,-0.343262,-0.646484,0.627441,0
15090,-0.345215,-0.643555,0.62793,0
15110,-0.343262,-0.645996,0.633789,0
15130,-0.343262,-0.645996,0.627441,0
15150,-0.347656,-0.650879,0.629395,0
15170,-0.34082,-0.643555,0.628906,0
15190,-0.348633,-0.643066,0.628418,0
15210,-0.346191,-0.642578,0.62793,0
15230,-0.344727,-0.643555,0.630859,0
15250,-0.34668,-0.642578,0.625977,0
15270,-0.345703,-0.648438,0.626465,0
15290,-0.345215,-0.641113,0.628906,0
15310,-0.345215,-0.64502,0.626465,0
15330,-0.345703,-0.643555,0.630371,0
15350,-0.346191,-0.644531,0.631836,0
15370,-0.343262,-0.639648,0.625,0
15390,-0.344238,-0.645508,0.627441,0
15410,-0.349121,-0.643555,0.624512,0
15430,-0.345703,-0.645508,0.627441,0
15450,-0.34375,-0.645996,0.628906,0
15470,-0.344727,-0.640625,0.629883,0
15490,-0.347656,-0.641113,0.631836,0
15510,-0.34668,-0.644043,0.626465,0
15530,-0.348633,-0.645996,0.623535,0
15550,-0.34668,-0.64209,0.629395,0
15570,-0.345215,-0.644531,0.632324,0
15590,-0.34668,-0.644531,0.626465,0
15610,-0.345703,-0.643555,0.630859,0
15630,-0.34668,-0.643066,0.631348,0
15650,-0.350098,-0.645508,0.629883,0
15670,-0.348145,-0.64502,0.628906,0
15690,-0.34668,-0.63623,0.624023,0
15710,-0.345703,-0.646484,0.624512,0
15730,-0.34082,-0.641113,0.628906,0
15750,-0.343262,-0.643555,0.633301,0
15770,-0.346191,-0.641602,0.631348,0
15790,-0.345215,-0.641602,0.630371,0
15810,-0.344238,-0.644043,0.625488,0
15830,-0.345215,-0.648926,0.624023,0
15850,-0.347656,-0.647949,0.626953,0
15870,-0.341797,-0.641602,0.632812,0
15890,-0.34082,-0.644531,0.619141,0
15910,-0.347656,-0.646973,0.623535,0
15930,-0.346191,-0.645996,0.624023,0
15950,-0.341797,-0.641602,0.628418,0
15970,-0.347168,-0.651367,0.623047,0
15990,-0.349121,-0.643066,0.618652,0
16010,-0.343262,-0.649414,0.619141,0
16030,-0.348633,-0.651855,0.621094,0
16050,-0.348145,-0.647949,0.623535,0
16070,-0.34375,-0.644531,0.628906,0
16090,-0.345703,-0.647949,0.625,0
16110,-0.349121,-0.650391,0.623535,0
16130,-0.342773,-0.643066,0.625,0
16150,-0.344727,-0.647949,0.625977,0
16170,-0.34375,-0.650391,0.626465,0
16190,-0.347168,-0.645996,0.626953,0
16210,-0.346191,-0.64209,0.631836,0
16230,-0.350586,-0.646973,0.625977,0
16250,-0.351562,-0.638184,0.625488,0
16260,-0.346191,-0.647949,0.619629,0
16280,-0.336914,-0.650391,0.620117,0
16300,-0.341309,-0.652344,0.623047,0
16320,-0.337402,-0.646484,0.621582,0
16340,-0.339355,-0.655273,0.62793,0
16360,-0.343262,-0.652832,0.621582,0
16380,-0.350098,-0.647461,0.621094,0
16400,-0.346191,-0.650391,0.622559,0
16420,-0.34668,-0.645508,0.624512,0
16440,-0.34375,-0.644531,0.619141,0
16460,-0.344238,-0.646484,0.62793,0
16480,-0.344727,-0.652832,0.625488,0
16500,-0.344727,-0.644531,0.62793,0
16520,-0.339844,-0.647461,0.622559,0
16540,-0.342773,-0.651367,0.624512,0
16560,-0.338379,-0.652344,0.624512,0
16580,-0.344238,-0.647461,0.628906,0
16600,-0.34668,-0.655762,0.625488,0
16620,-0.34375,-0.64502,0.629395,0
16640,-0.34375,-0.643555,0.631348,0
16660,-0.343262,-0.650391,0.62207,0
16680,-0.342773,-0.647949,0.626953,0
16700,-0.342285,-0.644531,0.626465,0
16720,-0.343262,-0.647949,0.631836,0
16740,-0.342285,-0.647461,0.628418,0
16760,-0.338867,-0.645508,0.627441,0
16780,-0.341309,-0.64209,0.632324,0
16800,-0.34082,-0.648438,0.623535,0
16820,-0.34375,-0.652832,0.625,0
16840,-0.342773,-0.646973,0.624512,0
16860,-0.342285,-0.652832,0.620117,0
16880,-0.348145,-0.647461,0.619629,0
16900,-0.344727,-0.646973,0.626465,0
16920,-0.349609,-0.654297,0.625977,0
16940,-0.349121,-0.645508,0.625,0
16960,-0.345215,-0.648926,0.621094,0
16980,-0.347168,-0.647949,0.616211,0
17000,-0.34375,-0.647949,0.620605,0
17020,-0.347168,-0.649414,0.626953,0
17040,-0.345703,-0.650391,0.615234,0
17060,-0.349121,-0.658203,0.616699,0
17080,-0.358887,-0.696289,0.610352,0
17100,-0.357422,-0.776855,0.597168,0
17120,-0.36084,-0.713867,0.621582,0
17140,-0.367188,-0.644043,0.628906,0
17160,-0.349609,-0.681152,0.699219,0
17180,-0.301758,-0.758301,0.69043,0
17200,-0.28125,-0.780273,0.684082,0
17220,-0.256836,-0.807617,0.764648,0
17240,-0.155273,-0.888184,0.798828,0
17260,-0.0664062,-0.841309,0.755859,0
17280,-0.0693359,-0.824219,0.718262,0
17300,-0.0703125,-0.823242,0.710938,0
17320,-0.0273438,-0.780273,0.702148,0
17340,-0.00439453,-0.773438,0.724121,0
17360,0.00146484,-0.770996,0.675293,0
17380,0.0390625,-0.778809,0.651855,0
17400,0.0576172,-0.742676,0.655273,0
17420,0.0756836,-0.702148,0.656738,0
17440,0.0878906,-0.71875,0.626953,0
17460,0.0698242,-0.692383,0.588867,0
17480,0.0957031,-0.690918,0.561523,0
17500,0.120605,-0.677246,0.541504,0
17520,0.128906,-0.653809,0.509277,0
17540,0.100586,-0.621094,0.543457,0
17560,0.0874023,-0.629883,0.501953,0
17580,0.135254,-0.679688,0.501953,0
17600,0.157227,-0.699707,0.500488,0
17620,0.152832,-0.709473,0.515625,0
17640,0.161133,-0.720703,0.530762,0
17660,0.133789,-0.72168,0.467773,0
17680,0.11377,-0.770996,0.397949,0
17700,0.043457,-0.791992,0.381348,0
17720,-0.0195312,-0.770996,0.492188,0
17740,-0.0351562,-0.755859,0.553223,0
17760,-0.0078125,-0.74707,0.40625,0
17780,0.0390625,-0.793457,0.430664,0
17800,0.0341797,-0.791992,0.48584,0
17820,0.0297852,-0.861816,0.410156,0
17840,0.0473633,-0.875,0.39502,0
17860,0.0620117,-0.897949,0.375977,0
17880,0.0683594,-0.901367,0.414551,0
17900,0.0693359,-0.879395,0.412109,0
17920,0.0678711,-0.848145,0.37793,0
17940,0.0878906,-0.873047,0.362793,0
17960,0.0957031,-0.895996,0.389648,0
17980,0.090332,-0.851074,0.399414,0
18000,0.0668945,-0.881348,0.30957,0
18020,0.0180664,-0.866699,0.29834,0
18040,-0.015625,-0.855469,0.285645,0
18060,-0.00585938,-0.915527,0.231445,0
18080,-0.0107422,-0.942383,0.318848,0
18100,0.027832,-0.822266,0.374023,0
18120,0.0224609,-0.846191,0.374512,0
18140,0.0512695,-0.881348,0.31543,0
18160,0.0488281,-0.927734,0.337402,0
18180,0.050293,-0.884277,0.399414,0
18200,0.0512695,-0.857422,0.382324,0
18220,0.0195312,-0.901855,0.325684,0
18240,0.0224609,-0.886719,0.362305,0
18260,0.0336914,-0.906738,0.400391,0
18280,0.0327148,-0.894043,0.370605,0
18300,-0.0297852,-0.945801,0.407715,0
18320,-0.0722656,-0.939453,0.397949,0
18340,-0.00537109,-0.997559,0.32666,0
18360,0.0288086,-0.808594,0.404785,0
18380,-0.0146484,-0.76709,0.435059,0
18400,-0.00537109,-0.856445,0.374023,0
18420,0.00732422,-0.852051,0.441895,0
18440,0.0834961,-0.763184,0.645508,0
18460,0.214844,-0.719238,0.564453,0
18480,0.234863,-0.708984,0.481445,0
18500,0.219727,-0.697754,0.570312,0
18520,0.330078,-0.669922,0.644531,0
18540,0.407227,-0.630859,0.601562,0
18560,0.310059,-0.591309,0.534668,0
18580,0.351562,-0.568848,0.609863,0
18600,0.497559,-0.587402,0.625977,0
18620,0.513184,-0.558594,0.560547,0
18640,0.458496,-0.53418,0.541992,0
18660,0.480957,-0.536133,0.588867,0
18680,0.561035,-0.557129,0.581543,0
18700,0.560059,-0.554199,0.54248,0
18720,0.54248,-0.546875,0.487793,0
18740,0.566895,-0.577637,0.515625,0
18760,0.563965,-0.586914,0.528809,0
18780,0.59668,-0.617676,0.48584,0
18800,0.563477,-0.634277,0.496094,0
18820,0.564453,-0.635742,0.530762,0
18840,0.574219,-0.62793,0.518066,0
18860,0.546387,-0.649902,0.490723,0
18880,0.567383,-0.650391,0.541016,0
18900,0.5625,-0.659668,0.498535,0
18920,0.558105,-0.655273,0.470215,0
18940,0.543457,-0.65332,0.507324,0
18960,0.509277,-0.630859,0.509277,0
18980,0.530762,-0.645508,0.512207,0
19000,0.536133,-0.638184,0.505371,0
19020,0.511719,-0.595703,0.525879,0
19040,0.492676,-0.593262,0.539062,0
19060,0.509277,-0.615234,0.539551,0
19080,0.500488,-0.572754,0.523926,0
19100,0.51709,-0.600586,0.503906,0
19120,0.528809,-0.611328,0.504883,0
19140,0.523926,-0.595703,0.512695,0
19160,0.487305,-0.590332,0.521973,0
19180,0.484375,-0.578613,0.512695,0
19200,0.524414,-0.575684,0.513672,0
19220,0.527832,-0.596191,0.495605,0
19240,0.51123,-0.57959,0.490723,0
19260,0.479492,-0.568359,0.501465,0
19280,0.479004,-0.563965,0.484863,0
19300,0.477051,-0.586426,0.472656,0
19320,0.468262,-0.553711,0.495605,0
19340,0.483887,-0.547363,0.524414,0
19360,0.462891,-0.549805,0.491699,0
19380,0.437012,-0.55127,0.510742,0
19400,0.407715,-0.531738,0.504395,0
19420,0.345215,-0.520508,0.518066,0
19440,0.308105,-0.603516,0.491211,0
19460,0.311523,-0.598145,0.562012,0
19480,0.263672,-0.580078,0.619629,0
19500,0.275879,-0.550293,0.637207,0
19520,0.317871,-0.600586,0.701172,0
19540,0.421387,-0.625,0.67041,0
19560,0.449219,-0.611816,0.64209,0
19580,0.559082,-0.637695,0.689453,0
19600,0.576172,-0.679199,0.653809,0
19620,0.496582,-0.657227,0.556641,0
19630,0.34375,-0.59375,0.486816,0
19650,0.373047,-0.577637,0.498047,0
19670,0.535156,-0.626953,0.664062,0
19690,0.595215,-0.714844,0.682129,0
19710,0.472656,-0.754883,0.608887,0
19730,0.405762,-0.743652,0.641113,0
19750,0.323242,-0.727539,0.593262,0
19770,0.266602,-0.723633,0.681641,0
19790,0.123535,-0.682617,0.595703,0
19810,0.00976562,-0.583008,0.685547,0
19830,0.112305,-0.648926,0.587891,0
19850,0.258301,-0.629883,0.561523,0
19870,0.0952148,-0.614746,0.566406,0
19890,0.199707,-0.634277,0.498047,0
19910,0.240723,-0.70459,0.378906,0
19930,0.341797,-0.755859,0.466797,0
19950,0.362793,-0.669922,0.64209,0
19970,0.354492,-0.563965,0.616211,0
19990,0.453125,-0.564941,0.654785,0
20010,0.491699,-0.519531,0.783691,0
20030,0.509277,-0.467773,0.786133,0
20050,0.440918,-0.381836,0.655273,0
20070,0.608887,-0.361816,0.631836,0
20090,0.603516,-0.476074,0.578125,0
20110,0.492676,-0.742676,0.606445,0
20130,0.322754,-0.858398,0.701172,0
20150,0.34375,-0.821289,0.762207,0
20170,0.492188,-0.555176,0.602539,0
20190,0.610352,-0.475586,0.402344,0
20210,0.76709,-0.462891,0.382812,0
20230,0.779297,-0.427246,0.425781,0
20250,0.564941,-0.405762,0.492676,0
20270,0.633301,-0.485352,0.519531,0
20290,0.623535,-0.564941,0.573242,0
20310,0.55957,-0.63623,0.743164,0
20330,0.487305,-0.734375,0.878906,0
20350,0.236328,-0.753418,0.841797,0
20370,0.0708008,-0.725098,0.845703,0
20390,-0.0517578,-0.777344,0.76123,0
20410,-0.00585938,-0.737793,0.706543,0
20430,-0.00830078,-0.666016,0.692871,0
20450,-0.0151367,-0.64502,0.653809,0
20470,0.0888672,-0.666992,0.525879,0
20490,0.219238,-0.661133,0.582031,0
20510,0.141113,-0.574219,0.592773,0
20530,0.180664,-0.598633,0.663574,0
20550,0.243652,-0.646484,0.680664,0
20570,0.275879,-0.595215,0.495605,0
20590,0.1875,-0.638184,0.496582,0
20610,0.103027,-0.76416,0.488281,0
20630,0.0830078,-0.833496,0.466797,0
20650,-0.0600586,-0.838867,0.450195,0
20670,-0.169922,-0.769043,0.509766,0
20690,-0.059082,-0.773926,0.556152,0
20710,-0.0532227,-0.783691,0.695312,0
20730,0.150879,-0.721191,0.750977,0
20750,0.222168,-0.566406,0.77002,0
20770,0.292969,-0.575195,0.771484,0
20790,0.411133,-0.657227,0.781738,0
20810,0.463379,-0.703125,0.742676,0
20830,0.428711,-0.65918,0.69873,0
20850,0.48877,-0.571289,0.726562,0
20870,0.675293,-0.528809,0.640625,0
20890,0.750488,-0.514648,0.549805,0
20910,0.697266,-0.50293,0.479492,0
20930,0.731934,-0.303223,0.50293,0
20950,0.71582,-0.155273,0.563965,0
20970,0.877441,-0.116211,0.747559,0
20980,0.844727,-0.00927734,0.620605,0
21000,0.84082,-0.21582,0.350586,0
21020,0.779297,-0.382812,0.337402,0
21040,0.621094,-0.504883,0.257324,0
21060,0.57959,-0.630859,0.268555,0
21080,0.40625,-0.791016,0.359863,0
21100,0.22168,-0.990723,0.42627,0
21120,0.21875,-1.11865,0.603027,0
21140,0.258301,-1.07812,0.683105,0
21160,0.304199,-0.893066,0.675781,0
21180,0.344238,-0.647461,0.638184,0
21200,0.446777,-0.567871,0.567383,0
21220,0.577637,-0.487793,0.438477,0
21240,0.725098,-0.38916,0.290527,0
21260,0.782227,-0.316895,0.183594,0
21280,0.825195,-0.339844,0.138184,0
21300,0.865234,-0.354004,0.175781,0
21320,0.884277,-0.406738,0.212402,0
21340,1.0791,-0.492676,0.335938,0
21360,0.841309,-0.525879,0.537598,0
21370,0.374512,-0.572266,0.678711,0
21400,0.394531,-0.660645,0.8125,0
21420,0.475586,-0.737305,0.813965,0
21440,0.408203,-0.730957,0.639648,0
21460,0.373047,-0.658691,0.502441,0
21480,0.293457,-0.731445,0.496582,0
21500,0.188477,-0.746582,0.619629,0
21520,0.218262,-0.757324,0.730957,0
21540,0.135742,-0.839844,0.770996,0
21560,0.129395,-0.829102,0.678711,0
21580,0.217285,-0.787598,0.61377,0
21600,0.0449219,-0.699707,0.539062,0
21620,0.000488281,-0.764648,0.605957,0
21630,0.0244141,-0.638672,0.65625,0
21650,0.115234,-0.700195,0.631836,0
21670,0.191895,-0.779785,0.628906,0
21690,0.308105,-0.676758,0.630371,0
21710,0.311035,-0.650879,0.585938,0
21730,0.40332,-0.602539,0.473633,0
21750,0.480469,-0.575195,0.437012,0
21770,0.444824,-0.577148,0.478516,0
21790,0.407227,-0.560547,0.569824,0
21810,0.393066,-0.570312,0.520996,0
21830,0.447266,-0.628418,0.439453,0
21850,0.512207,-0.597168,0.456055,0
21870,0.452637,-0.563965,0.48291,0
21890,0.399414,-0.592773,0.510254,0
21910,0.412598,-0.687988,0.487793,0
21930,0.431641,-0.700684,0.470703,0
21950,0.421387,-0.647949,0.493164,0
21970,0.379395,-0.650391,0.478516,0
21990,0.378418,-0.700684,0.520996,0
22010,0.450684,-0.712402,0.499512,0
22030,0.445312,-0.658203,0.468262,0
22050,0.419434,-0.65625,0.477051,0
22070,0.416504,-0.677246,0.51709,0
22090,0.453125,-0.682617,0.503906,0
22110,0.435547,-0.680664,0.470703,0
22130,0.45752,-0.671387,0.511719,0
22150,0.441406,-0.694336,0.506836,0
22170,0.461914,-0.690918,0.454102,0
22190,0.438477,-0.671875,0.465332,0
22210,0.446777,-0.660156,0.519043,0
22230,0.468262,-0.671875,0.5,0
22250,0.440918,-0.677734,0.485352,0
22270,0.431152,-0.648438,0.503418,0
22290,0.431152,-0.637695,0.495117,0
22310,0.421875,-0.667969,0.505371,0
22330,0.396973,-0.671875,0.497559,0
22350,0.407227,-0.626465,0.522461,0
22370,0.417969,-0.620605,0.537598,0
22390,0.435059,-0.624023,0.530762,0
22410,0.456543,-0.632812,0.509766,0
22430,0.487793,-0.650879,0.494141,0
22450,0.455078,-0.648926,0.472656,0
22470,0.418945,-0.629883,0.5,0
22490,0.427246,-0.646973,0.5,0
22510,0.443848,-0.664551,0.504883,0
22530,0.428223,-0.640625,0.53418,0
22550,0.412598,-0.608398,0.533691,0
22570,0.387695,-0.606934,0.523438,0
22590,0.400879,-0.65332,0.521973,0
22610,0.470703,-0.661133,0.533691,0
22630,0.434082,-0.658203,0.542969,0
22650,0.378906,-0.672363,0.545898,0
22670,0.389648,-0.689453,0.570312,0
22690,0.434082,-0.675293,0.583984,0
22710,0.443359,-0.656738,0.588867,0
22730,0.460938,-0.679688,0.554199,0
22750,0.450684,-0.663086,0.540527,0
22770,0.438965,-0.625977,0.549805,0
22790,0.455566,-0.62207,0.557617,0
22810,0.512207,-0.601074,0.529297,0
22830,0.537109,-0.566406,0.539551,0
22850,0.540039,-0.578613,0.525391,0
22870,0.569336,-0.622559,0.52002,0
22890,0.568848,-0.608398,0.52832,0
22910,0.552734,-0.610352,0.501465,0
22930,0.531738,-0.651855,0.518066,0
22950,0.533203,-0.660645,0.525879,0
22970,0.524902,-0.635742,0.481445,0
22990,0.501465,-0.629395,0.487793,0
23010,0.499512,-0.632812,0.476562,0
23030,0.503906,-0.638184,0.442383,0
23050,0.499023,-0.649414,0.441406,0
23070,0.499023,-0.66748,0.429199,0
23090,0.463379,-0.638672,0.421875,0
23110,0.438477,-0.659668,0.43457,0
23130,0.421875,-0.675293,0.472656,0
23150,0.391113,-0.692871,0.474121,0
23170,0.362793,-0.683594,0.481934,0
23190,0.364258,-0.678711,0.48877,0
23210,0.346191,-0.669922,0.475586,0
23230,0.317871,-0.71582,0.479492,0
23250,0.341797,-0.73877,0.479492,0
23270,0.353516,-0.709473,0.460449,0
23290,0.331543,-0.702637,0.471191,0
23310,0.320312,-0.750488,0.503906,0
23330,0.348145,-0.760254,0.484863,0
23350,0.372559,-0.727051,0.463867,0
23370,0.339844,-0.744141,0.487793,0
23390,0.32373,-0.771973,0.502441,0
23410,0.363281,-0.750488,0.476562,0
23430,0.348145,-0.70752,0.48291,0
23450,0.333008,-0.724121,0.518555,0
23470,0.376953,-0.744629,0.500977,0
23490,0.389648,-0.721191,0.479492,0
23510,0.354004,-0.715332,0.482422,0
23530,0.344238,-0.727051,0.496094,0
23550,0.36377,-0.720215,0.493164,0
23570,0.360352,-0.71875,0.466309,0
23590,0.324707,-0.726562,0.498047,0
23610,0.338379,-0.740234,0.504395,0
23630,0.353027,-0.73291,0.496094,0
23650,0.312012,-0.71582,0.491211,0
23670,0.333496,-0.717285,0.500488,0
23690,0.339844,-0.733398,0.490234,0
23710,0.325195,-0.742188,0.510254,0
23730,0.324219,-0.732422,0.48877,0
23750,0.322266,-0.738281,0.506836,0
23770,0.340332,-0.734863,0.493652,0
23790,0.32373,-0.730469,0.51709,0
23810,0.300293,-0.736816,0.491211,0
23830,0.328613,-0.749023,0.506348,0
23850,0.341797,-0.731934,0.512207,0
23870,0.335938,-0.72998,0.498535,0
23890,0.284668,-0.73291,0.509277,0
23910,0.327637,-0.759766,0.490723,0
23930,0.361328,-0.729492,0.509766,0
23950,0.335449,-0.711914,0.507812,0
23970,0.287109,-0.742188,0.499512,0
23990,0.329102,-0.746582,0.495117,0
24010,0.357422,-0.736328,0.51709,0
24030,0.336426,-0.724121,0.490234,0
24050,0.291504,-0.731445,0.508789,0
24070,0.321289,-0.755859,0.500488,0
24090,0.349121,-0.728516,0.492676,0
24110,0.35791,-0.720215,0.492188,0
24130,0.287598,-0.725098,0.524414,0
24150,0.305664,-0.76123,0.513672,0
24170,0.360352,-0.73877,0.501465,0
24190,0.361816,-0.712891,0.485352,0
24210,0.297852,-0.723145,0.51123,0
24230,0.29248,-0.748047,0.516113,0
24250,0.316895,-0.748535,0.509277,0
24270,0.292969,-0.721191,0.50293,0
24290,0.325684,-0.737305,0.504395,0
24310,0.318848,-0.733398,0.500977,0
24330,0.321777,-0.727051,0.509277,0
24350,0.297363,-0.732422,0.491211,0
24370,0.306641,-0.751465,0.504883,0
24390,0.307617,-0.752441,0.527344,0
24410,0.362793,-0.734863,0.483398,0
24430,0.291016,-0.706543,0.518555,0
24450,0.27002,-0.736816,0.510742,0
24470,0.37207,-0.751953,0.505371,0
24490,0.362793,-0.732422,0.478516,0
24510,0.251465,-0.71875,0.511719,0
24530,0.286133,-0.759766,0.505371,0
24550,0.350098,-0.75293,0.51123,0
24570,0.333496,-0.72168,0.5,0
24590,0.31543,-0.732422,0.500977,0
24610,0.311035,-0.75293,0.494141,0
24630,0.329102,-0.73584,0.500488,0
24650,0.318848,-0.720703,0.51709,0
24670,0.294434,-0.727051,0.50293,0
24690,0.272949,-0.72998,0.518555,0
24710,0.255859,-0.734375,0.500977,0
24730,0.239258,-0.730469,0.51123,0
24750,0.28125,-0.716309,0.501953,0
24770,0.29248,-0.691895,0.51709,0
24790,0.272461,-0.717285,0.5,0
24810,0.262695,-0.728027,0.484863,0
24830,0.290527,-0.736816,0.498535,0
24850,0.330566,-0.729004,0.515137,0
24870,0.297363,-0.722168,0.494629,0
24890,0.311523,-0.728516,0.48584,0
24910,0.333496,-0.734375,0.496582,0
24930,0.335938,-0.74707,0.535156,0
24950,0.334473,-0.748047,0.525879,0
24970,0.334473,-0.718262,0.51416,0
24990,0.342773,-0.727539,0.501953,0
25000,0.349609,-0.726074,0.522461,0
25020,0.346191,-0.73584,0.523438,0
25040,0.34082,-0.730469,0.509277,0
25060,0.342773,-0.727051,0.499023,0
25080,0.337891,-0.709961,0.507324,0
25100,0.370605,-0.730469,0.515137,0
25120,0.39209,-0.724609,0.500488,0
25140,0.355957,-0.70459,0.490723,0
25160,0.357422,-0.721191,0.512695,0
25180,0.402344,-0.728027,0.506348,0
25200,0.409668,-0.719238,0.496582,0
25220,0.379883,-0.710449,0.48877,0
25240,0.36084,-0.695801,0.497559,0
25260,0.381348,-0.704102,0.513672,0
25280,0.417969,-0.706055,0.492676,0
25300,0.420898,-0.70752,0.485352,0
25320,0.400391,-0.698242,0.472656,0
25340,0.381836,-0.68457,0.490234,0
25360,0.39502,-0.703613,0.491211,0
25380,0.429199,-0.706055,0.480957,0
25400,0.451172,-0.697754,0.472656,0
25420,0.462891,-0.689941,0.504395,0
25440,0.455078,-0.706055,0.456543,0
25460,0.506348,-0.716797,0.427246,0
25480,0.562988,-0.73291,0.43457,0
25500,0.48291,-0.693848,0.439941,0
25520,0.368164,-0.702148,0.530273,0
25540,0.41748,-0.750488,0.480957,0
25560,0.495117,-0.75,0.486328,0
25580,0.460938,-0.696777,0.457031,0
25600,0.354492,-0.686523,0.498047,0
25620,0.294434,-0.728027,0.45459,0
25640,0.316895,-0.73877,0.523926,0
25660,0.353027,-0.723633,0.500488,0
25680,0.245117,-0.67041,0.532715,0
25700,0.217285,-0.694824,0.533691,0
25720,0.283691,-0.697754,0.527832,0
25740,0.280762,-0.712402,0.549316,0
25760,0.252441,-0.71875,0.526855,0
25780,0.230957,-0.71582,0.517578,0
25800,0.263184,-0.721191,0.507812,0
25820,0.254883,-0.720215,0.533691,2000
25840,0.1875,-0.728516,0.526367,0
25860,0.204102,-0.749023,0.51709,0
25880,0.25293,-0.753906,0.516113,0
25900,0.249023,-0.746094,0.532227,0
25920,0.223633,-0.749512,0.549316,0
25940,0.258789,-0.75293,0.516113,0
25960,0.287109,-0.750977,0.54248,0
25980,0.277832,-0.736816,0.541504,0
26000,0.28418,-0.750977,0.548828,0
26020,0.29248,-0.766113,0.544434,0
26040,0.294434,-0.756348,0.523926,0
26060,0.285156,-0.749023,0.543945,0
26080,0.278809,-0.766602,0.539062,0
26100,0.297852,-0.756836,0.529785,0
26120,0.286621,-0.734375,0.528809,0
26140,0.287109,-0.730469,0.524902,0
26160,0.285645,-0.745117,0.522461,0
26180,0.288086,-0.755371,0.507324,0
26200,0.27832,-0.739746,0.503906,0
26220,0.268555,-0.738281,0.527344,0
26240,0.25,-0.743652,0.536133,0
26260,0.25,-0.754883,0.512207,0
26280,0.256836,-0.742676,0.498535,0
26300,0.226074,-0.749512,0.526855,0
26320,0.223633,-0.746094,0.506836,0
26340,0.239746,-0.742676,0.503418,0
26360,0.224121,-0.75,0.5,0
26380,0.231934,-0.76123,0.505371,0
26400,0.235352,-0.767578,0.518555,0
26420,0.227051,-0.755371,0.519531,0
26440,0.228516,-0.745117,0.517578,0
26460,0.256348,-0.766602,0.513672,0
26480,0.270508,-0.75293,0.516602,0
26500,0.232422,-0.745605,0.520508,0
26520,0.233887,-0.759766,0.529297,0
26540,0.291504,-0.750488,0.524414,0
26560,0.271484,-0.765137,0.52002,0
26580,0.245117,-0.765625,0.523438,0
26600,0.27002,-0.77002,0.505859,0
26620,0.271484,-0.737305,0.51709,0
26640,0.220215,-0.757812,0.520996,0
26660,0.241211,-0.770508,0.518066,0
26680,0.287109,-0.746582,0.51416,0
26700,0.241211,-0.741699,0.508789,0
26720,0.207031,-0.737793,0.501953,0
26740,0.233398,-0.762695,0.525879,0
26760,0.257324,-0.763672,0.514648,0
26780,0.256836,-0.777832,0.525879,0
26800,0.220703,-0.752441,0.488281,0
26820,0.240234,-0.753418,0.504883,0
26840,0.250977,-0.779297,0.496582,0
26860,0.253418,-0.775391,0.518555,0
26880,0.259277,-0.729004,0.5,0
26900,0.251465,-0.761719,0.512695,0
26920,0.258789,-0.766602,0.493652,0
26940,0.204102,-0.770508,0.506348,0
26960,0.259277,-0.736328,0.498047,0
26980,0.26416,-0.757812,0.503906,0
27000,0.22168,-0.76123,0.51416,0
27010,0.208496,-0.752441,0.53418,0
27030,0.24707,-0.73584,0.508789,0
27050,0.246582,-0.759766,0.522949,0
27070,0.217773,-0.751465,0.533203,0
27090,0.224121,-0.740234,0.510254,0
27110,0.25,-0.737793,0.523926,0
27130,0.237305,-0.746094,0.540039,0
27150,0.241699,-0.762695,0.514648,0
27170,0.262695,-0.754883,0.513672,0
27190,0.271973,-0.733398,0.493164,0
27210,0.230469,-0.755371,0.513184,0
27230,0.241699,-0.759277,0.507812,0
27250,0.274414,-0.743164,0.486816,0
27270,0.270508,-0.75,0.489746,0
27290,0.250488,-0.739258,0.501953,0
27310,0.245117,-0.750488,0.496582,0
27330,0.288574,-0.754883,0.510742,0
27350,0.296875,-0.751465,0.500977,0
27370,0.257812,-0.743164,0.501465,0
27390,0.269043,-0.750488,0.499023,0
27410,0.322754,-0.747559,0.493164,0
27430,0.310059,-0.754883,0.492188,0
27450,0.268555,-0.755859,0.494629,0
27470,0.275391,-0.752441,0.493652,0
27490,0.334473,-0.741699,0.510742,0
27510,0.327637,-0.739746,0.491699,0
27530,0.299805,-0.733887,0.498047,0
27550,0.294434,-0.739746,0.498047,0
27570,0.35498,-0.751465,0.503418,0
27590,0.351562,-0.748047,0.49707,0
27610,0.290527,-0.745117,0.487305,0
27630,0.303223,-0.751465,0.487305,0
27650,0.330566,-0.740234,0.505371,0
27670,0.314453,-0.739258,0.491699,0
27690,0.302246,-0.738281,0.489258,0
27710,0.30957,-0.726074,0.489746,0
27730,0.314453,-0.748535,0.508789,0
27750,0.321777,-0.737793,0.50293,0
27770,0.310547,-0.736816,0.495605,0
27790,0.32373,-0.748047,0.494629,0
27810,0.333984,-0.756348,0.511719,0
27830,0.333496,-0.745117,0.501953,0
27850,0.325684,-0.741211,0.489746,0
27870,0.317871,-0.741699,0.473145,0
27890,0.325195,-0.737305,0.494141,0
27910,0.325195,-0.742676,0.500488,0
27930,0.32373,-0.746094,0.474121,0
27950,0.325684,-0.726074,0.47998,0
27970,0.326172,-0.734863,0.510254,0
27990,0.347656,-0.744629,0.517578,0
28010,0.335938,-0.736328,0.482422,0
28030,0.343262,-0.730469,0.475586,0
28050,0.349609,-0.73877,0.486328,0
28070,0.337402,-0.739258,0.515137,0
28090,0.391602,-0.722168,0.491211,0
28110,0.36084,-0.733398,0.490723,0
28130,0.353027,-0.714355,0.476562,0
28150,0.348633,-0.716797,0.478516,0
28170,0.383301,-0.737793,0.493652,0
28190,0.375,-0.727051,0.487305,0
28210,0.392578,-0.719238,0.498047,0
28230,0.422852,-0.70752,0.480469,0
28250,0.393066,-0.711914,0.491699,0
28270,0.380371,-0.707031,0.490234,0
28290,0.396973,-0.697754,0.484375,0
28310,0.402832,-0.695312,0.483887,0
28330,0.413574,-0.697266,0.495605,0
28350,0.429199,-0.694336,0.491699,0
28370,0.422363,-0.686523,0.474609,0
28390,0.429688,-0.702148,0.45752,0
28410,0.423828,-0.711426,0.463867,0
28430,0.426758,-0.705566,0.460938,0
28450,0.441406,-0.707031,0.477051,0
28470,0.449707,-0.699219,0.463867,0
28490,0.450684,-0.686523,0.469727,0
28510,0.433105,-0.687012,0.452637,0
28530,0.41748,-0.682617,0.439453,0
28550,0.435547,-0.677734,0.45166,0
28570,0.445312,-0.671875,0.456543,0
28590,0.472168,-0.663574,0.461426,0
28610,0.47998,-0.660156,0.452148,0
28630,0.481934,-0.669922,0.451172,0
28650,0.512207,-0.681641,0.450195,0
28670,0.521484,-0.667969,0.45459,0
28690,0.493652,-0.666016,0.448242,0
28710,0.491699,-0.67334,0.462891,0
28730,0.490234,-0.664062,0.458984,0
28750,0.516113,-0.667969,0.448242,0
28770,0.51709,-0.661621,0.445312,0
28790,0.525879,-0.648438,0.450195,0
28810,0.521484,-0.652832,0.436035,0
28830,0.524414,-0.653809,0.433594,0
28850,0.527344,-0.643555,0.444336,0
28870,0.533203,-0.614258,0.464355,0
28890,0.535645,-0.624023,0.460449,0
28910,0.540527,-0.621582,0.45752,0
28930,0.537109,-0.620605,0.449707,0
28950,0.545898,-0.609375,0.464355,0
28970,0.561523,-0.605469,0.463867,0
28990,0.563477,-0.601074,0.45459,0
29010,0.558105,-0.610352,0.442871,0
29030,0.572266,-0.61377,0.464844,0
29050,0.576172,-0.594727,0.449219,0
29070,0.582031,-0.600586,0.450684,0
29090,0.585449,-0.606445,0.457031,0
29110,0.59375,-0.592285,0.454102,0
29130,0.601562,-0.580078,0.453613,0
29150,0.589844,-0.585938,0.458008,0
29170,0.599121,-0.578125,0.462402,0
29190,0.61084,-0.574707,0.452148,0
29210,0.609375,-0.567383,0.459473,0
29230,0.604492,-0.566406,0.456055,0
29250,0.610352,-0.562012,0.464844,0
29270,0.590332,-0.554199,0.467285,0
29290,0.601074,-0.563965,0.46582,0
29310,0.595703,-0.550293,0.476074,0
29330,0.598633,-0.552246,0.493164,0
29350,0.598145,-0.543945,0.486328,0
29370,0.588379,-0.539551,0.491699,0
29390,0.574707,-0.552246,0.500488,0
29410,0.572266,-0.542969,0.519531,0
29430,0.584473,-0.536133,0.524414,0
29450,0.615234,-0.532227,0.519043,0
29470,0.567871,-0.525879,0.519531,0
29490,0.538574,-0.521973,0.516602,0
29510,0.532227,-0.526855,0.524414,0
29530,0.578125,-0.543945,0.535156,0
29550,0.556641,-0.529785,0.542969,0
29570,0.54248,-0.532715,0.541992,0
29590,0.557617,-0.523438,0.539551,0
29610,0.591797,-0.518066,0.542969,0
29630,0.583008,-0.498047,0.551758,0
29650,0.572266,-0.541504,0.524902,0
29670,0.54834,-0.537109,0.553223,0
29690,0.51709,-0.510742,0.541016,0
29710,0.533691,-0.512695,0.547363,0
29730,0.564453,-0.517578,0.551758,0
29750,0.571777,-0.517578,0.5625,0
29770,0.542969,-0.515137,0.54541,0
29790,0.515137,-0.5,0.55127,0
29810,0.513672,-0.501953,0.539551,0
29830,0.542969,-0.541992,0.567383,0
29850,0.52832,-0.536133,0.575195,0
29870,0.492676,-0.507812,0.571777,0
29890,0.530762,-0.492188,0.550781,0
29910,0.55127,-0.528809,0.572266,0
29930,0.503906,-0.515625,0.581055,0
29950,0.513672,-0.494629,0.585938,0
29970,0.578125,-0.496094,0.589355,0
29990,0.53125,-0.507324,0.585938,0
30010,0.461426,-0.480469,0.595215,0
30030,0.499512,-0.458008,0.601074,0
30050,0.554688,-0.475098,0.602539,0
30070,0.515137,-0.509766,0.591309,0
30090,0.469238,-0.478516,0.605469,0
30110,0.482422,-0.486816,0.621582,0
30130,0.516602,-0.491699,0.61084,0
30150,0.528809,-0.511719,0.61084,0
30170,0.487793,-0.504883,0.594238,0
30190,0.4375,-0.504395,0.595215,0
30210,0.465332,-0.480469,0.620117,0
30230,0.511719,-0.527832,0.625977,0
30250,0.523438,-0.563965,0.624512,0
30270,0.437988,-0.51416,0.619141,0
30290,0.429199,-0.505371,0.635254,0
30310,0.470215,-0.495117,0.658203,0
30330,0.463867,-0.548828,0.646484,0
30350,0.432129,-0.550293,0.641602,0
30370,0.372559,-0.513672,0.645996,0
30380,0.375977,-0.503906,0.636719,0
30400,0.401367,-0.529785,0.634277,0
30420,0.384277,-0.55957,0.628418,0
30440,0.351074,-0.534668,0.647461,0
30460,0.376953,-0.523926,0.664062,0
30480,0.384766,-0.517578,0.665039,0
30500,0.355957,-0.539062,0.646973,0
30520,0.369141,-0.5625,0.663086,0
30540,0.357422,-0.538086,0.67041,0
30560,0.333984,-0.522461,0.663086,0
30580,0.361328,-0.558105,0.646484,0
30600,0.370605,-0.55127,0.654297,0
30620,0.36377,-0.556641,0.660156,0
30640,0.378906,-0.586426,0.653809,0
30660,0.362793,-0.567871,0.659668,0
30680,0.349121,-0.57959,0.682129,0
30700,0.362305,-0.598633,0.667969,0
30720,0.388184,-0.577148,0.666992,0
30740,0.351074,-0.569824,0.666016,0
30760,0.320312,-0.580566,0.65918,0
30780,0.346191,-0.57373,0.654785,0
30800,0.316895,-0.56543,0.65332,0
30820,0.294434,-0.563965,0.643066,0
30840,0.310547,-0.554199,0.638184,0
30860,0.321289,-0.550293,0.652832,0
30880,0.318848,-0.555664,0.641602,0
30900,0.314941,-0.554199,0.641602,0
30920,0.325684,-0.5625,0.631836,0
30940,0.312988,-0.5625,0.630371,0
30960,0.318359,-0.573242,0.626953,0
30980,0.335449,-0.575684,0.649414,0
31000,0.338379,-0.601074,0.626465,0
31020,0.347656,-0.595215,0.641113,0
31040,0.341797,-0.592773,0.645996,0
31060,0.329102,-0.598145,0.630371,0
31080,0.316895,-0.623535,0.611328,0
31100,0.340332,-0.617188,0.617188,0
31120,0.330566,-0.612305,0.636719,0
31140,0.297852,-0.625977,0.631348,0
31160,0.306152,-0.635254,0.62793,0
31180,0.313965,-0.621582,0.623047,0
31200,0.299805,-0.631348,0.62793,0
31220,0.274902,-0.630859,0.623535,0
31240,0.282227,-0.626953,0.619629,0
31260,0.271973,-0.635742,0.610352,0
31280,0.257324,-0.635254,0.610352,0
31300,0.27832,-0.629883,0.60498,0
31320,0.267578,-0.636719,0.608398,0
31340,0.249512,-0.64209,0.598633,0
31360,0.259277,-0.62207,0.602539,0
31380,0.26709,-0.632812,0.60498,0
31400,0.25293,-0.640137,0.593262,0
31420,0.236328,-0.650391,0.597656,0
31440,0.268066,-0.649902,0.600098,0
31460,0.304688,-0.662109,0.605469,0
31480,0.283691,-0.658203,0.618164,0
31500,0.277344,-0.672852,0.597168,0
31520,0.270996,-0.677246,0.594727,0
31540,0.314941,-0.678711,0.594238,0
31560,0.315918,-0.679199,0.602539,0
31580,0.300781,-0.67627,0.570312,0
31600,0.325195,-0.696289,0.553223,0
31620,0.307129,-0.681641,0.583496,0
31640,0.291504,-0.684082,0.560547,0
31660,0.320801,-0.689941,0.547363,0
31680,0.31543,-0.682129,0.534668,0
31700,0.29834,-0.690918,0.542969,0
31720,0.294922,-0.702148,0.554688,0
31740,0.296875,-0.696777,0.536133,0
31760,0.299316,-0.692871,0.526855,0
31780,0.291504,-0.695312,0.540039,0
31800,0.276367,-0.70752,0.531738,0
31820,0.313965,-0.717773,0.529297,0
31840,0.322754,-0.713379,0.536621,0
31860,0.305176,-0.723633,0.518066,0
31880,0.306152,-0.726562,0.498047,0
31900,0.32666,-0.726562,0.530273,0
31920,0.333496,-0.725098,0.529785,0
31940,0.317871,-0.734863,0.51123,0
31960,0.325684,-0.75,0.47998,0
31980,0.328613,-0.746582,0.495117,0
32000,0.302246,-0.74707,0.497559,0
32020,0.302734,-0.757812,0.460938,0
32040,0.330078,-0.770508,0.463379,0
32060,0.312988,-0.756836,0.481445,0
32080,0.287109,-0.759277,0.47998,0
32100,0.311523,-0.760742,0.455566,0
32120,0.362305,-0.760254,0.457031,0
32140,0.356934,-0.765625,0.461426,0
32160,0.33252,-0.782227,0.435059,0
32180,0.360352,-0.789551,0.431152,0
32200,0.382324,-0.768555,0.436035,0
32220,0.37793,-0.772461,0.425293,0
32240,0.37793,-0.778809,0.409668,0
32260,0.385254,-0.772461,0.411621,0
32280,0.383301,-0.772461,0.409668,0
32300,0.401855,-0.770508,0.399414,0
32320,0.413086,-0.772949,0.372559,0
32340,0.413086,-0.767578,0.38623,0
32360,0.430664,-0.758301,0.375977,0
32370,0.453125,-0.758301,0.354492,0
32390,0.42041,-0.757812,0.336914,0
32410,0.413574,-0.751465,0.344238,0
32430,0.441406,-0.747559,0.347168,0
32450,0.467773,-0.755859,0.325195,0
32470,0.467773,-0.761719,0.331543,0
32490,0.458984,-0.750977,0.33252,0
32510,0.453125,-0.746094,0.307617,0
32530,0.477051,-0.748535,0.301758,0
32550,0.48877,-0.73877,0.297852,0
32570,0.47998,-0.737793,0.300293,0
32590,0.499512,-0.743164,0.302246,0
32610,0.518555,-0.753906,0.290039,0
32630,0.533691,-0.746582,0.280273,0
32650,0.516602,-0.728027,0.281738,0
32670,0.516602,-0.73877,0.270996,0
32690,0.549805,-0.744141,0.265625,0
32710,0.560059,-0.734863,0.281738,0
32730,0.54834,-0.742188,0.265625,0
32750,0.564941,-0.765137,0.265137,0
32770,0.589355,-0.709961,0.275391,0
32790,0.628906,-0.678711,0.286133,0
32810,0.601562,-0.697754,0.273438,0
32830,0.648926,-0.697754,0.262207,0
32850,0.643066,-0.65625,0.267578,0
32870,0.649414,-0.658691,0.270996,0
32890,0.665039,-0.65625,0.23291,0
32910,0.647461,-0.647461,0.243652,0
32930,0.647461,-0.633789,0.248047,0
32950,0.698242,-0.626953,0.245605,0
32970,0.727539,-0.625488,0.241699,0
32990,0.696777,-0.61084,0.242676,0
33010,0.708984,-0.594727,0.239258,0
33030,0.736328,-0.596191,0.226562,0
33050,0.726074,-0.577148,0.236328,0
33070,0.734863,-0.56543,0.243164,0
33090,0.755859,-0.550293,0.235352,0
33110,0.769043,-0.541992,0.236328,0
33130,0.766602,-0.522949,0.235352,0
33150,0.771973,-0.504395,0.239746,0
33170,0.790039,-0.490234,0.233398,0
33190,0.80127,-0.47998,0.237305,0
33210,0.787109,-0.459961,0.266113,0
33230,0.795898,-0.444824,0.253906,0
33250,0.80957,-0.431641,0.256348,0
33270,0.799805,-0.407227,0.259766,0
33290,0.793945,-0.403809,0.28125,0
33310,0.800781,-0.392578,0.282715,0
33330,0.817871,-0.38916,0.277344,0
33350,0.814453,-0.362305,0.289551,0
33370,0.824707,-0.361328,0.285156,0
33390,0.841309,-0.36377,0.290527,0
33410,0.848633,-0.36084,0.294922,0
33430,0.845703,-0.356445,0.311523,0
33450,0.835449,-0.33252,0.325684,0
33470,0.837402,-0.316895,0.33252,0
33490,0.843262,-0.317871,0.312012,0
33510,0.858887,-0.320312,0.33252,0
33530,0.861816,-0.304688,0.331543,0
33550,0.822266,-0.317383,0.335938,0
33570,0.77832,-0.290039,0.355469,0
33590,0.808105,-0.303223,0.359375,0
33610,0.802734,-0.28125,0.374023,0
33630,0.789551,-0.296875,0.385254,0
33650,0.771484,-0.307129,0.403809,0
33670,0.790527,-0.29541,0.391113,0
33690,0.824707,-0.306152,0.401367,0
33710,0.793945,-0.284668,0.40332,0
33730,0.76709,-0.275879,0.399902,0
33750,0.786133,-0.293945,0.426758,0
33770,0.790527,-0.312012,0.431641,0
33790,0.77002,-0.309082,0.432617,0
33810,0.757324,-0.296875,0.447754,0
33830,0.751465,-0.30957,0.446777,0
33850,0.769531,-0.335938,0.460938,0
33870,0.757324,-0.328613,0.475586,0
33890,0.739746,-0.333008,0.486816,0
33910,0.763184,-0.340332,0.46875,0
33930,0.776367,-0.345703,0.460938,0
33950,0.731934,-0.335449,0.48291,0
33970,0.691895,-0.341309,0.503906,0
33990,0.720703,-0.347656,0.487305,0
34010,0.733887,-0.364746,0.513672,0
34030,0.68457,-0.346191,0.513672,0
34050,0.631836,-0.356445,0.526855,0
34070,0.660645,-0.331055,0.533203,0
34090,0.689941,-0.346191,0.550293,0
34110,0.6875,-0.354004,0.548828,0
34130,0.662109,-0.367188,0.552246,0
34150,0.617188,-0.365723,0.535645,0
34170,0.651367,-0.37793,0.547363,0
34190,0.658203,-0.398926,0.576172,0
34210,0.594727,-0.398438,0.575195,0
34230,0.590332,-0.423828,0.574219,0
34260,0.588379,-0.393555,0.564941,0
34280,0.574707,-0.42041,0.574219,0
34300,0.557617,-0.44043,0.585449,0
34320,0.568848,-0.437012,0.591309,0
34340,0.575684,-0.43457,0.612305,0
34360,0.561035,-0.446777,0.591309,0
34380,0.539551,-0.463379,0.600586,0
34400,0.513184,-0.472656,0.608398,0
34420,0.491699,-0.47998,0.562988,0
34440,0.505859,-0.486328,0.54834,0
34460,0.528809,-0.493164,0.580078,0
34480,0.500977,-0.521484,0.588867,0
34500,0.505859,-0.51709,0.594238,0
34520,0.496582,-0.53125,0.598145,0
34540,0.48291,-0.541992,0.590332,0
34560,0.467285,-0.53125,0.591309,0
34580,0.463379,-0.55127,0.584473,0
34600,0.470215,-0.568848,0.573242,0
34620,0.458008,-0.547852,0.578613,0
34640,0.456055,-0.539062,0.562988,0
34660,0.46875,-0.55127,0.560547,0
34680,0.472656,-0.568848,0.554199,0
34700,0.476562,-0.5625,0.575684,0
34720,0.482422,-0.557617,0.55957,0
34740,0.503418,-0.546387,0.534668,0
34760,0.470703,-0.566406,0.551758,0
34780,0.460449,-0.597656,0.548828,0
34800,0.486328,-0.581055,0.540039,0
34820,0.489258,-0.563477,0.547852,0
34840,0.456055,-0.574219,0.525879,0
34860,0.458008,-0.594238,0.518555,0
34880,0.472168,-0.605469,0.529785,0
34900,0.458008,-0.614746,0.510742,0
34920,0.447754,-0.602539,0.496582,0
34940,0.504395,-0.616211,0.48584,0
34960,0.498535,-0.632812,0.523438,0
34980,0.474121,-0.65332,0.511719,0
35000,0.480957,-0.637695,0.498535,0
35020,0.490234,-0.649414,0.48584,0
35040,0.488281,-0.664551,0.475586,0
35060,0.479004,-0.669434,0.477539,0
35080,0.487305,-0.672852,0.474121,0
35100,0.489746,-0.667969,0.467773,0
35120,0.472168,-0.679199,0.455566,0
35140,0.45459,-0.689941,0.446289,0
35160,0.461914,-0.694336,0.441895,0
35180,0.474609,-0.689453,0.432617,0
35200,0.473145,-0.692383,0.410645,0
35220,0.446289,-0.70752,0.40918,0
35240,0.441895,-0.710938,0.413086,0
35260,0.491211,-0.708496,0.402832,0
35280,0.498047,-0.713379,0.38623,0
35300,0.47168,-0.716797,0.386719,0
35320,0.463867,-0.723145,0.367676,0
35340,0.498535,-0.729004,0.375977,0
35360,0.509277,-0.717773,0.35498,0
35380,0.47168,-0.716309,0.351074,0
35400,0.489258,-0.730469,0.333984,0
35420,0.524414,-0.725098,0.353516,0
35440,0.494141,-0.727539,0.335938,0
35460,0.483887,-0.726562,0.306152,0
35480,0.48291,-0.724609,0.312012,0
35500,0.466309,-0.722168,0.310547,0
35520,0.493164,-0.73584,0.308105,0
35540,0.512207,-0.738281,0.283203,0
35560,0.498047,-0.729004,0.29248,0
35580,0.498047,-0.726074,0.288574,0
35600,0.506836,-0.750977,0.294434,0
35620,0.528809,-0.749023,0.289551,0
35640,0.555176,-0.751465,0.277832,0
35660,0.583496,-0.748047,0.271973,0
35680,0.563477,-0.73584,0.265137,0
35700,0.565918,-0.725586,0.249512,0
35720,0.603027,-0.720703,0.259766,0
35740,0.654297,-0.725586,0.24707,0
35750,0.654785,-0.705078,0.230469,0
35770,0.629883,-0.717285,0.226562,0
35790,0.628906,-0.697754,0.240723,0
35810,0.637207,-0.666504,0.212402,0
35830,0.653809,-0.647461,0.217773,0
35850,0.664062,-0.671387,0.206543,0
35870,0.649414,-0.676758,0.198242,0
35890,0.660645,-0.644531,0.21875,0
35910,0.67627,-0.648438,0.192871,0
35930,0.65918,-0.620117,0.16748,0
35940,0.645996,-0.621582,0.182617,0
35960,0.65625,-0.611328,0.195312,0
35980,0.716309,-0.633301,0.177734,0
36010,0.703125,-0.609375,0.156738,0
36030,0.70459,-0.597168,0.162109,0
36050,0.729492,-0.602539,0.147949,0
36070,0.748535,-0.589355,0.155273,0
36090,0.775391,-0.582031,0.148438,0
36110,0.788086,-0.584473,0.148926,0
36130,0.778809,-0.562988,0.152832,0
36150,0.766113,-0.561035,0.155762,0
36170,0.783203,-0.543945,0.146973,0
36190,0.782715,-0.530273,0.157227,0
36210,0.788086,-0.536133,0.148926,0
36230,0.806641,-0.533203,0.148926,0
36250,0.794434,-0.521484,0.161133,0
36270,0.793945,-0.497559,0.170898,0
36290,0.812012,-0.513672,0.153809,0
36310,0.817383,-0.505371,0.178223,0
36330,0.791016,-0.496094,0.183105,0
36350,0.799316,-0.478516,0.178223,0
36370,0.791992,-0.464844,0.179688,0
36390,0.808105,-0.455566,0.17041,0
36410,0.82666,-0.46875,0.17627,0
36430,0.818848,-0.473633,0.191895,0
36450,0.799805,-0.443848,0.181152,0
36470,0.808105,-0.438477,0.180664,0
36490,0.829102,-0.447266,0.177734,0
36510,0.828125,-0.439453,0.187988,0
36530,0.827637,-0.431152,0.181641,0
36550,0.830566,-0.408691,0.201172,0
36570,0.839355,-0.40332,0.201172,0
36590,0.833008,-0.398438,0.210938,0
36610,0.826172,-0.395996,0.203125,0
36630,0.85498,-0.378418,0.22168,0
36650,0.850098,-0.362793,0.227051,0
36670,0.823242,-0.355469,0.229004,0
36690,0.841309,-0.359375,0.229004,0
36710,0.861328,-0.350586,0.230469,0
36730,0.858887,-0.341797,0.239746,0
36750,0.857422,-0.334473,0.253906,0
36770,0.855957,-0.330078,0.27002,0
36790,0.851562,-0.354492,0.275879,0
36810,0.87207,-0.341797,0.257812,0
36830,0.831055,-0.306152,0.279297,0
36850,0.842285,-0.29248,0.273926,0
36870,0.868652,-0.286133,0.269531,0
36890,0.866211,-0.294922,0.283691,0
36910,0.844727,-0.293945,0.292969,0
36930,0.840332,-0.29834,0.296875,0
36950,0.830078,-0.284668,0.312988,0
36970,0.849609,-0.266602,0.323242,0
36990,0.879395,-0.289551,0.333496,0
37010,0.858398,-0.302734,0.357422,0
37030,0.812012,-0.291016,0.35791,0
37050,0.810547,-0.27832,0.358398,0
37070,0.824219,-0.278809,0.378418,0
37090,0.830566,-0.29248,0.375,0
37110,0.8125,-0.300293,0.38916,0
37130,0.767578,-0.300293,0.407715,0
37150,0.768555,-0.304199,0.419922,0
37170,0.815918,-0.294922,0.409668,0
37190,0.808594,-0.29541,0.413086,0
37210,0.794434,-0.306641,0.429688,0
37230,0.788574,-0.330078,0.441895,0
37250,0.755859,-0.310547,0.445801,0
37270,0.754395,-0.315918,0.463867,0
37290,0.782715,-0.32373,0.460449,0
37310,0.751465,-0.329102,0.470703,0
37330,0.72998,-0.344727,0.494629,0
37350,0.75293,-0.356934,0.484863,0
37370,0.746582,-0.347168,0.492188,0
37390,0.711914,-0.350586,0.499023,0
37410,0.679688,-0.352539,0.478027,0
37430,0.720215,-0.368652,0.509277,0
37450,0.714844,-0.382324,0.51709,0
37470,0.638184,-0.40332,0.51416,0
37490,0.666016,-0.40918,0.527344,0
37510,0.706543,-0.388184,0.529785,0
37530,0.695801,-0.392578,0.527344,0
37550,0.658203,-0.416992,0.50293,0
37570,0.618652,-0.436035,0.520996,0
37590,0.637207,-0.45166,0.521973,0
37610,0.654785,-0.461426,0.512207,0
37630,0.638672,-0.458984,0.509277,0
37650,0.606934,-0.46582,0.499023,0
37670,0.604492,-0.486816,0.509277,0
37690,0.589844,-0.49707,0.511719,0
37700,0.586914,-0.521973,0.506348,0
37720,0.575684,-0.519043,0.515625,0
37740,0.575195,-0.501465,0.510742,0
37760,0.560547,-0.518555,0.509766,0
37780,0.517578,-0.527344,0.500977,0
37800,0.534668,-0.53125,0.507812,0
37820,0.550781,-0.535645,0.512695,0
37840,0.566406,-0.541016,0.502441,0
37860,0.559082,-0.552246,0.494141,0
37880,0.541016,-0.569336,0.482422,0
37900,0.5625,-0.571289,0.483887,0
37920,0.563477,-0.557129,0.471191,0
37940,0.575684,-0.574707,0.47168,0
37960,0.563965,-0.594727,0.481934,0
37980,0.561035,-0.597168,0.476074,0
38000,0.569336,-0.60791,0.462402,0
38020,0.567383,-0.602051,0.461426,0
38040,0.529297,-0.611816,0.445801,0
38060,0.546875,-0.618164,0.440918,0
38080,0.549316,-0.620605,0.437012,0
38100,0.525391,-0.628906,0.429688,0
38120,0.544922,-0.63916,0.413574,0
38140,0.552734,-0.64209,0.416504,0
38160,0.510742,-0.649902,0.415527,0
38180,0.527344,-0.65625,0.407227,0
38200,0.559082,-0.663086,0.385742,0
38220,0.535156,-0.639648,0.38916,0
38240,0.536621,-0.652344,0.370117,0
38260,0.568359,-0.678711,0.362793,0
38280,0.548828,-0.673828,0.354492,0
38300,0.549316,-0.657715,0.342285,0
38320,0.58252,-0.666504,0.30957,0
38340,0.571289,-0.677246,0.299805,0
38360,0.563477,-0.691406,0.303223,0
38380,0.584961,-0.698242,0.283691,0
38400,0.57666,-0.677734,0.289062,0
38420,0.566406,-0.689453,0.270508,0
38440,0.594727,-0.703125,0.272461,0
38460,0.590332,-0.70459,0.276855,0
38480,0.592285,-0.695801,0.251465,0
38500,0.604004,-0.694824,0.243652,0
38520,0.584473,-0.697266,0.249023,0
38540,0.583008,-0.690918,0.242188,0
38560,0.637695,-0.693359,0.208984,0
38580,0.633789,-0.693359,0.191406,0
38600,0.578613,-0.703125,0.183105,0
38620,0.581055,-0.699707,0.174316,0
38640,0.621094,-0.694336,0.176758,0
38660,0.646484,-0.69873,0.152344,0
38680,0.653809,-0.718262,0.152344,0
38700,0.624023,-0.716309,0.15918,0
38720,0.601074,-0.702637,0.14502,0
38740,0.654297,-0.700684,0.133301,0
38760,0.700684,-0.68457,0.139648,0
38780,0.679199,-0.6875,0.11377,0
38800,0.637695,-0.69873,0.108398,0
38820,0.651855,-0.677246,0.120117,0
38840,0.697754,-0.669434,0.106445,0
38860,0.739258,-0.680664,0.0947266,0
38880,0.735352,-0.654297,0.0961914,0
38900,0.696777,-0.661133,0.100098,0
38920,0.708008,-0.655762,0.0805664,0
38940,0.749023,-0.644043,0.0576172,0
38960,0.73877,-0.606934,0.0566406,0
38980,0.731934,-0.626953,0.0415039,0
39000,0.736816,-0.594727,0.0527344,0
39020,0.754395,-0.586426,0.0327148,0
39040,0.775879,-0.570801,0.0302734,0
39060,0.766602,-0.558105,0.0429688,0
39080,0.754395,-0.551758,0.0332031,0
39100,0.788574,-0.535645,0.0170898,0
39120,0.805176,-0.53418,0.0200195,0
39140,0.821289,-0.526855,0.0141602,0
39160,0.842285,-0.516113,0.00878906,0
39180,0.82373,-0.495605,-0.00976562,0
39200,0.838867,-0.499023,0.00244141,2001
39220,0.84375,-0.496094,-0.00146484,0
39240,0.854004,-0.497559,0.0112305,0
39260,0.864746,-0.486328,0.0117188,0
39280,0.844238,-0.467285,0.00341797,0
39300,0.850098,-0.475098,-0.00976562,0
39320,0.875488,-0.496094,0.00878906,0
39340,0.858398,-0.459473,0.0107422,0
39360,0.862305,-0.46582,0.00878906,0
39380,0.876953,-0.484863,-0.0136719,0
39400,0.841797,-0.46582,-0.00146484,0
39420,0.836426,-0.460449,-0.0205078,0
39440,0.845215,-0.466309,-0.0185547,0
39460,0.802734,-0.470703,-0.0244141,0
39480,0.785156,-0.461426,-0.0229492,0
39500,0.798828,-0.480957,-0.019043,0
39520,0.794434,-0.471191,-0.012207,0
39540,0.780273,-0.492676,-0.0253906,0
39560,0.749023,-0.504395,-0.0161133,0
39580,0.727539,-0.52002,-0.0429688,0
39600,0.672363,-0.510742,-0.0458984,0
39620,0.612793,-0.508301,0.0229492,0
39640,0.581055,-0.505859,0.015625,0
39660,0.560059,-0.512695,0.0112305,0
39680,0.511719,-0.52832,-0.0161133,0
39700,0.558594,-0.550293,-0.0200195,0
39720,0.597656,-0.525879,0.0581055,0
39740,0.560547,-0.508301,0.0292969,0
39760,0.551758,-0.55957,0.0371094,0
39780,0.621094,-0.576172,0.00976562,0
39800,0.599609,-0.539551,0.166016,0
39820,0.468262,-0.549805,0.158691,0
39840,0.455566,-0.521484,0.171387,0
39860,0.716797,-0.598633,0.135742,0
39880,0.71875,-0.575195,0.34668,0
39900,0.603516,-0.583008,0.361328,0
39920,0.774414,-0.613281,0.288574,0
39940,0.884277,-0.628418,0.223633,0
39960,0.852051,-0.652832,0.30957,0
39980,0.782227,-0.703125,0.412109,0
40000,0.842773,-0.849121,0.376953,0
40020,0.927734,-0.866699,0.285156,0
40040,0.92627,-0.847168,0.373535,0
40060,0.819824,-0.86377,0.384277,0
40080,0.8125,-0.897461,0.344727,0
40100,0.756348,-0.973145,0.428223,0
40120,0.684082,-0.976074,0.478516,0
40140,0.591309,-0.971191,0.48584,0
40160,0.507324,-0.919434,0.495605,0
40180,0.416016,-0.880859,0.485352,0
40200,0.323242,-0.88916,0.489746,0
40220,0.263672,-0.893066,0.483887,0
40240,0.200684,-0.876953,0.463379,0
40260,0.135742,-0.862305,0.456055,0
40280,0.074707,-0.836914,0.46875,0
40300,0.0732422,-0.826172,0.448242,0
40320,0.102051,-0.806641,0.48291,0
40340,0.0952148,-0.804199,0.471191,0
40360,0.112793,-0.789062,0.472168,0
40380,0.141113,-0.797363,0.47998,0
40400,0.13916,-0.802734,0.478516,0
40420,0.147461,-0.799805,0.497559,0
40440,0.220215,-0.814941,0.480469,0
40460,0.259766,-0.807617,0.48584,0
40480,0.231445,-0.823242,0.469727,0
40500,0.253906,-0.811523,0.460449,0
40520,0.297852,-0.793457,0.453125,0
40540,0.27832,-0.80127,0.46875,0
40560,0.22998,-0.800293,0.443848,0
40580,0.230957,-0.755859,0.444824,0
40600,0.220703,-0.755859,0.415039,0
40620,0.192383,-0.737793,0.431641,0
40640,0.202637,-0.772461,0.442871,0
40660,0.271973,-0.801758,0.415039,0
40680,0.25293,-0.787598,0.449219,0
40700,0.199219,-0.755371,0.452148,0
40720,0.236328,-0.791016,0.494629,0
40740,0.316895,-0.812988,0.477539,0
40760,0.318359,-0.824707,0.493164,0
40780,0.276367,-0.810059,0.48584,0
40800,0.318359,-0.812988,0.4375,0
40820,0.364746,-0.783691,0.450195,0
40840,0.327148,-0.812012,0.435547,0
40860,0.302734,-0.791992,0.446777,0
40880,0.322266,-0.773438,0.447266,0
40900,0.331543,-0.79541,0.446289,0
40920,0.243164,-0.770996,0.460938,0
40940,0.210449,-0.774902,0.478027,0
40960,0.280762,-0.756348,0.437988,0
40980,0.323242,-0.765137,0.463867,0
41000,0.315918,-0.79541,0.438477,0
41020,0.279297,-0.753418,0.45459,0
41040,0.293945,-0.755371,0.439453,0
41060,0.328125,-0.764648,0.447754,0
41080,0.326172,-0.786621,0.437012,0
41100,0.321777,-0.79541,0.435059,0
41110,0.320312,-0.769043,0.434082,0
41130,0.320312,-0.774902,0.449219,0
41150,0.305664,-0.800293,0.434082,0
41170,0.302246,-0.803711,0.455566,0
41190,0.290039,-0.804199,0.446777,0
41210,0.289551,-0.79834,0.448242,0
41230,0.280273,-0.794922,0.451172,0
41250,0.268066,-0.785645,0.443848,0
41270,0.247559,-0.779785,0.467285,0
41290,0.261719,-0.783691,0.462891,0
41310,0.293457,-0.775391,0.456543,0
41330,0.302246,-0.769043,0.441895,0
41350,0.283691,-0.770508,0.447266,0
41370,0.272949,-0.781738,0.462891,0
41390,0.278809,-0.770996,0.450684,0
41410,0.318848,-0.788574,0.451172,0
41430,0.319824,-0.799805,0.450684,0
41450,0.291504,-0.779785,0.464844,0
41470,0.29248,-0.762695,0.462891,0
41490,0.294922,-0.78418,0.481934,0
41510,0.283691,-0.791016,0.479492,0
41530,0.28418,-0.778809,0.490723,0
41550,0.318848,-0.775391,0.47168,0
41570,0.316406,-0.793457,0.45459,0
41590,0.296875,-0.785645,0.458008,0
41610,0.29248,-0.787109,0.461426,0
41630,0.313965,-0.782715,0.456055,0
41650,0.290039,-0.774902,0.456055,0
41670,0.301758,-0.775879,0.45459,0
41690,0.302246,-0.775879,0.461914,0
41710,0.311523,-0.767578,0.455078,0
41730,0.319824,-0.773438,0.453613,0
41750,0.303223,-0.775391,0.45752,0
41770,0.296387,-0.753418,0.463867,0
41790,0.276855,-0.740723,0.461914,0
41810,0.286621,-0.772461,0.470215,0
41830,0.294434,-0.77832,0.486816,0
41850,0.278809,-0.769043,0.487793,0
41870,0.260254,-0.749023,0.473145,0
41890,0.272461,-0.762207,0.46582,0
41910,0.302734,-0.768555,0.463379,0
41930,0.297852,-0.774414,0.461426,0
41950,0.279297,-0.779297,0.450684,0
41970,0.289062,-0.789062,0.464844,0
41990,0.276855,-0.765137,0.486816,0
42010,0.277832,-0.76709,0.472656,0
42030,0.309082,-0.779785,0.449707,0
42050,0.335449,-0.786621,0.458496,0
42070,0.307129,-0.764648,0.471191,0
42090,0.295898,-0.763672,0.475098,0
42110,0.34668,-0.780273,0.449707,0
42130,0.375977,-0.774902,0.46875,0
42150,0.378418,-0.764648,0.452148,0
42170,0.374023,-0.773926,0.445801,0
42190,0.385742,-0.785156,0.432617,0
42210,0.405762,-0.786621,0.425293,0
42230,0.391602,-0.771973,0.42627,0
42250,0.391113,-0.784668,0.430664,0
42270,0.399902,-0.783691,0.456055,0
42290,0.381348,-0.750488,0.448242,0
42310,0.333984,-0.763672,0.463867,0
42330,0.307617,-0.746094,0.491699,0
42350,0.310547,-0.751465,0.474121,0
42370,0.325195,-0.754395,0.485352,0
42390,0.320801,-0.75293,0.478516,0
42410,0.301758,-0.737305,0.477051,0
42430,0.34375,-0.748535,0.469727,0
42450,0.348145,-0.760254,0.476074,0
42470,0.349609,-0.754395,0.474609,0
42490,0.334473,-0.755371,0.479004,0
42510,0.334961,-0.76709,0.473633,0
42530,0.297363,-0.769531,0.478516,2000
42550,0.28125,-0.753418,0.490723,0
42570,0.327637,-0.750977,0.473633,0
42590,0.312988,-0.741211,0.470703,0
42610,0.286133,-0.737793,0.469727,0
42630,0.280273,-0.770508,0.479004,0
42650,0.303223,-0.759277,0.459473,0
42670,0.287109,-0.73584,0.479492,0
42690,0.275391,-0.761719,0.462402,0
42710,0.287109,-0.774902,0.431152,0
42730,0.275879,-0.785645,0.473633,0
42750,0.269043,-0.775879,0.47168,0
42770,0.295898,-0.769043,0.432129,0
42790,0.293457,-0.752441,0.458008,0
42810,0.312012,-0.808105,0.458496,0
42830,0.313477,-0.825684,0.470215,0
42850,0.291992,-0.804199,0.466797,0
42870,0.316406,-0.773438,0.442383,0
42890,0.306152,-0.787598,0.462402,0
42910,0.304688,-0.79541,0.45752,0
42930,0.249023,-0.79248,0.465332,0
42950,0.274902,-0.78418,0.452637,0
42970,0.308594,-0.761719,0.449707,0
42990,0.263672,-0.761719,0.461426,0
43010,0.255859,-0.765137,0.466309,0
43030,0.269531,-0.75293,0.466797,0
43050,0.3125,-0.777832,0.446289,0
43070,0.29834,-0.764648,0.468262,0
43090,0.243164,-0.769043,0.490723,0
43110,0.243164,-0.76123,0.478027,0
43120,0.306152,-0.762695,0.487305,0
43140,0.336426,-0.779785,0.469727,0
43160,0.310547,-0.769043,0.480469,0
43180,0.308105,-0.760742,0.470215,0
43200,0.30957,-0.743164,0.45752,0
43220,0.328125,-0.764648,0.479004,0
43240,0.332031,-0.771484,0.470703,0
43260,0.295898,-0.749512,0.452148,0
43280,0.290527,-0.755371,0.44873,0
43300,0.330078,-0.744141,0.477051,0
43320,0.329102,-0.75,0.463867,0
43340,0.318848,-0.742188,0.45752,0
43360,0.317871,-0.751953,0.480469,0
43380,0.360352,-0.756836,0.501465,0
43400,0.351562,-0.762207,0.536621,0
43420,0.309082,-0.776855,0.498047,0
43440,0.29541,-0.800293,0.515625,0
43460,0.314453,-0.793457,0.520996,0
43480,0.294434,-0.759766,0.444824,0
43500,0.364746,-0.750488,0.424805,0
43520,0.40625,-0.764648,0.43457,0
43540,0.381836,-0.733398,0.477539,0
43560,0.398926,-0.731445,0.442871,0
43580,0.408691,-0.734863,0.450684,0
43600,0.400391,-0.72168,0.427734,0
43620,0.376465,-0.704102,0.466797,0
43640,0.387695,-0.739258,0.458984,0
43660,0.363281,-0.744141,0.48291,0
43680,0.316895,-0.710938,0.498535,0
43700,0.335938,-0.707031,0.516113,0
43720,0.334961,-0.715332,0.503906,0
43740,0.314453,-0.714355,0.48877,0
43760,0.307617,-0.702148,0.501953,0
43780,0.328125,-0.701172,0.496094,0
43800,0.337891,-0.716309,0.490723,0
43820,0.336426,-0.717285,0.489258,0
43840,0.334473,-0.727539,0.491211,0
43860,0.348633,-0.714844,0.500488,0
43880,0.375977,-0.72168,0.476562,0
43900,0.391602,-0.735352,0.481934,0
43920,0.413574,-0.731445,0.501953,0
43940,0.399902,-0.731445,0.487793,0
43960,0.433105,-0.726074,0.467285,0
43980,0.427246,-0.697266,0.472656,0
44000,0.425781,-0.653809,0.492676,0
44020,0.387207,-0.632812,0.518066,0
44040,0.413574,-0.65625,0.47998,0
44060,0.416504,-0.685059,0.455078,0
44080,0.442871,-0.683594,0.458008,0
44100,0.459961,-0.676758,0.464355,0
44120,0.484375,-0.699219,0.461914,0
44140,0.47998,-0.689941,0.452637,0
44160,0.478027,-0.665039,0.462891,0
44180,0.471191,-0.666504,0.452637,0
44200,0.473145,-0.693359,0.443359,0
44220,0.500488,-0.70166,0.437988,0
44240,0.490723,-0.678223,0.449219,0
44260,0.49707,-0.66748,0.455566,0
44280,0.494629,-0.678223,0.438477,0
44300,0.48877,-0.663574,0.421875,0
44320,0.487793,-0.643066,0.453125,0
44340,0.480469,-0.637695,0.465332,0
44360,0.45166,-0.643555,0.455566,0
44380,0.444824,-0.648438,0.472168,0
44400,0.442871,-0.647461,0.464355,0
44420,0.442871,-0.661133,0.477051,0
44440,0.466797,-0.644531,0.485352,0
44460,0.47998,-0.643555,0.474121,0
44480,0.489258,-0.625,0.473145,0
44500,0.487305,-0.610352,0.469238,0
44520,0.472168,-0.608887,0.480469,0
44540,0.486816,-0.631836,0.477051,0
44560,0.486328,-0.636719,0.481445,0
44580,0.496094,-0.643555,0.474609,0
44600,0.533203,-0.651855,0.460449,0
44620,0.567871,-0.665039,0.442871,0
44640,0.564453,-0.658203,0.455566,0
44660,0.546875,-0.618164,0.472656,0
44680,0.549316,-0.608398,0.481934,0
44700,0.580078,-0.594727,0.472656,0
44720,0.590332,-0.569336,0.470215,0
44740,0.59375,-0.567383,0.478027,0
44760,0.589844,-0.564941,0.479004,0
44780,0.603027,-0.560547,0.478027,0
44800,0.632812,-0.553223,0.478516,0
44820,0.641113,-0.543457,0.48584,0
44840,0.630859,-0.523926,0.486816,0
44860,0.603516,-0.522949,0.487793,0
44880,0.626953,-0.520996,0.487305,0
44900,0.653809,-0.500488,0.480957,0
44920,0.645996,-0.488281,0.467773,0
44940,0.634277,-0.48584,0.459473,0
44960,0.633301,-0.472656,0.470703,0
44980,0.639648,-0.468262,0.478516,0
45000,0.642578,-0.470215,0.463379,0
45020,0.633789,-0.463379,0.460938,0
45040,0.625,-0.469238,0.481934,0
45060,0.620117,-0.462891,0.505371,0
45080,0.641602,-0.463379,0.501465,0
45100,0.677734,-0.462891,0.490723,0
45120,0.673828,-0.468262,0.518066,0
45140,0.678223,-0.469238,0.532715,0
45160,0.6875,-0.446289,0.51123,0
45180,0.687012,-0.43457,0.479492,0
45200,0.71582,-0.432129,0.475098,0
45220,0.698242,-0.413574,0.47168,0
45240,0.679688,-0.401367,0.493652,0
45260,0.681641,-0.406738,0.5,0
45280,0.663086,-0.390137,0.510254,0
45300,0.650879,-0.388184,0.529297,0
45320,0.649414,-0.382324,0.544922,0
45340,0.669922,-0.397949,0.55127,0
45360,0.655762,-0.39502,0.569824,0
45380,0.63623,-0.391113,0.575195,0
45400,0.656738,-0.374023,0.562988,0
45420,0.693848,-0.366699,0.525391,0
45440,0.67334,-0.353027,0.521484,0
45460,0.640625,-0.336914,0.546875,0
45480,0.618652,-0.341797,0.564941,0
45500,0.649414,-0.344238,0.566406,0
45520,0.648438,-0.352539,0.587891,0
45540,0.60791,-0.34375,0.600586,0
45560,0.58252,-0.343262,0.632812,0
45580,0.611328,-0.362793,0.624023,0
45600,0.683594,-0.375977,0.596191,0
45620,0.67041,-0.364746,0.599121,0
45640,0.645996,-0.362793,0.582031,0
45660,0.637207,-0.34375,0.584473,0
45680,0.615723,-0.340332,0.59668,0
45700,0.614258,-0.338867,0.625,0
45720,0.595703,-0.330566,0.623047,0
45740,0.53418,-0.32373,0.634277,0
45760,0.562988,-0.331543,0.62207,0
45780,0.589355,-0.345215,0.619141,0
45800,0.634277,-0.335938,0.615723,0
45820,0.598633,-0.336426,0.617188,0
45840,0.577148,-0.363281,0.63916,0
45860,0.564453,-0.334473,0.63916,0
45880,0.592285,-0.319336,0.620117,0
45900,0.596191,-0.345703,0.631348,0
45920,0.578125,-0.354492,0.628418,0
45940,0.570801,-0.341797,0.65332,0
45960,0.549805,-0.318359,0.67334,0
45980,0.574219,-0.298828,0.62207,0
46000,0.605957,-0.316406,0.616699,0
46020,0.606445,-0.308594,0.628906,0
46040,0.560547,-0.3125,0.653809,0
46060,0.57373,-0.314453,0.666016,0
46080,0.595215,-0.291504,0.632812,0
46100,0.606934,-0.308594,0.621582,0
46120,0.581543,-0.323242,0.65625,0
46140,0.538574,-0.32666,0.666016,0
46160,0.558594,-0.351074,0.680664,0
46180,0.589844,-0.324219,0.631348,0
46200,0.57959,-0.313477,0.658203,0
46220,0.54248,-0.304199,0.681152,0
46240,0.54541,-0.30127,0.685059,0
46260,0.561523,-0.29541,0.696777,0
46280,0.526855,-0.29248,0.709961,0
46300,0.488281,-0.312988,0.723145,0
46320,0.476074,-0.320312,0.704102,0
46340,0.496094,-0.317871,0.699707,0
46360,0.492188,-0.331055,0.682617,0
46380,0.472656,-0.350098,0.695801,0
46400,0.452637,-0.339844,0.682617,0
46420,0.520508,-0.348145,0.667969,0
46440,0.546875,-0.344238,0.686523,0
46460,0.498535,-0.350586,0.6875,0
46480,0.490723,-0.390137,0.669922,0
46490,0.505371,-0.372559,0.676758,0
46510,0.490723,-0.351074,0.696777,0
46530,0.474121,-0.365723,0.688965,0
46550,0.470703,-0.39209,0.694824,0
46570,0.461914,-0.382324,0.703613,0
46590,0.449707,-0.391602,0.700195,0
46610,0.472656,-0.39209,0.681152,0
46630,0.452637,-0.369629,0.699219,0
46650,0.419922,-0.376465,0.705078,0
46670,0.436523,-0.417969,0.669922,0
46690,0.455566,-0.397461,0.69873,0
46710,0.433594,-0.406738,0.687012,0
46730,0.410156,-0.417969,0.67334,0
46750,0.40918,-0.439941,0.680176,0
46770,0.427246,-0.4375,0.718262,0
46790,0.42627,-0.442383,0.698242,0
46810,0.453613,-0.42627,0.681152,0
46830,0.419434,-0.428223,0.694824,0
46850,0.371582,-0.45752,0.686523,0
46870,0.40625,-0.464844,0.6875,0
46890,0.450684,-0.445312,0.699707,0
46910,0.410156,-0.457031,0.706055,0
46930,0.380371,-0.488281,0.679688,0
46950,0.408691,-0.504883,0.665527,0
46970,0.397949,-0.478027,0.679688,0
46990,0.356934,-0.479004,0.677246,0
47010,0.405273,-0.482422,0.672852,0
47030,0.402832,-0.47168,0.693359,0
47050,0.367676,-0.474609,0.70166,0
47070,0.354492,-0.468262,0.701172,0
47090,0.393555,-0.474609,0.695801,0
47110,0.385254,-0.490723,0.696777,0
47130,0.365723,-0.501953,0.688965,0
47150,0.341309,-0.493164,0.689453,0
47170,0.336914,-0.483398,0.686035,0
47190,0.369629,-0.48584,0.675781,0
47210,0.370605,-0.502441,0.68457,0
47230,0.310059,-0.519531,0.678223,0
47250,0.313477,-0.527832,0.662109,0
47270,0.337891,-0.498535,0.67627,0
47290,0.308105,-0.523926,0.650879,0
47310,0.301758,-0.549805,0.644531,0
47330,0.307617,-0.569336,0.656738,0
47350,0.303711,-0.572266,0.656738,0
47370,0.287598,-0.563477,0.651367,0
47390,0.294434,-0.569336,0.644043,0
47410,0.27832,-0.591309,0.633301,0
47430,0.288574,-0.616699,0.625,0
47450,0.291016,-0.598633,0.629883,0
47470,0.304688,-0.601562,0.621094,0
47490,0.29541,-0.62793,0.601074,0
47510,0.322754,-0.628906,0.61377,0
47530,0.336426,-0.630859,0.612793,0
47550,0.31543,-0.634277,0.594727,0
47570,0.337402,-0.634766,0.577637,0
47590,0.371582,-0.669922,0.558105,0
47610,0.359863,-0.657715,0.571289,0
47630,0.341797,-0.668945,0.530273,0
47650,0.364746,-0.674316,0.526367,0
47670,0.381348,-0.665039,0.554688,0
47690,0.362305,-0.661621,0.544922,0
47710,0.34668,-0.676758,0.519531,0
47730,0.370117,-0.682617,0.530273,0
47750,0.38916,-0.660645,0.511719,0
47770,0.393555,-0.683594,0.501465,0
47790,0.408691,-0.681641,0.502441,0
47810,0.390137,-0.678223,0.489746,0
47830,0.393066,-0.670898,0.476074,0
47850,0.440918,-0.684082,0.458008,0
47870,0.507812,-0.682129,0.46875,0
47890,0.496094,-0.677246,0.471191,0
47910,0.460449,-0.687988,0.435059,0
47930,0.491211,-0.692383,0.405762,0
47950,0.520508,-0.696777,0.431152,0
47970,0.521973,-0.679688,0.437012,0
47990,0.52002,-0.674316,0.368652,0
48010,0.497559,-0.688965,0.367188,0
48030,0.500977,-0.691895,0.399902,0
48050,0.521973,-0.674805,0.40332,0
48070,0.581055,-0.678223,0.337402,0
48090,0.602051,-0.688477,0.338867,0
48110,0.52832,-0.665527,0.370117,0
48130,0.516113,-0.684082,0.346191,0
48150,0.570312,-0.696289,0.320801,0
48170,0.591797,-0.67041,0.326172,0
48190,0.572266,-0.643066,0.34375,0
48210,0.532715,-0.663574,0.334473,0
48230,0.624512,-0.664062,0.29541,0
48250,0.703125,-0.672363,0.306641,0
48270,0.614746,-0.646484,0.312012,0
48290,0.602539,-0.637207,0.30957,0
48310,0.633301,-0.65332,0.262207,0
48330,0.663086,-0.64502,0.321777,0
48350,0.661133,-0.604492,0.303223,0
48370,0.675781,-0.598145,0.287109,0
48390,0.729004,-0.612305,0.264648,0
48410,0.693848,-0.600586,0.29834,0
48430,0.709473,-0.560547,0.322754,0
48450,0.738281,-0.557129,0.287109,0
48460,0.751465,-0.541992,0.236816,0
48480,0.772461,-0.515625,0.266602,0
48500,0.759766,-0.501465,0.27832,0
48520,0.773926,-0.483398,0.248047,0
48540,0.799316,-0.486816,0.233887,0
48560,0.84082,-0.47998,0.223145,0
48580,0.839844,-0.458496,0.236816,0
48600,0.836426,-0.446777,0.225586,0
48620,0.82959,-0.422363,0.223145,0
48640,0.823242,-0.411621,0.218262,0
48660,0.821289,-0.388672,0.19873,0
48680,0.82373,-0.355957,0.220703,0
48700,0.838867,-0.341309,0.212891,0
48720,0.841797,-0.331543,0.210449,0
48740,0.841309,-0.301758,0.221191,0
48760,0.859863,-0.279785,0.234863,0
48780,0.865234,-0.268555,0.237793,0
48800,0.874512,-0.258301,0.246582,0
48820,0.905762,-0.251953,0.263184,0
48840,0.890625,-0.248047,0.269043,0
48860,0.88916,-0.239746,0.268066,0
48880,0.907227,-0.224609,0.304688,0
48900,0.898438,-0.211914,0.306641,0
48920,0.926758,-0.217285,0.305176,0
48940,0.872559,-0.206543,0.314453,0
48960,0.848145,-0.190918,0.355957,0
48980,0.876465,-0.166016,0.369629,0
49000,0.851562,-0.152344,0.359375,0
49020,0.849121,-0.166504,0.380859,0
49040,0.817871,-0.15332,0.384766,0
49060,0.80957,-0.158203,0.378418,0
49080,0.859863,-0.14502,0.369141,0
49100,0.884277,-0.15918,0.382812,0
49120,0.831055,-0.194336,0.404297,0
49140,0.806152,-0.182129,0.413086,0
49160,0.85498,-0.169434,0.39502,0
49180,0.860352,-0.12207,0.38623,0
49200,0.808594,-0.143066,0.399902,0
49220,0.786133,-0.165527,0.425781,0
49240,0.788574,-0.189941,0.44873,0
49260,0.803711,-0.190918,0.456543,0
49280,0.828125,-0.186035,0.469238,0
49300,0.793945,-0.169434,0.471191,0
49320,0.765625,-0.185059,0.48584,0
49340,0.762695,-0.213867,0.50293,0
49360,0.749512,-0.253906,0.503418,0
49380,0.758789,-0.262695,0.530273,0
49400,0.726562,-0.217773,0.535156,0
49420,0.782715,-0.235352,0.49707,0
49440,0.799316,-0.253418,0.527344,0
49460,0.692383,-0.243652,0.557617,0
49480,0.661621,-0.287109,0.541016,0
49500,0.731445,-0.286133,0.563965,0
49520,0.757812,-0.273926,0.562988,0
49540,0.680664,-0.269531,0.557617,0
49560,0.595703,-0.257812,0.574219,0
49580,0.652832,-0.263184,0.560547,0
49600,0.684082,-0.290039,0.586426,0
49620,0.637695,-0.269043,0.572266,0
49640,0.620117,-0.287598,0.587891,0
49660,0.616211,-0.272461,0.577148,0
49680,0.641602,-0.275391,0.616211,0
49700,0.659668,-0.275391,0.591797,0
49720,0.640137,-0.303223,0.583496,0
49740,0.665039,-0.330566,0.609863,0
49760,0.612305,-0.302734,0.647461,0
49780,0.583496,-0.320312,0.62207,0
49800,0.62207,-0.337402,0.603516,0
49820,0.592773,-0.333984,0.637207,0
49840,0.538574,-0.347656,0.611816,0
49860,0.548828,-0.372559,0.596191,0
49880,0.553223,-0.381348,0.617676,0
49900,0.529785,-0.381348,0.631348,0
49920,0.539551,-0.39502,0.630371,0
49940,0.538086,-0.396973,0.592773,0
49960,0.498047,-0.384277,0.613281,0
49980,0.5,-0.432129,0.618652,0
50000,0.542969,-0.463867,0.61377,0
50020,0.543945,-0.452637,0.631836,0
50040,0.490234,-0.459473,0.636719,0
50060,0.479004,-0.501465,0.623535,0
50080,0.501465,-0.512695,0.621582,0
50100,0.489746,-0.487305,0.624023,0
50120,0.446777,-0.483887,0.60791,0
50140,0.430664,-0.501953,0.599609,0
50160,0.45752,-0.526855,0.583496,0
50180,0.469238,-0.50293,0.630371,0
50200,0.438477,-0.490723,0.624512,0
50220,0.436523,-0.506348,0.598633,0
50240,0.450684,-0.541504,0.617188,0
50260,0.474121,-0.555176,0.638672,0
50280,0.464355,-0.526367,0.642578,0
50300,0.445312,-0.544922,0.603516,0
50320,0.438965,-0.56543,0.592285,0
50340,0.446289,-0.566895,0.607422,0
50360,0.449219,-0.556152,0.605957,0
50380,0.447754,-0.555664,0.5625,0
50400,0.444336,-0.553711,0.551758,0
50420,0.447754,-0.584473,0.552246,0
50440,0.474121,-0.593262,0.557129,0
50460,0.465332,-0.571289,0.541016,0
50480,0.47168,-0.570801,0.525391,0
50500,0.470703,-0.598633,0.527832,0
50520,0.470703,-0.621094,0.530762,0
50540,0.461426,-0.596191,0.540527,0
50560,0.442383,-0.582031,0.517578,0
50580,0.497559,-0.613281,0.481934,0
50600,0.489746,-0.618652,0.486816,0
50620,0.4375,-0.608887,0.477539,0
50640,0.449707,-0.60498,0.468262,0
50660,0.500488,-0.610352,0.437988,0
50680,0.471191,-0.631836,0.450195,0
50700,0.484375,-0.640625,0.434082,0
50720,0.537598,-0.657227,0.435059,0
50740,0.500977,-0.628906,0.440918,0
50760,0.459473,-0.630371,0.407715,0
50780,0.496582,-0.675781,0.391602,0
50800,0.51416,-0.663086,0.419922,0
50820,0.49707,-0.667969,0.39502,0
50840,0.503418,-0.678223,0.381348,0
50860,0.506348,-0.683594,0.369629,0
50880,0.527832,-0.673828,0.391113,0
50900,0.523926,-0.67334,0.398926,0
50920,0.512207,-0.666504,0.382324,0
50940,0.521484,-0.685059,0.373047,0
50960,0.537109,-0.702637,0.375,0
50980,0.544434,-0.68457,0.380859,0
51000,0.564453,-0.670898,0.383789,0
51020,0.595703,-0.672852,0.373047,0
51040,0.616699,-0.671387,0.353027,0
51060,0.597168,-0.640625,0.369141,0
51080,0.626953,-0.638672,0.353516,0
51100,0.710938,-0.639648,0.324219,0
51120,0.737793,-0.633789,0.334961,0
51140,0.66748,-0.609375,0.328613,0
51160,0.666016,-0.60791,0.283691,0
51180,0.766602,-0.595703,0.256348,0
51200,0.787598,-0.559082,0.253418,0
51220,0.758789,-0.580078,0.21875,0
51240,0.733887,-0.563965,0.228516,0
51260,0.758789,-0.549316,0.211426,0
51280,0.820312,-0.565918,0.199219,0
51300,0.813965,-0.532227,0.18457,0
51320,0.776367,-0.531738,0.166504,0
51340,0.775391,-0.536133,0.151855,0
51360,0.765137,-0.517578,0.153809,0
51380,0.778809,-0.499512,0.116211,0
51400,0.808594,-0.474609,0.115723,0
51420,0.814941,-0.475098,0.120117,0
51440,0.773926,-0.471191,0.0991211,0
51460,0.74707,-0.460938,0.0942383,0
51480,0.814453,-0.443359,0.0820312,0
51500,0.863281,-0.442871,0.0585938,0
51520,0.875488,-0.445312,0.0449219,0
51540,0.870117,-0.42041,0.0512695,0
51560,0.850586,-0.404785,0.0537109,0
51580,0.885254,-0.395996,0.0419922,0
51600,0.912598,-0.385254,0.0517578,0
51620,0.902344,-0.367676,0.0498047,0
51640,0.894043,-0.348633,0.0341797,0
51660,0.875977,-0.334961,0.0629883,0
51680,0.901855,-0.304199,0.0825195,0
51700,0.936523,-0.288574,0.0722656,0
51720,0.949219,-0.290039,0.0649414,0
51740,0.951172,-0.288574,0.102051,0
51760,0.915527,-0.247559,0.11377,0
51780,0.916992,-0.231445,0.090332,0
51800,0.948242,-0.236328,0.0830078,0
51820,0.95166,-0.223633,0.108887,0
51840,0.914551,-0.210449,0.109375,0
51860,0.918945,-0.20166,0.116211,0
51880,0.94043,-0.166504,0.139648,0
51890,0.959961,-0.139648,0.161621,0
51910,0.94873,-0.12207,0.161621,0
51930,0.92041,-0.119141,0.177246,0
51950,0.908203,-0.111816,0.175293,0
51970,0.895508,-0.0922852,0.165039,0
51990,0.91748,-0.0864258,0.175781,0
52010,0.942871,-0.0961914,0.210938,0
52030,0.91748,-0.0800781,0.211426,0
52050,0.891113,-0.0698242,0.223633,0
52070,0.919434,-0.050293,0.234375,0
52090,0.935059,-0.0336914,0.252441,0
52110,0.921387,-0.046875,0.250488,0
52130,0.925781,-0.0512695,0.259766,0
52150,0.891113,-0.0336914,0.259277,0
52170,0.90918,-0.0415039,0.238281,0
52190,0.921875,-0.0249023,0.274414,0
52210,0.913086,-0.00244141,0.299805,0
52230,0.92334,-0.0385742,0.291504,0
52250,0.900391,-0.034668,0.289062,0
52270,0.862305,-0.00830078,0.333496,0
52290,0.866699,-0.0209961,0.322266,0
52310,0.899414,0,0.336914,0
52330,0.884766,-0.0546875,0.353027,0
52350,0.827637,-0.0585938,0.346191,0
52370,0.82373,-0.0761719,0.370605,0
52390,0.851074,-0.0424805,0.398926,0
52410,0.902344,-0.0693359,0.389648,0
52430,0.90918,-0.110352,0.392578,0
52450,0.818359,-0.118164,0.42334,0
52470,0.76416,-0.113281,0.452637,0
52490,0.835938,-0.108398,0.440918,0
52510,0.854004,-0.119629,0.460449,0
52530,0.82373,-0.10791,0.466309,0
52550,0.776367,-0.160645,0.474609,0
52570,0.753418,-0.161621,0.500488,0
52590,0.80957,-0.166992,0.493164,0
52610,0.833496,-0.177246,0.507812,0
52630,0.77832,-0.192871,0.474609,0
52650,0.69043,-0.190918,0.520508,0
52670,0.709961,-0.226074,0.535645,0
52690,0.780762,-0.214844,0.52002,0
52710,0.746582,-0.233398,0.52002,0
52730,0.685547,-0.257812,0.519531,0
52750,0.703613,-0.285645,0.543457,0
52770,0.77002,-0.293457,0.519043,0
52790,0.751953,-0.253906,0.536133,0
52810,0.666992,-0.269043,0.537109,0
52830,0.668945,-0.311035,0.523438,0
52850,0.706055,-0.335449,0.535156,0
52870,0.670898,-0.325195,0.539551,0
52890,0.67334,-0.330566,0.537598,0
52910,0.689941,-0.351562,0.523438,0
52930,0.677734,-0.365234,0.520996,0
52950,0.664551,-0.395508,0.510742,0
52970,0.601562,-0.375977,0.52002,0
52990,0.610352,-0.386719,0.533203,0
53010,0.64502,-0.406738,0.514648,0
53030,0.650391,-0.446777,0.511719,0
53050,0.611816,-0.450684,0.499512,0
53070,0.585449,-0.45459,0.50293,0
53090,0.610352,-0.462402,0.489258,0
53110,0.623535,-0.466797,0.476562,0
53130,0.606445,-0.464844,0.47168,0
53150,0.558105,-0.489746,0.454102,0
53170,0.570801,-0.534668,0.443848,0
53190,0.597168,-0.556152,0.439941,0
53210,0.578125,-0.539551,0.44043,0
53230,0.570801,-0.534668,0.42627,0
53250,0.59082,-0.568848,0.423828,0
53270,0.580566,-0.591309,0.419922,0
53290,0.557129,-0.598633,0.416016,0
53310,0.61084,-0.605957,0.411133,0
53330,0.632812,-0.581543,0.40625,0
53350,0.623535,-0.585449,0.390137,0
53370,0.575195,-0.616211,0.371094,0
53390,0.610352,-0.617188,0.343262,0
53410,0.607422,-0.568359,0.354492,0
53430,0.608398,-0.575195,0.330566,0
53450,0.652344,-0.595703,0.302734,0
53470,0.601562,-0.633789,0.280273,0
53490,0.588867,-0.654297,0.276855,0
53510,0.61377,-0.652832,0.26123,0
53530,0.672363,-0.671387,0.239746,0
53550,0.680664,-0.632324,0.254883,0
53570,0.629395,-0.624023,0.235352,0
53590,0.635254,-0.653809,0.216797,0
53610,0.694824,-0.678711,0.196289,0
53630,0.678223,-0.664551,0.186523,0
53650,0.673828,-0.636719,0.21582,0
53670,0.698242,-0.654785,0.152832,0
53690,0.754883,-0.671387,0.164551,0
53710,0.734375,-0.63623,0.164062,0
53730,0.688965,-0.633789,0.128418,0
53750,0.719727,-0.650391,0.140137,0
53770,0.76416,-0.628906,0.125977,0
53790,0.774414,-0.618164,0.0922852,0
53810,0.772949,-0.626953,0.0825195,0
53830,0.793945,-0.589844,0.101074,0
53850,0.811523,-0.583984,0.0712891,0
53860,0.806641,-0.592773,0.0292969,0
53880,0.777344,-0.572754,0.0429688,0
53900,0.760254,-0.572266,0.0302734,0
53920,0.786621,-0.566406,-0.00683594,0
53940,0.823242,-0.570312,-0.00976562,0
53960,0.822266,-0.546875,-0.00537109,0
53980,0.80127,-0.549316,-0.00732422,0
54000,0.803711,-0.529785,-0.0317383,0
54020,0.845703,-0.562988,-0.0537109,0
54040,0.827148,-0.556641,-0.0595703,0
54060,0.76709,-0.512207,-0.0644531,0
54080,0.767578,-0.48584,-0.09375,0
54100,0.825684,-0.496094,-0.115723,0
54120,0.819336,-0.488281,-0.109375,0
54140,0.790527,-0.453125,-0.112793,0
54160,0.816895,-0.45166,-0.136719,0
54180,0.847168,-0.439453,-0.119141,0
54200,0.844238,-0.424316,-0.121582,0
54220,0.854492,-0.428711,-0.123047,0
54240,0.84082,-0.400879,-0.10498,0
54260,0.893555,-0.42627,-0.12793,0
54280,0.88623,-0.411621,-0.120117,0
54300,0.84668,-0.389648,-0.116699,2001
54320,0.871094,-0.37793,-0.111328,0
54340,0.899414,-0.384766,-0.0952148,0
54360,0.884277,-0.37793,-0.0629883,0
54380,0.910156,-0.400879,-0.0864258,0
54400,0.924805,-0.424316,-0.0761719,0
54420,0.889648,-0.400391,-0.0737305,0
54440,0.901367,-0.384277,-0.0595703,0
54460,0.914551,-0.384277,-0.0727539,0
54480,0.928223,-0.375488,-0.0693359,0
54500,0.911133,-0.387695,-0.0629883,0
54520,0.894043,-0.408203,-0.0771484,0
54540,0.860352,-0.410645,-0.0932617,0
54560,0.837891,-0.37793,-0.139648,0
54580,0.75293,-0.401855,-0.154297,0
54600,0.704102,-0.381348,-0.163086,0
54620,0.730957,-0.416504,-0.186523,0
54640,0.699219,-0.427734,-0.168457,0
54660,0.665039,-0.396973,-0.149414,0
54680,0.628906,-0.399414,-0.120605,0
54700,0.634766,-0.402344,-0.0932617,0
54720,0.663086,-0.433105,-0.0893555,0
54740,0.602539,-0.425781,-0.0439453,0
54760,0.60791,-0.40332,0.00292969,0
54780,0.645996,-0.422852,0.0302734,0
54800,0.619629,-0.439453,0.0986328,0
54820,0.60791,-0.462402,0.0756836,0
54840,0.693848,-0.46875,0.146484,0
54860,0.674316,-0.473145,0.248047,0
54880,0.636719,-0.43457,0.303223,0
54900,0.643555,-0.449219,0.317871,0
54920,0.699219,-0.538574,0.257324,0
54940,0.768555,-0.583496,0.428223,0
54960,0.815918,-0.582031,0.472168,0
54980,0.887695,-0.616211,0.408691,0
55000,0.923828,-0.708008,0.271484,0
55020,0.985352,-0.763184,0.442871,0
55040,0.944336,-0.838379,0.44873,0
55060,0.932129,-0.815918,0.365234,0
55080,0.892578,-0.875488,0.334473,0
55100,0.875,-0.893555,0.336426,0
55120,0.824707,-0.898926,0.446777,0
55140,0.720215,-0.853027,0.473633,0
55160,0.661621,-0.84668,0.463379,0
55180,0.661133,-0.868164,0.448242,0
55200,0.510254,-0.81543,0.51709,0
55220,0.364746,-0.728516,0.53418,0
55240,0.289062,-0.730957,0.495605,0
55260,0.286621,-0.745117,0.481934,0
55280,0.266602,-0.729492,0.515137,0
55300,0.241699,-0.743652,0.523926,0
55320,0.213379,-0.787598,0.505371,0
55340,0.259766,-0.808105,0.48584,0
55360,0.287598,-0.792969,0.501953,0
55380,0.261719,-0.780273,0.458496,0
55400,0.268555,-0.79248,0.450684,0
55420,0.276855,-0.771484,0.442383,0
55440,0.301758,-0.758301,0.4375,0
55460,0.309082,-0.765137,0.472656,0
55480,0.331543,-0.784668,0.467285,0
55500,0.347656,-0.74707,0.458496,0
55520,0.342285,-0.757812,0.447266,0
55540,0.331055,-0.768066,0.442383,0
55560,0.320312,-0.776367,0.453125,0
55580,0.321777,-0.771973,0.421387,0
55600,0.325195,-0.768066,0.443359,0
55620,0.307617,-0.759277,0.427734,0
55640,0.320312,-0.751465,0.456543,0
55660,0.367676,-0.740234,0.439941,0
55680,0.383789,-0.743164,0.431641,0
55700,0.334961,-0.768066,0.453613,0
55720,0.324707,-0.756348,0.450684,0
55740,0.369629,-0.785156,0.447754,0
55760,0.375977,-0.774902,0.433105,0
55780,0.3125,-0.768555,0.424805,0
55800,0.341797,-0.782227,0.439453,0
55820,0.388672,-0.789062,0.445312,0
55840,0.362305,-0.770996,0.424316,0
55860,0.345703,-0.771484,0.436035,0
55880,0.330078,-0.776367,0.454102,0
55900,0.34668,-0.741211,0.449707,0
55920,0.358887,-0.742188,0.452148,0
55940,0.312988,-0.745117,0.44873,0
55960,0.289062,-0.775879,0.43457,0
55980,0.294922,-0.780273,0.423828,0
56000,0.297852,-0.765625,0.428711,0
56020,0.30127,-0.765137,0.415039,0
56040,0.313477,-0.790527,0.40332,0
56060,0.352051,-0.783203,0.405762,0
56080,0.341309,-0.768555,0.412109,0
56100,0.322266,-0.758789,0.418457,0
56120,0.352539,-0.773438,0.417969,0
56140,0.369629,-0.77832,0.41748,0
56160,0.366699,-0.775391,0.426758,0
56180,0.382812,-0.775879,0.411621,0
56200,0.38916,-0.759766,0.419434,0
56220,0.362793,-0.771484,0.398438,0
56240,0.393555,-0.775879,0.40625,0
56260,0.452148,-0.785645,0.403809,0
56280,0.42627,-0.755371,0.410645,0
56300,0.393555,-0.742188,0.427734,0
56320,0.407715,-0.755859,0.416016,0
56340,0.397949,-0.74707,0.419922,0
56360,0.397949,-0.736816,0.431641,0
56380,0.40625,-0.741699,0.442871,0
56400,0.415039,-0.766113,0.418457,0
56420,0.407227,-0.765137,0.410156,0
56440,0.44043,-0.766602,0.400391,0
56460,0.480469,-0.76709,0.397461,0
56480,0.480469,-0.759277,0.379395,0
56500,0.492188,-0.753906,0.37793,0
56520,0.512695,-0.757812,0.383301,0
56540,0.527832,-0.739746,0.375488,0
56560,0.518555,-0.734375,0.380859,0
56580,0.486816,-0.755371,0.414062,0
56600,0.455566,-0.752441,0.408691,0
56620,0.455078,-0.740723,0.433105,0
56640,0.495605,-0.747559,0.428711,0
56660,0.460449,-0.729492,0.473633,0
56680,0.354492,-0.754883,0.43457,0
56700,0.348145,-0.742676,0.44043,0
56720,0.35498,-0.719238,0.462891,0
56740,0.344727,-0.740234,0.46875,0
56760,0.324707,-0.737305,0.467773,0
56780,0.306152,-0.75293,0.438477,0
56800,0.326172,-0.779785,0.43457,0
56820,0.329102,-0.769043,0.443848,2000
56840,0.291992,-0.756836,0.445312,0
56860,0.301758,-0.766602,0.412109,0
56880,0.337891,-0.765625,0.426758,0
56900,0.350586,-0.776855,0.416992,0
56920,0.327148,-0.782227,0.438477,0
56940,0.310059,-0.79248,0.414062,0
56960,0.332031,-0.795898,0.402344,0
56980,0.356934,-0.799805,0.408691,0
57000,0.351562,-0.788574,0.394531,0
57020,0.322266,-0.799316,0.404785,0
57040,0.295898,-0.803711,0.402832,0
57060,0.32373,-0.811035,0.399414,0
57080,0.319336,-0.799805,0.395996,0
57100,0.325684,-0.778809,0.419922,0
57120,0.297852,-0.785645,0.403809,0
57140,0.32666,-0.796387,0.414551,0
57160,0.321289,-0.807617,0.436035,0
57180,0.36377,-0.791504,0.409668,0
57200,0.331055,-0.803223,0.417969,0
57220,0.355469,-0.805176,0.413574,0
57240,0.33252,-0.781738,0.424805,0
57250,0.33252,-0.794434,0.405273,0
57270,0.343262,-0.808594,0.421387,0
57290,0.34375,-0.786621,0.434082,0
57310,0.31543,-0.777832,0.41748,0
57330,0.317383,-0.775391,0.443359,0
57350,0.313477,-0.776367,0.445801,0
57370,0.304199,-0.785645,0.441895,0
57390,0.28418,-0.766602,0.439941,0
57410,0.303223,-0.756348,0.444824,0
57430,0.335938,-0.780762,0.428711,0
57450,0.34668,-0.762207,0.412109,0
57470,0.331055,-0.782715,0.417969,0
57490,0.341797,-0.787109,0.42627,0
57510,0.345215,-0.806152,0.413574,0
57530,0.356445,-0.777832,0.39209,0
57550,0.349609,-0.779297,0.395508,0
57570,0.36377,-0.792969,0.408691,0
57590,0.363281,-0.777832,0.415039,0
57610,0.332031,-0.785156,0.402832,0
57630,0.332031,-0.785156,0.401367,0
57650,0.351562,-0.768555,0.428223,0
57670,0.351074,-0.76416,0.426758,0
57690,0.353516,-0.76123,0.405762,0
57710,0.394531,-0.777832,0.383789,0
57730,0.399902,-0.771973,0.404297,0
57750,0.395508,-0.77832,0.411621,0
57770,0.42041,-0.787598,0.396973,0
57790,0.432129,-0.783203,0.394531,0
57810,0.394531,-0.774414,0.401367,0
57830,0.390625,-0.773438,0.416016,0
57850,0.380371,-0.751953,0.396973,0
57870,0.404785,-0.758301,0.397949,0
57890,0.392578,-0.759277,0.415039,0
57910,0.380371,-0.745605,0.41748,0
57930,0.384766,-0.736328,0.408691,0
57950,0.385742,-0.748535,0.414062,0
57970,0.388672,-0.727051,0.414062,0
57990,0.415527,-0.73584,0.412598,0
58010,0.41748,-0.745605,0.397461,0
58030,0.417969,-0.74707,0.400391,0
58050,0.40918,-0.731934,0.428711,0
58070,0.432617,-0.727539,0.433105,0
58090,0.451172,-0.725098,0.409668,0
58110,0.452148,-0.723145,0.404785,0
58130,0.464844,-0.72168,0.413086,0
58150,0.474121,-0.71875,0.397461,0
58170,0.486328,-0.724121,0.405762,0
58190,0.498535,-0.71875,0.413086,0
58210,0.489258,-0.714355,0.408691,0
58230,0.495605,-0.70752,0.415039,0
58250,0.483398,-0.687012,0.419922,0
58270,0.498535,-0.686523,0.40918,0
58290,0.516113,-0.69043,0.397461,0
58310,0.495117,-0.687988,0.373047,0
58330,0.510742,-0.689941,0.396973,0
58350,0.523438,-0.689941,0.410156,0
58370,0.536133,-0.677246,0.401855,0
58390,0.532715,-0.674805,0.412598,0
58410,0.525879,-0.666992,0.397949,0
58430,0.532227,-0.662109,0.391113,0
58450,0.535645,-0.649414,0.398926,0
58470,0.541016,-0.640137,0.393066,0
58490,0.554688,-0.633789,0.38916,0
58510,0.559082,-0.626953,0.388184,0
58530,0.571777,-0.629395,0.37793,0
58550,0.585938,-0.626953,0.373047,0
58570,0.592773,-0.615723,0.380371,0
58590,0.617188,-0.605957,0.387695,0
58610,0.625,-0.601562,0.37793,0
58630,0.634277,-0.596191,0.370605,0
58650,0.637695,-0.597168,0.374023,0
58670,0.653809,-0.588867,0.371094,0
58690,0.665039,-0.583008,0.366699,0
58710,0.659668,-0.574707,0.368652,0
58730,0.654297,-0.561035,0.380859,0
58750,0.654785,-0.547852,0.375488,0
58770,0.660645,-0.543457,0.384277,0
58790,0.689453,-0.538086,0.382324,0
58810,0.683594,-0.538086,0.392578,0
58830,0.683105,-0.521484,0.401855,0
58850,0.689453,-0.519043,0.394043,0
58870,0.71582,-0.525391,0.395508,0
58890,0.687988,-0.509277,0.417969,0
58910,0.719727,-0.510742,0.419922,0
58930,0.711426,-0.48291,0.419434,0
58950,0.709961,-0.484375,0.419434,0
58970,0.702148,-0.481445,0.422852,0
58990,0.70752,-0.467773,0.425293,0
59010,0.722656,-0.454102,0.42041,0
59030,0.73291,-0.460449,0.427246,0
59050,0.709961,-0.461426,0.440918,0
59070,0.698242,-0.455566,0.445312,0
59090,0.723633,-0.447754,0.457031,0
59110,0.723145,-0.454102,0.444824,0
59130,0.727539,-0.447754,0.45166,0
59150,0.692871,-0.430664,0.477051,0
59170,0.683105,-0.41748,0.506348,0
59190,0.669434,-0.404297,0.509277,0
59210,0.695801,-0.404297,0.502441,0
59230,0.700684,-0.401367,0.5,0
59240,0.64209,-0.394043,0.524414,0
59260,0.633789,-0.394043,0.525391,0
59280,0.665039,-0.416016,0.532715,0
59300,0.642578,-0.407227,0.544922,0
59320,0.631348,-0.401855,0.562012,0
59340,0.634766,-0.426758,0.575684,0
59360,0.601074,-0.406738,0.580566,0
59380,0.626953,-0.407227,0.581055,0
59400,0.634277,-0.427246,0.580566,0
59420,0.58252,-0.415527,0.584473,0
59440,0.598633,-0.399902,0.586914,0
59460,0.606934,-0.405762,0.575195,0
59470,0.61377,-0.444336,0.573242,0
59490,0.619141,-0.418945,0.599121,0
59510,0.570312,-0.398926,0.59082,0
59530,0.593262,-0.383301,0.592773,0
59550,0.632324,-0.382324,0.574707,0
59570,0.592773,-0.401855,0.606934,0
59590,0.536133,-0.39502,0.609863,0
59610,0.585449,-0.384277,0.586426,0
59630,0.638184,-0.398926,0.618164,0
59650,0.608887,-0.398438,0.610352,0
59670,0.552246,-0.412598,0.599609,0
59690,0.540527,-0.39502,0.595703,0
59710,0.565918,-0.384766,0.610352,0
59730,0.587891,-0.374512,0.625,0
59750,0.608887,-0.416504,0.613281,0
59770,0.553711,-0.39209,0.609375,0
59790,0.520996,-0.391602,0.618652,0
59810,0.552246,-0.39502,0.616211,0
59830,0.569824,-0.413086,0.619629,0
59850,0.551758,-0.412598,0.637695,0
59870,0.506836,-0.402832,0.644043,0
59890,0.496094,-0.410156,0.61377,0
59910,0.532227,-0.410645,0.617676,0
59930,0.542969,-0.435547,0.627441,0
59950,0.508301,-0.429199,0.650879,0
59970,0.462402,-0.431641,0.638672,0
59990,0.506348,-0.433105,0.617676,0
60010,0.521973,-0.446777,0.62793,0
60030,0.489258,-0.428711,0.631348,0
60050,0.425293,-0.460449,0.630371,0
60070,0.451172,-0.476562,0.618164,0
60090,0.504883,-0.498047,0.657715,0
60110,0.51709,-0.518066,0.614746,0
60130,0.473145,-0.48877,0.631348,0
60150,0.409668,-0.500488,0.665527,0
60170,0.441895,-0.53125,0.655762,0
60190,0.500488,-0.537598,0.64209,0
60210,0.447266,-0.483887,0.651367,0
60230,0.371094,-0.507324,0.65332,0
60250,0.408203,-0.530762,0.649902,0
60270,0.450684,-0.52002,0.667969,0
60290,0.428711,-0.500977,0.666992,0
60310,0.390137,-0.487305,0.62793,0
60330,0.396973,-0.520996,0.621582,0
60350,0.40625,-0.534668,0.646484,0
60370,0.418945,-0.506836,0.643066,0
60390,0.4375,-0.516602,0.62793,0
60410,0.404785,-0.518555,0.619629,0
60430,0.381348,-0.532715,0.641602,0
60450,0.403809,-0.531738,0.641113,0
60470,0.391602,-0.533203,0.643066,0
60490,0.391602,-0.556152,0.607422,0
60510,0.403809,-0.569336,0.625488,0
60530,0.404297,-0.557129,0.649414,0
60550,0.385742,-0.563477,0.613281,0
60570,0.407227,-0.574707,0.588379,0
60590,0.408203,-0.57373,0.60791,0
60610,0.378418,-0.566406,0.618652,0
60630,0.368652,-0.57666,0.598633,0
60650,0.401367,-0.59082,0.577637,0
60670,0.40625,-0.60498,0.587891,0
60690,0.388672,-0.593262,0.599121,0
60710,0.383301,-0.597168,0.571777,0
60730,0.382812,-0.603027,0.564453,0
60750,0.380371,-0.617676,0.567871,0
60770,0.386719,-0.613281,0.571777,0
60790,0.381836,-0.615234,0.549805,0
60810,0.373047,-0.62207,0.544922,0
60830,0.378906,-0.642578,0.534668,0
60850,0.401367,-0.654297,0.537109,0
60870,0.39502,-0.641113,0.539551,0
60890,0.381836,-0.639648,0.528809,0
60910,0.39502,-0.666504,0.530762,0
60930,0.393555,-0.671875,0.519043,0
60950,0.391602,-0.666016,0.518066,0
60970,0.418457,-0.683594,0.515625,0
60990,0.401367,-0.675781,0.520508,0
61010,0.371582,-0.685547,0.496094,0
61030,0.388672,-0.688965,0.494141,0
61050,0.401855,-0.689941,0.495117,0
61070,0.387695,-0.676758,0.501953,0
61090,0.379883,-0.701172,0.474121,0
61110,0.379395,-0.723145,0.462891,0
61130,0.367676,-0.708984,0.470215,0
61150,0.380371,-0.699707,0.463379,0
61170,0.411133,-0.721191,0.45459,0
61190,0.426758,-0.734863,0.43457,0
61210,0.387695,-0.711914,0.443848,0
61230,0.384277,-0.708496,0.453613,0
61250,0.438965,-0.718262,0.42334,0
61270,0.458008,-0.71875,0.411621,0
61290,0.432129,-0.735352,0.402832,0
61310,0.451172,-0.733887,0.404785,0
61330,0.501465,-0.726562,0.404297,0
61350,0.489746,-0.716797,0.380859,0
61370,0.486328,-0.728516,0.358887,0
61390,0.506348,-0.720215,0.350586,0
61410,0.512207,-0.712891,0.371094,0
61430,0.527344,-0.717773,0.351074,0
61450,0.527344,-0.725098,0.321289,0
61470,0.53125,-0.720703,0.321777,0
61490,0.550781,-0.702148,0.362305,0
61510,0.57959,-0.692871,0.340332,0
61530,0.584473,-0.704102,0.275879,0
61550,0.563965,-0.699219,0.277832,0
61570,0.567383,-0.708984,0.297363,0
61590,0.570312,-0.672852,0.28125,0
61610,0.584961,-0.690918,0.241211,0
61630,0.611816,-0.705566,0.222656,0
61650,0.611328,-0.687988,0.248535,0
61670,0.661621,-0.635254,0.245117,0
61690,0.663574,-0.660645,0.219727,0
61710,0.697266,-0.65625,0.181152,0
61730,0.644531,-0.625,0.238281,0
61750,0.634766,-0.59375,0.249023,0
61770,0.720703,-0.64502,0.192383,0
61790,0.701172,-0.617188,0.20166,0
61810,0.743164,-0.576172,0.238281,0
61830,0.728516,-0.565918,0.208984,0
61850,0.736816,-0.5625,0.178223,0
61870,0.774902,-0.551758,0.164062,0
61890,0.802734,-0.524902,0.196289,0
61910,0.803223,-0.488281,0.199707,0
61930,0.836914,-0.494629,0.152344,0
61950,0.862305,-0.487305,0.147461,0
61970,0.837891,-0.472656,0.160156,0
61990,0.843262,-0.439941,0.162598,0
62010,0.866211,-0.404297,0.162598,0
62030,0.88916,-0.388184,0.130859,0
62050,0.89502,-0.371582,0.145996,0
62070,0.871094,-0.350098,0.169434,0
62090,0.893066,-0.305176,0.177246,0
62110,0.900879,-0.27002,0.178711,0
62130,0.888184,-0.254395,0.183105,0
62150,0.881836,-0.230469,0.20166,0
62170,0.866699,-0.209473,0.203125,0
62190,0.886719,-0.19873,0.19873,0
62210,0.887695,-0.195801,0.205566,0
62230,0.885254,-0.189453,0.216797,0
62250,0.88623,-0.168945,0.247559,0
62270,0.891602,-0.163086,0.241699,0
62290,0.936035,-0.160645,0.241211,0
62310,0.924805,-0.143066,0.288574,0
62330,0.894531,-0.117676,0.294434,0
62350,0.912109,-0.119141,0.275391,0
62370,0.944824,-0.116699,0.27002,0
62390,0.923828,-0.111816,0.287598,0
62410,0.881836,-0.104004,0.313965,0
62430,0.884277,-0.0878906,0.322754,0
62450,0.904297,-0.106445,0.321777,0
62470,0.88916,-0.0859375,0.342773,0
62490,0.853027,-0.0776367,0.363281,0
62510,0.837891,-0.0771484,0.379883,0
62530,0.868164,-0.0976562,0.397461,0
62550,0.883789,-0.113281,0.415527,0
62570,0.854004,-0.0883789,0.412109,0
62590,0.845703,-0.0854492,0.412109,0
62610,0.837891,-0.0766602,0.424316,0
62620,0.876953,-0.0986328,0.412598,0
62640,0.887695,-0.148438,0.440918,0
62660,0.772461,-0.114258,0.450684,0
62680,0.714355,-0.131836,0.469727,0
62700,0.773438,-0.137207,0.452637,0
62720,0.857422,-0.137207,0.450195,0
62740,0.825195,-0.15918,0.489746,0
62760,0.696289,-0.148438,0.494629,0
62780,0.726562,-0.175781,0.476074,0
62800,0.799805,-0.180176,0.48584,0
62820,0.810059,-0.209473,0.527344,0
62840,0.690918,-0.20752,0.523926,0
62860,0.629395,-0.216797,0.516113,0
62880,0.733887,-0.202148,0.523926,0
62900,0.758789,-0.209961,0.526367,0
62920,0.725098,-0.216309,0.53125,0
62940,0.687988,-0.226562,0.526367,0
62960,0.650391,-0.245117,0.554199,0
62980,0.691406,-0.266113,0.546875,0
63000,0.733398,-0.259277,0.538086,0
63020,0.678223,-0.25293,0.547852,0
63040,0.619141,-0.255859,0.580078,0
63060,0.683594,-0.305176,0.570312,0
63080,0.733887,-0.28418,0.585938,0
63100,0.698242,-0.290039,0.609863,0
63120,0.643555,-0.306152,0.609863,0
63140,0.643066,-0.30957,0.597656,0
63160,0.679199,-0.297363,0.626465,0
63180,0.664062,-0.290527,0.64209,0
63200,0.621094,-0.319824,0.603027,0
63220,0.600586,-0.352539,0.598145,0
63240,0.613281,-0.349121,0.625977,0
63260,0.618164,-0.339355,0.59082,0
63280,0.603516,-0.339355,0.586914,0
63300,0.54834,-0.345703,0.594727,0
63320,0.567871,-0.364258,0.612793,0
63340,0.61084,-0.379883,0.628418,0
63360,0.593262,-0.378418,0.613281,0
63380,0.552734,-0.375488,0.625977,0
63400,0.566895,-0.391113,0.610352,0
63420,0.579102,-0.405762,0.606445,0
63440,0.564941,-0.408203,0.574219,0
63460,0.581543,-0.407715,0.580566,0
63480,0.558594,-0.39209,0.637207,0
63500,0.516113,-0.413086,0.598633,0
63520,0.54834,-0.436523,0.563477,0
63540,0.56543,-0.432129,0.55127,0
63560,0.54541,-0.438965,0.570801,0
63580,0.523438,-0.467773,0.552246,0
63600,0.54248,-0.468262,0.540039,0
63620,0.535645,-0.478516,0.537109,0
63640,0.556641,-0.497559,0.53418,0
63660,0.536621,-0.507324,0.534668,0
63680,0.508301,-0.520508,0.518066,0
63700,0.535156,-0.526855,0.513672,0
63720,0.560547,-0.532227,0.50293,0
63740,0.529785,-0.54541,0.500977,0
63760,0.53125,-0.571289,0.489746,0
63780,0.554199,-0.57373,0.473145,0
63800,0.55127,-0.578125,0.48291,0
63820,0.550781,-0.581055,0.469238,0
63840,0.55957,-0.584473,0.451172,0
63860,0.563965,-0.599121,0.427734,0
63880,0.546875,-0.621582,0.435547,0
63900,0.557617,-0.624023,0.439453,0
63920,0.561523,-0.625488,0.416992,0
63940,0.570312,-0.63623,0.413574,0
63960,0.57666,-0.622559,0.418457,0
63980,0.571289,-0.611816,0.414062,0
64000,0.545898,-0.63623,0.402832,0
64020,0.53125,-0.647461,0.376953,0
64040,0.569824,-0.643066,0.37207,0
64060,0.601074,-0.62207,0.374512,0
64080,0.601562,-0.61377,0.371582,0
64100,0.62207,-0.63623,0.360352,0
64120,0.65918,-0.651855,0.366211,0
64140,0.660156,-0.608398,0.358887,0
64160,0.675293,-0.609375,0.310547,0
64180,0.727051,-0.602051,0.303711,0
64200,0.75293,-0.600098,0.304199,0
64220,0.735352,-0.601562,0.279297,0
64240,0.722656,-0.607422,0.253418,0
64260,0.722656,-0.587402,0.226562,0
64280,0.753906,-0.568848,0.189453,0
64300,0.809082,-0.552734,0.19043,0
64320,0.791992,-0.520508,0.167969,0
64340,0.744629,-0.521484,0.167969,0
64360,0.745117,-0.506836,0.165527,0
64380,0.805664,-0.506348,0.124023,0
64400,0.844727,-0.463867,0.0947266,0
64420,0.807617,-0.429688,0.0541992,0
64440,0.787598,-0.460449,0.0820312,0
64460,0.78418,-0.471191,0.0605469,0
64480,0.851074,-0.453613,0.0234375,0
64500,0.950684,-0.432617,-0.00585938,0
64520,0.887207,-0.417969,-0.0136719,0
64540,0.856934,-0.393555,0.00976562,0
64560,0.918457,-0.383789,-0.0239258,0
64570,0.939941,-0.377441,-0.0107422,0
64590,0.884766,-0.32666,-0.0297852,0
64610,0.898926,-0.328613,-0.0571289,0
64630,0.885254,-0.293457,-0.00244141,0
64650,0.899902,-0.276367,-0.0375977,0
64670,0.939453,-0.257324,-0.0390625,0
64690,0.904785,-0.211426,-0.0239258,0
64710,0.887695,-0.191895,-0.0170898,0
64730,0.922363,-0.183105,-0.0151367,0
64750,0.936035,-0.130371,0.00830078,0
64770,0.969727,-0.142578,0.000488281,0
64790,0.942383,-0.121582,-0.00390625,0
64810,0.914062,-0.102051,0.0195312,0
64830,0.923828,-0.0869141,0.0522461,0
64850,0.949219,-0.0913086,0.0561523,0
64870,0.952148,-0.078125,0.0825195,0
64890,0.926758,-0.059082,0.078125,0
64910,0.954102,-0.0483398,0.0810547,0
64930,0.955566,-0.0146484,0.0888672,0
64950,0.963379,-0.0263672,0.10498,0
64970,0.979492,-0.0219727,0.111328,0
64990,0.974121,-0.0214844,0.111328,0
65010,0.930664,0,0.152832,0
65030,0.955078,-0.00634766,0.135742,0
65050,0.970703,0.00878906,0.147461,0
65070,0.963867,0.027832,0.174316,0
65090,0.958984,0.0175781,0.171875,0
65110,0.916504,0.0102539,0.201172,0
65130,0.898926,-0.00244141,0.216309,0
65150,0.940918,0.00146484,0.229492,0
65170,0.975586,0.0141602,0.236328,0
65190,0.956543,0.0078125,0.24707,0
65210,0.908691,-0.0336914,0.274414,0
65230,0.87793,-0.0327148,0.283203,0
65250,0.895508,-0.00732422,0.296875,0
65270,0.914551,0.00732422,0.26709,0
65290,0.891113,-0.00488281,0.275879,0
65310,0.895508,0.00634766,0.340332,0
65330,0.928711,-0.00195312,0.337891,0
65350,0.931152,0.00341797,0.311035,0
65370,0.874512,-0.00976562,0.331543,0
65390,0.835449,-0.0107422,0.39502,0
65410,0.872559,-0.0307617,0.387207,0
65430,0.89209,-0.0117188,0.360352,0
65450,0.867188,-0.0102539,0.344238,0
65470,0.781738,-0.0473633,0.391602,0
65490,0.800781,-0.0698242,0.430664,0
65510,0.868652,-0.0439453,0.399414,0
65530,0.860352,-0.0444336,0.38916,0
65550,0.833008,-0.0717773,0.419434,0
65570,0.814941,-0.0947266,0.431152,0
65590,0.835449,-0.0854492,0.430664,0
65610,0.848633,-0.0957031,0.421387,0
65630,0.830078,-0.115723,0.451172,0
65650,0.79248,-0.13623,0.472656,0
65670,0.800781,-0.160156,0.453125,0
65690,0.845215,-0.126465,0.450684,0
65710,0.812988,-0.130859,0.479004,0
65730,0.769043,-0.19873,0.48584,0
65750,0.757324,-0.216309,0.523926,0
65770,0.757812,-0.179199,0.504883,0
65790,0.755371,-0.183105,0.507324,0
65810,0.762695,-0.201172,0.522461,0
65830,0.77002,-0.216309,0.525879,0
65850,0.731934,-0.220703,0.502441,0
65870,0.736816,-0.254395,0.500488,0
65890,0.724121,-0.253906,0.503906,0
65910,0.689453,-0.241211,0.520508,0
65930,0.711426,-0.243164,0.497559,0
65950,0.675781,-0.241699,0.503906,0
65970,0.708008,-0.27832,0.471191,0
65990,0.73291,-0.29541,0.48877,0
66010,0.712402,-0.29248,0.484375,0
66030,0.754395,-0.282715,0.449707,0
66050,0.755371,-0.289551,0.457031,0
66070,0.703613,-0.305176,0.512695,0
66090,0.685059,-0.304199,0.512695,0
66110,0.689453,-0.310059,0.507324,0
66130,0.674316,-0.337402,0.501465,0
66150,0.681152,-0.359375,0.530273,0
66170,0.675293,-0.350098,0.527832,0
66190,0.666992,-0.356934,0.496582,0
66210,0.681641,-0.357422,0.478516,0
66230,0.705566,-0.374023,0.521484,0
66250,0.668945,-0.393555,0.524414,0
66270,0.623535,-0.431641,0.512695,0
66290,0.600098,-0.435059,0.509766,0
66310,0.643555,-0.438965,0.507812,0
66330,0.64502,-0.435547,0.487793,0
66350,0.666016,-0.434082,0.483887,0
66370,0.631836,-0.467285,0.481934,0
66390,0.663086,-0.479492,0.445312,0
66410,0.692383,-0.452148,0.427246,0
66430,0.675293,-0.470215,0.440918,0
66450,0.679688,-0.489258,0.445801,0
66470,0.635742,-0.475586,0.472168,0
66490,0.63916,-0.505371,0.476562,0
66510,0.648438,-0.518555,0.487305,0
66530,0.629395,-0.520996,0.476562,0
66550,0.627441,-0.526367,0.46875,0
66570,0.631836,-0.524414,0.423828,0
66590,0.645996,-0.530273,0.399902,0
66610,0.6875,-0.533203,0.398926,0
66630,0.657715,-0.538574,0.393555,0
66650,0.67334,-0.532715,0.389648,0
66670,0.674805,-0.549805,0.40918,0
