Timestamp, Acceleration x, Acceleration y, Acceleration z, Marker
30,0.264648,-0.62793,0.610352,0
60,0.255371,-0.634277,0.641602,0
80,0.279297,-0.633789,0.628906,0
100,0.31543,-0.628418,0.609375,0
120,0.30127,-0.623535,0.569824,0
140,0.269531,-0.61377,0.625,0
160,0.302734,-0.615234,0.63916,0
180,0.307617,-0.613281,0.617676,0
200,0.309082,-0.625488,0.586914,0
220,0.291504,-0.661133,0.604004,0
220,0.294922,-0.654297,0.62207,0
220,0.322266,-0.650879,0.59668,0
270,0.303223,-0.638672,0.615234,0
290,0.307617,-0.652832,0.63623,0
310,0.310059,-0.647461,0.608887,0
330,0.319824,-0.658203,0.59082,0
350,0.295898,-0.63623,0.641602,0
370,0.297363,-0.634277,0.626465,0
390,0.316406,-0.61377,0.628906,0
410,0.314453,-0.603516,0.600098,0
430,0.319336,-0.610352,0.587402,0
450,0.306641,-0.629883,0.632324,0
470,0.338379,-0.606445,0.647949,0
490,0.362305,-0.604004,0.619629,0
510,0.362793,-0.579102,0.626465,0
530,0.374512,-0.593262,0.634766,0
550,0.361816,-0.597168,0.635742,0
570,0.373047,-0.596191,0.633789,0
590,0.388672,-0.598145,0.63916,0
610,0.393555,-0.602539,0.625977,0
630,0.375,-0.569824,0.632812,0
650,0.369141,-0.565918,0.604004,0
670,0.391602,-0.574707,0.630859,0
690,0.362793,-0.577637,0.652344,0
710,0.356934,-0.534668,0.648926,0
730,0.339355,-0.539062,0.625488,0
750,0.339355,-0.533691,0.650879,0
770,0.361816,-0.538086,0.679688,0
790,0.37207,-0.549316,0.679199,0
810,0.385742,-0.542969,0.607422,0
830,0.423828,-0.572266,0.547852,0
850,0.40625,-0.578125,0.581543,0
870,0.365723,-0.561035,0.614746,0
890,0.39209,-0.546875,0.591309,0
910,0.42627,-0.546387,0.602539,0
920,0.388184,-0.526855,0.628418,0
940,0.374023,-0.53125,0.63623,0
960,0.38623,-0.553223,0.642578,0
980,0.400391,-0.600098,0.612305,0
1000,0.379883,-0.598633,0.620605,0
1020,0.371094,-0.581543,0.629883,0
1040,0.38916,-0.602051,0.628418,0
1060,0.377441,-0.628906,0.660645,0
1080,0.37793,-0.60791,0.656738,0
1100,0.38916,-0.63916,0.594727,0
1120,0.390137,-0.628906,0.609375,0
1140,0.365723,-0.640625,0.603516,0
1160,0.331543,-0.619629,0.61084,0
1180,0.348633,-0.603516,0.651367,0
1200,0.361816,-0.625977,0.600586,0
1220,0.361328,-0.618164,0.611816,0
1240,0.362305,-0.645508,0.60498,0
1260,0.371582,-0.621582,0.623535,0
1280,0.377441,-0.616699,0.586426,0
1300,0.371582,-0.601074,0.598145,0
1320,0.380859,-0.604492,0.599121,0
1340,0.397949,-0.614746,0.60791,0
1360,0.40332,-0.626465,0.58252,0
1380,0.379395,-0.611816,0.574707,0
1400,0.350586,-0.608887,0.595703,0
1420,0.3125,-0.628906,0.650391,0
1440,0.337402,-0.617676,0.6875,0
1460,0.36084,-0.621094,0.653809,0
1480,0.367676,-0.614746,0.601074,0
1500,0.347656,-0.583008,0.566895,0
1520,0.333496,-0.544434,0.61084,0
1540,0.352539,-0.566406,0.666016,0
1560,0.385254,-0.60791,0.64209,0
1580,0.401367,-0.609863,0.630371,0
1600,0.38623,-0.576172,0.621582,0
1620,0.39209,-0.52832,0.616699,0
1640,0.392578,-0.563477,0.622559,0
1660,0.380371,-0.575684,0.630859,0
1680,0.371094,-0.589844,0.640625,0
1700,0.407227,-0.584473,0.644531,0
1720,0.398926,-0.567383,0.627441,0
1740,0.383789,-0.54834,0.635742,0
1760,0.401855,-0.562012,0.633789,0
1780,0.404785,-0.566406,0.633789,0
1800,0.39209,-0.561523,0.647949,0
1820,0.401367,-0.554199,0.634766,0
1840,0.396973,-0.560059,0.611816,0
1860,0.396973,-0.550293,0.61084,0
1880,0.383301,-0.574219,0.614258,0
1900,0.390137,-0.57666,0.619141,0
1920,0.389648,-0.567871,0.630859,0
1940,0.387695,-0.570312,0.609863,0
1960,0.375488,-0.581055,0.606934,0
1980,0.367676,-0.575684,0.605957,0
2000,0.376953,-0.592773,0.62207,0
2020,0.381836,-0.597168,0.617676,0
2040,0.397949,-0.614746,0.587402,0
2060,0.396973,-0.593262,0.585449,0
2080,0.386719,-0.591797,0.575684,0
2100,0.386719,-0.613281,0.574219,0
2120,0.392578,-0.62793,0.60498,0
2140,0.389648,-0.63623,0.606934,0
2160,0.41748,-0.620117,0.575195,0
2180,0.402832,-0.635254,0.563965,0
2200,0.387207,-0.635742,0.585938,0
2220,0.394043,-0.60791,0.56543,0
2240,0.399902,-0.614746,0.570801,0
2260,0.405762,-0.635254,0.578125,0
2280,0.408203,-0.626465,0.581543,0
2300,0.418945,-0.606934,0.538574,0
2320,0.408691,-0.615723,0.5625,0
2340,0.415039,-0.64209,0.547852,0
2360,0.40918,-0.64209,0.540039,0
2380,0.411133,-0.664551,0.520996,0
2400,0.406738,-0.655762,0.526855,0
2420,0.400879,-0.665527,0.537598,0
2440,0.414551,-0.650391,0.558594,0
2460,0.421875,-0.662109,0.540039,0
2480,0.437012,-0.660156,0.515137,0
2500,0.446777,-0.634277,0.51709,0
2520,0.435059,-0.65625,0.521484,0
2540,0.370117,-0.648438,0.561523,0
2560,0.332031,-0.600586,0.560547,0
2580,0.340332,-0.614258,0.537598,0
2600,0.390625,-0.63916,0.587891,0
2620,0.380371,-0.651855,0.549316,0
2640,0.347656,-0.652344,0.513184,0
2660,0.342773,-0.646973,0.52002,0
2680,0.356934,-0.667969,0.520508,0
2700,0.354492,-0.666504,0.523438,0
2720,0.338379,-0.662598,0.512207,0
2740,0.330566,-0.652344,0.512695,0
2760,0.332031,-0.675781,0.507324,0
2780,0.320312,-0.696777,0.507812,0
2800,0.30127,-0.720703,0.523438,0
2820,0.275391,-0.739746,0.525879,0
2840,0.291992,-0.73584,0.503906,0
2860,0.282715,-0.750977,0.508301,0
2880,0.236816,-0.790039,0.519043,0
2900,0.209961,-0.807617,0.512207,0
2910,0.17627,-0.854492,0.502441,0
2920,0.161621,-0.868652,0.496094,0
2930,0.154297,-0.858398,0.493652,0
2960,0.141113,-0.869629,0.49707,0
2980,0.125,-0.855957,0.5,0
3000,0.135254,-0.858887,0.498047,0
3020,0.144043,-0.850098,0.500488,0
3040,0.129395,-0.845215,0.502441,0
3070,0.125488,-0.802246,0.493164,0
3090,0.122559,-0.800781,0.498047,0
3110,0.143066,-0.754883,0.509766,0
3130,0.140625,-0.756836,0.509766,0
3150,0.146973,-0.754883,0.538086,0
3170,0.179688,-0.759277,0.53125,0
3190,0.200684,-0.779785,0.520508,0
3210,0.192871,-0.791504,0.483398,0
3230,0.171387,-0.785645,0.488281,0
3240,0.164551,-0.792969,0.499023,0
3270,0.169434,-0.794922,0.510254,0
3290,0.15332,-0.802246,0.519043,0
3310,0.154785,-0.803223,0.511719,0
3320,0.155762,-0.813965,0.516602,0
3330,0.15625,-0.79834,0.521484,0
3350,0.163574,-0.79248,0.51709,0
3370,0.17041,-0.786133,0.515137,0
3380,0.171387,-0.775391,0.513672,0
3400,0.160645,-0.78125,0.515137,0
3420,0.15918,-0.773438,0.510254,0
3460,0.167969,-0.778809,0.52002,0
3480,0.160156,-0.783691,0.51416,0
3480,0.160645,-0.771484,0.520508,0
3500,0.161621,-0.788086,0.520996,0
3520,0.148926,-0.779785,0.515137,0
3540,0.144531,-0.777832,0.524414,0
3560,0.15332,-0.772461,0.539062,0
3580,0.148438,-0.782227,0.530762,0
3620,0.144043,-0.795898,0.527832,0
3650,0.140625,-0.817383,0.550781,0
3660,0.123047,-0.793945,0.520996,0
3680,0.125,-0.789062,0.519531,0
3700,0.120605,-0.810547,0.538086,0
3720,0.164062,-0.800781,0.503906,0
3730,0.195801,-0.813477,0.465332,0
3750,0.22998,-0.809082,0.488281,0
3770,0.233887,-0.793457,0.518555,0
3790,0.244141,-0.744141,0.509277,0
3820,0.270996,-0.727051,0.500977,0
3840,0.284668,-0.725586,0.535645,0
3860,0.303711,-0.717285,0.53125,0
3880,0.331543,-0.69873,0.509277,0
3900,0.353516,-0.701172,0.478027,0
3920,0.356445,-0.717773,0.452637,0
3940,0.349609,-0.711426,0.450195,0
3960,0.366211,-0.686035,0.455078,0
3980,0.382324,-0.689453,0.476562,0
4000,0.341309,-0.688477,0.494629,0
4020,0.29834,-0.680664,0.505371,0
4040,0.275879,-0.673828,0.561523,0
4060,0.253906,-0.715332,0.563965,0
4080,0.225586,-0.743652,0.597168,0
4100,0.215332,-0.750977,0.597168,0
4120,0.211426,-0.774902,0.588379,0
4140,0.200684,-0.79248,0.588867,0
4160,0.183594,-0.816406,0.571289,0
4180,0.147461,-0.828613,0.555176,0
4200,0.128418,-0.800293,0.570801,0
4210,0.146484,-0.794434,0.565918,0
4230,0.138672,-0.792969,0.546875,0
4250,0.0981445,-0.761719,0.532715,0
4270,0.0766602,-0.757812,0.512695,0
4290,0.0668945,-0.72168,0.533203,0
4310,0.0878906,-0.694336,0.535645,0
4330,0.141113,-0.742676,0.53418,0
4350,0.144531,-0.752441,0.529785,0
4370,0.114746,-0.731934,0.529785,0
4390,0.143555,-0.763672,0.514648,0
4410,0.145996,-0.778809,0.511719,0
4430,0.0756836,-0.832031,0.532715,0
4450,0.0917969,-0.855957,0.559082,0
4470,0.111816,-0.876953,0.537598,0
4490,0.0913086,-0.863281,0.501465,0
4510,0.0537109,-0.830566,0.494141,0
4530,0.0366211,-0.798828,0.531738,0
4550,0.0375977,-0.820801,0.536133,0
4570,0.0195312,-0.839355,0.521484,0
4590,0.0361328,-0.816895,0.521484,0
4610,0.0439453,-0.793457,0.505859,0
4630,0.0483398,-0.803223,0.466309,0
4650,0.0541992,-0.810059,0.440918,0
4670,0.0385742,-0.812012,0.436523,0
4690,0.0239258,-0.806152,0.450684,0
4710,0.0458984,-0.809082,0.444824,0
4730,0.0751953,-0.832031,0.465332,0
4750,0.0727539,-0.841309,0.490234,0
4770,0.0517578,-0.850098,0.501953,0
4790,0.0297852,-0.845215,0.506836,0
4810,0.0209961,-0.856445,0.515625,0
4830,0.012207,-0.848633,0.526367,0
4850,0.00439453,-0.8125,0.543457,0
4870,0.000488281,-0.798828,0.55957,0
4890,0.00341797,-0.772461,0.556152,0
4910,0.00878906,-0.76709,0.558105,0
4930,-0.0102539,-0.749023,0.561035,0
4950,-0.0078125,-0.729492,0.579102,0
4970,0.000976562,-0.724121,0.580078,0
4990,0.012207,-0.723145,0.57373,0
5010,0.0200195,-0.725586,0.579102,0
5030,0.0078125,-0.718262,0.583008,0
5050,0.0234375,-0.708984,0.602539,0
5070,0.0249023,-0.725586,0.606445,0
5090,0.0375977,-0.733398,0.600586,0
5110,0.0351562,-0.73291,0.593262,0
5130,0.0375977,-0.732422,0.59082,0
5140,0.0371094,-0.722168,0.587402,0
5160,0.0546875,-0.736816,0.589844,0
5180,0.0932617,-0.755859,0.590332,0
5200,0.0893555,-0.759277,0.585449,0
5220,0.0883789,-0.771484,0.595703,0
5240,0.0932617,-0.773926,0.59668,0
5260,0.0932617,-0.77832,0.59082,0
5280,0.109863,-0.763184,0.589844,0
5300,0.117676,-0.75293,0.579102,0
5320,0.11377,-0.73877,0.566895,0
5340,0.125,-0.736328,0.576172,0
5360,0.137695,-0.741699,0.609375,0
5380,0.148438,-0.742188,0.61084,0
5400,0.146973,-0.73584,0.590332,0
5420,0.162598,-0.736328,0.592285,0
5440,0.165527,-0.743652,0.595703,0
5460,0.162598,-0.766602,0.585938,0
5480,0.172852,-0.755371,0.589844,0
5500,0.202148,-0.763672,0.580078,0
5520,0.197754,-0.750977,0.570312,0
5540,0.181152,-0.724121,0.593262,0
5560,0.200195,-0.722168,0.592773,0
5580,0.205078,-0.739746,0.617676,0
5600,0.206543,-0.752441,0.624023,0
5620,0.202148,-0.720215,0.60498,0
5640,0.203125,-0.708008,0.599609,0
5660,0.19043,-0.712402,0.592285,0
5680,0.195312,-0.712402,0.58252,0
5700,0.223633,-0.72168,0.585449,0
5720,0.225586,-0.723145,0.590332,0
5740,0.226074,-0.723633,0.572754,0
5760,0.212891,-0.717285,0.560059,0
5780,0.20752,-0.713379,0.557617,0
5800,0.224121,-0.705566,0.560547,0
5820,0.227051,-0.694824,0.572266,0
5840,0.208008,-0.73584,0.575684,0
5860,0.176758,-0.736816,0.576172,0
5880,0.175781,-0.69873,0.584961,0
5900,0.177734,-0.693359,0.571289,0
5920,0.185059,-0.694824,0.557129,0
5940,0.171387,-0.696777,0.567871,0
5960,0.17041,-0.699707,0.57666,0
5980,0.181641,-0.718262,0.571777,0
6000,0.188477,-0.73877,0.554688,0
6020,0.191895,-0.723633,0.53418,0
6040,0.191895,-0.717285,0.536621,0
6060,0.203613,-0.715332,0.553711,0
6080,0.239746,-0.733887,0.566406,0
6100,0.243164,-0.726562,0.553223,0
6120,0.262207,-0.69873,0.540527,0
6140,0.268066,-0.693848,0.529785,0
6160,0.313965,-0.682617,0.5625,0
6180,0.302246,-0.742676,0.541992,0
6200,0.282715,-0.750977,0.529785,0
6220,0.290527,-0.718262,0.560059,0
6240,0.272461,-0.689453,0.575684,0
6260,0.271973,-0.676758,0.567871,0
6280,0.290039,-0.67334,0.552734,0
6300,0.291992,-0.683105,0.569336,0
6320,0.288574,-0.705566,0.5625,0
6340,0.26709,-0.699219,0.580078,0
6360,0.280762,-0.680664,0.563477,0
6380,0.28418,-0.699219,0.537598,0
6400,0.274414,-0.734375,0.551758,0
6420,0.262695,-0.753418,0.603027,0
6440,0.244629,-0.750977,0.601074,0
6460,0.214355,-0.756348,0.572266,0
6480,0.208984,-0.764648,0.609375,0
6500,0.211426,-0.745117,0.621094,0
6520,0.195801,-0.733398,0.620605,0
6540,0.189453,-0.746582,0.615723,0
6560,0.18457,-0.738281,0.622559,0
6580,0.174316,-0.740234,0.599121,0
6600,0.162109,-0.726074,0.601074,0
6620,0.175293,-0.717773,0.595215,0
6640,0.19043,-0.723633,0.588379,0
6660,0.182129,-0.719238,0.583496,0
6680,0.17627,-0.715332,0.582031,0
6700,0.170898,-0.714355,0.581543,0
6720,0.168945,-0.713867,0.612793,0
6740,0.164551,-0.728516,0.616699,0
6760,0.159668,-0.734863,0.604004,0
6780,0.157227,-0.749023,0.602539,0
6800,0.14209,-0.760742,0.605469,0
6820,0.13623,-0.760254,0.583496,0
6840,0.17041,-0.763672,0.57666,0
6860,0.217285,-0.77002,0.552246,0
6880,0.241211,-0.754395,0.509277,0
6900,0.23291,-0.74707,0.51123,0
6920,0.249512,-0.756348,0.553223,0
6940,0.244141,-0.772461,0.588867,0
6960,0.249512,-0.780273,0.578613,0
6980,0.296387,-0.772461,0.578613,0
7000,0.312012,-0.744629,0.56543,0
7020,0.316895,-0.762207,0.500977,0
7040,0.269043,-0.714355,0.518555,0
7060,0.309082,-0.726562,0.544434,0
7080,0.311035,-0.76709,0.519531,0
7100,0.306152,-0.738281,0.479004,0
7120,0.315918,-0.714355,0.467773,0
7140,0.343262,-0.734863,0.486816,0
7160,0.368652,-0.756836,0.496582,0
7180,0.375488,-0.725586,0.470215,0
7200,0.408691,-0.703613,0.437988,0
7220,0.39502,-0.695312,0.432129,0
7240,0.405762,-0.720703,0.441895,0
7260,0.421875,-0.739258,0.438477,0
7280,0.415527,-0.728516,0.418945,0
7300,0.409668,-0.728027,0.399414,0
7320,0.404297,-0.713379,0.40918,0
7340,0.419434,-0.724121,0.430664,0
7360,0.428223,-0.741699,0.424316,0
7380,0.445801,-0.725098,0.424805,0
7400,0.421875,-0.722656,0.433105,0
7420,0.40918,-0.702637,0.401367,0
7440,0.43457,-0.668457,0.40918,0
7460,0.432617,-0.678711,0.412598,0
7480,0.441895,-0.702637,0.380859,0
7500,0.439941,-0.713867,0.356934,0
7520,0.45752,-0.739746,0.359375,0
7540,0.475098,-0.739258,0.361816,0
7560,0.442871,-0.713379,0.368652,0
7580,0.457031,-0.728027,0.375,0
7600,0.461426,-0.763184,0.357422,0
7620,0.444824,-0.75,0.385254,0
7640,0.456055,-0.754883,0.37793,0
7660,0.456055,-0.746094,0.347656,0
7680,0.45459,-0.741211,0.349121,0
7700,0.456055,-0.746582,0.354004,0
7720,0.445312,-0.760254,0.35498,0
7740,0.431152,-0.784668,0.345215,0
7760,0.427734,-0.779785,0.332031,0
7780,0.446289,-0.800781,0.323242,0
7800,0.45459,-0.828613,0.324219,0
7820,0.438965,-0.845703,0.342773,0
7840,0.433594,-0.861816,0.331543,0
7860,0.433105,-0.86377,0.305176,0
7880,0.385742,-0.804199,0.336914,0
7900,0.360352,-0.780273,0.293945,0
7920,0.348633,-0.779785,0.315918,0
7940,0.339844,-0.779297,0.367188,0
7960,0.336914,-0.785645,0.399902,0
7980,0.329102,-0.803711,0.385742,0
8000,0.324707,-0.806641,0.371094,0
8020,0.335938,-0.787598,0.382812,0
8040,0.339355,-0.788574,0.378418,0
8060,0.344727,-0.799316,0.36377,0
8080,0.356445,-0.788574,0.386719,0
8100,0.367188,-0.79541,0.389648,0
8120,0.370117,-0.780762,0.385742,0
8140,0.36377,-0.775391,0.395508,0
8160,0.37207,-0.773926,0.37793,0
8180,0.372559,-0.787109,0.387695,0
8200,0.392578,-0.790039,0.414551,0
8220,0.410156,-0.792969,0.429688,0
8240,0.408203,-0.79834,0.401367,0
8260,0.406738,-0.783203,0.39209,0
8280,0.388672,-0.767578,0.405762,0
8300,0.393555,-0.786621,0.419922,0
8320,0.392578,-0.810547,0.407715,0
8340,0.379883,-0.787109,0.419434,0
8360,0.38623,-0.776367,0.430664,0
8380,0.398438,-0.746582,0.411133,0
8400,0.382324,-0.756348,0.419922,0
8420,0.369629,-0.776855,0.432617,0
8440,0.356445,-0.778809,0.443359,0
8460,0.358398,-0.76123,0.446289,0
8480,0.36377,-0.764648,0.445801,0
8510,0.367188,-0.763184,0.447754,0
8530,0.390625,-0.766113,0.415039,0
8550,0.360352,-0.789062,0.401855,0
8560,0.346191,-0.793457,0.431152,0
8580,0.357422,-0.789551,0.435059,0
8600,0.374023,-0.811035,0.432129,0
8620,0.385742,-0.781738,0.425293,0
8640,0.366699,-0.761719,0.408691,0
8660,0.356445,-0.74707,0.427734,0
8680,0.357422,-0.758789,0.456543,0
8700,0.387207,-0.799805,0.42334,0
8720,0.383789,-0.776855,0.432617,0
8740,0.360352,-0.758301,0.424805,0
8760,0.34082,-0.751465,0.428711,0
8780,0.34082,-0.794922,0.440918,0
8800,0.376465,-0.80957,0.430664,0
8820,0.35791,-0.772949,0.417969,0
8840,0.354004,-0.736328,0.430176,0
8860,0.355957,-0.736328,0.44873,0
8880,0.355469,-0.756836,0.433105,0
8900,0.347656,-0.771484,0.423828,0
8920,0.340332,-0.765625,0.446289,0
8940,0.327148,-0.739746,0.469238,0
8960,0.339355,-0.739258,0.460938,0
8980,0.360352,-0.747559,0.46875,0
9000,0.355957,-0.742188,0.456543,0
9020,0.345703,-0.763672,0.443848,0
9040,0.361816,-0.752441,0.458984,0
9060,0.368652,-0.781738,0.465332,0
9080,0.365234,-0.791992,0.438965,0
9100,0.358887,-0.765137,0.44043,0
9120,0.345215,-0.743164,0.455566,0
9140,0.35791,-0.760742,0.466309,0
9160,0.350586,-0.787109,0.452148,0
9180,0.333008,-0.774414,0.472656,0
9200,0.353027,-0.76123,0.475586,0
9220,0.376465,-0.757812,0.458496,0
9240,0.353027,-0.753906,0.450684,0
9260,0.351562,-0.750488,0.458984,0
9280,0.361816,-0.756836,0.453613,0
9300,0.348633,-0.768066,0.435547,0
9320,0.328613,-0.772949,0.457031,0
9340,0.324219,-0.757812,0.465332,0
9360,0.347168,-0.787109,0.443848,0
9380,0.365723,-0.779297,0.443848,0
9420,0.334961,-0.743164,0.449219,0
9440,0.344727,-0.762207,0.463867,0
9470,0.349609,-0.771973,0.450684,0
9490,0.344238,-0.750488,0.441895,0
9490,0.335449,-0.754883,0.455078,0
9510,0.34375,-0.771973,0.461426,0
9530,0.354004,-0.778809,0.453125,0
9550,0.339355,-0.76416,0.443359,0
9570,0.337402,-0.765625,0.443848,0
9590,0.353027,-0.769043,0.461426,0
9610,0.348145,-0.766602,0.458008,0
9630,0.359375,-0.773438,0.45166,0
9650,0.360352,-0.76416,0.454102,0
9670,0.339355,-0.764648,0.455078,0
9690,0.342773,-0.767578,0.458008,0
9710,0.34668,-0.757812,0.462891,0
9730,0.348633,-0.769043,0.461914,0
9750,0.358398,-0.755859,0.458496,0
9770,0.355957,-0.752441,0.458496,0
9790,0.35791,-0.753906,0.449707,0
9810,0.348633,-0.747559,0.464355,0
9830,0.356445,-0.788086,0.464844,0
9850,0.350586,-0.768066,0.463379,0
9870,0.360352,-0.755859,0.458496,0
9890,0.379883,-0.75293,0.460449,0
9910,0.374023,-0.760742,0.45752,0
9950,0.361328,-0.760254,0.466797,0
9970,0.388184,-0.768066,0.466309,0
9990,0.402832,-0.772949,0.453613,0
10010,0.394531,-0.773926,0.463867,0
10030,0.382324,-0.736816,0.469727,0
10050,0.390625,-0.740723,0.477539,0
10070,0.39502,-0.774902,0.478516,0
10090,0.401855,-0.776855,0.469238,0
10110,0.413574,-0.765625,0.456055,0
10130,0.428711,-0.763672,0.442871,0
10150,0.414062,-0.759277,0.449219,0
10170,0.402344,-0.775879,0.450195,0
10190,0.41748,-0.763672,0.433594,0
10210,0.415039,-0.744629,0.441406,0
10230,0.413086,-0.728027,0.41748,0
10250,0.418945,-0.73584,0.399414,0
10270,0.432617,-0.738281,0.404785,0
10290,0.443848,-0.743164,0.386719,0
10310,0.440918,-0.723633,0.385254,0
10330,0.449707,-0.705078,0.379883,0
10350,0.444824,-0.691895,0.381836,0
10370,0.427734,-0.691406,0.381836,0
10390,0.434082,-0.692383,0.389648,0
10410,0.445312,-0.697754,0.402832,0
10430,0.456055,-0.702148,0.389648,0
10450,0.45459,-0.702637,0.383789,0
10470,0.437012,-0.693359,0.386719,0
10490,0.444336,-0.685059,0.399414,0
10510,0.45459,-0.711914,0.39209,0
10530,0.453125,-0.729492,0.385742,0
10540,0.456543,-0.713379,0.399414,0
10560,0.462891,-0.720215,0.40918,0
10580,0.473633,-0.72168,0.425293,0
10600,0.458496,-0.725586,0.393066,0
10620,0.45752,-0.736328,0.386719,0
10640,0.463379,-0.748047,0.38916,0
10660,0.450195,-0.751953,0.414062,0
10680,0.477051,-0.760742,0.405762,0
10700,0.505371,-0.764648,0.388184,0
10720,0.49707,-0.767578,0.377441,0
10740,0.5,-0.76416,0.37793,0
10760,0.520996,-0.767578,0.381348,0
10780,0.554199,-0.758301,0.356445,0
10800,0.605957,-0.751953,0.346191,0
10820,0.609863,-0.740234,0.337891,0
10840,0.600586,-0.73291,0.34375,0
10860,0.578125,-0.727539,0.342773,0
10880,0.536621,-0.724609,0.381836,0
10900,0.511719,-0.728027,0.385742,0
10920,0.492188,-0.716309,0.395996,0
10940,0.464844,-0.71875,0.390137,0
10960,0.461914,-0.735352,0.379395,0
10980,0.445801,-0.739746,0.369629,0
11000,0.397949,-0.727539,0.375488,0
11020,0.35791,-0.745117,0.358398,0
11040,0.344727,-0.779297,0.349121,0
11060,0.349121,-0.784668,0.358887,0
11080,0.339355,-0.776855,0.364258,0
11100,0.330566,-0.780762,0.349609,0
11120,0.333984,-0.781738,0.341797,0
11140,0.335449,-0.8125,0.335938,0
11160,0.299805,-0.819824,0.326172,0
11180,0.292969,-0.828125,0.334473,0
11200,0.284668,-0.82373,0.34375,0
11220,0.276367,-0.820312,0.344727,0
11240,0.28125,-0.826172,0.344238,0
11260,0.289551,-0.825195,0.341797,0
11280,0.306152,-0.838867,0.32959,0
11300,0.329102,-0.856445,0.327148,0
11320,0.34082,-0.853516,0.335449,0
11340,0.348145,-0.854004,0.350098,0
11360,0.338867,-0.858887,0.348633,0
11380,0.344727,-0.866211,0.328613,0
11400,0.370605,-0.869629,0.354004,0
11420,0.362305,-0.841797,0.357422,0
11440,0.34375,-0.828613,0.334961,0
11460,0.340332,-0.821289,0.333008,0
11480,0.333984,-0.819824,0.342285,0
11500,0.334961,-0.817871,0.347656,0
11520,0.351074,-0.828613,0.333496,0
11540,0.355957,-0.840332,0.344727,0
11560,0.328613,-0.838867,0.351074,0
11580,0.322754,-0.841309,0.338379,0
11600,0.331543,-0.838379,0.348145,0
11620,0.330078,-0.836914,0.359863,0
11640,0.325195,-0.839355,0.34668,0
11660,0.33252,-0.838867,0.339355,0
11680,0.331543,-0.818359,0.349121,0
11700,0.332031,-0.811035,0.322754,0
11720,0.335449,-0.820312,0.33252,0
11740,0.341797,-0.853027,0.317871,0
11760,0.309082,-0.85498,0.335449,0
11780,0.319824,-0.823242,0.33252,0
11800,0.343262,-0.820312,0.317871,0
11820,0.333984,-0.850098,0.328125,0
11840,0.313965,-0.878906,0.322266,0
11860,0.331055,-0.85791,0.313477,0
11880,0.353027,-0.855957,0.325684,0
11900,0.333496,-0.847656,0.321289,0
11920,0.305664,-0.835938,0.317383,0
11940,0.315918,-0.836914,0.318359,0
11960,0.309082,-0.853027,0.323242,0
11980,0.283691,-0.851562,0.324219,0
12000,0.268066,-0.852539,0.314941,0
12020,0.279785,-0.849609,0.319336,0
12040,0.281738,-0.85791,0.324219,0
12060,0.265625,-0.845215,0.324707,0
12080,0.264648,-0.845215,0.32666,0
12100,0.274902,-0.850098,0.325684,0
12120,0.300781,-0.847656,0.330078,0
12140,0.299316,-0.853516,0.329102,0
12160,0.298828,-0.841309,0.320312,0
12180,0.319336,-0.854492,0.328613,0
12200,0.331543,-0.867676,0.322754,0
12220,0.333008,-0.861816,0.305664,0
12240,0.32666,-0.857422,0.310059,0
12260,0.340332,-0.847656,0.310547,0
12280,0.360352,-0.872559,0.311035,0
12300,0.360352,-0.861328,0.303711,0
12320,0.383301,-0.844727,0.310547,0
12340,0.426758,-0.847656,0.329102,0
12360,0.442383,-0.830566,0.315918,0
12380,0.4375,-0.841797,0.320801,0
12400,0.460938,-0.847168,0.324707,0
12420,0.48877,-0.863281,0.313477,0
12440,0.481445,-0.85498,0.311035,0
12460,0.489258,-0.818848,0.322754,0
12480,0.487305,-0.820801,0.307129,0
12500,0.495117,-0.820801,0.300293,0
12520,0.501465,-0.821777,0.273926,0
12540,0.486816,-0.815918,0.276855,0
12560,0.47168,-0.810059,0.28418,0
12580,0.460938,-0.8125,0.283691,0
12600,0.44043,-0.806641,0.28125,0
12620,0.429688,-0.791992,0.295898,0
12640,0.414551,-0.789551,0.306152,0
12660,0.419922,-0.78418,0.311035,0
12680,0.429688,-0.806152,0.312012,0
12700,0.436523,-0.815918,0.3125,0
12720,0.419922,-0.81543,0.302734,0
12740,0.419434,-0.80127,0.306641,0
12760,0.414551,-0.800781,0.296387,0
12780,0.411133,-0.823242,0.304688,0
12800,0.412598,-0.828613,0.293457,0
12820,0.418945,-0.836914,0.280273,0
12840,0.439941,-0.842285,0.275391,0
12860,0.431152,-0.84082,0.283203,0
12880,0.401367,-0.833496,0.275879,0
12900,0.379883,-0.837891,0.270996,0
12920,0.358887,-0.861328,0.270508,0
12940,0.331543,-0.866211,0.258301,0
12960,0.299316,-0.855957,0.25293,0
12980,0.274902,-0.856934,0.256348,0
13000,0.243164,-0.838379,0.260742,0
13020,0.228516,-0.838379,0.26416,0
13040,0.237793,-0.848145,0.262695,0
13060,0.256836,-0.866699,0.257812,0
13080,0.27832,-0.869141,0.275879,2000
13100,0.308594,-0.874023,0.276855,0
13120,0.324707,-0.881836,0.259277,0
13140,0.326172,-0.888672,0.261719,0
13160,0.34375,-0.885742,0.277832,0
13180,0.371582,-0.874023,0.268555,0
13200,0.361328,-0.883301,0.247559,0
13220,0.333008,-0.883301,0.260742,0
13240,0.34375,-0.881348,0.270996,0
13260,0.353027,-0.887207,0.277344,0
13280,0.327637,-0.877441,0.280762,0
13300,0.341797,-0.884766,0.266602,0
13320,0.354004,-0.880859,0.263672,0
13340,0.34082,-0.881836,0.265137,0
13360,0.327148,-0.89209,0.248535,0
13380,0.323242,-0.88916,0.255371,0
13400,0.330078,-0.861328,0.283203,0
13420,0.315918,-0.880371,0.269043,0
13440,0.290527,-0.873047,0.270508,0
13460,0.305176,-0.86377,0.273926,0
13480,0.306152,-0.883789,0.25293,0
13500,0.287598,-0.882324,0.24707,0
13520,0.279297,-0.881348,0.246094,0
13540,0.297363,-0.870605,0.267578,0
13560,0.311523,-0.868164,0.266113,0
13580,0.291016,-0.862793,0.254883,0
13600,0.288574,-0.856445,0.253418,0
13620,0.294922,-0.859863,0.250977,0
13640,0.29834,-0.881348,0.263672,0
13660,0.29541,-0.864258,0.259766,0
13680,0.292969,-0.859375,0.249512,0
13700,0.296387,-0.862305,0.241211,0
13720,0.29248,-0.901855,0.24707,0
13740,0.299316,-0.883789,0.253418,0
13760,0.295898,-0.888672,0.236816,0
13780,0.312988,-0.881348,0.249023,0
13800,0.310547,-0.874023,0.253906,0
13820,0.309082,-0.867676,0.257812,0
13840,0.319824,-0.861328,0.268555,0
13860,0.345215,-0.879395,0.262695,0
13880,0.351562,-0.884766,0.270996,0
13900,0.339844,-0.874023,0.277344,0
13920,0.344238,-0.86377,0.269531,0
13940,0.363281,-0.867676,0.270996,0
13960,0.383301,-0.872559,0.270508,0
13980,0.385742,-0.85498,0.274902,0
14000,0.391113,-0.855957,0.273438,0
14010,0.385742,-0.848145,0.275391,0
14030,0.410156,-0.84668,0.281738,0
14050,0.40918,-0.851562,0.281738,0
14070,0.406738,-0.848633,0.280762,0
14090,0.398438,-0.82666,0.279297,0
14110,0.409668,-0.848145,0.272949,0
14130,0.390137,-0.838379,0.264648,0
14150,0.415527,-0.839355,0.274902,0
14170,0.411621,-0.827637,0.282715,0
14190,0.410645,-0.809082,0.289062,0
14210,0.397461,-0.805664,0.286621,0
14230,0.405273,-0.802734,0.254883,0
14250,0.455078,-0.826172,0.275391,0
14270,0.453613,-0.817383,0.290527,0
14290,0.434082,-0.805664,0.286621,0
14310,0.428711,-0.808105,0.280762,0
14330,0.446777,-0.802734,0.258789,0
14350,0.477051,-0.818848,0.281738,0
14370,0.474121,-0.799316,0.285645,0
14390,0.484863,-0.779297,0.277832,0
14410,0.500977,-0.791016,0.27832,0
14430,0.519531,-0.787598,0.289551,0
14450,0.52002,-0.79248,0.296387,0
14470,0.505371,-0.775879,0.301758,0
14490,0.521484,-0.775879,0.307129,0
14510,0.528809,-0.769043,0.307129,0
14530,0.51416,-0.763672,0.307617,0
14550,0.509277,-0.740234,0.320312,0
14570,0.509277,-0.729004,0.326172,0
14590,0.522461,-0.732422,0.304688,0
14610,0.546875,-0.731445,0.306152,0
14630,0.54834,-0.722656,0.313965,0
14650,0.569824,-0.719727,0.325195,0
14670,0.581543,-0.712402,0.332031,0
14690,0.583984,-0.72168,0.32959,0
14710,0.591797,-0.706055,0.330566,0
14730,0.59668,-0.687988,0.341309,0
14750,0.606934,-0.694336,0.341309,0
14770,0.600098,-0.686035,0.35498,0
14790,0.603027,-0.679199,0.356934,0
14810,0.610352,-0.668945,0.370117,0
14830,0.616699,-0.666992,0.36377,0
14850,0.621582,-0.663086,0.347168,0
14870,0.631836,-0.661133,0.352539,0
14890,0.643555,-0.666016,0.366699,0
14910,0.644043,-0.690918,0.361328,0
14930,0.606445,-0.673828,0.362793,0
14950,0.588867,-0.681641,0.384277,0
14970,0.603516,-0.662109,0.393066,0
14990,0.608887,-0.668945,0.384277,0
15010,0.593262,-0.679199,0.400879,0
15030,0.56543,-0.668945,0.402344,0
15050,0.565918,-0.682129,0.399902,0
15070,0.571777,-0.680664,0.398926,0
15090,0.575195,-0.692383,0.398926,0
15110,0.560547,-0.675293,0.400879,0
15130,0.5625,-0.662598,0.42041,0
15150,0.527832,-0.677246,0.40625,0
15170,0.523438,-0.682129,0.426758,0
15190,0.522461,-0.691406,0.427246,0
15210,0.521973,-0.667969,0.42041,0
15230,0.518555,-0.675293,0.431641,0
15250,0.507812,-0.67334,0.422363,0
15270,0.505859,-0.683105,0.419434,0
15290,0.499023,-0.69043,0.421387,0
15310,0.480957,-0.69043,0.424805,0
15330,0.455566,-0.70166,0.439453,0
15350,0.423828,-0.711426,0.427246,0
15370,0.452148,-0.688965,0.429199,0
15390,0.443848,-0.69873,0.429199,0
15410,0.413086,-0.69873,0.430664,0
15430,0.381348,-0.693848,0.433105,0
15450,0.383301,-0.723145,0.431641,0
15470,0.402344,-0.738281,0.43457,0
15490,0.419434,-0.728516,0.41748,0
15510,0.416504,-0.710938,0.420898,0
15530,0.411133,-0.720703,0.431641,0
15550,0.405273,-0.75,0.43457,0
15570,0.40332,-0.750488,0.416992,0
15590,0.415527,-0.761719,0.42041,0
15610,0.428223,-0.766602,0.435059,0
15630,0.393066,-0.776855,0.42627,0
15650,0.352051,-0.768066,0.426758,0
15670,0.359863,-0.771484,0.426758,0
15690,0.355469,-0.773926,0.427734,0
15710,0.353516,-0.750977,0.447266,0
15730,0.333008,-0.736328,0.442871,0
15750,0.342285,-0.732422,0.436523,0
15770,0.355469,-0.741211,0.45459,0
15790,0.338867,-0.752441,0.430664,0
15810,0.333008,-0.758301,0.426758,0
15830,0.35791,-0.783203,0.430176,0
15850,0.367188,-0.782715,0.451172,0
15870,0.347656,-0.77002,0.422363,0
15890,0.354492,-0.780273,0.422852,0
15910,0.37207,-0.790039,0.432617,0
15930,0.344727,-0.790039,0.430176,0
15950,0.331543,-0.800293,0.413086,0
15970,0.35498,-0.793945,0.413086,0
15990,0.376465,-0.781738,0.424805,0
16010,0.32959,-0.748047,0.424316,0
16030,0.32373,-0.758789,0.424805,0
16040,0.375488,-0.776855,0.424316,0
16060,0.363281,-0.771973,0.413574,0
16080,0.347168,-0.770996,0.405762,0
16100,0.401855,-0.777832,0.438477,0
16120,0.398926,-0.781738,0.424316,0
16140,0.342285,-0.772949,0.404785,0
16160,0.367676,-0.786621,0.393066,0
16180,0.407715,-0.79541,0.385254,0
16200,0.395996,-0.779785,0.387695,0
16220,0.361816,-0.77002,0.389648,0
16240,0.361328,-0.778809,0.382324,0
16260,0.375977,-0.79248,0.373047,0
16280,0.364258,-0.794922,0.358887,0
16300,0.354004,-0.789062,0.352539,0
16320,0.369141,-0.796387,0.362793,0
16340,0.369141,-0.796387,0.357422,0
16360,0.339355,-0.796387,0.336914,0
16380,0.361328,-0.810547,0.337891,0
16400,0.379883,-0.809082,0.338867,0
16420,0.364746,-0.805176,0.333008,0
16440,0.365723,-0.805176,0.325684,0
16460,0.401855,-0.816895,0.326172,0
16480,0.395996,-0.825684,0.310547,0
16500,0.380371,-0.818848,0.308105,0
16520,0.369629,-0.824707,0.302246,0
16540,0.380859,-0.803223,0.303223,0
16560,0.388672,-0.794922,0.306152,0
16580,0.391113,-0.786133,0.304199,0
16600,0.398438,-0.782715,0.296387,0
16620,0.414062,-0.811035,0.28418,0
16640,0.427246,-0.817871,0.271973,0
16660,0.422852,-0.8125,0.269043,0
16680,0.429688,-0.798828,0.264648,0
16700,0.444336,-0.787598,0.269043,0
16720,0.432129,-0.780762,0.259277,0
16740,0.411621,-0.777344,0.247559,0
16760,0.429688,-0.797363,0.246094,0
16780,0.446777,-0.801758,0.258301,0
16800,0.446777,-0.776367,0.270508,0
16820,0.407715,-0.775391,0.256348,0
16840,0.449707,-0.782715,0.237793,0
16860,0.48291,-0.792969,0.258301,0
16880,0.472656,-0.770508,0.263184,0
16900,0.442383,-0.744141,0.229492,0
16920,0.506348,-0.779785,0.212891,0
16940,0.57959,-0.80127,0.270508,0
16960,0.541992,-0.776367,0.268066,0
16980,0.492188,-0.750488,0.22998,0
17000,0.530273,-0.747559,0.231934,0
17020,0.584473,-0.762207,0.243652,0
17040,0.635254,-0.770508,0.210938,0
17060,0.623047,-0.771973,0.229004,0
17080,0.601074,-0.75293,0.241211,0
17100,0.609863,-0.724609,0.233398,0
17120,0.63623,-0.714844,0.215332,0
17140,0.651367,-0.715332,0.228027,0
17160,0.642578,-0.686035,0.240234,0
17180,0.658203,-0.664062,0.222656,0
17200,0.70752,-0.678223,0.20752,0
17220,0.68457,-0.673828,0.224121,0
17240,0.686523,-0.639648,0.253418,0
17260,0.681641,-0.64209,0.229492,0
17280,0.697266,-0.633301,0.221191,0
17300,0.700195,-0.625977,0.26416,0
17320,0.702148,-0.617188,0.24707,0
17340,0.725098,-0.60498,0.251953,0
17360,0.734375,-0.597656,0.265137,0
17380,0.739258,-0.55957,0.27832,0
17400,0.74707,-0.548828,0.266113,0
17420,0.782715,-0.535645,0.269531,0
17440,0.773926,-0.540039,0.281738,0
17460,0.77832,-0.529297,0.315918,0
17480,0.780273,-0.5,0.316895,0
17500,0.804688,-0.481934,0.317871,0
17520,0.821289,-0.468262,0.338379,0
17540,0.831055,-0.469238,0.338867,0
17560,0.81543,-0.44873,0.361816,0
17580,0.814453,-0.424805,0.376465,0
17600,0.80957,-0.405273,0.396484,0
17620,0.810059,-0.404297,0.418945,0
17640,0.827148,-0.367676,0.433105,0
17660,0.824707,-0.375488,0.47168,0
17680,0.776367,-0.371094,0.479004,0
17700,0.737793,-0.356934,0.461426,0
17720,0.753906,-0.344238,0.484375,0
17740,0.77002,-0.336426,0.503418,0
17760,0.77002,-0.36084,0.475098,0
17780,0.73584,-0.363281,0.494629,0
17800,0.720703,-0.358398,0.519043,0
17820,0.736328,-0.36084,0.518066,0
17840,0.762207,-0.352051,0.500977,0
17860,0.756348,-0.357422,0.5,0
17880,0.682617,-0.334961,0.547363,0
17900,0.66748,-0.332031,0.550781,0
17920,0.674805,-0.364746,0.540527,0
17940,0.677246,-0.377441,0.545898,0
17960,0.662598,-0.328125,0.550781,0
17980,0.687012,-0.338379,0.573242,0
18000,0.646484,-0.368652,0.567871,0
18020,0.592773,-0.396973,0.578125,0
18040,0.581543,-0.393066,0.580078,0
18060,0.599121,-0.41748,0.591797,0
18080,0.571777,-0.437012,0.564941,0
18100,0.550781,-0.433105,0.559082,0
18120,0.53125,-0.442871,0.561035,0
18140,0.498535,-0.452637,0.563965,0
18160,0.525879,-0.474121,0.557617,0
18180,0.519043,-0.474609,0.535156,0
18200,0.48291,-0.479004,0.544922,0
18220,0.495605,-0.477051,0.566895,0
18240,0.491699,-0.512207,0.557617,0
18260,0.480469,-0.519043,0.541504,0
18280,0.467285,-0.513184,0.546387,0
18300,0.495117,-0.540527,0.563477,0
18320,0.521484,-0.556641,0.557129,0
18340,0.498047,-0.535645,0.534668,0
18360,0.479004,-0.535156,0.541016,0
18380,0.514648,-0.561523,0.547852,0
18400,0.490723,-0.562012,0.526855,0
18420,0.450195,-0.556641,0.521973,0
18440,0.490723,-0.581543,0.537109,0
18460,0.498535,-0.574219,0.533203,0
18480,0.435547,-0.562988,0.51416,0
18500,0.429199,-0.568359,0.525879,0
18520,0.469238,-0.57666,0.552246,0
18540,0.463867,-0.580566,0.529785,0
18560,0.473145,-0.597168,0.491699,0
18580,0.545898,-0.617188,0.483887,0
18600,0.561523,-0.619141,0.499023,0
18620,0.52002,-0.590332,0.472656,0
18640,0.508301,-0.583496,0.45459,0
18660,0.554199,-0.583008,0.463379,0
18680,0.565918,-0.595215,0.441406,0
18700,0.518066,-0.599121,0.413086,0
18720,0.535156,-0.603516,0.399414,0
18740,0.59668,-0.628906,0.408203,0
18760,0.580078,-0.624023,0.387695,0
18780,0.535645,-0.610352,0.360352,0
18800,0.579102,-0.625488,0.362793,0
18820,0.619141,-0.632324,0.367188,0
18840,0.57666,-0.637207,0.353027,0
18860,0.538574,-0.649414,0.320801,0
18880,0.584473,-0.659668,0.341797,0
18910,0.601074,-0.668945,0.300293,0
18930,0.583008,-0.664062,0.274902,0
18950,0.615234,-0.688477,0.275391,0
18970,0.650879,-0.698242,0.273926,0
18990,0.624512,-0.695312,0.254883,0
19010,0.600586,-0.669922,0.230957,0
19030,0.640137,-0.689941,0.22168,0
19050,0.667969,-0.687012,0.220215,0
19070,0.647949,-0.662109,0.205566,0
19090,0.654297,-0.651855,0.178223,0
19110,0.685547,-0.654785,0.190918,0
19130,0.700195,-0.647949,0.192383,0
19150,0.694824,-0.631348,0.182129,0
19170,0.704102,-0.632324,0.162598,0
19190,0.742188,-0.635254,0.171875,0
19210,0.758789,-0.614258,0.181641,0
19230,0.721191,-0.569336,0.161621,0
19250,0.735352,-0.55127,0.147949,0
19270,0.800781,-0.555176,0.165039,0
19290,0.780762,-0.542969,0.177246,0
19310,0.725586,-0.506836,0.179688,0
19330,0.748535,-0.494141,0.17041,0
19350,0.824219,-0.501953,0.19873,0
19370,0.831543,-0.495605,0.208496,0
19390,0.813965,-0.453125,0.19873,0
19410,0.825684,-0.436035,0.210938,0
19430,0.853027,-0.431152,0.221191,0
19450,0.865234,-0.411133,0.211426,0
19470,0.871582,-0.39502,0.20459,0
19490,0.887207,-0.380371,0.224609,0
19500,0.884766,-0.373047,0.24707,0
19520,0.888672,-0.370117,0.250488,0
19540,0.901367,-0.357422,0.25293,0
19560,0.899414,-0.338867,0.278809,0
19580,0.888672,-0.336426,0.300781,0
19600,0.88623,-0.308594,0.299316,0
19620,0.89502,-0.296387,0.311523,0
19640,0.898926,-0.288574,0.328125,0
19660,0.884766,-0.292969,0.324219,0
19680,0.874023,-0.278809,0.313477,0
19700,0.899902,-0.280273,0.336914,0
19720,0.882812,-0.281738,0.349121,0
19740,0.835938,-0.273926,0.358398,0
19760,0.828613,-0.270996,0.37207,0
19780,0.843262,-0.26416,0.393555,0
19800,0.85498,-0.260254,0.373535,0
19820,0.859375,-0.257324,0.402832,0
19840,0.833984,-0.262695,0.427734,0
19860,0.839844,-0.264648,0.470215,0
19880,0.875488,-0.290039,0.493164,0
19900,0.907227,-0.303223,0.52002,0
19920,0.829102,-0.316895,0.491699,0
19940,0.758301,-0.318848,0.493164,0
19960,0.754395,-0.338867,0.495605,0
19980,0.740723,-0.342285,0.491699,0
20000,0.682129,-0.364258,0.483887,0
20020,0.670898,-0.390625,0.51123,0
20040,0.696777,-0.412109,0.525391,0
20060,0.70459,-0.438965,0.504395,0
20080,0.650391,-0.445312,0.491211,0
20100,0.618164,-0.456055,0.537109,0
20120,0.641602,-0.456055,0.525879,0
20140,0.654785,-0.504395,0.489258,0
20160,0.600098,-0.539551,0.474121,0
20180,0.54248,-0.519043,0.491211,0
20200,0.540527,-0.512695,0.485352,0
20220,0.558105,-0.529785,0.45459,0
20240,0.522461,-0.525391,0.423828,0
20260,0.490234,-0.529785,0.427246,0
20280,0.520996,-0.555664,0.437012,0
20300,0.583984,-0.587891,0.420898,0
20320,0.554688,-0.580566,0.408203,0
20340,0.556641,-0.575684,0.417969,0
20360,0.574707,-0.606445,0.411133,0
20380,0.525879,-0.60791,0.36377,0
20400,0.503906,-0.603027,0.374512,0
20420,0.557129,-0.631348,0.354492,0
20440,0.541992,-0.640625,0.320312,0
20460,0.48291,-0.643066,0.290039,0
20480,0.513184,-0.667969,0.293945,0
20500,0.549805,-0.686035,0.282227,0
20520,0.496094,-0.69043,0.227051,0
20540,0.476562,-0.697266,0.202637,0
20560,0.527832,-0.713379,0.252441,0
20580,0.561035,-0.708008,0.231934,0
20600,0.529785,-0.706543,0.160645,0
20620,0.543945,-0.739258,0.186523,0
20640,0.593262,-0.762695,0.1875,0
20660,0.571289,-0.74707,0.118652,0
20680,0.521484,-0.740723,0.109863,0
20700,0.574707,-0.754883,0.15625,0
20720,0.646484,-0.746094,0.152832,0
20740,0.643066,-0.734863,0.130859,0
20760,0.591797,-0.728027,0.0947266,0
20780,0.599609,-0.734863,0.102539,0
20800,0.633789,-0.72168,0.109863,0
20820,0.644043,-0.694336,0.0834961,0
20840,0.664062,-0.65918,0.0498047,0
20860,0.717285,-0.64502,0.0561523,0
20880,0.711914,-0.612793,0.0703125,0
20900,0.666992,-0.602539,0.0410156,0
20920,0.693848,-0.614258,0.0292969,0
20940,0.731934,-0.625,0.0209961,0
20960,0.716797,-0.628906,0.0493164,0
20980,0.727539,-0.587891,0.0258789,0
21000,0.797852,-0.583008,0.0146484,0
21020,0.847656,-0.58252,0.00878906,0
21040,0.804688,-0.54834,0.00439453,0
21060,0.809082,-0.526367,-0.00976562,0
21080,0.856934,-0.52002,0.0317383,0
21100,0.876953,-0.523438,0.00830078,0
21120,0.848633,-0.476562,0.0107422,0
21140,0.877441,-0.460449,-0.0151367,0
21160,0.92334,-0.476562,0.00634766,0
21180,0.904785,-0.44873,0.0307617,0
21200,0.880859,-0.437988,0.00683594,0
21220,0.923828,-0.433594,0.00927734,0
21240,0.958008,-0.416504,0.0151367,0
21260,0.954102,-0.395508,0.0253906,0
21280,0.946777,-0.37793,0.0126953,0
21300,0.978516,-0.39209,0.0170898,0
21320,0.959961,-0.388672,0.0268555,2001
21340,0.932129,-0.364746,0.0302734,0
21360,0.936523,-0.346191,0.0292969,0
21380,0.969727,-0.352539,0.0253906,0
21400,0.949219,-0.348633,0.0209961,0
21420,0.907227,-0.333984,0.0209961,0
21440,0.907715,-0.321777,0.0234375,0
21460,0.904785,-0.32373,0.027832,0
21480,0.897461,-0.319336,0.0170898,0
21500,0.881348,-0.333984,0.019043,0
21520,0.854492,-0.335449,0.0253906,0
21530,0.82959,-0.351074,0.0112305,0
21550,0.814453,-0.353027,0.0239258,0
21570,0.800293,-0.36084,0.0249023,0
21590,0.772949,-0.383301,0.019043,0
21610,0.740234,-0.381836,0.0126953,0
21630,0.744629,-0.394043,0.00585938,0
21650,0.760254,-0.395996,-0.000976562,0
21670,0.759277,-0.403809,0.0102539,0
21690,0.730469,-0.399902,0.00634766,0
21710,0.766602,-0.402832,-0.00634766,0
21730,0.782715,-0.435059,0.0229492,0
21750,0.745605,-0.44873,0.0615234,0
21770,0.730469,-0.452637,0.0375977,0
21790,0.788086,-0.481934,0.0385742,0
21810,0.804688,-0.518555,0.0966797,0
21830,0.731934,-0.520508,0.118652,0
21850,0.683594,-0.509277,0.078125,0
21870,0.735352,-0.556641,0.0976562,0
21890,0.726562,-0.620605,0.175293,0
21910,0.686035,-0.631348,0.135742,0
21930,0.729004,-0.627441,0.0893555,0
21950,0.765625,-0.681641,0.112305,0
21970,0.776855,-0.718262,0.146484,0
21990,0.762695,-0.705566,0.107422,0
22010,0.728027,-0.717773,0.101562,0
22030,0.699707,-0.765625,0.131836,0
22050,0.668457,-0.8125,0.119629,0
22070,0.670898,-0.838867,0.0703125,0
22090,0.658691,-0.868164,0.105469,0
22110,0.602051,-0.88916,0.128906,0
22130,0.577148,-0.904785,0.102539,0
22150,0.568848,-0.893555,0.0991211,0
22170,0.521973,-0.907227,0.140625,0
22190,0.470215,-0.919434,0.130371,0
22210,0.446777,-0.89502,0.138672,0
22230,0.413574,-0.905273,0.156738,0
22250,0.399414,-0.936035,0.177246,0
22270,0.367676,-0.95459,0.192871,0
22290,0.341309,-0.958984,0.182129,0
22310,0.317383,-0.933594,0.192383,0
22330,0.32666,-0.941406,0.188965,0
22350,0.336914,-0.952148,0.189453,0
22370,0.322266,-0.954102,0.170898,0
22390,0.291016,-0.941406,0.191406,0
22410,0.300781,-0.915527,0.206055,0
22430,0.314941,-0.921875,0.212891,0
22450,0.33252,-0.924805,0.212891,0
22470,0.343262,-0.925293,0.218262,0
22490,0.338867,-0.914062,0.21582,0
22510,0.325684,-0.912109,0.214844,0
22530,0.337402,-0.929199,0.234863,0
22550,0.351074,-0.910156,0.241211,0
22570,0.355957,-0.911621,0.223145,0
22590,0.344238,-0.899414,0.226074,0
22610,0.347656,-0.886719,0.227539,0
22630,0.345703,-0.870117,0.220215,0
22650,0.330566,-0.872559,0.22168,0
22670,0.331543,-0.87793,0.212891,0
22690,0.336426,-0.871582,0.222168,0
22710,0.341309,-0.879395,0.222656,0
22730,0.331055,-0.903809,0.23877,0
22750,0.333008,-0.887207,0.251465,0
22770,0.337891,-0.878418,0.242676,0
22790,0.34082,-0.864258,0.262695,0
22810,0.327148,-0.857422,0.251953,0
22830,0.304199,-0.865723,0.23877,0
22850,0.298828,-0.86084,0.242676,0
22870,0.310059,-0.876953,0.250488,0
22890,0.319824,-0.891113,0.230469,0
22910,0.310059,-0.905273,0.224121,0
22930,0.305664,-0.908691,0.246094,0
22950,0.304199,-0.897949,0.233887,0
22970,0.291016,-0.893066,0.22998,0
22990,0.283691,-0.887695,0.232422,0
23010,0.29248,-0.89502,0.230957,0
23030,0.314453,-0.898926,0.238281,0
23050,0.331543,-0.903809,0.229492,0
23070,0.338867,-0.900879,0.223145,0
23090,0.34668,-0.899902,0.218262,0
23110,0.353516,-0.895996,0.211426,0
23130,0.341797,-0.893066,0.211426,0
23150,0.355957,-0.881348,0.215332,0
23170,0.357422,-0.883789,0.211914,0
23190,0.383789,-0.866699,0.202148,0
23210,0.386719,-0.882812,0.194336,0
23230,0.391602,-0.877441,0.195801,0
23250,0.360352,-0.86084,0.18457,0
23270,0.383789,-0.866211,0.190918,0
23290,0.402832,-0.871094,0.193848,0
23310,0.383789,-0.858398,0.19043,0
23330,0.382812,-0.839844,0.202148,0
23350,0.372559,-0.849609,0.167969,0
23370,0.410645,-0.874023,0.178711,0
23390,0.437012,-0.859863,0.194824,0
23410,0.422363,-0.86084,0.177734,0
23430,0.409668,-0.84375,0.170898,0
23450,0.447266,-0.842285,0.177734,0
23470,0.478516,-0.854492,0.199707,0
23490,0.498535,-0.834961,0.178223,0
23510,0.530762,-0.848145,0.144043,0
23530,0.600586,-0.84668,0.150879,0
23550,0.649414,-0.829102,0.143066,0
23570,0.671875,-0.816406,0.135742,0
23590,0.692383,-0.788574,0.144531,0
23610,0.715332,-0.769531,0.148926,0
23630,0.711914,-0.754883,0.150391,0
23650,0.694824,-0.73877,0.14209,0
23670,0.647461,-0.739746,0.144043,0
23690,0.614746,-0.734375,0.152832,0
23710,0.617676,-0.738281,0.157227,0
23730,0.650391,-0.751953,0.171387,0
23750,0.646973,-0.763184,0.192383,0
23770,0.626465,-0.780762,0.178711,0
23790,0.640137,-0.774414,0.197754,0
23810,0.605957,-0.806152,0.200684,0
23830,0.541504,-0.794922,0.172852,0
23850,0.534668,-0.803223,0.182129,0
23870,0.470215,-0.830078,0.196777,0
23890,0.458496,-0.842773,0.23877,0
23910,0.40918,-0.863281,0.241699,0
23930,0.386719,-0.866211,0.217773,0
23950,0.361328,-0.875,0.187988,0
23970,0.333496,-0.85498,0.180176,0
23990,0.294922,-0.838867,0.194824,0
24010,0.269531,-0.866211,0.203613,0
24030,0.256836,-0.897949,0.202637,0
24050,0.250977,-0.889648,0.182617,0
24070,0.254883,-0.902344,0.194336,0
24090,0.244141,-0.88916,0.192871,0
24110,0.226074,-0.872559,0.172852,0
24130,0.228516,-0.890137,0.158203,0
24150,0.251465,-0.902344,0.168457,0
24170,0.27002,-0.921387,0.172363,0
24190,0.293457,-0.923828,0.171387,0
24210,0.318359,-0.923828,0.162109,0
24230,0.348633,-0.92627,0.175781,0
24250,0.365723,-0.911133,0.189941,0
24270,0.367188,-0.88916,0.182617,0
24290,0.369141,-0.882812,0.217773,0
24310,0.369141,-0.911133,0.199219,2000
24330,0.36084,-0.875977,0.21875,0
24350,0.37207,-0.885742,0.187012,0
24370,0.374512,-0.890137,0.20752,0
24390,0.386719,-0.893555,0.208008,0
24410,0.356934,-0.887695,0.227539,0
24430,0.335449,-0.865723,0.208984,0
24450,0.335938,-0.85791,0.206055,0
24470,0.337402,-0.884277,0.21875,0
24490,0.34668,-0.898926,0.206543,0
24510,0.350098,-0.890625,0.219238,0
24530,0.35791,-0.879395,0.229004,0
24550,0.354492,-0.884766,0.201172,0
24570,0.340332,-0.900879,0.212402,0
24590,0.34668,-0.884277,0.224609,0
24610,0.352051,-0.883301,0.212891,0
24630,0.345703,-0.875977,0.21582,0
24650,0.34668,-0.886719,0.216309,0
24670,0.359375,-0.878906,0.205078,0
24690,0.355469,-0.883301,0.206055,0
24710,0.330078,-0.890137,0.208496,0
24730,0.332031,-0.874512,0.205566,0
24750,0.342285,-0.877441,0.219238,0
24770,0.35498,-0.861328,0.203125,0
24790,0.337402,-0.878418,0.218262,0
24810,0.352539,-0.900391,0.196777,0
24830,0.357422,-0.895508,0.210938,0
24850,0.356445,-0.874512,0.211914,0
24870,0.351074,-0.871582,0.205566,0
24890,0.368652,-0.856934,0.196289,0
24910,0.375488,-0.876953,0.183105,0
24930,0.35791,-0.893555,0.203125,0
24950,0.355957,-0.898926,0.213379,0
24970,0.376465,-0.892578,0.205566,0
24990,0.38916,-0.881836,0.200195,0
25000,0.361328,-0.889648,0.185059,0
25020,0.33252,-0.883301,0.192871,0
25040,0.345703,-0.874023,0.214844,0
25060,0.403809,-0.871094,0.187988,0
25080,0.424805,-0.88916,0.187012,0
25100,0.415527,-0.881836,0.201172,0
25120,0.402832,-0.870117,0.201172,0
25140,0.42041,-0.862305,0.189941,0
25160,0.473633,-0.882812,0.194336,0
25180,0.469238,-0.876953,0.189941,0
25200,0.429199,-0.857422,0.193359,0
25220,0.424805,-0.847168,0.174805,0
25240,0.477051,-0.852539,0.194824,0
25260,0.499023,-0.850098,0.174805,0
25280,0.494629,-0.86084,0.17627,0
25300,0.474121,-0.864258,0.161621,0
25320,0.430664,-0.842773,0.167969,0
25340,0.400879,-0.844727,0.179688,0
25360,0.408691,-0.855957,0.171387,0
25380,0.387207,-0.850586,0.185547,0
25400,0.345703,-0.838379,0.189941,0
25420,0.354004,-0.839355,0.185547,0
25440,0.361816,-0.862305,0.166504,0
25460,0.365234,-0.886719,0.170898,0
25480,0.366211,-0.879883,0.166504,0
25500,0.373535,-0.875,0.165527,0
25520,0.37793,-0.879395,0.168945,0
25540,0.381348,-0.880859,0.168945,0
25560,0.408691,-0.884766,0.173828,0
25580,0.419922,-0.893066,0.17334,0
25600,0.416504,-0.885742,0.161133,0
25620,0.436523,-0.878906,0.154297,0
25640,0.444336,-0.875977,0.157227,0
25660,0.44043,-0.852539,0.153809,0
25680,0.442383,-0.852539,0.155762,0
25700,0.460449,-0.862305,0.144531,0
25720,0.469727,-0.854004,0.154297,0
25740,0.466309,-0.856934,0.144043,0
25760,0.458496,-0.833496,0.147949,0
25780,0.481934,-0.834961,0.138184,0
25800,0.512695,-0.853516,0.142578,0
25820,0.504883,-0.838379,0.15332,0
25840,0.488281,-0.812012,0.141113,0
25860,0.494629,-0.792969,0.132812,0
25880,0.538574,-0.80127,0.125488,0
25900,0.52832,-0.784668,0.145508,0
25920,0.516113,-0.763672,0.144531,0
25940,0.539551,-0.758301,0.133789,0
25960,0.57373,-0.763672,0.129395,0
25980,0.573242,-0.763184,0.143066,0
26000,0.589355,-0.751465,0.147461,0
26020,0.601562,-0.738281,0.157227,0
26040,0.61377,-0.730469,0.152832,0
26060,0.625,-0.717773,0.138672,0
26080,0.636719,-0.714355,0.159668,0
26100,0.649414,-0.70166,0.158203,0
26120,0.669434,-0.692383,0.153809,0
26140,0.684082,-0.691895,0.171875,0
26160,0.702148,-0.685059,0.156738,0
26180,0.70166,-0.679688,0.17041,0
26220,0.725098,-0.674316,0.192383,0
26240,0.731445,-0.669922,0.197754,0
26260,0.722656,-0.648926,0.202637,0
26280,0.722656,-0.645508,0.208984,0
26290,0.720703,-0.637695,0.215332,0
26310,0.744141,-0.624512,0.223145,0
26330,0.749512,-0.633789,0.216797,0
26350,0.745117,-0.635742,0.250977,0
26370,0.741699,-0.635254,0.269043,0
26390,0.720703,-0.632812,0.274902,0
26410,0.706055,-0.618164,0.270508,0
26430,0.678711,-0.625488,0.279297,0
26450,0.704102,-0.611328,0.293457,0
26470,0.717773,-0.645508,0.302246,0
26490,0.689941,-0.647949,0.30127,0
26510,0.675781,-0.649902,0.320312,0
26530,0.677246,-0.649902,0.320312,0
26550,0.724121,-0.65918,0.339355,0
26570,0.678223,-0.665039,0.342285,0
26590,0.643066,-0.649414,0.356934,0
26610,0.662598,-0.647949,0.380371,0
26630,0.688477,-0.656738,0.358887,0
26650,0.652832,-0.671387,0.353516,0
26670,0.618652,-0.671875,0.369629,0
26690,0.604492,-0.663086,0.384277,0
26710,0.604492,-0.69873,0.365723,0
26730,0.603516,-0.717285,0.334473,0
26750,0.577637,-0.700195,0.357422,0
26770,0.529785,-0.699219,0.371094,0
26790,0.530762,-0.711914,0.364746,0
26810,0.544434,-0.748535,0.342285,0
26830,0.495117,-0.708984,0.347656,0
26850,0.455078,-0.703125,0.358398,0
26870,0.453125,-0.71875,0.354492,0
26890,0.469727,-0.746094,0.349121,0
26910,0.462891,-0.745117,0.335449,0
26930,0.421387,-0.72998,0.328125,0
26950,0.408691,-0.744141,0.316895,0
26970,0.425781,-0.746582,0.318359,0
26990,0.434082,-0.736328,0.297852,0
27010,0.425781,-0.725098,0.317383,0
27010,0.424316,-0.748047,0.321777,0
27030,0.42334,-0.770996,0.319824,0
27050,0.425781,-0.777344,0.302246,0
27070,0.430664,-0.801758,0.305176,0
27090,0.419922,-0.808594,0.308105,0
27110,0.411621,-0.799805,0.283691,0
27130,0.435547,-0.811035,0.272949,0
27150,0.471191,-0.816406,0.285156,0
27170,0.424316,-0.815918,0.273926,0
27190,0.416016,-0.824219,0.250977,0
27210,0.438477,-0.833496,0.256348,0
27230,0.419434,-0.820801,0.250977,0
27250,0.403809,-0.833008,0.236328,0
27270,0.411621,-0.846191,0.234863,0
27290,0.37207,-0.848145,0.227051,0
27310,0.333496,-0.845215,0.206055,0
27330,0.360352,-0.853516,0.198242,0
27350,0.395508,-0.858887,0.189941,0
27370,0.374023,-0.855957,0.176758,0
27390,0.36084,-0.848633,0.163574,0
27410,0.377441,-0.853516,0.15625,0
27430,0.414551,-0.859375,0.147949,0
27450,0.400391,-0.848633,0.127441,0
27470,0.393555,-0.858887,0.0986328,0
27490,0.436035,-0.864258,0.0932617,0
27510,0.441895,-0.859863,0.100586,0
27530,0.42041,-0.828613,0.0888672,0
27550,0.443359,-0.820801,0.0786133,0
27570,0.484863,-0.842285,0.0830078,0
27590,0.512207,-0.838379,0.0678711,0
27610,0.525391,-0.842285,0.0473633,0
27630,0.532715,-0.852539,0.0341797,0
27650,0.511719,-0.829102,0.0473633,0
27670,0.51709,-0.803711,0.0371094,0
27690,0.538086,-0.802734,-0.00390625,0
27710,0.57666,-0.82959,-0.0141602,0
27730,0.587402,-0.817383,-0.00732422,0
27750,0.573242,-0.779297,0.00292969,0
27770,0.53418,-0.765625,-0.00878906,0
27790,0.564453,-0.772461,-0.0395508,0
27810,0.640137,-0.80957,-0.0283203,0
27830,0.663086,-0.822266,-0.0112305,0
27850,0.596191,-0.775391,-0.0214844,0
27870,0.570801,-0.750488,-0.0629883,0
27890,0.644043,-0.758789,-0.0424805,0
27910,0.681152,-0.766602,-0.0415039,0
27930,0.682617,-0.757812,-0.0654297,0
27950,0.647461,-0.735352,-0.0546875,0
27970,0.687988,-0.715332,-0.0131836,0
27990,0.708496,-0.708008,-0.0263672,0
28010,0.708008,-0.680176,-0.0571289,0
28030,0.788574,-0.673828,-0.0522461,0
28050,0.808105,-0.671387,0.00195312,0
28100,0.681152,-0.643066,0.0219727,0
28120,0.655273,-0.629395,0.0180664,0
28140,0.695312,-0.629395,0.0166016,0
28160,0.701172,-0.649902,0.0302734,0
28180,0.717773,-0.633789,0.0493164,0
28200,0.750977,-0.62793,0.0634766,0
28220,0.777344,-0.602539,0.0825195,0
28240,0.811035,-0.583984,0.0878906,0
28260,0.833496,-0.563477,0.0947266,0
28280,0.867676,-0.537109,0.0874023,0
28300,0.872559,-0.531738,0.0966797,0
28320,0.872559,-0.509277,0.109375,0
28340,0.871582,-0.498535,0.126953,0
28360,0.861328,-0.471191,0.12207,0
28380,0.869629,-0.458984,0.134766,0
28400,0.859375,-0.449219,0.15332,0
28420,0.845703,-0.419922,0.161133,0
28440,0.851562,-0.40332,0.175293,0
28460,0.845215,-0.399414,0.194824,0
28480,0.847656,-0.387207,0.206055,0
28500,0.84668,-0.387207,0.203125,0
28520,0.867188,-0.381348,0.219727,0
28540,0.873047,-0.387207,0.231445,0
28560,0.880859,-0.394531,0.236328,0
28580,0.898926,-0.384277,0.225586,0
28600,0.894043,-0.385742,0.238281,0
28620,0.897461,-0.370605,0.269531,0
28640,0.90918,-0.368164,0.255859,0
28660,0.885742,-0.379395,0.268066,0
28680,0.856934,-0.380371,0.282715,0
28700,0.857422,-0.400391,0.29541,0
28720,0.862793,-0.395508,0.303711,0
28740,0.856934,-0.405273,0.314453,0
28760,0.833984,-0.386719,0.330566,0
28780,0.817871,-0.393555,0.344238,0
28800,0.80957,-0.396973,0.356445,0
28820,0.805176,-0.396973,0.341309,0
28840,0.803223,-0.445801,0.334473,0
28860,0.790039,-0.444336,0.361328,0
28880,0.762207,-0.450684,0.365234,0
28900,0.762207,-0.448242,0.375977,0
28920,0.775391,-0.472656,0.369629,0
28940,0.781738,-0.476074,0.348145,0
28960,0.719238,-0.46582,0.365723,0
28980,0.702148,-0.480469,0.376953,0
29000,0.73877,-0.553711,0.359863,0
29020,0.725098,-0.529297,0.340332,0
29040,0.697266,-0.521484,0.333008,0
29060,0.684082,-0.552734,0.350098,0
29080,0.692383,-0.591309,0.34082,0
29100,0.659668,-0.574707,0.306152,0
29120,0.657715,-0.591309,0.314941,0
29140,0.621582,-0.626465,0.306641,0
29160,0.584961,-0.627441,0.300781,0
29180,0.565918,-0.624023,0.294434,0
29200,0.583496,-0.656738,0.273438,0
29220,0.55957,-0.675293,0.275391,0
29240,0.521973,-0.6875,0.256348,0
29260,0.555664,-0.700684,0.244141,0
29280,0.56543,-0.738281,0.233398,0
29300,0.521484,-0.740234,0.205566,0
29320,0.472656,-0.740723,0.192871,0
29340,0.480957,-0.777344,0.176758,0
29360,0.516113,-0.791992,0.159668,0
29380,0.500977,-0.776855,0.150391,0
29400,0.456055,-0.76416,0.149414,0
29420,0.477539,-0.777832,0.15625,0
29440,0.49707,-0.800781,0.135254,0
29460,0.468262,-0.800781,0.10791,0
29480,0.450195,-0.784668,0.105469,0
29500,0.506348,-0.80957,0.121582,0
29520,0.529785,-0.827148,0.0761719,0
29540,0.510254,-0.821777,0.0561523,0
29560,0.547363,-0.824219,0.0654297,0
29580,0.564941,-0.823242,0.0761719,0
29600,0.548828,-0.79834,0.0498047,0
29620,0.538574,-0.797852,0.0166016,0
29640,0.57666,-0.806641,0.027832,0
29660,0.587891,-0.793945,0.0302734,0
29680,0.54834,-0.791016,0.00390625,0
29700,0.584961,-0.797363,0.0102539,0
29720,0.64209,-0.802246,0.0117188,0
29740,0.606934,-0.757324,-0.00732422,0
29760,0.562012,-0.73877,-0.0200195,0
29780,0.59082,-0.757812,-0.0136719,0
29800,0.633789,-0.780762,-0.0273438,0
29820,0.606934,-0.746582,-0.0385742,0
29840,0.580566,-0.738281,-0.0498047,0
29860,0.617188,-0.75293,-0.0512695,0
29880,0.660156,-0.77002,-0.0463867,0
29900,0.634277,-0.739258,-0.0546875,0
29920,0.617188,-0.723633,-0.0639648,0
29940,0.626953,-0.743164,-0.0424805,0
29960,0.670898,-0.716797,-0.0400391,0
29980,0.683594,-0.705078,-0.0688477,0
30000,0.678711,-0.672852,-0.0786133,0
30020,0.703613,-0.663574,-0.0424805,0
30040,0.719727,-0.645508,-0.0112305,0
30060,0.709961,-0.617676,-0.0336914,0
30080,0.754395,-0.627441,-0.0727539,0
30100,0.796387,-0.616211,-0.0463867,0
30120,0.780273,-0.578125,-0.0400391,0
30140,0.754395,-0.550293,-0.0537109,0
30160,0.77832,-0.544434,-0.0605469,0
30180,0.825684,-0.55127,-0.0424805,0
30200,0.817383,-0.538574,-0.0351562,0
30220,0.808594,-0.494141,-0.0483398,0
30240,0.826172,-0.479492,-0.027832,0
30260,0.867188,-0.47168,-0.00585938,0
30280,0.86377,-0.47168,-0.00878906,0
30300,0.839355,-0.444824,-0.0112305,0
30320,0.873047,-0.435547,0.00390625,0
30330,0.915527,-0.436035,0.0229492,0
30350,0.916016,-0.416016,0.0200195,0
30370,0.896484,-0.39209,0.0078125,0
30390,0.928711,-0.365234,0.0322266,0
30410,0.956543,-0.361816,0.0463867,0
30430,0.929199,-0.351562,0.0561523,0
30450,0.900879,-0.322266,0.0517578,0
30470,0.916504,-0.317871,0.0786133,0
30490,0.932129,-0.301758,0.0996094,0
30510,0.916992,-0.290039,0.108398,0
30530,0.923828,-0.265625,0.120117,0
30550,0.930664,-0.282227,0.142578,0
30570,0.906738,-0.29248,0.165039,0
30590,0.904785,-0.288086,0.196289,0
30610,0.919434,-0.283691,0.22998,0
30630,0.935059,-0.290527,0.227051,0
30650,0.946777,-0.293945,0.228027,0
30670,0.928711,-0.282227,0.256836,0
30690,0.896484,-0.277344,0.269531,0
30710,0.888672,-0.289551,0.271973,0
30730,0.90332,-0.285645,0.296387,0
30750,0.910156,-0.312012,0.299805,0
30770,0.891602,-0.317383,0.299805,0
30790,0.890625,-0.316895,0.304199,0
30810,0.899414,-0.335449,0.324707,0
30830,0.874023,-0.344727,0.344727,0
30850,0.847656,-0.356934,0.367676,0
30870,0.855469,-0.38623,0.350098,0
30890,0.866211,-0.397461,0.347656,0
30910,0.839355,-0.37207,0.354492,0
30930,0.803711,-0.381348,0.34082,0
30950,0.780762,-0.41748,0.337402,0
30970,0.743164,-0.439453,0.355957,0
30990,0.724121,-0.459473,0.361816,0
31010,0.741699,-0.472656,0.361328,0
31030,0.739258,-0.46582,0.353027,0
31050,0.722168,-0.484375,0.338867,0
31070,0.70752,-0.500488,0.336426,0
31090,0.69873,-0.523926,0.337402,0
31110,0.696777,-0.539062,0.315918,0
31130,0.719238,-0.573242,0.324219,0
31150,0.737793,-0.583984,0.3125,0
31170,0.722168,-0.582031,0.302246,0
31190,0.706543,-0.59082,0.293457,0
31210,0.722168,-0.649414,0.280273,0
31230,0.687012,-0.633789,0.263184,0
31250,0.618164,-0.634277,0.260254,0
31270,0.626953,-0.687988,0.250977,0
31290,0.677246,-0.674805,0.212891,0
31310,0.668457,-0.682617,0.22168,0
31330,0.626953,-0.692383,0.181152,0
31350,0.547363,-0.685547,0.150879,0
31370,0.506348,-0.708008,0.15332,0
31390,0.572266,-0.753906,0.144043,0
31410,0.541992,-0.743164,0.0888672,0
31430,0.46875,-0.719238,0.0883789,0
31450,0.514648,-0.756836,0.0932617,0
31470,0.554688,-0.772949,0.0708008,0
31490,0.482422,-0.740234,0.0288086,0
31510,0.458496,-0.773438,-0.00390625,0
31530,0.538574,-0.790527,-0.00292969,0
31550,0.542969,-0.791504,-0.0234375,0
31570,0.506836,-0.736328,-0.0288086,0
31590,0.574707,-0.716797,-0.0224609,0
31610,0.635742,-0.749023,-0.0380859,0
31630,0.604492,-0.754395,-0.0556641,0
31650,0.586426,-0.763184,-0.059082,0
31670,0.609375,-0.786133,-0.0454102,0
31690,0.656738,-0.776855,-0.0551758,0
31710,0.680664,-0.755859,-0.0610352,0
31730,0.668945,-0.707031,-0.0957031,0
31750,0.702148,-0.691406,-0.0908203,0
31770,0.730957,-0.694336,-0.09375,0
31790,0.690918,-0.69873,-0.103516,0
31810,0.645996,-0.669922,-0.0996094,0
31830,0.691406,-0.65332,-0.0913086,0
31850,0.75293,-0.638672,-0.115234,0
31870,0.725586,-0.622559,-0.129883,0
31890,0.677246,-0.585449,-0.12207,0
31910,0.731934,-0.612793,-0.090332,0
31930,0.79541,-0.624512,-0.119141,0
31950,0.754883,-0.606445,-0.132812,0
31970,0.71582,-0.564453,-0.136719,0
31990,0.746582,-0.577148,-0.133301,0
32010,0.78418,-0.549316,-0.131348,0
32030,0.796387,-0.532715,-0.138184,0
32050,0.836426,-0.509277,-0.133789,0
32070,0.871094,-0.513184,-0.13623,0
32090,0.848145,-0.530273,-0.112793,0
32110,0.790039,-0.506348,-0.103027,0
32130,0.831543,-0.498047,-0.0869141,0
32150,0.914062,-0.470703,-0.0986328,0
32170,0.937012,-0.422852,-0.124512,0
32190,0.896484,-0.389648,-0.123535,0
32210,0.917969,-0.415039,-0.106445,2001
32230,0.941895,-0.420898,-0.0961914,0
32250,0.92334,-0.419922,-0.100098,0
32270,0.915527,-0.370605,-0.109375,0
32290,0.932129,-0.368652,-0.102051,0
32310,0.92041,-0.375977,-0.10498,0
32330,0.880859,-0.359863,-0.0996094,0
32350,0.869629,-0.36084,-0.119141,0
32360,0.887695,-0.36377,-0.114258,0
32380,0.858398,-0.380859,-0.102051,0
32400,0.797852,-0.393066,-0.103516,0
32420,0.753418,-0.393555,-0.122559,0
32440,0.738281,-0.420898,-0.125,0
32460,0.699219,-0.414551,-0.109863,0
32480,0.650879,-0.411133,-0.118164,0
32500,0.67627,-0.436523,-0.166504,0
32520,0.71582,-0.476562,-0.163086,0
32540,0.686523,-0.484375,-0.127441,0
32560,0.623047,-0.452148,-0.125,0
32580,0.634766,-0.448242,-0.11377,0
32600,0.673828,-0.478027,-0.0957031,0
32620,0.668945,-0.488281,-0.0932617,0
32640,0.712402,-0.515625,-0.116211,0
32670,0.799805,-0.558105,-0.10498,0
32680,0.650879,-0.411133,-0.118164,0
32700,0.817383,-0.625,-0.0541992,0
32720,0.815918,-0.654297,-0.0429688,0
32740,0.862305,-0.698242,-0.0874023,0
32760,0.850098,-0.744141,-0.0473633,0
32780,0.776855,-0.730957,0.0307617,0
32800,0.688477,-0.758789,0.0258789,0
32820,0.670898,-0.830566,-0.0541992,0
32840,0.686523,-0.882324,0.00537109,0
32860,0.648438,-0.904297,0.059082,0
32880,0.606445,-0.891602,0.0185547,0
32900,0.576172,-0.902832,0.00292969,0
32920,0.537598,-0.92334,0.0771484,0
32940,0.458008,-0.928711,0.10791,0
32960,0.398926,-0.938965,0.0756836,0
32980,0.379395,-0.973633,0.0898438,0
33000,0.375977,-1.01074,0.123535,0
33020,0.357422,-1.01514,0.120117,0
33040,0.318848,-0.997559,0.116699,0
33060,0.303223,-0.996582,0.144043,0
33080,0.301758,-0.992676,0.165527,0
33100,0.294922,-1.00049,0.158203,0
33120,0.288086,-0.997559,0.149414,0
33140,0.302246,-0.985352,0.171875,0
33160,0.282227,-0.978027,0.190918,0
33180,0.259766,-0.969727,0.177734,0
33200,0.270996,-0.967285,0.17627,0
33220,0.307617,-0.97168,0.204102,0
33240,0.31543,-0.964355,0.20459,0
33260,0.313965,-0.948242,0.191895,0
33280,0.335938,-0.944824,0.206543,0
33300,0.338867,-0.937988,0.212402,0
33320,0.334961,-0.92334,0.210938,0
33340,0.336426,-0.899414,0.20752,0
33360,0.353027,-0.902344,0.210938,0
33380,0.341797,-0.904297,0.208496,0
33400,0.325195,-0.894043,0.193359,0
33420,0.330078,-0.908691,0.187012,0
33440,0.351074,-0.880371,0.189453,0
33460,0.351074,-0.887207,0.187988,0
33480,0.354492,-0.901855,0.174316,0
33500,0.347168,-0.890625,0.220215,0
33520,0.356445,-0.86377,0.208984,0
33540,0.354492,-0.884766,0.178223,0
33560,0.327148,-0.922852,0.175293,0
33580,0.315918,-0.902832,0.203613,0
33600,0.319824,-0.864746,0.199219,0
33620,0.327637,-0.916992,0.17334,0
33640,0.32373,-0.921875,0.151855,0
33660,0.308594,-0.904785,0.171875,0
33680,0.309082,-0.951172,0.23291,0
33700,0.324707,-0.802734,0.286133,0
33720,0.325195,-0.946289,0.0517578,0
33740,0.323242,-0.90332,0.219727,0
33760,0.306152,-0.918945,0.178223,0
33780,0.324219,-0.911133,0.181641,0
33800,0.334473,-0.921387,0.166992,0
33820,0.332031,-0.913574,0.175293,0
33840,0.324707,-0.890625,0.175293,0
33860,0.329102,-0.88916,0.168945,0
33880,0.358398,-0.895508,0.165039,0
33900,0.343262,-0.931152,0.162109,0
33920,0.3125,-0.897949,0.173828,0
33940,0.323242,-0.898926,0.159668,0
33960,0.352539,-0.914551,0.158203,0
33980,0.330566,-0.922363,0.159668,0
34000,0.325684,-0.910645,0.155273,0
34020,0.340332,-0.920898,0.125,0
34040,0.331543,-0.938477,0.135254,0
34060,0.32959,-0.931152,0.147461,0
34080,0.328613,-0.916992,0.135742,0
34100,0.365234,-0.916016,0.120605,0
34120,0.418457,-0.898926,0.132324,0
34140,0.444336,-0.92334,0.128418,0
34160,0.394531,-0.895508,0.128906,0
34180,0.371094,-0.895508,0.0961914,0
34200,0.364258,-0.902832,0.0742188,0
34220,0.39209,-0.933105,0.0698242,0
34240,0.398926,-0.904297,0.0805664,0
34260,0.459473,-0.883301,0.074707,0
34280,0.516602,-0.880371,0.0644531,0
34300,0.537598,-0.875,0.0439453,0
34320,0.535645,-0.890137,0.0249023,0
34340,0.552734,-0.925781,0.0327148,0
34360,0.552734,-0.94043,0.0546875,0
34380,0.509277,-0.933594,0.0380859,0
34400,0.508789,-0.921875,0.015625,0
34420,0.505859,-0.914062,0.00927734,0
34440,0.513184,-0.942871,-0.000488281,0
34460,0.523926,-0.943848,0.0166016,0
34480,0.527832,-0.948242,0.0390625,0
34500,0.504883,-0.944336,0.0405273,0
34520,0.476074,-0.919922,0.0561523,0
34540,0.462891,-0.914062,0.0639648,0
34560,0.412598,-0.882324,0.0615234,0
34580,0.389648,-0.866211,0.0708008,0
34600,0.38916,-0.851074,0.0551758,0
34620,0.392578,-0.849121,0.0620117,0
34640,0.365234,-0.860352,0.0712891,0
34660,0.345215,-0.834961,0.078125,0
34680,0.368164,-0.82666,0.0893555,0
34700,0.407715,-0.84668,0.0712891,0
34720,0.430664,-0.866699,0.0244141,0
34740,0.430664,-0.880371,0.00634766,0
34760,0.422363,-0.851562,0.0263672,0
34780,0.399902,-0.849121,0.012207,0
34800,0.40332,-0.868164,-0.000488281,0
34820,0.414551,-0.900391,-0.0126953,0
34840,0.415039,-0.911133,-0.027832,0
34860,0.404297,-0.869141,-0.0234375,0
34880,0.388184,-0.844727,-0.0273438,0
34900,0.380371,-0.853027,-0.0209961,0
34920,0.38916,-0.861328,-0.0229492,0
34940,0.390625,-0.861328,-0.0415039,0
34960,0.407715,-0.842285,-0.0292969,0
34980,0.403809,-0.856445,-0.019043,0
35000,0.38623,-0.861328,-0.034668,0
35020,0.393066,-0.846191,-0.0195312,0
35040,0.401855,-0.803223,-0.0209961,0
35060,0.441895,-0.85791,-0.0800781,0
35080,0.4375,-0.918457,-0.0751953,0
35100,0.42334,-0.95166,-0.10791,0
35120,0.391602,-0.907715,-0.0737305,0
35140,0.39209,-0.90332,-0.0634766,0
35160,0.434082,-0.927734,-0.0493164,0
35180,0.447754,-0.949707,-0.0429688,0
35200,0.439453,-0.90918,-0.0551758,0
35220,0.427246,-0.914551,-0.0429688,0
35240,0.432129,-0.928711,-0.0214844,0
35260,0.413574,-0.895508,-0.0307617,0
35280,0.411133,-0.899902,-0.0253906,0
35300,0.400879,-0.88623,-0.0175781,0
35320,0.39502,-0.875488,-0.0102539,0
35340,0.400879,-0.910645,-0.0458984,0
35360,0.372559,-0.95752,-0.0541992,0
35380,0.362305,-0.929199,-0.0424805,0
35400,0.397949,-0.91748,-0.0419922,0
35420,0.424805,-0.918457,-0.0537109,0
35440,0.395508,-0.897949,-0.0551758,0
35460,0.385254,-0.900391,-0.0361328,0
35480,0.429199,-0.913086,-0.0415039,0
35500,0.455566,-0.930176,-0.0629883,0
35520,0.394043,-0.9375,-0.0307617,0
35540,0.405273,-0.881836,-0.0283203,0
35560,0.458008,-0.89502,-0.0185547,0
35580,0.465332,-0.915527,-0.0380859,0
35600,0.435547,-0.912598,-0.050293,0
35620,0.449219,-0.927734,-0.0449219,0
35640,0.472656,-0.923828,-0.0405273,0
35660,0.45166,-0.896484,-0.0385742,0
35680,0.453613,-0.895508,-0.0439453,0
35700,0.458984,-0.89209,-0.0302734,0
35720,0.441895,-0.893555,-0.0361328,0
35740,0.401367,-0.870605,-0.0581055,0
35760,0.397461,-0.873535,-0.0585938,0
35780,0.407227,-0.893555,-0.0644531,0
35800,0.375488,-0.899414,-0.0722656,0
35820,0.335449,-0.900391,-0.0644531,0
35840,0.33252,-0.925293,-0.0507812,0
35850,0.374023,-0.918457,-0.0395508,0
35870,0.402832,-0.928711,-0.0449219,0
35890,0.419922,-0.912109,-0.0581055,0
35910,0.443359,-0.887695,-0.090332,0
35930,0.43457,-0.904297,-0.0869141,0
35950,0.413086,-0.880371,-0.0473633,0
35970,0.407227,-0.876465,-0.0512695,0
35990,0.405762,-0.870605,-0.0415039,0
36010,0.369141,-0.847168,-0.00683594,0
36030,0.370605,-0.831055,-0.0126953,0
36050,0.39502,-0.861816,-0.0341797,0
36070,0.38916,-0.878418,-0.00976562,0
36090,0.374023,-0.892578,-0.015625,0
36110,0.349609,-0.878418,-0.0102539,0
36130,0.320801,-0.868652,0.019043,0
36150,0.340332,-0.869141,0.0253906,0
36170,0.391113,-0.867676,0.0356445,0
36190,0.42334,-0.865723,0.0610352,0
36210,0.432129,-0.876953,0.0698242,0
36230,0.42334,-0.854004,0.0732422,0
36250,0.442383,-0.854004,0.0615234,0
36270,0.466309,-0.866699,0.0893555,0
36290,0.441895,-0.835938,0.119141,0
36310,0.428711,-0.830566,0.0947266,0
36330,0.453613,-0.846191,0.0727539,0
36350,0.470703,-0.881836,0.114258,0
36370,0.479004,-0.865234,0.128906,0
36390,0.458984,-0.85498,0.102539,0
36410,0.443848,-0.867676,0.114746,0
36430,0.420898,-0.854004,0.165039,0
36450,0.414062,-0.834473,0.177734,0
36470,0.409668,-0.870117,0.161621,0
36490,0.410645,-0.887695,0.176758,0
36510,0.418457,-0.879395,0.211914,0
36530,0.407715,-0.818848,0.211914,0
36550,0.407227,-0.855957,0.203125,0
36570,0.419434,-0.904297,0.179199,0
36590,0.422852,-0.942871,0.205078,0
36610,0.417969,-0.953613,0.221191,0
36630,0.405762,-0.95166,0.210449,0
36650,0.393066,-0.94873,0.188965,0
36670,0.395996,-0.946289,0.213379,0
36690,0.395996,-0.950195,0.228516,0
36710,0.391113,-0.961426,0.221191,0
36730,0.365723,-0.916504,0.244629,0
36750,0.350586,-0.882324,0.256836,0
36770,0.351562,-0.85791,0.268555,0
36790,0.341309,-0.866699,0.28418,0
36810,0.351074,-0.874023,0.285645,0
36830,0.371094,-0.875488,0.289062,0
36850,0.378906,-0.876953,0.299316,0
36870,0.387207,-0.853516,0.304199,0
36890,0.38916,-0.837402,0.290527,0
36910,0.399902,-0.828125,0.292969,0
36930,0.419434,-0.840332,0.303223,0
36950,0.427246,-0.855957,0.313965,0
36970,0.4375,-0.857422,0.308105,0
36990,0.425293,-0.841309,0.29834,0
37010,0.422852,-0.831055,0.299805,0
37030,0.40918,-0.833496,0.302246,0
37050,0.411621,-0.842285,0.286621,0
37070,0.402832,-0.850586,0.289551,0
37090,0.390137,-0.838867,0.297363,0
37110,0.386719,-0.830566,0.296387,0
37130,0.381836,-0.828125,0.291992,0
37150,0.382812,-0.84082,0.287109,0
37170,0.378906,-0.844238,0.295898,0
37190,0.373047,-0.836426,0.293457,0
37210,0.350098,-0.819824,0.299805,2000
37230,0.359375,-0.834473,0.287598,0
37250,0.37207,-0.860352,0.29541,0
37270,0.371582,-0.859375,0.296387,0
37290,0.368652,-0.834961,0.295898,0
37310,0.366699,-0.82959,0.285645,0
37330,0.382812,-0.846191,0.287109,0
37350,0.384766,-0.84082,0.291504,0
37370,0.381348,-0.818848,0.280762,0
37390,0.382812,-0.835938,0.299805,0
37410,0.386719,-0.850586,0.312012,0
37430,0.408203,-0.828125,0.293945,0
37450,0.400391,-0.831543,0.295898,0
37470,0.376953,-0.815918,0.29541,0
37490,0.373535,-0.830566,0.3125,0
37510,0.381836,-0.82666,0.312012,0
37530,0.395996,-0.833496,0.291016,0
37550,0.380859,-0.839844,0.29834,0
37570,0.398926,-0.834961,0.299316,0
37590,0.415039,-0.841309,0.288086,0
37610,0.38916,-0.831055,0.296387,0
37630,0.387207,-0.832031,0.284668,0
37650,0.410156,-0.854004,0.276367,0
37670,0.413086,-0.849121,0.285156,0
37690,0.394043,-0.839355,0.277832,0
37710,0.399902,-0.84082,0.286133,0
37730,0.419922,-0.841309,0.273926,0
37750,0.388184,-0.839844,0.27832,0
37770,0.362793,-0.830078,0.280762,0
37790,0.387207,-0.838379,0.293945,0
37810,0.397461,-0.844727,0.291992,0
37830,0.381348,-0.84668,0.286621,0
37850,0.357422,-0.838867,0.281738,0
37870,0.362305,-0.834961,0.271973,0
37880,0.353516,-0.86377,0.277344,0
37900,0.324707,-0.854004,0.272949,0
37920,0.303711,-0.837402,0.283691,0
37940,0.305176,-0.859375,0.278809,0
37960,0.313477,-0.862793,0.264648,0
37980,0.311523,-0.876953,0.259766,0
38000,0.309082,-0.888672,0.246582,0
38020,0.333496,-0.888184,0.244141,0
38040,0.345215,-0.895996,0.241699,0
38060,0.359863,-0.882324,0.241699,0
38080,0.364746,-0.901855,0.229004,0
38100,0.361328,-0.891113,0.216797,0
38120,0.401855,-0.876465,0.219727,0
38140,0.411133,-0.885742,0.212402,0
38160,0.404785,-0.87793,0.194824,0
38180,0.387695,-0.876953,0.191406,0
38200,0.407715,-0.866211,0.174805,0
38220,0.415039,-0.848633,0.189941,0
38240,0.381836,-0.859863,0.186523,0
38260,0.418457,-0.843262,0.189453,0
38280,0.42334,-0.860352,0.172363,0
38300,0.370117,-0.840332,0.16748,0
38320,0.386719,-0.847656,0.176758,0
38340,0.402832,-0.859375,0.165527,0
38360,0.441895,-0.850586,0.164062,0
38380,0.433105,-0.839844,0.152344,0
38400,0.409668,-0.830078,0.137695,0
38430,0.487793,-0.838379,0.163086,0
38450,0.484375,-0.813477,0.12793,0
38470,0.486328,-0.816406,0.133789,0
38490,0.494629,-0.813477,0.147461,0
38510,0.488281,-0.816895,0.148926,0
38530,0.414062,-0.803711,0.134277,0
38550,0.566895,-0.791504,0.130371,0
38570,0.558594,-0.804688,0.143066,0
38590,0.541504,-0.773926,0.142578,0
38610,0.564453,-0.784668,0.115723,0
38630,0.583008,-0.793457,0.118652,0
38650,0.614258,-0.769531,0.132324,0
38670,0.60498,-0.762207,0.134766,0
38690,0.611816,-0.756836,0.10791,0
38710,0.630371,-0.757324,0.11377,0
38730,0.629883,-0.750977,0.128418,0
38750,0.635254,-0.741211,0.125977,0
38770,0.655762,-0.736816,0.118164,0
38790,0.647461,-0.736816,0.11377,0
38810,0.65918,-0.716797,0.126465,0
38830,0.662109,-0.70166,0.129883,0
38850,0.674805,-0.685059,0.128418,0
38870,0.676758,-0.668457,0.15918,0
38890,0.696777,-0.647949,0.166504,0
38910,0.705566,-0.666992,0.150391,0
38930,0.714355,-0.65625,0.164551,0
38950,0.72168,-0.649902,0.172852,0
38970,0.718262,-0.635254,0.184082,0
38990,0.728027,-0.640625,0.176758,0
39010,0.73877,-0.632812,0.202637,0
39030,0.736816,-0.61084,0.214355,0
39050,0.726562,-0.619141,0.216309,0
39070,0.746582,-0.634277,0.230469,0
39090,0.727051,-0.648438,0.26416,0
39110,0.668945,-0.643555,0.271484,0
39130,0.654785,-0.655273,0.26416,0
39150,0.773438,-0.680664,0.269531,0
39170,0.845215,-0.711914,0.282227,0
39190,0.703613,-0.693359,0.285645,0
39210,0.645508,-0.668457,0.326172,0
39230,0.671387,-0.6875,0.322266,0
39250,0.703125,-0.680176,0.354004,0
39270,0.637207,-0.67041,0.373047,0
39290,0.61084,-0.654297,0.375488,0
39310,0.608887,-0.672852,0.387695,0
39330,0.600098,-0.722656,0.382812,0
39350,0.556641,-0.730957,0.387207,0
39370,0.543457,-0.72998,0.376465,0
39390,0.562988,-0.716309,0.382324,0
39410,0.54834,-0.726074,0.380371,0
39430,0.510742,-0.723633,0.378418,0
39450,0.489258,-0.73291,0.374512,0
39470,0.485352,-0.762695,0.353027,0
39490,0.489746,-0.753906,0.338379,0
39510,0.469238,-0.765137,0.366699,0
39530,0.439453,-0.755859,0.365234,0
39550,0.432617,-0.76709,0.333984,0
39570,0.446289,-0.764648,0.319336,0
39590,0.43457,-0.770996,0.327637,0
39610,0.396484,-0.772461,0.325684,0
39630,0.379395,-0.768066,0.312012,0
39650,0.396973,-0.797852,0.29248,0
39670,0.402832,-0.773438,0.29834,0
39690,0.380859,-0.766602,0.285156,0
39710,0.365723,-0.786133,0.274902,0
39730,0.410645,-0.79248,0.262695,0
39750,0.411621,-0.803711,0.275391,0
39770,0.381348,-0.793457,0.256836,0
39790,0.39502,-0.811035,0.245605,0
39810,0.42041,-0.834473,0.249512,0
39830,0.412109,-0.833008,0.255859,0
39850,0.408203,-0.827637,0.219727,0
39870,0.415039,-0.837402,0.211914,0
39890,0.431152,-0.822754,0.228516,0
39910,0.416016,-0.825684,0.219727,0
39930,0.403809,-0.844238,0.197266,0
39950,0.424316,-0.876953,0.203125,0
39970,0.426758,-0.867676,0.220215,0
39990,0.39209,-0.848145,0.195312,0
40010,0.379883,-0.851074,0.163086,0
40030,0.419922,-0.862793,0.187988,0
40050,0.419434,-0.861816,0.1875,0
40070,0.369629,-0.854004,0.152832,0
40090,0.364258,-0.862793,0.152832,0
40110,0.396973,-0.881836,0.155762,0
40130,0.401855,-0.878906,0.158691,0
40150,0.347656,-0.87207,0.120605,0
40170,0.338379,-0.887695,0.0996094,0
40190,0.385254,-0.90332,0.128418,0
40210,0.390137,-0.891602,0.114746,0
40230,0.361328,-0.874512,0.0991211,0
40250,0.352539,-0.889648,0.081543,0
40270,0.391602,-0.901855,0.090332,0
40290,0.424316,-0.908203,0.0766602,0
40310,0.398926,-0.899414,0.0551758,0
40330,0.393066,-0.878906,0.0439453,0
40350,0.433105,-0.881348,0.0620117,0
40370,0.466797,-0.886719,0.0507812,0
40390,0.456055,-0.867676,0.0375977,0
40410,0.454102,-0.858398,0.0102539,0
40430,0.481934,-0.86377,0.0136719,0
40450,0.500488,-0.864258,0.00634766,0
40470,0.494629,-0.836426,-0.0136719,0
40490,0.498535,-0.822754,-0.0224609,0
40510,0.511719,-0.824219,-0.00439453,0
40530,0.508789,-0.819336,-0.00488281,0
40550,0.508301,-0.803223,-0.0581055,0
40570,0.526367,-0.828613,-0.0830078,0
40590,0.560059,-0.842285,-0.0566406,0
40610,0.549805,-0.82373,-0.0537109,0
40630,0.520996,-0.798828,-0.0751953,0
40650,0.536621,-0.788574,-0.0859375,0
40670,0.557617,-0.799805,-0.0727539,0
40690,0.555664,-0.774414,-0.0708008,0
40710,0.542969,-0.78418,-0.114746,0
40730,0.548828,-0.79541,-0.102539,0
40750,0.57959,-0.790527,-0.0693359,0
40770,0.598145,-0.758301,-0.0727539,0
40790,0.578125,-0.75,-0.104004,0
40810,0.603027,-0.760254,-0.121094,0
40830,0.640137,-0.753418,-0.0673828,0
40850,0.640137,-0.724609,-0.0439453,0
40870,0.651367,-0.6875,-0.050293,0
40890,0.670898,-0.692383,-0.0571289,0
40910,0.670898,-0.673828,-0.0512695,0
40930,0.681641,-0.629883,-0.0576172,0
40950,0.695801,-0.617676,-0.0996094,0
40970,0.724121,-0.64502,-0.0732422,0
40990,0.749512,-0.633789,-0.0234375,0
41010,0.75,-0.605469,-0.0454102,0
41030,0.765625,-0.600586,-0.0917969,0
41040,0.82373,-0.634766,-0.046875,0
41060,0.864746,-0.600098,0.00976562,0
41080,0.865234,-0.560059,0.0268555,0
41100,0.835449,-0.538574,-0.00732422,0
41120,0.871582,-0.527832,0.0361328,0
41140,0.902832,-0.506348,0.0722656,0
41160,0.884277,-0.464844,0.0693359,0
41180,0.923828,-0.466797,0.0571289,0
41200,0.942383,-0.466309,0.0922852,0
41220,0.903809,-0.459961,0.148926,0
41240,0.876465,-0.44873,0.143066,0
41260,0.883301,-0.442383,0.148926,0
41280,0.891602,-0.433105,0.193359,0
41300,0.885742,-0.405762,0.214844,0
41320,0.901855,-0.412598,0.217773,0
41330,0.912598,-0.431152,0.242188,0
41350,0.902832,-0.429688,0.283203,0
41370,0.864746,-0.423828,0.324707,0
41390,0.87793,-0.438477,0.352051,0
41410,0.880371,-0.44043,0.345215,0
41430,0.835449,-0.449707,0.36084,0
41450,0.907227,-0.437012,0.446777,0
41470,0.858398,-0.459473,0.429199,0
41490,0.787598,-0.493652,0.428711,0
41510,0.794434,-0.496582,0.449707,0
41530,0.789551,-0.491699,0.480957,0
41550,0.749512,-0.50293,0.490723,0
41570,0.691895,-0.503418,0.45459,0
41590,0.655273,-0.513184,0.489258,0
41610,0.664062,-0.558594,0.516602,0
41630,0.626953,-0.557129,0.492188,0
41650,0.576172,-0.575195,0.477051,0
41670,0.516602,-0.601562,0.523438,0
41690,0.483398,-0.598633,0.486816,0
41710,0.496582,-0.637207,0.429688,0
41730,0.496582,-0.626953,0.436035,0
41750,0.425293,-0.615234,0.455566,0
41750,0.425293,-0.615234,0.455566,0
41760,0.691895,-0.503418,0.45459,0
41790,0.40332,-0.644531,0.421387,0
41810,0.474609,-0.677734,0.376953,0
41830,0.473633,-0.651367,0.388184,0
41850,0.391602,-0.654297,0.385742,0
41870,0.388672,-0.685059,0.346191,0
41890,0.429688,-0.703125,0.325684,0
41910,0.402344,-0.709961,0.318848,0
41930,0.408203,-0.730957,0.291016,0
41950,0.477539,-0.771484,0.257812,0
41970,0.474121,-0.768555,0.25293,0
41990,0.449219,-0.783203,0.231445,0
42010,0.463867,-0.778809,0.200195,0
42030,0.481934,-0.791504,0.177734,0
42050,0.45459,-0.794922,0.17041,0
42070,0.460938,-0.792969,0.137695,0
42090,0.483398,-0.820801,0.104004,0
42110,0.467773,-0.822754,0.0898438,0
42130,0.430664,-0.807617,0.0825195,0
42150,0.431641,-0.791016,0.0429688,0
42170,0.462402,-0.804688,0.0258789,0
42190,0.48877,-0.838379,0.0166016,0
42210,0.488281,-0.824707,0.00439453,0
42230,0.474609,-0.820801,0.0126953,0
42250,0.472656,-0.822754,0.0214844,0
42270,0.505859,-0.825684,-0.00439453,0
42290,0.532227,-0.845215,-0.00927734,0
42310,0.546387,-0.802246,-0.0253906,0
42330,0.538086,-0.789062,-0.0410156,0
42350,0.563477,-0.796875,-0.0610352,0
42370,0.60791,-0.787598,-0.0429688,0
42390,0.603027,-0.771973,-0.0263672,0
42410,0.580078,-0.720703,-0.0390625,0
42430,0.671875,-0.739746,-0.0883789,0
42450,0.754395,-0.745605,-0.059082,0
42470,0.688965,-0.70166,-0.0512695,0
42490,0.630859,-0.648926,-0.0493164,0
42510,0.712402,-0.663574,-0.0805664,0
42530,0.800781,-0.664062,-0.050293,0
42550,0.775879,-0.62207,-0.0620117,0
42570,0.722168,-0.576172,-0.0688477,0
42590,0.82666,-0.593262,-0.110352,0
42610,0.866211,-0.603027,-0.0927734,0
42630,0.833984,-0.562988,-0.0976562,0
42650,0.827637,-0.522949,-0.0830078,0
42670,0.85498,-0.518555,-0.0810547,0
42690,0.861328,-0.489746,-0.0732422,0
42710,0.857422,-0.470215,-0.0708008,0
42730,0.86084,-0.453125,-0.0493164,0
42750,0.87793,-0.425781,-0.0341797,0
42750,0.880371,-0.421387,-0.0126953,0
42770,0.905273,-0.399414,0.0166016,0
42790,0.900391,-0.390137,0.0668945,0
42810,0.897949,-0.369629,0.078125,0
42830,0.916504,-0.351074,0.0795898,0
42850,0.934082,-0.35498,0.103027,0
42870,0.925781,-0.348633,0.126953,0
42890,0.916992,-0.335449,0.132324,0
42910,0.942871,-0.333008,0.152832,0
42930,0.974609,-0.333984,0.155762,0
42950,0.997559,-0.349609,0.15918,0
42970,1.02832,-0.408691,0.157715,0
42990,0.952637,-0.40625,0.206543,0
43010,0.911621,-0.390137,0.256836,0
43030,0.905273,-0.396973,0.28125,0
43050,0.927734,-0.396484,0.283691,0
43070,0.910645,-0.389648,0.311035,0
43090,0.871094,-0.381348,0.34668,0
43110,0.82959,-0.394531,0.359863,0
43130,0.829102,-0.450195,0.371582,0
43150,0.822754,-0.480957,0.377441,0
43170,0.780273,-0.479004,0.374023,0
43190,0.733398,-0.468262,0.377441,0
43210,0.751465,-0.481934,0.369629,0
43230,0.723633,-0.523438,0.35498,0
43240,0.652344,-0.540527,0.347168,0
43270,0.596191,-0.571777,0.360352,0
43290,0.614746,-0.608398,0.347168,0
43310,0.667969,-0.607422,0.339844,0
43320,0.635742,-0.619629,0.315918,0
43340,0.583496,-0.618652,0.311523,0
43360,0.569336,-0.65625,0.300781,0
43380,0.576172,-0.707031,0.282227,0
43400,0.578613,-0.703613,0.272949,0
43420,0.54541,-0.687012,0.273438,0
43440,0.53418,-0.727539,0.25293,0
43460,0.56543,-0.740234,0.222656,0
43480,0.543945,-0.735352,0.208496,0
43500,0.492188,-0.742188,0.186523,0
43520,0.51709,-0.770508,0.177246,0
43540,0.521484,-0.772461,0.140625,0
43560,0.458984,-0.753906,0.134766,0
43580,0.45752,-0.77832,0.11377,0
43600,0.511719,-0.79834,0.0800781,0
43620,0.466309,-0.802246,0.0395508,0
43640,0.42627,-0.794434,0.0273438,0
43660,0.530273,-0.834961,0.00341797,0
43680,0.564941,-0.842285,-0.0380859,0
43700,0.51123,-0.803223,-0.059082,0
43720,0.510742,-0.819336,-0.0703125,0
43740,0.526855,-0.837891,-0.117188,0
43760,0.522461,-0.86084,-0.126465,0
43780,0.520508,-0.845215,-0.156738,0
43800,0.551758,-0.823242,-0.166992,0
43820,0.595215,-0.814941,-0.175293,0
43840,0.604004,-0.788086,-0.20166,0
43860,0.543457,-0.773926,-0.225586,0
43880,0.511719,-0.754883,-0.250977,0
43900,0.586914,-0.736328,-0.246094,0
43920,0.643555,-0.704102,-0.248535,0
43940,0.62207,-0.681641,-0.272461,0
43960,0.57666,-0.664551,-0.266113,0
43980,0.569336,-0.666504,-0.243164,0
44000,0.612305,-0.65918,-0.243164,0
44020,0.663086,-0.638184,-0.286621,0
44040,0.702148,-0.619141,-0.310059,0
44060,0.683594,-0.603027,-0.262207,0
44080,0.651367,-0.562012,-0.239258,0
44100,0.720703,-0.547852,-0.289551,0
44120,0.806152,-0.568848,-0.281738,0
44140,0.805176,-0.553711,-0.266602,0
44160,0.743652,-0.510254,-0.206055,0
44180,0.76709,-0.496582,-0.251465,0
44200,0.85791,-0.524902,-0.270996,0
44220,0.892578,-0.510254,-0.266113,0
44240,0.836426,-0.478516,-0.259766,0
44260,0.835449,-0.469727,-0.246094,0
44280,0.899414,-0.48291,-0.243652,2001
44300,0.920898,-0.478027,-0.263672,0
44320,0.945312,-0.452637,-0.25293,0
44340,0.946289,-0.441406,-0.241699,0
44360,0.942383,-0.448242,-0.249512,0
44380,0.928223,-0.441406,-0.253418,0
44400,0.909668,-0.445801,-0.270996,0
44420,0.88623,-0.460938,-0.258301,0
44440,0.848145,-0.450684,-0.253906,0
44460,0.84082,-0.476074,-0.25293,0
44480,0.817871,-0.489746,-0.235352,0
44500,0.788574,-0.47998,-0.231934,0
44520,0.760742,-0.47168,-0.234375,0
44540,0.746582,-0.473633,-0.243164,0
44560,0.727539,-0.483398,-0.231934,0
44580,0.705566,-0.496582,-0.242676,0
44600,0.697266,-0.503906,-0.259277,0
44620,0.70459,-0.509277,-0.245117,0
44640,0.700684,-0.518555,-0.225098,0
44660,0.672852,-0.510254,-0.230957,0
44680,0.668945,-0.491211,-0.228516,0
44700,0.689453,-0.499023,-0.221191,0
44720,0.669922,-0.530273,-0.188965,0
44740,0.636719,-0.545898,-0.177246,0
44760,0.647949,-0.551758,-0.242188,0
44780,0.690918,-0.578613,-0.203613,0
44800,0.683594,-0.617188,-0.142578,0
44820,0.64209,-0.599609,-0.18457,0
44840,0.70459,-0.741699,-0.130371,0
44860,0.677734,-0.770508,-0.132812,0
44880,0.666992,-0.744629,-0.141602,0
44900,0.652344,-0.753906,-0.118652,0
44920,0.641602,-0.808594,-0.0742188,0
44940,0.64209,-0.816406,-0.104004,0
44960,0.660645,-0.833496,-0.104492,0
44980,0.63916,-0.875977,-0.0698242,0
45000,0.621582,-0.922363,-0.0478516,0
45020,0.612793,-0.944336,-0.059082,0
45040,0.62207,-0.934082,-0.0527344,0
45060,0.579102,-0.956055,-0.0209961,0
45080,0.529297,-0.979492,-0.0117188,0
45100,0.5,-0.991211,-0.0571289,0
45120,0.481934,-0.980957,-0.046875,0
45140,0.460449,-0.979492,-0.0209961,0
45160,0.416016,-0.986816,-0.0244141,0
45180,0.404297,-0.96582,-0.0366211,0
45200,0.399902,-0.956543,-0.00390625,0
45220,0.385742,-0.978027,0.000976562,0
45240,0.370117,-0.96875,0.0107422,0
45260,0.351562,-0.974609,0.015625,0
45280,0.327637,-0.983887,0.0380859,0
45300,0.295898,-0.974609,0.0507812,0
45320,0.279785,-0.963379,0.0576172,0
45340,0.300293,-0.960938,0.0292969,2000
45360,0.309082,-0.979492,0.0297852,0
45380,0.29248,-0.972168,0.0415039,0
45400,0.298828,-0.936035,0.0361328,0
45420,0.31543,-0.941406,0.0224609,0
45440,0.325684,-0.98877,0.0209961,0
45460,0.337891,-0.96582,0.012207,0
45480,0.335449,-0.978027,0.0297852,0
45500,0.319336,-0.960449,0.0395508,0
45520,0.305664,-0.948242,0.019043,0
45540,0.313477,-0.932129,0.0288086,0
45560,0.327148,-0.959961,0.0332031,0
45580,0.344727,-0.972656,0.0322266,0
45600,0.341309,-0.939453,0.0292969,0
45620,0.333984,-0.932129,0.0473633,0
45640,0.363281,-0.922852,0.0322266,0
45660,0.363281,-0.930664,0.0356445,0
45680,0.34668,-0.929199,0.0141602,0
45700,0.342285,-0.930664,0.0205078,0
45720,0.349121,-0.943359,0.0371094,0
45740,0.345215,-0.942383,0.0332031,0
45760,0.312988,-0.926758,0.0341797,0
45780,0.300293,-0.914551,0.0463867,0
45800,0.322754,-0.945801,0.0322266,0
45820,0.291504,-0.944824,0.0522461,0
45840,0.250488,-0.906738,0.0634766,0
45860,0.269043,-0.929688,0.0415039,0
45880,0.289062,-0.953125,0.0405273,0
45900,0.292969,-0.957031,0.0532227,0
45920,0.265625,-0.957031,0.0224609,0
45940,0.287598,-0.957031,0.0234375,0
45960,0.304199,-0.969727,0.0332031,0
45980,0.304688,-0.958496,0.0288086,0
46000,0.297852,-0.946289,0.0317383,0
46020,0.300781,-0.958496,0.0200195,0
46040,0.30957,-0.951172,0.0161133,0
46060,0.346191,-0.946777,0.0141602,0
46080,0.339844,-0.931152,-0.00634766,0
46100,0.336914,-0.953613,-0.0126953,0
46120,0.347656,-0.956055,-0.000488281,0
46140,0.378418,-0.938965,0.000976562,0
46160,0.373047,-0.933105,-0.015625,0
46180,0.35791,-0.924805,-0.0175781,0
46200,0.359863,-0.919922,-0.015625,0
46220,0.394043,-0.906738,0.00439453,0
46240,0.397461,-0.89502,-0.0180664,0
46260,0.385742,-0.882812,-0.0341797,0
46280,0.402344,-0.893066,-0.0195312,0
46300,0.411133,-0.893555,-0.00341797,0
46320,0.410645,-0.891113,-0.0244141,0
46340,0.402344,-0.885742,-0.0371094,0
46360,0.413086,-0.874512,-0.0239258,0
46380,0.443848,-0.861328,-0.0131836,0
46400,0.428223,-0.848633,-0.0205078,0
46420,0.444824,-0.85498,-0.043457,0
46440,0.474609,-0.875,-0.0244141,0
46460,0.470703,-0.855469,-0.00732422,0
46480,0.482422,-0.826172,-0.0209961,0
46500,0.508789,-0.838867,-0.0546875,0
46520,0.515137,-0.843262,-0.0341797,0
46540,0.51709,-0.83252,-0.00585938,0
46560,0.537109,-0.812012,-0.00390625,0
46580,0.552246,-0.805664,-0.034668,0
46600,0.575684,-0.80957,-0.0131836,0
46620,0.575684,-0.795898,0.0141602,0
46640,0.580078,-0.785645,0.0175781,0
46660,0.600098,-0.772949,0.00439453,0
46680,0.629395,-0.761719,0,0
46700,0.617188,-0.757812,0.0288086,0
46720,0.622559,-0.740234,0.0458984,0
46740,0.644043,-0.723633,0.0405273,0
46760,0.679199,-0.723633,0.0288086,0
46770,0.706055,-0.703125,0.0605469,0
46790,0.699219,-0.687012,0.0683594,0
46810,0.699707,-0.669434,0.0708008,0
46830,0.719727,-0.675781,0.0839844,0
46850,0.736328,-0.660645,0.105957,0
46870,0.73877,-0.623047,0.113281,0
46890,0.733887,-0.615234,0.112305,0
46910,0.749023,-0.600098,0.124023,0
46950,0.769531,-0.598633,0.17041,0
46970,0.775879,-0.580566,0.154297,0
46990,0.78125,-0.582031,0.175781,0
47010,0.827637,-0.585938,0.219727,0
47030,0.844238,-0.581055,0.222168,0
47050,0.799316,-0.583984,0.215332,0
47070,0.789551,-0.59082,0.247559,0
47090,0.81543,-0.606445,0.28418,0
47110,0.785645,-0.60498,0.285645,0
47130,0.755371,-0.591309,0.294434,0
47150,0.772461,-0.59668,0.329102,0
47170,0.772949,-0.606934,0.365723,0
47190,0.759766,-0.601562,0.377441,0
47210,0.706055,-0.597168,0.401367,0
47230,0.676758,-0.604492,0.420898,0
47250,0.675781,-0.618652,0.435059,0
47270,0.68457,-0.611328,0.425781,0
47290,0.633301,-0.600586,0.420898,0
47310,0.628906,-0.600098,0.449219,0
47330,0.616211,-0.615234,0.433105,0
47350,0.597168,-0.644043,0.436035,0
47370,0.578613,-0.644531,0.448242,0
47390,0.583008,-0.657227,0.46875,0
47410,0.578613,-0.688965,0.431641,0
47430,0.519531,-0.70752,0.440918,0
47450,0.495117,-0.681152,0.44043,0
47470,0.522461,-0.687012,0.428711,0
47490,0.509766,-0.723145,0.398438,0
47510,0.459961,-0.712402,0.40918,0
47530,0.424805,-0.703613,0.419922,0
47550,0.447754,-0.71582,0.398438,0
47570,0.440918,-0.741211,0.358398,0
47590,0.387695,-0.73291,0.356445,0
47610,0.355957,-0.718262,0.363281,0
47630,0.378418,-0.75,0.365234,0
47650,0.388184,-0.758301,0.327148,0
47670,0.356445,-0.75,0.319336,0
47690,0.36084,-0.751953,0.322754,0
47710,0.395508,-0.774414,0.321777,0
47730,0.411621,-0.790039,0.300293,0
47750,0.400879,-0.786133,0.274414,0
47770,0.412598,-0.811035,0.291016,0
47790,0.409668,-0.83252,0.294434,0
47810,0.383301,-0.835938,0.270996,0
47830,0.394531,-0.834961,0.240234,0
47850,0.443848,-0.834961,0.240234,0
47870,0.413574,-0.825684,0.232422,0
47890,0.353516,-0.84668,0.216797,0
47910,0.381348,-0.876953,0.231445,0
47930,0.40918,-0.875,0.230957,0
47950,0.383301,-0.855469,0.197266,0
47970,0.375,-0.837891,0.187988,0
47990,0.398438,-0.880859,0.182617,0
48010,0.40918,-0.894043,0.184082,0
48030,0.369141,-0.881836,0.152832,0
48050,0.375488,-0.875977,0.162109,0
48070,0.42627,-0.87793,0.17041,0
48090,0.40625,-0.875488,0.149902,0
48110,0.356934,-0.853027,0.123047,0
48130,0.345703,-0.865723,0.103027,0
48150,0.375488,-0.896484,0.0708008,0
48170,0.400391,-0.874023,0.0727539,0
48190,0.368652,-0.848145,0.0449219,0
48210,0.376953,-0.842773,0.0410156,0
48230,0.42334,-0.879883,0.0541992,0
48250,0.446289,-0.879395,0.0424805,0
48270,0.434082,-0.85498,0.0366211,0
48290,0.459473,-0.860352,0.00488281,0
48310,0.501953,-0.868652,0.0078125,0
48330,0.48584,-0.864258,-0.0078125,0
48350,0.470703,-0.84082,-0.00683594,0
48370,0.488281,-0.840332,-0.0307617,0
48390,0.527832,-0.850098,-0.0332031,0
48410,0.532227,-0.82373,-0.0507812,0
48430,0.490234,-0.810059,-0.0463867,0
48450,0.496582,-0.804688,-0.0742188,0
48470,0.584961,-0.825684,-0.0820312,0
48490,0.562988,-0.793457,-0.0693359,0
48510,0.537598,-0.77832,-0.0810547,0
48530,0.527344,-0.781738,-0.0991211,0
48550,0.57666,-0.797363,-0.102539,0
48570,0.598145,-0.795898,-0.103027,0
48590,0.565918,-0.76416,-0.0996094,0
48610,0.580566,-0.747559,-0.0864258,0
48630,0.602051,-0.74707,-0.0825195,0
48650,0.61084,-0.707031,-0.0742188,0
48670,0.599609,-0.672363,-0.0766602,0
48690,0.604492,-0.656738,-0.10791,0
48710,0.647949,-0.693848,-0.117676,0
48730,0.702637,-0.712891,-0.0732422,0
48750,0.710938,-0.668457,-0.0405273,0
48770,0.719727,-0.626465,-0.0649414,0
48780,0.76123,-0.62207,-0.101074,0
48800,0.803711,-0.621582,-0.0810547,0
48820,0.809082,-0.609863,-0.0712891,0
48840,0.782227,-0.570312,-0.0610352,0
48860,0.80957,-0.554688,-0.0751953,0
48880,0.833496,-0.55127,-0.0649414,0
48900,0.844238,-0.516602,-0.0458984,0
48920,0.842285,-0.493652,-0.0361328,0
48940,0.867676,-0.473145,-0.0219727,0
48960,0.882324,-0.459961,-0.0239258,0
48980,0.896484,-0.428711,-0.00292969,0
49000,0.904297,-0.420898,-0.00830078,0
49020,0.910645,-0.430176,0.0341797,0
49040,0.930664,-0.403809,0.0932617,0
49060,0.934082,-0.376953,0.109375,0
49080,0.95752,-0.358398,0.117676,0
49100,0.975098,-0.373047,0.146973,0
49120,0.94873,-0.363281,0.191406,0
49140,0.98291,-0.354492,0.206055,0
49160,0.990723,-0.376953,0.221191,0
49180,0.947754,-0.391113,0.258789,0
49200,0.918457,-0.402344,0.296875,0
49220,0.90332,-0.380859,0.308594,0
49240,0.871582,-0.379883,0.300293,0
49260,0.87207,-0.371582,0.32373,0
49280,0.838867,-0.361816,0.339355,0
49300,0.790527,-0.378906,0.375977,0
49320,0.786133,-0.412109,0.373047,0
49340,0.812988,-0.424805,0.405762,0
49360,0.783203,-0.421387,0.390137,0
49380,0.764648,-0.416992,0.429688,0
49400,0.744629,-0.447266,0.446777,0
49420,0.75,-0.488281,0.449707,0
49440,0.768555,-0.493164,0.454102,0
49460,0.730469,-0.495605,0.486328,0
49480,0.688965,-0.47998,0.472168,0
49500,0.682617,-0.506836,0.471191,0
49520,0.688965,-0.541016,0.465332,0
49540,0.660645,-0.52832,0.457031,0
49560,0.601074,-0.54248,0.458008,0
49580,0.597168,-0.57373,0.455566,0
49600,0.608887,-0.62207,0.424805,0
49620,0.601562,-0.591309,0.413086,0
49640,0.578125,-0.584473,0.426758,0
49660,0.547852,-0.605957,0.42041,0
49680,0.573242,-0.623047,0.384766,0
49700,0.581055,-0.60498,0.369629,0
49720,0.527344,-0.621582,0.395508,0
49740,0.521973,-0.648438,0.364258,0
49760,0.569336,-0.665039,0.352539,0
49780,0.577637,-0.652344,0.339355,0
49800,0.538086,-0.669434,0.312012,0
49820,0.507324,-0.702148,0.287109,0
49830,0.513672,-0.698242,0.260742,0
49840,0.547363,-0.71582,0.253418,0
49870,0.506836,-0.711914,0.222168,0
49890,0.522949,-0.76123,0.201172,0
49900,0.575684,-0.760254,0.189941,0
49920,0.518066,-0.751953,0.165039,0
49940,0.467285,-0.76709,0.138184,0
49960,0.499512,-0.804688,0.15332,0
49980,0.511719,-0.793945,0.145508,0
50000,0.495605,-0.766113,0.109863,0
50020,0.505371,-0.776367,0.0805664,0
50040,0.532227,-0.800781,0.0576172,0
50060,0.508789,-0.810059,0.0595703,0
50080,0.456055,-0.803711,0.0219727,0
50100,0.508789,-0.830566,0.00488281,0
50120,0.572266,-0.829102,-0.0126953,0
50140,0.58252,-0.805176,-0.0253906,0
50160,0.54834,-0.783203,-0.0361328,0
50180,0.544922,-0.791992,-0.0292969,0
50200,0.569336,-0.817383,-0.0322266,0
50220,0.575195,-0.807617,-0.0869141,0
50240,0.567871,-0.772949,-0.097168,0
50260,0.556641,-0.755859,-0.065918,0
50280,0.581543,-0.755859,-0.0874023,0
50300,0.636719,-0.776855,-0.0991211,0
50320,0.625977,-0.766113,-0.0844727,0
50340,0.612793,-0.76709,-0.0791016,0
50360,0.596191,-0.761719,-0.0927734,0
50380,0.597168,-0.751465,-0.127441,0
50400,0.628418,-0.735352,-0.128418,0
50420,0.672852,-0.689453,-0.140137,0
50440,0.70752,-0.661621,-0.191406,0
50450,0.703125,-0.679199,-0.184082,0
50470,0.691895,-0.665039,-0.149414,0
50490,0.719238,-0.643066,-0.161621,0
50510,0.76709,-0.625977,-0.195801,0
50530,0.769043,-0.609375,-0.17627,0
50550,0.743164,-0.581543,-0.158203,0
50570,0.760742,-0.543457,-0.179199,0
50590,0.841309,-0.550781,-0.186035,0
50610,0.844238,-0.524414,-0.158203,0
50630,0.817383,-0.473145,-0.146973,0
50650,0.850098,-0.458984,-0.146484,0
50670,0.876953,-0.460449,-0.133789,0
50690,0.881348,-0.436035,-0.124023,0
50710,0.875,-0.402832,-0.119629,0
50730,0.879395,-0.370117,-0.136719,0
50750,0.89209,-0.357422,-0.116211,0
50770,0.916992,-0.34668,-0.0708008,0
50790,0.901367,-0.334473,-0.0874023,0
50810,0.911133,-0.304199,-0.0649414,0
50830,0.949219,-0.306152,-0.0219727,0
50850,0.962402,-0.285645,-0.0195312,0
50870,0.963867,-0.260742,0.0112305,0
50890,0.983887,-0.25293,0.0332031,0
50910,0.965332,-0.268066,0.0810547,0
50930,0.951172,-0.254395,0.0991211,0
50950,0.969727,-0.253418,0.111328,0
50970,1.02246,-0.254395,0.152344,0
50990,0.987793,-0.25293,0.168457,0
51010,0.943359,-0.237793,0.196289,0
51030,0.957031,-0.225586,0.230469,0
51050,0.971191,-0.254395,0.263672,0
51070,0.984375,-0.27002,0.253906,0
51090,0.942383,-0.26416,0.260742,0
51110,0.864258,-0.261719,0.323242,0
51130,0.840332,-0.304688,0.29248,0
51150,0.901855,-0.316406,0.283203,0
51170,0.920898,-0.277832,0.344727,0
51190,0.866699,-0.279297,0.371094,0
51210,0.850098,-0.351562,0.354492,0
51230,0.857422,-0.416504,0.335938,0
51250,0.804199,-0.393555,0.389648,0
51270,0.782715,-0.401367,0.415039,0
51290,0.828125,-0.426758,0.375488,0
51310,0.822266,-0.430176,0.359375,0
51330,0.755371,-0.426758,0.37207,0
51350,0.711426,-0.473145,0.381348,0
51370,0.762695,-0.512207,0.353516,0
51390,0.783203,-0.52832,0.345703,0
51410,0.708008,-0.491211,0.363281,0
51430,0.657227,-0.558594,0.35791,0
51450,0.704102,-0.591797,0.31543,0
51470,0.72998,-0.567383,0.324707,0
51490,0.641602,-0.561523,0.291016,0
51510,0.554199,-0.569824,0.254883,0
51530,0.578613,-0.665527,0.242188,0
51550,0.61084,-0.700195,0.234375,0
51570,0.59668,-0.635742,0.194824,0
51590,0.574219,-0.643555,0.138184,0
51610,0.548828,-0.690918,0.11377,0
51630,0.54541,-0.731934,0.125,0
51650,0.59082,-0.765625,0.0976562,0
51670,0.578125,-0.760742,0.0454102,0
51690,0.540039,-0.759277,0.0214844,0
51710,0.529785,-0.791504,-0.00439453,0
51730,0.544922,-0.784668,-0.0429688,0
51750,0.574707,-0.78418,-0.0473633,0
51770,0.597168,-0.797363,-0.0703125,0
51790,0.590332,-0.798828,-0.110352,0
51810,0.547363,-0.794434,-0.131348,0
51830,0.52832,-0.793945,-0.131348,0
51850,0.563477,-0.803711,-0.122559,0
51870,0.587891,-0.775879,-0.148926,0
51890,0.568848,-0.77002,-0.164551,0
51910,0.583496,-0.791992,-0.173828,0
51930,0.624512,-0.787598,-0.195312,0
51950,0.620605,-0.749512,-0.224609,0
51970,0.615234,-0.726074,-0.21582,0
51990,0.654297,-0.717773,-0.217773,0
52010,0.653809,-0.675781,-0.241211,0
52030,0.630859,-0.655273,-0.230957,0
52050,0.663574,-0.69873,-0.259277,0
52070,0.716797,-0.684082,-0.26416,0
52090,0.682129,-0.664062,-0.302734,0
52110,0.650391,-0.651855,-0.272461,0
52130,0.687988,-0.651367,-0.265137,0
52150,0.716797,-0.644531,-0.303223,0
52170,0.708008,-0.615234,-0.288086,0
52190,0.700195,-0.601562,-0.262695,0
52210,0.740234,-0.584473,-0.279785,0
52220,0.725098,-0.57373,-0.296875,0
52240,0.731445,-0.549316,-0.274902,0
52260,0.775879,-0.576172,-0.26709,0
52280,0.782227,-0.565918,-0.265625,0
52300,0.766113,-0.52832,-0.282715,0
52320,0.784668,-0.519043,-0.29248,0
52340,0.82666,-0.510254,-0.265137,0
52360,0.852539,-0.487793,-0.257812,0
52380,0.824219,-0.474121,-0.291992,0
52400,0.81543,-0.453613,-0.283691,0
52420,0.875977,-0.473633,-0.266113,2001
52440,0.875,-0.474121,-0.273438,0
52460,0.861328,-0.467773,-0.276367,0
52480,0.887695,-0.455566,-0.26416,0
52500,0.896484,-0.439941,-0.234375,0
52520,0.866211,-0.421387,-0.239746,0
52540,0.845215,-0.426758,-0.258789,0
52560,0.855469,-0.456543,-0.237305,0
52580,0.873535,-0.456543,-0.229004,0
52600,0.847168,-0.429688,-0.23584,0
52620,0.814453,-0.42041,-0.247559,0
52640,0.809082,-0.432617,-0.240723,0
52660,0.807617,-0.45166,-0.227051,0
52680,0.789551,-0.451172,-0.236328,0
52700,0.76709,-0.428711,-0.257812,0
52720,0.764648,-0.439453,-0.26709,0
52740,0.761719,-0.465332,-0.259766,0
52760,0.740723,-0.480957,-0.25293,0
52780,0.698242,-0.463867,-0.242188,0
52800,0.687988,-0.445801,-0.240234,0
52820,0.722168,-0.453125,-0.20459,0
52840,0.732422,-0.451172,-0.197754,0
52860,0.695801,-0.460938,-0.202148,0
52880,0.685547,-0.483398,-0.252441,0
52900,0.682129,-0.510254,-0.224609,0
52920,0.662109,-0.531738,-0.18457,0
52940,0.606445,-0.532227,-0.18457,0
52960,0.619141,-0.569336,-0.238281,0
52980,0.669434,-0.580078,-0.213867,0
53000,0.67041,-0.606934,-0.154785,0
53020,0.640625,-0.617676,-0.146973,0
53040,0.692383,-0.669922,-0.188965,0
53060,0.778809,-0.744141,-0.140137,0
53080,0.6875,-0.787109,-0.0761719,0
53100,0.62207,-0.776855,-0.101074,0
53120,0.654785,-0.801758,-0.114746,0
53140,0.666016,-0.844727,-0.0673828,0
53160,0.612793,-0.914062,-0.0532227,0
53180,0.618652,-0.969238,-0.124023,0
53200,0.628906,-0.969238,-0.11377,0
53220,0.601562,-0.992676,-0.0136719,0
53240,0.546387,-1.00635,0.015625,0
53260,0.526855,-1.04199,-0.0551758,0
53280,0.537109,-1.05859,-0.0195312,0
53300,0.513184,-1.05762,0.0356445,0
53320,0.499512,-1.03418,0.0136719,0
53340,0.459961,-1.02734,0.0249023,0
53360,0.418945,-1.02197,0.0571289,0
53380,0.350098,-1.02588,0.0771484,0
53400,0.311035,-0.99707,0.078125,0
53420,0.303711,-0.985352,0.0703125,0
53440,0.30957,-0.964844,0.101074,0
53460,0.306641,-0.945312,0.105957,0
53480,0.303711,-0.94043,0.107422,0
53500,0.306152,-0.944336,0.101074,0
53520,0.338867,-0.916504,0.103516,0
53540,0.348633,-0.938965,0.0888672,0
53560,0.325195,-0.967285,0.0766602,0
53580,0.320801,-0.95459,0.0820312,0
53600,0.327148,-0.937012,0.0849609,0
53620,0.352051,-0.929688,0.0751953,0
53640,0.360352,-0.933594,0.0551758,0
53660,0.352539,-0.928223,0.0878906,0
53680,0.353027,-0.899414,0.097168,0
53700,0.360352,-0.922363,0.0361328,0
53740,0.319336,-0.971191,0.0805664,0
53760,0.334473,-0.897949,0.105957,0
53780,0.358887,-0.910645,0.0756836,0
53800,0.368164,-0.928711,0.0390625,0
53820,0.351074,-0.919434,0.0610352,0
53840,0.351074,-0.900391,0.0698242,0
53860,0.342285,-0.92041,0.0639648,0
53880,0.340332,-0.937988,0.0585938,0
53900,0.342773,-0.939453,0.0541992,0
53920,0.345215,-0.941895,0.0454102,0
53940,0.335449,-0.937012,0.043457,0
53960,0.325684,-0.932617,0.0424805,0
53980,0.328125,-0.930176,0.0541992,0
54000,0.322266,-0.946289,0.0415039,0
54020,0.300293,-0.928223,0.0390625,0
54040,0.292969,-0.930664,0.0390625,0
54060,0.275879,-0.941406,0.0429688,0
54080,0.281738,-0.926758,0.043457,0
54100,0.292969,-0.919434,0.0327148,0
54120,0.309082,-0.936035,0.0253906,0
54140,0.32959,-0.930664,0.0234375,0
54160,0.363281,-0.928223,0.0205078,0
54180,0.401367,-0.932129,-0.000976562,0
54200,0.446777,-0.931641,0.00878906,0
54220,0.462891,-0.935059,0.0136719,0
54230,0.469238,-0.933105,0.00537109,0
54250,0.459473,-0.952637,-0.00732422,0
54270,0.470215,-0.940918,-0.0175781,0
54290,0.451172,-0.922363,-0.0078125,0
54310,0.426758,-0.905273,-0.00634766,0
54330,0.405762,-0.910156,-0.0229492,0
54350,0.417969,-0.933105,-0.0268555,0
54370,0.410156,-0.973633,-0.0195312,0
54390,0.386719,-0.976074,-0.0117188,0
54410,0.375,-0.960938,-0.0307617,0
54430,0.368652,-0.950195,-0.0361328,0
54450,0.357422,-0.937988,-0.0336914,0
54470,0.328125,-0.911621,-0.00341797,0
54490,0.307617,-0.886719,-0.000976562,0
54510,0.296387,-0.883301,-0.00390625,0
54530,0.293457,-0.925781,-0.00244141,0
54550,0.288086,-0.93457,0.00878906,0
54570,0.325195,-0.928711,-0.00537109,0
54590,0.331055,-0.920898,-0.00878906,0
54610,0.331543,-0.91748,0.00830078,0
54630,0.361816,-0.928223,0.000976562,0
54650,0.383301,-0.942383,0.000976562,0
54670,0.390137,-0.942871,-0.0327148,0
54690,0.387207,-0.91748,-0.0361328,0
54710,0.402344,-0.914551,-0.0483398,0
54730,0.411621,-0.957031,-0.0839844,0
54750,0.395996,-0.949219,-0.090332,0
54770,0.391113,-0.906738,-0.0703125,0
54790,0.40625,-0.897461,-0.0776367,0
54810,0.402832,-0.905273,-0.0922852,0
54830,0.368164,-0.88623,-0.0820312,0
54850,0.374512,-0.901367,-0.078125,0
54870,0.412109,-0.941895,-0.0932617,0
54890,0.397461,-0.940918,-0.09375,0
54910,0.371582,-0.891113,-0.119629,0
54930,0.38623,-0.902832,-0.103027,0
54950,0.401855,-0.905762,-0.107422,0
54970,0.383301,-0.932129,-0.0961914,0
54990,0.356445,-0.934082,-0.114746,0
55010,0.356934,-0.92627,-0.121094,0
55030,0.362793,-0.935547,-0.117676,0
55050,0.349609,-0.900879,-0.126465,0
55070,0.34375,-0.907227,-0.145508,0
55090,0.321777,-0.946289,-0.139648,0
55110,0.303711,-0.945801,-0.144043,0
55130,0.31543,-0.956543,-0.151855,0
55150,0.341309,-0.941895,-0.155762,0
55170,0.368652,-0.92334,-0.13916,0
55190,0.376953,-0.911133,-0.150879,0
55210,0.379883,-0.927734,-0.175293,0
55230,0.391113,-0.95752,-0.183594,0
55250,0.402832,-0.959473,-0.188965,0
55270,0.4375,-0.959473,-0.20752,0
55290,0.459961,-0.965332,-0.219727,0
55310,0.500977,-0.913086,-0.208008,0
55330,0.518066,-0.900879,-0.188965,0
55350,0.525879,-0.885254,-0.202148,0
55370,0.520508,-0.872559,-0.233398,0
55390,0.512695,-0.859863,-0.213379,0
55410,0.498047,-0.84082,-0.189453,0
55430,0.486328,-0.820801,-0.20752,0
55450,0.493652,-0.803711,-0.227051,0
55470,0.500488,-0.788574,-0.228027,0
55490,0.486816,-0.782227,-0.224609,0
55510,0.445801,-0.797852,-0.189941,0
55530,0.405273,-0.780762,-0.175293,0
55550,0.40625,-0.767578,-0.186523,0
55570,0.422363,-0.76416,-0.18457,0
55590,0.410156,-0.812012,-0.183594,0
55610,0.398926,-0.890625,-0.137207,0
55630,0.402832,-0.925781,-0.158691,0
55650,0.376465,-0.910645,-0.137695,0
55670,0.360352,-0.873047,-0.130859,0
55690,0.397949,-0.85791,-0.14502,0
55710,0.457031,-0.885254,-0.12207,0
55730,0.472168,-0.929199,-0.128906,0
55750,0.463379,-0.931641,-0.148926,0
55770,0.445801,-0.941406,-0.134766,0
55790,0.45166,-0.932617,-0.125488,0
55810,0.472168,-0.909668,-0.129395,0
55830,0.463379,-0.920898,-0.144531,0
55850,0.450684,-0.913574,-0.157715,0
55870,0.454102,-0.923828,-0.143066,0
55890,0.460449,-0.916992,-0.134277,0
55910,0.453125,-0.912598,-0.144043,0
55930,0.445801,-0.90625,-0.146484,0
55950,0.460449,-0.894531,-0.135742,0
55970,0.462402,-0.895508,-0.141113,0
55990,0.44873,-0.876953,-0.150391,0
56010,0.464844,-0.868652,-0.141113,0
56030,0.476074,-0.885254,-0.118652,0
56050,0.491699,-0.910156,-0.117676,0
56070,0.485352,-0.907227,-0.129395,0
56090,0.488281,-0.885254,-0.131348,0
56110,0.489258,-0.884277,-0.130371,0
56130,0.490234,-0.871094,-0.138672,0
56150,0.506836,-0.853516,-0.145508,0
56170,0.5,-0.851562,-0.141602,0
56190,0.481445,-0.859375,-0.133789,0
56210,0.475586,-0.876465,-0.125488,0
56230,0.462891,-0.868164,-0.138184,0
56250,0.467773,-0.846191,-0.14502,0
56270,0.479492,-0.850098,-0.13623,0
56290,0.481445,-0.85498,-0.135254,0
56310,0.47168,-0.859375,-0.144531,0
56330,0.48291,-0.873535,-0.147461,0
56350,0.47998,-0.894043,-0.148926,0
56370,0.491699,-0.896973,-0.17334,0
56390,0.477539,-0.910645,-0.199219,0
56410,0.456055,-0.887695,-0.208984,0
56430,0.45752,-0.875,-0.18457,0
56450,0.483398,-0.873535,-0.168945,0
56470,0.486816,-0.873047,-0.195312,0
56490,0.435059,-0.850586,-0.162598,0
56510,0.434082,-0.865234,-0.165527,0
56530,0.465332,-0.900391,-0.17041,0
56550,0.426758,-0.878418,-0.152344,0
56570,0.403809,-0.861328,-0.16748,0
56590,0.436523,-0.889648,-0.187988,0
56610,0.434082,-0.893555,-0.169922,0
56630,0.409668,-0.867676,-0.170898,0
56650,0.421875,-0.888184,-0.193359,0
56670,0.445312,-0.900879,-0.192871,0
56690,0.445312,-0.879395,-0.191895,0
56710,0.431152,-0.881836,-0.203613,0
56730,0.443359,-0.886719,-0.197266,0
56750,0.469238,-0.904297,-0.191895,0
56770,0.484375,-0.915527,-0.195801,0
56790,0.461914,-0.895996,-0.238281,0
56810,0.438965,-0.884766,-0.226074,0
56830,0.461426,-0.869141,-0.202637,0
56850,0.507812,-0.850098,-0.174805,0
56870,0.523926,-0.849121,-0.177246,0
56890,0.507812,-0.822754,-0.171387,0
56910,0.492188,-0.816895,-0.162598,0
56930,0.508789,-0.843262,-0.166016,0
56950,0.509277,-0.859863,-0.193359,0
56970,0.482422,-0.854004,-0.174316,0
56990,0.48291,-0.833496,-0.157715,0
57010,0.510742,-0.837402,-0.162598,0
57030,0.527832,-0.806152,-0.17334,0
57050,0.519531,-0.769531,-0.162109,0
57070,0.513672,-0.755371,-0.166504,0
57090,0.541016,-0.754883,-0.164551,0
57110,0.557617,-0.78418,-0.182617,0
57130,0.547363,-0.786621,-0.202637,0
57150,0.516602,-0.774902,-0.17041,0
57170,0.530273,-0.771484,-0.137695,0
57190,0.53418,-0.747559,-0.164062,0
57210,0.527832,-0.755859,-0.173828,0
57230,0.527832,-0.791504,-0.157227,0
57250,0.539551,-0.832031,-0.143066,0
57270,0.55127,-0.854004,-0.107422,0
57290,0.51123,-0.833984,-0.0976562,0
57310,0.506836,-0.841797,-0.106934,0
57330,0.530273,-0.870117,-0.108887,0
57350,0.543457,-0.907715,-0.0986328,0
57370,0.526855,-0.913086,-0.0917969,0
57390,0.550293,-0.928223,-0.107422,0
57410,0.569824,-0.960449,-0.0576172,0
57430,0.577148,-0.991699,-0.0380859,0
57450,0.569336,-1.00098,-0.0566406,0
57470,0.533203,-0.978027,-0.0483398,0
57490,0.512207,-0.950195,-0.0332031,0
57510,0.483887,-0.934082,-0.0410156,0
57530,0.467285,-0.912598,-0.0522461,0
57550,0.425293,-0.884766,-0.0405273,0
57570,0.367676,-0.844727,-0.0297852,0
57590,0.333984,-0.818359,-0.0234375,0
57610,0.333496,-0.807617,-0.0234375,0
57630,0.34082,-0.802246,-0.0136719,0
57650,0.359375,-0.790527,-0.0209961,0
57670,0.380859,-0.797363,-0.0302734,0
57690,0.399902,-0.789551,-0.0336914,0
57700,0.418457,-0.80957,-0.03125,0
57720,0.431152,-0.830566,-0.0327148,0
57740,0.45459,-0.846191,-0.0366211,0
57760,0.474609,-0.869629,-0.0390625,0
57780,0.495605,-0.890137,-0.0507812,0
57800,0.512695,-0.910156,-0.0439453,0
57820,0.529297,-0.93457,-0.0219727,0
57840,0.528809,-0.961914,-0.0146484,0
57860,0.529785,-0.949707,-0.0200195,0
57880,0.512207,-0.941895,-0.00683594,0
57900,0.480469,-0.928711,0.00585938,0
57920,0.45752,-0.92041,0.0131836,0
57940,0.436035,-0.924316,0.0205078,0
57960,0.431152,-0.917969,0.0449219,0
57980,0.411621,-0.911133,0.0615234,0
58000,0.400391,-0.904785,0.0541992,0
58020,0.38916,-0.88623,0.0551758,0
58040,0.390137,-0.88916,0.0556641,0
58060,0.387695,-0.885742,0.0761719,0
58080,0.388184,-0.890625,0.0717773,0
58100,0.398438,-0.898926,0.0673828,0
58120,0.413086,-0.896973,0.0732422,0
58140,0.424805,-0.898926,0.0634766,0
58160,0.4375,-0.905273,0.0625,0
58180,0.443359,-0.911621,0.0527344,0
58200,0.458008,-0.92627,0.0473633,0
58220,0.470215,-0.928711,0.0439453,0
58240,0.485352,-0.927246,0.0463867,0
58260,0.487305,-0.935547,0.0507812,0
58280,0.486816,-0.920898,0.0478516,0
58300,0.483398,-0.916504,0.0493164,0
58320,0.474121,-0.906738,0.0507812,0
58340,0.463379,-0.910645,0.0361328,0
58360,0.450684,-0.903809,0.0288086,0
58380,0.455078,-0.890625,0.0234375,0
58400,0.439453,-0.885742,0.0175781,0
58420,0.433105,-0.885254,0.0112305,0
58440,0.434082,-0.877441,-0.00683594,0
58460,0.433105,-0.866211,-0.00634766,0
58480,0.43457,-0.85791,-0.00390625,0
58500,0.436035,-0.856934,-0.0170898,0
58520,0.439941,-0.850098,-0.0380859,0
58540,0.442871,-0.854492,-0.0351562,0
58560,0.449707,-0.866211,-0.0454102,0
58580,0.465332,-0.848145,-0.046875,0
58600,0.470703,-0.831055,-0.0605469,0
58620,0.476074,-0.814941,-0.0761719,0
58640,0.474609,-0.833984,-0.078125,0
58660,0.480469,-0.837891,-0.0708008,0
58680,0.483398,-0.850098,-0.0683594,0
58700,0.476562,-0.849121,-0.0708008,0
58720,0.480957,-0.861328,-0.0639648,0
58740,0.476562,-0.866699,-0.0693359,0
58760,0.477539,-0.861328,-0.0688477,0
58780,0.472656,-0.86377,-0.0625,0
58800,0.466797,-0.870117,-0.0556641,0
58820,0.460449,-0.871582,-0.0620117,0
58840,0.452148,-0.882812,-0.0668945,0
58860,0.461914,-0.887695,-0.081543,0
58880,0.456543,-0.896973,-0.0605469,0
58900,0.452637,-0.897949,-0.0634766,0
58920,0.468262,-0.885254,-0.074707,0
58940,0.477539,-0.887207,-0.0595703,0
58960,0.481445,-0.883301,-0.0478516,0
58980,0.474609,-0.882812,-0.043457,0
59000,0.481934,-0.882812,-0.0449219,0
59020,0.469727,-0.876465,-0.0449219,0
59040,0.460938,-0.874512,-0.0473633,0
59060,0.453125,-0.867188,-0.0390625,0
59080,0.452637,-0.868652,-0.0541992,0
59100,0.444824,-0.867676,-0.0454102,0
59120,0.444336,-0.875977,-0.0371094,0
59140,0.439941,-0.87793,-0.0551758,0
59160,0.453125,-0.882324,-0.0649414,0
59180,0.460938,-0.902832,-0.0537109,0
59200,0.446289,-0.897949,-0.0600586,0
59220,0.456055,-0.909668,-0.0898438,0
59240,0.476562,-0.922852,-0.0727539,0
59260,0.489746,-0.926758,-0.0556641,2000
59280,0.472656,-0.92041,-0.0336914,0
59300,0.457031,-0.914062,-0.0644531,0
59320,0.457031,-0.901367,-0.065918,0
59340,0.453125,-0.901855,-0.0371094,0
59360,0.421387,-0.878418,-0.0615234,0
59380,0.445312,-0.880371,-0.0756836,0
59400,0.455078,-0.881348,-0.0556641,0
59420,0.450195,-0.878418,-0.0517578,0
59440,0.438965,-0.870117,-0.0849609,0
59460,0.442383,-0.902832,-0.0966797,0
59480,0.452148,-0.889648,-0.074707,0
59500,0.44043,-0.862793,-0.0786133,0
59520,0.445312,-0.871094,-0.0996094,0
59540,0.43457,-0.874512,-0.0991211,0
59560,0.424805,-0.876953,-0.0908203,0
59580,0.427734,-0.885254,-0.0830078,0
59600,0.428223,-0.888672,-0.100098,0
59620,0.40918,-0.881348,-0.101074,0
59640,0.423828,-0.896484,-0.11084,0
59660,0.458984,-0.924316,-0.118652,0
59680,0.42627,-0.931152,-0.081543,0
59700,0.396973,-0.88916,-0.0991211,0
59720,0.410156,-0.89502,-0.114746,0
59730,0.433594,-0.920898,-0.12207,0
59750,0.387207,-0.927734,-0.0961914,0
59770,0.361328,-0.910645,-0.0874023,0
59790,0.380371,-0.924805,-0.0849609,0
59810,0.392578,-0.9375,-0.090332,0
59830,0.361328,-0.921387,-0.0981445,0
59850,0.342285,-0.915527,-0.0922852,0
59870,0.348145,-0.931641,-0.078125,0
59890,0.385742,-0.956055,-0.109375,0
59910,0.396484,-0.947754,-0.097168,0
59930,0.393066,-0.928223,-0.102539,0
59950,0.414062,-0.92041,-0.0991211,0
59970,0.438965,-0.928711,-0.119629,0
59990,0.427246,-0.905762,-0.13916,0
60010,0.418945,-0.912109,-0.140625,0
60030,0.42041,-0.911621,-0.121582,0
60050,0.437012,-0.887207,-0.127441,0
60070,0.442871,-0.882812,-0.131836,0
60090,0.450195,-0.870117,-0.15332,0
60110,0.463867,-0.873047,-0.126465,0
60130,0.460449,-0.849609,-0.137695,0
60150,0.402344,-0.848633,-0.132812,0
60170,0.51123,-0.834473,-0.145508,0
60190,0.494629,-0.827637,-0.135254,0
60210,0.510254,-0.816406,-0.12207,0
60230,0.500488,-0.785645,-0.16748,0
60250,0.495605,-0.782227,-0.167969,0
60270,0.506348,-0.784668,-0.129395,0
60290,0.517578,-0.762207,-0.135254,0
60310,0.542969,-0.76416,-0.171875,0
60330,0.574707,-0.777832,-0.161621,0
60350,0.588379,-0.769531,-0.138672,0
60370,0.605469,-0.734863,-0.125,0
60390,0.612305,-0.73291,-0.180664,0
60410,0.664062,-0.765625,-0.17334,0
60430,0.671875,-0.736816,-0.132324,0
60450,0.676758,-0.697266,-0.127441,0
60470,0.688965,-0.699707,-0.140137,0
60490,0.728516,-0.692383,-0.12793,0
60510,0.744629,-0.671387,-0.0908203,0
60530,0.748047,-0.645508,-0.0805664,0
60550,0.785156,-0.643555,-0.0981445,0
60570,0.817383,-0.644043,-0.0883789,0
60590,0.82666,-0.619141,-0.0371094,0
60610,0.837402,-0.592773,-0.0239258,0
60630,0.898438,-0.59375,-0.0336914,0
60650,0.929199,-0.583008,-0.0078125,0
60670,0.905762,-0.571289,0.0229492,0
60690,0.923828,-0.549316,0.0405273,0
60710,0.921875,-0.561523,0.03125,0
60730,0.90332,-0.580078,0.0571289,0
60750,0.855957,-0.592773,0.0878906,0
60770,0.819824,-0.602539,0.0878906,0
60790,0.858887,-0.60498,0.097168,0
60810,0.878906,-0.618164,0.120605,0
60830,0.754395,-0.608398,0.137207,0
60850,0.734863,-0.616211,0.165039,0
60870,0.748535,-0.627441,0.158691,0
60890,0.819824,-0.652344,0.187012,0
60910,0.723145,-0.666504,0.167969,0
60930,0.635742,-0.665039,0.188965,0
60950,0.618652,-0.677246,0.194824,0
60970,0.643555,-0.725098,0.175293,0
60990,0.64502,-0.760254,0.17334,0
61010,0.591797,-0.75293,0.189453,0
61030,0.537109,-0.75293,0.186523,0
61050,0.53125,-0.800781,0.164062,0
61070,0.543457,-0.819336,0.185547,0
61090,0.527344,-0.796875,0.183105,0
61110,0.493652,-0.804199,0.183594,0
61130,0.473145,-0.804199,0.17041,0
61150,0.452148,-0.825195,0.181641,0
61170,0.443359,-0.841309,0.179199,0
61190,0.459473,-0.868164,0.154297,0
61210,0.456543,-0.852051,0.151367,0
61230,0.437988,-0.820801,0.135742,0
61250,0.430176,-0.838867,0.137695,0
61270,0.442871,-0.867676,0.135742,0
61290,0.429199,-0.865723,0.135254,0
61310,0.408203,-0.869141,0.106445,0
61330,0.422363,-0.882324,0.0932617,0
61350,0.422852,-0.901367,0.09375,0
61370,0.399902,-0.885742,0.0639648,0
61390,0.405762,-0.89209,0.0625,0
61410,0.41748,-0.904297,0.0629883,0
61430,0.405762,-0.894043,0.0546875,0
61450,0.399414,-0.888184,0.0395508,0
61470,0.424316,-0.90918,0.0209961,0
61490,0.42627,-0.913086,0.00292969,0
61510,0.405273,-0.900391,0.00488281,0
61530,0.376465,-0.900391,0.00976562,0
61550,0.370605,-0.908203,0.00292969,0
61570,0.371582,-0.913574,-0.0498047,0
61590,0.361816,-0.89502,-0.0668945,0
61610,0.355957,-0.926758,-0.10498,0
61630,0.402832,-0.933594,-0.109375,0
61650,0.396484,-0.908691,-0.0927734,0
61670,0.357422,-0.893066,-0.117676,0
61690,0.368164,-0.916016,-0.157227,0
61710,0.399902,-0.920898,-0.157227,0
61730,0.408691,-0.885742,-0.137695,0
61750,0.409668,-0.856934,-0.144531,0
61770,0.462891,-0.864746,-0.161133,0
61790,0.498047,-0.865234,-0.160645,0
61810,0.46875,-0.852539,-0.184082,0
61830,0.452637,-0.833008,-0.217285,0
61850,0.473145,-0.842773,-0.225586,0
61870,0.49707,-0.848145,-0.219727,0
61890,0.476562,-0.81543,-0.23291,0
61910,0.435059,-0.779785,-0.239746,0
61930,0.435059,-0.76123,-0.250977,0
61950,0.472656,-0.780273,-0.268066,0
61970,0.48877,-0.766602,-0.254883,0
62010,0.469727,-0.753418,-0.275879,0
62030,0.541504,-0.73877,-0.259766,0
62050,0.591797,-0.71875,-0.234863,0
62070,0.628418,-0.687988,-0.240723,0
62090,0.672363,-0.682129,-0.260742,0
62110,0.71582,-0.675781,-0.222656,0
62130,0.734375,-0.641113,-0.200195,0
62150,0.787598,-0.620605,-0.244141,0
62170,0.856445,-0.606934,-0.246582,0
62190,0.853027,-0.556641,-0.200684,0
62210,0.841309,-0.493164,-0.214355,0
62230,0.873047,-0.481445,-0.243652,0
62250,0.890625,-0.478027,-0.203125,0
62270,0.887207,-0.440918,-0.171387,0
62290,0.891113,-0.413574,-0.187012,0
62310,0.935547,-0.415527,-0.169434,0
62330,0.949707,-0.397461,-0.123535,0
62350,0.946289,-0.359863,-0.0957031,0
62370,0.960938,-0.341309,-0.0771484,0
62390,1.00684,-0.362305,-0.0380859,0
62410,0.994141,-0.370605,-0.000488281,0
62430,0.991211,-0.356934,0.00488281,0
62450,1.00928,-0.35498,0.0390625,0
62470,1.02979,-0.378418,0.0981445,0
62490,0.987305,-0.388184,0.120117,0
62510,0.999512,-0.413086,0.141113,0
62530,0.981445,-0.421875,0.177246,0
62550,0.95166,-0.448242,0.199219,0
62570,0.930664,-0.445312,0.213867,0
62590,0.912598,-0.421875,0.242676,0
62610,0.878906,-0.455078,0.271973,0
62630,0.832031,-0.45752,0.307617,0
62650,0.821777,-0.460449,0.28418,0
62670,0.910645,-0.524902,0.318359,0
62690,0.847168,-0.539062,0.297363,0
62710,0.716797,-0.573242,0.337891,0
62730,0.653809,-0.580566,0.353516,0
62750,0.688477,-0.595703,0.34082,0
62770,0.714355,-0.630371,0.34082,0
62790,0.629395,-0.63623,0.336914,0
62810,0.543457,-0.64209,0.341309,0
62830,0.564941,-0.68457,0.322754,0
62850,0.578613,-0.743652,0.293457,0
62870,0.53125,-0.744141,0.263672,0
62890,0.458984,-0.733398,0.255371,0
62910,0.463867,-0.743164,0.256348,0
62930,0.487305,-0.793457,0.228027,0
62950,0.467285,-0.804688,0.193359,0
62970,0.467773,-0.788574,0.170898,0
62990,0.491211,-0.800293,0.150879,0
63010,0.455566,-0.825684,0.128906,0
63030,0.42627,-0.825684,0.0888672,0
63050,0.495605,-0.858398,0.0639648,0
63070,0.505371,-0.85791,0.0498047,0
63090,0.430176,-0.855469,-0.000488281,0
63110,0.433105,-0.842773,-0.0229492,0
63130,0.491211,-0.851074,-0.0297852,0
63150,0.47168,-0.870605,-0.0664062,0
63170,0.436035,-0.85498,-0.106934,0
63190,0.426758,-0.849609,-0.126953,0
63200,0.458984,-0.866699,-0.15332,0
63220,0.47998,-0.86377,-0.176758,0
63240,0.460938,-0.849609,-0.189941,0
63260,0.453613,-0.830078,-0.196289,0
63280,0.488281,-0.833984,-0.217773,0
63300,0.513672,-0.813477,-0.232422,0
63320,0.512695,-0.789551,-0.237793,0
63340,0.535156,-0.770996,-0.241699,0
63360,0.552734,-0.76416,-0.26416,0
63380,0.546875,-0.746582,-0.294922,0
63400,0.561523,-0.716797,-0.300781,0
63420,0.592773,-0.715332,-0.296387,0
63440,0.585449,-0.690918,-0.263672,0
63460,0.57959,-0.660645,-0.291992,0
63480,0.646973,-0.658203,-0.324707,0
63500,0.679688,-0.648926,-0.307617,0
63520,0.671875,-0.59668,-0.348633,0
63540,0.72168,-0.582031,-0.308594,0
63560,0.733398,-0.546387,-0.285645,0
63580,0.743652,-0.490723,-0.309082,0
63600,0.797852,-0.493164,-0.322754,0
63620,0.821777,-0.488281,-0.28418,0
63640,0.798828,-0.442383,-0.262207,0
63660,0.817383,-0.415039,-0.275391,0
63680,0.868652,-0.394043,-0.279297,0
63700,0.904297,-0.37207,-0.233398,0
63720,0.912109,-0.330078,-0.211426,0
63740,0.956055,-0.296875,-0.210449,0
63760,1.00488,-0.311035,-0.156738,0
63780,1.01221,-0.284668,-0.130859,0
63800,1.00586,-0.248535,-0.112793,0
63820,1.03809,-0.241211,-0.0322266,0
63840,1.04297,-0.242188,0.00195312,0
63860,1.03662,-0.227051,-0.0415039,0
63880,1.04688,-0.227051,-0.0610352,0
63900,1.09863,-0.266113,-0.0292969,0
63920,1.09619,-0.284668,0.0458984,0
63940,1.04541,-0.294922,0.0776367,0
63960,1.0625,-0.341797,0.113281,0
63980,1.03613,-0.354004,0.123535,0
64000,0.996582,-0.342285,0.15918,0
64020,1.01025,-0.344238,0.20752,0
64040,0.998047,-0.374512,0.226562,0
64060,0.931152,-0.435059,0.236328,0
64080,0.882324,-0.430176,0.27832,0
64100,0.885742,-0.436035,0.306152,0
64120,0.847656,-0.48584,0.321289,0
64140,0.759277,-0.489746,0.291992,0
64160,0.757812,-0.51416,0.350098,0
64180,0.796875,-0.532715,0.372559,0
64200,0.757324,-0.521973,0.29834,0
64220,0.691406,-0.529297,0.26416,0
64240,0.660156,-0.567383,0.287598,0
64260,0.632812,-0.633301,0.310059,0
64280,0.609863,-0.674805,0.221191,0
64300,0.616211,-0.633789,0.222656,0
64320,0.62207,-0.619141,0.21582,0
64340,0.595703,-0.622559,0.178223,0
64360,0.543945,-0.641113,0.124023,0
64380,0.553711,-0.709961,0.121094,0
64400,0.618652,-0.765625,0.15625,0
64420,0.594238,-0.750977,0.106934,0
64440,0.548828,-0.742676,0.0288086,0
64460,0.558105,-0.766113,0.0336914,0
64480,0.518066,-0.782227,0.0249023,0
64500,0.48291,-0.78418,-0.0288086,0
64520,0.529297,-0.79541,-0.0717773,0
64540,0.530762,-0.791992,-0.10791,0
64560,0.504395,-0.771973,-0.12207,0
64580,0.515625,-0.76709,-0.146973,0
64600,0.53125,-0.779297,-0.17627,0
64620,0.563477,-0.78125,-0.193848,0
64640,0.572754,-0.763672,-0.222168,0
64660,0.540039,-0.765625,-0.246582,0
64680,0.506836,-0.743164,-0.246582,0
64700,0.531738,-0.719238,-0.214844,0
64720,0.640625,-0.701172,-0.228027,0
64740,0.72168,-0.6875,-0.28125,0
64760,0.685547,-0.650879,-0.279297,0
64780,0.654297,-0.615723,-0.262207,0
64800,0.691895,-0.628906,-0.269531,0
64820,0.756836,-0.604004,-0.314453,0
64840,0.774414,-0.56543,-0.327148,0
64860,0.725586,-0.532227,-0.312988,0
64880,0.72168,-0.495117,-0.332031,0
64900,0.78418,-0.494141,-0.347656,0
64920,0.831055,-0.485352,-0.365723,0
64940,0.806641,-0.44873,-0.340332,0
64960,0.803223,-0.407715,-0.330078,0
64980,0.841797,-0.394043,-0.336426,0
65000,0.902832,-0.39502,-0.347168,2001
65020,0.913574,-0.371094,-0.339355,0
65040,0.887207,-0.367676,-0.32666,0
65060,0.900391,-0.358398,-0.327148,0
65080,0.960449,-0.363281,-0.30957,0
65100,0.962402,-0.376953,-0.312988,0
65120,0.929688,-0.376953,-0.306641,0
65140,0.865723,-0.367676,-0.281738,0
65150,0.852051,-0.353516,-0.269531,0
65180,0.852051,-0.378418,-0.270996,0
65200,0.797852,-0.401367,-0.253906,0
65210,0.76709,-0.39209,-0.24707,0
65230,0.755859,-0.420898,-0.248047,0
65250,0.734375,-0.437012,-0.274902,0
65270,0.711914,-0.446289,-0.285645,0
65290,0.691895,-0.449219,-0.301758,0
65310,0.697754,-0.441895,-0.293457,0
65330,0.674316,-0.448242,-0.289551,0
65350,0.651367,-0.434082,-0.282715,0
65370,0.668945,-0.442871,-0.329102,0
65390,0.70459,-0.490723,-0.315918,0
65410,0.6875,-0.51123,-0.28418,0
65430,0.669922,-0.517578,-0.29834,0
65450,0.70752,-0.537598,-0.335938,0
65470,0.724121,-0.546875,-0.319336,0
65490,0.719238,-0.585938,-0.293457,0
65510,0.746582,-0.609375,-0.334473,0
65530,0.787109,-0.640137,-0.369629,0
65550,0.787598,-0.691406,-0.334961,0
65570,0.730469,-0.74707,-0.340332,0
65590,0.71875,-0.806641,-0.387207,0
65610,0.696289,-0.818848,-0.345703,0
65630,0.646973,-0.886719,-0.322266,0
65650,0.611816,-0.92627,-0.342285,0
65670,0.59082,-0.947266,-0.320312,0
65690,0.530273,-0.974609,-0.263672,0
65710,0.490723,-0.976074,-0.253906,0
65730,0.468262,-0.993652,-0.256348,0
65750,0.45459,-1.01074,-0.20752,0
65770,0.370117,-1.01465,-0.173828,0
65790,0.331543,-1.01807,-0.143066,0
65810,0.289551,-1.00586,-0.133789,0
65830,0.275391,-1.01758,-0.108398,0
65850,0.275879,-1.00146,-0.0947266,0
65870,0.262207,-0.986328,-0.0776367,0
65890,0.254883,-0.983887,-0.0766602,0
65910,0.270508,-0.990234,-0.0766602,0
65930,0.255371,-0.995605,-0.0761719,0
65950,0.247559,-0.998047,-0.0688477,0
65970,0.242676,-0.98877,-0.0532227,0
65990,0.25293,-1.00781,-0.0722656,0
66010,0.265625,-0.998047,-0.0874023,0
66030,0.260254,-0.991211,-0.103516,0
66050,0.261719,-0.975098,-0.0800781,0
66070,0.284668,-0.967773,-0.102051,0
66090,0.289551,-1.02051,-0.124023,0
66110,0.278809,-1.01367,-0.135254,0
66130,0.258789,-0.976562,-0.110352,0
66150,0.250488,-0.949219,-0.0942383,0
66170,0.244629,-0.975586,-0.123535,0
66190,0.262695,-0.992676,-0.131348,0
66210,0.249512,-0.991211,-0.125488,0
66230,0.251465,-0.983887,-0.111816,0
66250,0.23877,-0.973633,-0.128906,0
66270,0.230957,-0.988281,-0.131836,0
66290,0.225586,-0.994629,-0.111328,0
66310,0.245605,-0.962402,-0.119629,0
66330,0.234375,-0.972168,-0.13623,0
