Timestamp, Acceleration x, Acceleration y, Acceleration z, Marker
40,0.562988,-0.528809,0.537109,0
60,0.57373,-0.531738,0.525879,0
80,0.589355,-0.524414,0.52002,0
100,0.583496,-0.51416,0.519531,0
120,0.572266,-0.520508,0.508789,0
140,0.577637,-0.539551,0.505371,0
140,0.588379,-0.529785,0.517578,0
140,0.588867,-0.514648,0.51416,0
190,0.587402,-0.508301,0.505371,0
210,0.592773,-0.519043,0.521484,0
230,0.591797,-0.505371,0.523438,0
250,0.578613,-0.509277,0.51123,0
270,0.586914,-0.506836,0.513184,0
290,0.592773,-0.491211,0.532227,0
310,0.598633,-0.480469,0.526855,0
330,0.589844,-0.474609,0.51709,0
350,0.592773,-0.481445,0.527344,0
370,0.599609,-0.48584,0.525391,0
390,0.599609,-0.491211,0.533691,0
410,0.601562,-0.480469,0.533203,0
430,0.609863,-0.476562,0.523438,0
450,0.622559,-0.486816,0.5,0
470,0.61377,-0.462402,0.520996,0
490,0.608887,-0.446777,0.522461,0
510,0.614258,-0.455078,0.518555,0
530,0.620117,-0.461426,0.515137,0
550,0.616699,-0.449219,0.526855,0
570,0.616211,-0.4375,0.525391,0
590,0.625488,-0.441406,0.544922,0
610,0.639648,-0.440918,0.522949,0
630,0.620605,-0.466309,0.508789,0
650,0.625,-0.465332,0.539062,0
670,0.65332,-0.43457,0.53125,0
690,0.662598,-0.474121,0.510254,0
710,0.65332,-0.461426,0.495117,0
730,0.656738,-0.461426,0.504883,0
750,0.681152,-0.462402,0.506348,0
770,0.67334,-0.46582,0.477051,0
790,0.661133,-0.458008,0.491699,0
810,0.652344,-0.455078,0.494629,0
830,0.636719,-0.445801,0.495117,0
850,0.620117,-0.447266,0.479004,0
870,0.619629,-0.437988,0.485352,0
890,0.634766,-0.431641,0.493164,0
910,0.621582,-0.435547,0.491699,0
930,0.62207,-0.405273,0.482422,0
950,0.64502,-0.408203,0.486328,0
970,0.649414,-0.401367,0.519043,0
990,0.65332,-0.412598,0.499023,0
1010,0.673828,-0.43457,0.51123,0
1030,0.685059,-0.430664,0.522949,0
1050,0.680664,-0.443359,0.504883,0
1070,0.70166,-0.472168,0.516113,0
1080,0.718262,-0.45752,0.490723,0
1100,0.700684,-0.451172,0.485352,0
1120,0.701172,-0.463379,0.460449,0
1140,0.726074,-0.462891,0.473145,0
1160,0.699219,-0.449707,0.438965,0
1180,0.671875,-0.416504,0.477051,0
1200,0.625977,-0.393066,0.484863,0
1220,0.568359,-0.399414,0.509766,0
1240,0.562988,-0.390625,0.508789,0
1260,0.559082,-0.381348,0.563477,0
1280,0.568848,-0.365723,0.570312,0
1300,0.548828,-0.367676,0.547852,0
1320,0.562988,-0.383301,0.549805,0
1340,0.575684,-0.400391,0.571289,0
1360,0.587402,-0.401855,0.55957,0
1380,0.610352,-0.417969,0.569336,0
1400,0.648926,-0.415039,0.564453,0
1420,0.677734,-0.413086,0.557617,0
1440,0.687988,-0.422363,0.557129,0
1460,0.697266,-0.439941,0.537109,0
1480,0.688965,-0.453613,0.529785,0
1500,0.692383,-0.47168,0.52832,0
1520,0.677246,-0.476562,0.52832,0
1540,0.656738,-0.494629,0.484863,0
1560,0.609375,-0.476562,0.406738,0
1580,0.588867,-0.484863,0.424805,0
1600,0.545898,-0.42627,0.494629,0
1620,0.559082,-0.410645,0.51416,0
1640,0.586426,-0.458496,0.530273,0
1660,0.63623,-0.548828,0.510254,0
1680,0.60791,-0.590332,0.557129,0
1700,0.48584,-0.670898,0.588867,0
1720,0.358887,-0.699219,0.564941,0
1740,0.312988,-0.64502,0.636719,0
1760,0.400879,-0.513672,0.613281,0
1780,0.460938,-0.423828,0.608398,0
1800,0.425781,-0.432129,0.589355,0
1820,0.368164,-0.516113,0.619629,0
1840,0.397461,-0.583008,0.606934,0
1860,0.411621,-0.618164,0.587891,0
1880,0.394043,-0.597168,0.5625,0
1900,0.415039,-0.534668,0.581543,0
1920,0.440918,-0.547363,0.579102,0
1940,0.45166,-0.59375,0.53418,0
1960,0.470703,-0.616699,0.560547,0
1980,0.486328,-0.625488,0.561523,0
2000,0.461914,-0.613281,0.558594,0
2020,0.453613,-0.616699,0.566406,0
2040,0.501465,-0.611816,0.574707,0
2060,0.491211,-0.619629,0.566895,0
2080,0.465332,-0.608887,0.58252,0
2100,0.447754,-0.610352,0.564941,0
2120,0.467285,-0.617676,0.57373,0
2140,0.491699,-0.615723,0.556152,0
2160,0.47998,-0.615723,0.563965,0
2180,0.4375,-0.604004,0.556152,0
2200,0.4375,-0.613281,0.560059,0
2220,0.493652,-0.617676,0.548828,0
2240,0.48584,-0.620117,0.549316,0
2260,0.454102,-0.618164,0.549805,0
2280,0.445801,-0.59375,0.544434,0
2300,0.470703,-0.603027,0.547852,0
2320,0.474609,-0.602539,0.536133,0
2340,0.454102,-0.61377,0.539062,0
2360,0.45166,-0.593262,0.540527,0
2380,0.46582,-0.576172,0.536133,0
2400,0.481934,-0.581055,0.529297,0
2420,0.48291,-0.588379,0.523926,0
2440,0.462891,-0.580078,0.530762,0
2460,0.475098,-0.574707,0.527832,0
2480,0.493652,-0.599121,0.512207,0
2500,0.495117,-0.59668,0.523926,0
2520,0.48584,-0.572266,0.51709,0
2540,0.509766,-0.583008,0.516113,0
2560,0.512695,-0.591309,0.506348,0
2580,0.504883,-0.583984,0.524902,0
2600,0.506348,-0.59668,0.532227,0
2620,0.520508,-0.618652,0.504883,0
2640,0.521484,-0.60791,0.529297,0
2660,0.492188,-0.59082,0.516113,0
2680,0.490234,-0.598633,0.532227,0
2700,0.500977,-0.612305,0.529297,0
2720,0.491699,-0.629395,0.524414,0
2740,0.48584,-0.603027,0.532715,0
2760,0.476562,-0.588379,0.524902,0
2780,0.475586,-0.599121,0.528809,0
2800,0.470703,-0.615723,0.532715,0
2820,0.478027,-0.608398,0.524414,0
2840,0.466309,-0.606934,0.534668,0
2860,0.463867,-0.604492,0.52832,0
2880,0.462402,-0.61377,0.529785,0
2900,0.467285,-0.607422,0.522949,0
2920,0.478027,-0.615234,0.527832,0
2940,0.464355,-0.598145,0.530273,0
2960,0.439941,-0.588867,0.537598,0
2980,0.468262,-0.598145,0.532227,0
3000,0.48877,-0.609375,0.536621,0
3020,0.47168,-0.585449,0.539551,0
3040,0.455566,-0.591797,0.53125,0
3060,0.498047,-0.605469,0.539551,0
3080,0.505859,-0.599121,0.543457,0
3100,0.476074,-0.587891,0.527344,0
3120,0.48291,-0.589355,0.545898,0
3140,0.52832,-0.60498,0.543945,0
3160,0.492188,-0.612305,0.527832,0
3180,0.489258,-0.609863,0.546875,0
3200,0.495117,-0.606934,0.54541,0
3220,0.462891,-0.591797,0.539551,0
3240,0.44873,-0.59082,0.549316,0
3260,0.478027,-0.60791,0.526855,0
3280,0.479492,-0.60791,0.539551,0
3300,0.454102,-0.569824,0.54248,0
3320,0.429199,-0.558105,0.544922,0
3340,0.416504,-0.566406,0.571289,0
3360,0.401855,-0.608398,0.583984,0
3380,0.421387,-0.644531,0.59082,0
3400,0.511719,-0.624023,0.574707,0
3420,0.608398,-0.609375,0.555176,0
3440,0.63916,-0.586914,0.525879,0
3460,0.585938,-0.568359,0.51123,0
3480,0.560547,-0.552246,0.51416,0
3500,0.557617,-0.568848,0.527832,0
3520,0.553711,-0.552734,0.527344,0
3540,0.544434,-0.533691,0.535156,0
3560,0.531738,-0.487305,0.524902,0
3580,0.539551,-0.478516,0.524414,0
3600,0.527344,-0.478027,0.533691,0
3620,0.529785,-0.491699,0.540039,0
3640,0.539062,-0.472168,0.537598,0
3660,0.530762,-0.475586,0.530762,0
3680,0.550781,-0.452148,0.570312,0
3700,0.561523,-0.480957,0.547852,0
3720,0.57666,-0.490234,0.540527,0
3740,0.584473,-0.500488,0.536621,0
3760,0.576172,-0.498535,0.544922,0
3780,0.568848,-0.478516,0.557129,0
3790,0.589355,-0.516113,0.544922,0
3810,0.59082,-0.508789,0.547363,0
3830,0.587891,-0.500488,0.547363,0
3850,0.576172,-0.488281,0.548828,0
3870,0.562012,-0.503906,0.520996,0
3890,0.54834,-0.537598,0.529297,0
3910,0.530762,-0.506836,0.544434,0
3930,0.531738,-0.495117,0.550781,0
3950,0.527832,-0.499512,0.536621,0
3970,0.526855,-0.524902,0.557617,0
3990,0.537598,-0.540527,0.542969,0
4010,0.529785,-0.538574,0.532715,0
4030,0.510742,-0.566895,0.559082,0
4050,0.507324,-0.554688,0.546387,0
4070,0.522461,-0.54541,0.552246,0
4090,0.52832,-0.519531,0.550293,0
4110,0.51709,-0.516602,0.54541,0
4130,0.540039,-0.545898,0.526367,0
4150,0.558105,-0.525879,0.506348,0
4170,0.547852,-0.506348,0.523438,0
4190,0.548828,-0.529785,0.530762,0
4210,0.557617,-0.558594,0.494629,0
4230,0.567871,-0.569824,0.488281,0
4250,0.564941,-0.55127,0.489258,0
4270,0.558105,-0.541992,0.490234,0
4290,0.57666,-0.530762,0.494141,0
4310,0.595703,-0.516113,0.530273,0
4330,0.591309,-0.499512,0.553223,0
4350,0.591309,-0.507324,0.560547,0
4370,0.595703,-0.508301,0.566895,0
4390,0.588867,-0.526367,0.561523,0
4410,0.57959,-0.530273,0.561035,0
4430,0.581543,-0.533691,0.565918,0
4450,0.566406,-0.544922,0.53125,0
4470,0.55127,-0.543457,0.5,0
4490,0.529297,-0.548828,0.542969,0
4510,0.516602,-0.570801,0.537109,0
4530,0.54541,-0.586426,0.505859,0
4550,0.551758,-0.584473,0.507324,0
4570,0.53418,-0.527832,0.524414,0
4590,0.54834,-0.504395,0.531738,0
4610,0.532227,-0.535156,0.480469,0
4630,0.51416,-0.537598,0.541504,0
4650,0.520996,-0.539551,0.554199,0
4670,0.554199,-0.576172,0.541504,0
4690,0.54248,-0.527344,0.568848,0
4710,0.546875,-0.52832,0.54248,0
4730,0.529297,-0.529785,0.544922,0
4750,0.51123,-0.556641,0.556641,0
4770,0.516602,-0.552246,0.552246,0
4790,0.53125,-0.526367,0.575684,0
4810,0.550293,-0.490723,0.563965,0
4830,0.551758,-0.502441,0.563965,0
4850,0.543945,-0.482422,0.576172,0
4870,0.537598,-0.545898,0.585449,0
4890,0.550781,-0.51416,0.57373,0
4910,0.54834,-0.51123,0.570801,0
4930,0.537598,-0.476074,0.585938,0
4950,0.529785,-0.470215,0.581055,0
4970,0.533691,-0.53125,0.547852,0
4990,0.525391,-0.564941,0.536621,0
5010,0.505859,-0.521484,0.577148,0
5030,0.509766,-0.522461,0.572754,0
5050,0.525391,-0.563477,0.542969,0
5070,0.580566,-0.594727,0.521484,0
5090,0.549316,-0.56543,0.520996,0
5110,0.454102,-0.5625,0.547363,0
5130,0.521484,-0.567871,0.52002,0
5150,0.54834,-0.55957,0.554199,0
5170,0.438477,-0.499512,0.572266,0
5190,0.46582,-0.486328,0.569336,0
5210,0.532715,-0.508789,0.585449,0
5230,0.513184,-0.492188,0.600098,0
5250,0.498047,-0.473145,0.584473,0
5270,0.494141,-0.466309,0.598145,0
5290,0.547852,-0.504395,0.601562,0
5310,0.591797,-0.519531,0.547363,0
5330,0.525391,-0.537109,0.548828,0
5370,0.52832,-0.496094,0.567383,0
5390,0.523438,-0.527344,0.569824,0
5410,0.501465,-0.505371,0.558594,0
5430,0.487793,-0.510254,0.560059,0
5450,0.439941,-0.5,0.569824,0
5470,0.464355,-0.500977,0.600586,0
5490,0.55127,-0.499023,0.571777,0
5510,0.599609,-0.51709,0.547363,0
5530,0.59082,-0.492188,0.552734,0
5550,0.52832,-0.504395,0.530762,0
5570,0.549316,-0.526367,0.565918,0
5590,0.605957,-0.571289,0.550781,0
5610,0.653809,-0.573242,0.508301,0
5630,0.544434,-0.55957,0.5625,0
5650,0.515137,-0.543945,0.565918,0
5670,0.527344,-0.549316,0.583008,0
5690,0.511719,-0.504395,0.576172,0
5710,0.51123,-0.506348,0.572754,0
5730,0.517578,-0.500488,0.55957,0
5750,0.515625,-0.494141,0.573242,0
5770,0.533203,-0.485352,0.574219,0
5790,0.534668,-0.470703,0.569336,0
5800,0.556641,-0.504395,0.570312,0
5820,0.595703,-0.54248,0.52832,0
5840,0.605469,-0.553223,0.539551,0
5860,0.563965,-0.546387,0.516602,0
5880,0.548828,-0.53125,0.536133,0
5900,0.541016,-0.525879,0.541016,0
5920,0.576172,-0.541504,0.510254,0
5940,0.555664,-0.509277,0.548828,0
5960,0.525391,-0.48291,0.549805,0
5980,0.552246,-0.513672,0.524902,0
6000,0.535156,-0.500488,0.553711,0
6020,0.453125,-0.448242,0.561035,0
6040,0.447266,-0.45166,0.581055,0
6060,0.529785,-0.510742,0.565918,0
6080,0.555664,-0.533203,0.575195,0
6100,0.508789,-0.499512,0.57373,0
6120,0.481445,-0.515137,0.584961,0
6140,0.512207,-0.549805,0.57666,0
6160,0.51709,-0.529297,0.572266,0
6180,0.483887,-0.5625,0.578613,0
6200,0.495605,-0.578125,0.580078,0
6220,0.510254,-0.560059,0.584961,0
6240,0.521484,-0.572754,0.574219,0
6260,0.495117,-0.578125,0.578613,0
6280,0.469238,-0.561523,0.603027,0
6300,0.458496,-0.561523,0.604492,0
6320,0.486328,-0.588867,0.576172,0
6340,0.504395,-0.598145,0.608887,0
6360,0.470703,-0.550293,0.574707,0
6380,0.44873,-0.547852,0.568359,0
6400,0.45459,-0.524414,0.583496,0
6420,0.477051,-0.530762,0.599609,0
6440,0.470215,-0.519531,0.586426,0
6460,0.43457,-0.50293,0.613281,0
6480,0.416504,-0.513672,0.624512,0
6500,0.460449,-0.532715,0.54834,0
6520,0.501465,-0.538574,0.563965,0
6540,0.464844,-0.492188,0.584473,0
6560,0.432617,-0.443848,0.611816,0
6580,0.466797,-0.478516,0.616211,0
6600,0.53418,-0.520996,0.563477,0
6620,0.535645,-0.515137,0.60791,0
6640,0.513672,-0.477539,0.612793,0
6660,0.52832,-0.47998,0.623047,0
6680,0.547363,-0.473145,0.640137,0
6700,0.555176,-0.493164,0.592285,0
6720,0.57373,-0.507324,0.584961,0
6740,0.566895,-0.527344,0.618164,0
6760,0.538086,-0.536133,0.612793,0
6780,0.502441,-0.521973,0.630371,0
6800,0.504395,-0.52002,0.627441,0
6820,0.492676,-0.510254,0.632812,0
6840,0.49707,-0.509277,0.612305,0
6860,0.48584,-0.496094,0.623047,0
6880,0.469727,-0.489258,0.611816,0
6900,0.480957,-0.494629,0.59668,0
6920,0.5,-0.509277,0.607422,0
6940,0.491699,-0.519043,0.606934,0
6960,0.46875,-0.503418,0.59375,0
6980,0.469238,-0.508301,0.591797,0
7000,0.470703,-0.484375,0.614746,0
7020,0.474121,-0.485352,0.612793,0
7040,0.475586,-0.484375,0.63623,0
7060,0.480957,-0.501465,0.633301,0
7080,0.470215,-0.521973,0.591309,0
7100,0.458008,-0.510254,0.613281,0
7120,0.463867,-0.485352,0.601562,0
7140,0.44873,-0.485352,0.605469,0
7160,0.459961,-0.490723,0.594727,0
7180,0.479004,-0.483887,0.597656,0
7200,0.513184,-0.489746,0.595703,0
7220,0.54541,-0.47998,0.605957,0
7240,0.596191,-0.496094,0.585449,0
7260,0.625,-0.525879,0.5625,0
7280,0.623535,-0.547852,0.560547,0
7300,0.61084,-0.563477,0.54834,0
7320,0.558105,-0.543945,0.560547,0
7340,0.533691,-0.55127,0.563477,0
7360,0.549805,-0.537598,0.563477,0
7380,0.554199,-0.531738,0.576172,0
7400,0.528809,-0.52002,0.581055,0
7420,0.496094,-0.510742,0.580566,0
7440,0.490723,-0.492188,0.572266,0
7460,0.520996,-0.49707,0.576172,0
7480,0.514648,-0.458008,0.568359,0
7500,0.487793,-0.477539,0.565918,0
7520,0.489258,-0.483398,0.556641,0
7540,0.522461,-0.490234,0.540527,0
7560,0.542969,-0.479004,0.527344,0
7580,0.529785,-0.500488,0.509277,0
7600,0.529785,-0.49707,0.506836,0
7620,0.549316,-0.51709,0.492188,0
7640,0.569336,-0.51123,0.503418,0
7660,0.569824,-0.487793,0.510254,0
7680,0.580566,-0.474609,0.516602,0
7700,0.618652,-0.487793,0.514648,0
7720,0.644043,-0.479004,0.496094,0
7740,0.632812,-0.474121,0.497559,0
7760,0.670898,-0.480469,0.492676,0
7780,0.683594,-0.497559,0.501953,0
7800,0.685547,-0.483398,0.478516,0
7820,0.667969,-0.479492,0.467285,0
7840,0.623047,-0.455078,0.502441,0
7860,0.649414,-0.45752,0.482422,0
7880,0.661133,-0.464355,0.467285,0
7900,0.593262,-0.466797,0.522461,0
7920,0.65332,-0.451172,0.500488,0
7940,0.651855,-0.430664,0.495605,0
7960,0.61377,-0.433594,0.503418,0
7980,0.676758,-0.470215,0.467773,0
8000,0.661621,-0.458984,0.479492,0
8020,0.665039,-0.459961,0.485352,0
8040,0.686523,-0.504395,0.456055,0
8060,0.689453,-0.465332,0.478516,0
8080,0.695312,-0.466797,0.452637,0
8100,0.679688,-0.457031,0.467285,0
8120,0.677246,-0.459473,0.458984,0
8140,0.682617,-0.484863,0.463379,0
8160,0.702637,-0.479492,0.463867,0
8180,0.680176,-0.447754,0.448242,0
8200,0.669922,-0.452637,0.450195,0
8220,0.681641,-0.449219,0.441895,0
8240,0.672363,-0.455566,0.444824,0
8260,0.670898,-0.450684,0.454102,0
8280,0.685547,-0.450195,0.446289,0
8300,0.679199,-0.445801,0.438477,0
8320,0.677246,-0.430664,0.435059,0
8340,0.679199,-0.432617,0.447754,0
8360,0.647461,-0.441406,0.466309,0
8380,0.654785,-0.427246,0.459473,0
8400,0.660645,-0.42627,0.473145,0
8420,0.675781,-0.424316,0.45752,0
8440,0.67627,-0.438477,0.458496,0
8460,0.662598,-0.448242,0.473145,0
8480,0.659668,-0.441895,0.469238,0
8500,0.625977,-0.44873,0.482422,0
8520,0.625488,-0.44043,0.496094,0
8540,0.630859,-0.437012,0.49707,0
8560,0.657715,-0.438965,0.492676,0
8580,0.649902,-0.443359,0.508301,0
8600,0.64209,-0.456543,0.50293,0
8620,0.65332,-0.451172,0.499512,0
8640,0.645508,-0.455078,0.51416,0
8660,0.626953,-0.463867,0.525879,0
8680,0.623535,-0.484375,0.521484,0
8700,0.623047,-0.469238,0.523438,0
8720,0.611328,-0.459961,0.531738,0
8740,0.611328,-0.462891,0.524902,0
8760,0.607422,-0.473633,0.536621,0
8780,0.603027,-0.470215,0.532715,0
8800,0.602051,-0.474121,0.543945,0
8820,0.60498,-0.476074,0.533203,0
8840,0.598633,-0.473145,0.529297,0
8860,0.603027,-0.474609,0.539551,0
8880,0.615234,-0.482422,0.525879,0
8900,0.609375,-0.48584,0.53125,0
8920,0.603516,-0.479492,0.535645,0
8940,0.619141,-0.484863,0.518066,0
8960,0.622559,-0.496094,0.532227,0
8980,0.617676,-0.471191,0.529297,0
9000,0.621094,-0.476562,0.522949,0
9020,0.619141,-0.470215,0.522461,0
9040,0.623535,-0.486328,0.526855,0
9060,0.630859,-0.492676,0.519043,0
9080,0.646484,-0.504883,0.507812,0
9100,0.651367,-0.505371,0.500977,0
9120,0.652832,-0.508301,0.491699,0
9140,0.679199,-0.515137,0.481445,0
9160,0.685059,-0.518066,0.509766,0
9180,0.686523,-0.50293,0.51709,0
9200,0.672852,-0.489258,0.51416,0
9220,0.649902,-0.495605,0.492676,0
9230,0.621582,-0.533691,0.498047,0
9250,0.613281,-0.52002,0.519043,0
9270,0.591309,-0.47998,0.504883,0
9290,0.566895,-0.514648,0.521484,0
9310,0.586914,-0.524902,0.52832,0
9330,0.621094,-0.557129,0.540527,0
9350,0.666016,-0.563965,0.527832,0
9370,0.64502,-0.566406,0.537109,0
9390,0.598145,-0.569824,0.515137,0
9410,0.603516,-0.549316,0.538086,0
9430,0.598633,-0.564453,0.541992,0
9450,0.579102,-0.572754,0.542969,0
9470,0.626953,-0.571777,0.538086,0
9490,0.604492,-0.552734,0.547852,0
9510,0.531738,-0.562988,0.503906,0
9530,0.519531,-0.563477,0.51416,0
9550,0.53125,-0.549316,0.481934,0
9570,0.436035,-0.522461,0.489258,0
9590,0.368652,-0.52832,0.472168,0
9610,0.421875,-0.552734,0.496582,0
9630,0.487305,-0.5625,0.489258,0
9650,0.460449,-0.540527,0.48584,0
9670,0.408691,-0.536621,0.483398,0
9690,0.380371,-0.561523,0.488281,0
9710,0.391113,-0.578613,0.493652,0
9730,0.442383,-0.556152,0.515137,0
9750,0.453125,-0.543457,0.500977,0
9770,0.360352,-0.546875,0.501953,0
9790,0.345703,-0.543945,0.508301,0
9810,0.425293,-0.566406,0.516113,0
9830,0.431152,-0.590332,0.520996,0
9850,0.424805,-0.581055,0.527344,0
9870,0.429199,-0.572266,0.541504,0
9890,0.439453,-0.593262,0.550781,0
9910,0.490234,-0.612793,0.54834,0
9930,0.522461,-0.629395,0.552734,0
9950,0.470215,-0.623047,0.550293,0
9970,0.433594,-0.622559,0.541504,0
9990,0.399414,-0.621582,0.537109,0
10010,0.394043,-0.607422,0.537598,0
10030,0.364746,-0.568848,0.491699,0
10050,0.254883,-0.472656,0.523438,0
10070,0.13916,-0.397949,0.574219,0
10090,0.114258,-0.396484,0.543945,0
10110,0.20459,-0.390625,0.524414,0
10130,0.254883,-0.366699,0.533691,0
10150,0.448242,-0.495605,0.501953,0
10170,0.657227,-0.541992,0.578125,0
10190,0.700195,-0.602051,0.565918,0
10210,0.767578,-0.686035,0.504395,0
10230,0.843262,-0.653809,0.560059,0
10250,0.883789,-0.711426,0.532227,0
10270,0.924316,-0.719238,0.46875,0
10290,0.918457,-0.708984,0.44873,0
10310,0.856934,-0.687988,0.443848,0
10330,0.809082,-0.624023,0.447266,0
10350,0.830078,-0.58252,0.4375,0
10370,0.756348,-0.545898,0.430664,0
10390,0.720215,-0.490234,0.449219,0
10410,0.681152,-0.435059,0.440918,0
10430,0.652344,-0.430176,0.445312,0
10450,0.669434,-0.424316,0.463867,0
10470,0.65918,-0.412598,0.444336,0
10490,0.653809,-0.380371,0.45459,0
10510,0.644043,-0.355957,0.444824,0
10530,0.694336,-0.345703,0.431152,0
10550,0.729492,-0.370117,0.394043,0
10570,0.747559,-0.424805,0.376465,0
10590,0.748047,-0.372559,0.416016,0
10610,0.727539,-0.375488,0.442383,0
10630,0.775879,-0.36084,0.430176,0
10650,0.756348,-0.385742,0.425781,0
10670,0.705078,-0.376465,0.438965,0
10690,0.691406,-0.342773,0.48291,0
10710,0.706543,-0.321289,0.50293,0
10730,0.727539,-0.312012,0.5,0
10750,0.712402,-0.309082,0.489746,0
10770,0.698242,-0.350098,0.492188,0
10790,0.661133,-0.395508,0.485352,0
10810,0.646973,-0.380859,0.504395,0
10830,0.657715,-0.330078,0.516113,0
10850,0.684082,-0.312988,0.512695,0
10870,0.686523,-0.333008,0.513672,0
10890,0.681152,-0.378418,0.490723,0
10910,0.69043,-0.38916,0.499512,0
10930,0.696289,-0.382812,0.495605,0
10950,0.684082,-0.401855,0.488281,0
10970,0.649414,-0.397949,0.487793,0
10990,0.606934,-0.34375,0.489746,0
11010,0.616211,-0.28418,0.522461,0
11030,0.693359,-0.258301,0.567871,0
11050,0.753418,-0.322754,0.552246,0
11070,0.720703,-0.472168,0.531738,0
11090,0.654297,-0.566406,0.52832,0
11110,0.610352,-0.545898,0.544922,0
11130,0.583984,-0.507812,0.575195,0
11150,0.553711,-0.490723,0.558594,0
11170,0.57666,-0.495117,0.568359,0
11190,0.565918,-0.42627,0.573242,0
11210,0.57666,-0.443848,0.554688,0
11230,0.597656,-0.455566,0.570312,0
11240,0.597168,-0.440918,0.556641,0
11260,0.603516,-0.436523,0.546875,0
11280,0.615234,-0.437012,0.533691,0
11300,0.594238,-0.426758,0.529785,0
11320,0.591797,-0.422852,0.529297,0
11340,0.586914,-0.424805,0.541992,0
11360,0.583496,-0.444336,0.535156,0
11380,0.580566,-0.458984,0.53418,0
11400,0.586914,-0.444824,0.552246,0
11420,0.605469,-0.454102,0.556152,0
11440,0.617188,-0.46582,0.552246,0
11460,0.606445,-0.465332,0.544922,0
11480,0.600586,-0.458496,0.563477,0
11500,0.608887,-0.474121,0.558105,0
11520,0.61084,-0.47998,0.557617,0
11540,0.590332,-0.486328,0.564941,0
11560,0.581055,-0.481934,0.567383,0
11580,0.57666,-0.463867,0.565918,0
11600,0.570801,-0.469727,0.562988,0
11620,0.537109,-0.485352,0.568848,0
11640,0.543457,-0.501465,0.563477,0
11660,0.549805,-0.492676,0.570312,0
11680,0.562988,-0.494141,0.55957,0
11700,0.54834,-0.487793,0.558594,0
11720,0.544922,-0.500488,0.5625,0
11740,0.554199,-0.503906,0.57373,0
11760,0.561035,-0.504395,0.55127,0
11780,0.556641,-0.493164,0.54834,0
11800,0.548828,-0.492676,0.546875,0
11820,0.558594,-0.491211,0.546387,0
11840,0.558105,-0.499512,0.545898,0
11860,0.563477,-0.508301,0.547852,0
11880,0.563477,-0.513184,0.535645,0
11900,0.560547,-0.49707,0.541504,0
11920,0.5625,-0.505859,0.544922,0
11940,0.5625,-0.506836,0.544922,0
11960,0.555664,-0.499023,0.544434,0
11980,0.558594,-0.489746,0.541016,0
12000,0.564453,-0.505859,0.538086,0
12020,0.571289,-0.513672,0.546387,0
12040,0.57373,-0.505371,0.543945,0
12060,0.570312,-0.507324,0.537109,0
12080,0.589355,-0.51416,0.540039,0
12100,0.587891,-0.513672,0.541016,0
12120,0.58252,-0.516113,0.533203,0
12140,0.597168,-0.523926,0.53418,0
12160,0.595215,-0.52002,0.525879,0
12180,0.585938,-0.518555,0.543945,0
12200,0.598145,-0.520508,0.53418,0
12220,0.587402,-0.515625,0.531738,0
12240,0.55957,-0.498535,0.522949,0
12260,0.55957,-0.507812,0.530273,0
12280,0.561523,-0.501953,0.525391,0
12300,0.564941,-0.49707,0.508789,0
12320,0.575195,-0.489258,0.522461,0
12340,0.564453,-0.507812,0.520996,0
12360,0.555664,-0.499512,0.525879,0
12380,0.578125,-0.496582,0.520996,0
12400,0.581543,-0.494141,0.512207,0
12420,0.572754,-0.498535,0.515137,0
12440,0.564453,-0.500488,0.519043,0
12460,0.587891,-0.509277,0.525879,0
12480,0.595215,-0.499512,0.523438,0
12500,0.580078,-0.503906,0.516602,0
12520,0.583496,-0.505371,0.513672,0
12540,0.598145,-0.505371,0.516602,0
12560,0.581543,-0.506836,0.522461,0
12580,0.586426,-0.521484,0.518066,0
12600,0.602051,-0.512207,0.51709,0
12620,0.589355,-0.494629,0.530273,0
12640,0.578613,-0.512695,0.520996,0
12660,0.578613,-0.506348,0.522949,0
12680,0.58252,-0.504395,0.523438,0
12700,0.575195,-0.49707,0.522949,0
12720,0.566406,-0.500977,0.524414,0
12740,0.554199,-0.505371,0.526855,0
12760,0.55957,-0.499023,0.525879,0
12780,0.562988,-0.507324,0.523926,0
12800,0.551758,-0.506836,0.534668,0
12820,0.553711,-0.510254,0.534668,0
12840,0.569824,-0.506836,0.527832,0
12860,0.570801,-0.509277,0.538574,0
12880,0.566895,-0.51416,0.535645,0
12900,0.561523,-0.516602,0.531738,0
12920,0.545898,-0.512207,0.543945,0
12940,0.538086,-0.519531,0.545898,0
12960,0.539551,-0.515625,0.530273,0
12980,0.509277,-0.506836,0.553711,0
13000,0.495605,-0.498047,0.561035,0
13020,0.490723,-0.504395,0.571777,0
13040,0.452148,-0.491211,0.577148,0
13060,0.463867,-0.480957,0.57959,0
13080,0.502441,-0.474121,0.59082,0
13100,0.497559,-0.469727,0.609375,0
13120,0.498047,-0.459961,0.607422,0
13140,0.526855,-0.462891,0.574219,0
13160,0.555176,-0.45752,0.580078,0
13180,0.555176,-0.473633,0.570801,0
13200,0.561523,-0.482422,0.5625,0
13220,0.595703,-0.483398,0.568359,0
13240,0.605469,-0.490234,0.525879,0
13260,0.604004,-0.488281,0.516113,0
13280,0.603516,-0.466309,0.531738,0
13300,0.597168,-0.473145,0.524414,0
13320,0.60498,-0.505859,0.496582,0
13340,0.611328,-0.508301,0.514648,0
13360,0.600098,-0.492188,0.528809,0
13380,0.607422,-0.496094,0.500977,0
13400,0.584961,-0.498535,0.504883,0
13420,0.579102,-0.499023,0.509766,0
13440,0.601074,-0.499512,0.538086,0
13460,0.629395,-0.52002,0.526367,0
13480,0.614258,-0.526367,0.542969,0
13500,0.59668,-0.51416,0.578125,0
13520,0.59375,-0.508789,0.578613,0
13540,0.609863,-0.512207,0.569824,0
13560,0.600586,-0.500977,0.580078,0
13580,0.583984,-0.491699,0.572754,0
13600,0.598633,-0.487793,0.566406,0
13620,0.604004,-0.503418,0.563965,0
13640,0.585449,-0.491211,0.556152,0
13660,0.581055,-0.505371,0.567871,0
13680,0.570801,-0.51123,0.569824,0
13700,0.562012,-0.512695,0.566406,0
13720,0.549316,-0.519043,0.568359,0
13740,0.536621,-0.499023,0.584473,0
13760,0.493652,-0.504883,0.577637,0
13780,0.491699,-0.508789,0.591309,0
13800,0.51123,-0.506348,0.610352,0
13820,0.498535,-0.493164,0.584961,0
13840,0.490723,-0.513184,0.583008,0
13860,0.474121,-0.507812,0.60498,0
13880,0.464355,-0.511719,0.612793,0
13900,0.478516,-0.505371,0.604492,0
13920,0.468262,-0.499512,0.615234,0
13940,0.473633,-0.497559,0.612305,0
13960,0.467773,-0.480957,0.619629,0
13980,0.466309,-0.480469,0.615723,0
14000,0.476074,-0.484375,0.617188,0
14020,0.487305,-0.491211,0.614258,0
14040,0.484863,-0.486816,0.607422,0
14060,0.490234,-0.490723,0.599609,0
14080,0.507324,-0.5,0.612305,0
14100,0.507324,-0.503906,0.603516,0
14120,0.513672,-0.5,0.60791,0
14130,0.514648,-0.504883,0.60791,0
14150,0.520508,-0.510254,0.585938,0
14170,0.51416,-0.501953,0.605957,0
14190,0.512695,-0.508301,0.606934,0
14210,0.52832,-0.518555,0.597168,0
14230,0.521973,-0.518555,0.595215,0
14250,0.500977,-0.500977,0.595215,0
14260,0.497559,-0.508301,0.601074,0
14280,0.506836,-0.516602,0.599609,0
14300,0.496094,-0.506348,0.598633,0
14320,0.503418,-0.508301,0.592285,0
14340,0.507324,-0.510254,0.591309,0
14360,0.504883,-0.506836,0.599609,0
14380,0.494141,-0.503418,0.605469,0
14400,0.496582,-0.499023,0.59668,0
14420,0.490723,-0.498535,0.599121,0
14440,0.488281,-0.496094,0.605469,0
14460,0.499023,-0.493164,0.612793,0
14480,0.505859,-0.496582,0.597656,0
14500,0.505371,-0.492676,0.594238,0
14520,0.500977,-0.5,0.59375,0
14540,0.493652,-0.5,0.594238,0
14560,0.479492,-0.510742,0.605469,0
14570,0.489258,-0.514648,0.599121,0
14600,0.493652,-0.51416,0.59375,0
14620,0.487305,-0.516113,0.593262,0
14630,0.460449,-0.526367,0.601074,0
14650,0.459961,-0.513184,0.618164,0
14670,0.472168,-0.51123,0.599121,0
14690,0.474121,-0.507812,0.59668,0
14710,0.450195,-0.508301,0.605469,0
14730,0.462891,-0.52002,0.612305,0
14750,0.480957,-0.510742,0.613281,0
14770,0.486816,-0.51416,0.597656,0
14790,0.466797,-0.525391,0.598145,0
14810,0.465332,-0.522461,0.615723,0
14830,0.48584,-0.525879,0.608887,0
14850,0.490723,-0.52002,0.59375,0
14870,0.489258,-0.525391,0.604004,0
14890,0.486328,-0.524414,0.610352,0
14910,0.466797,-0.527344,0.612305,0
14930,0.48291,-0.535156,0.608887,0
14950,0.501465,-0.521973,0.592773,0
14970,0.481445,-0.521973,0.601074,0
14990,0.445801,-0.512207,0.604492,0
15010,0.449219,-0.524902,0.608887,0
15030,0.449219,-0.520996,0.617188,0
15070,0.41748,-0.510254,0.619629,0
15090,0.422852,-0.516602,0.607422,0
15110,0.413086,-0.520996,0.614258,0
15130,0.410645,-0.510742,0.619141,0
15150,0.433105,-0.504395,0.638672,0
15170,0.447754,-0.530762,0.608398,0
15190,0.452637,-0.540527,0.612305,0
15210,0.456055,-0.529297,0.614258,0
15230,0.447266,-0.533203,0.616211,0
15250,0.439941,-0.526367,0.614746,0
15270,0.461914,-0.519531,0.612305,0
15290,0.460449,-0.513184,0.618652,0
15310,0.48584,-0.521484,0.59375,0
15330,0.494141,-0.517578,0.606445,0
15350,0.498535,-0.523438,0.611816,0
15370,0.503418,-0.525391,0.604492,0
15390,0.48877,-0.527832,0.59082,0
15410,0.492676,-0.515137,0.594238,0
15430,0.503906,-0.518066,0.595215,0
15450,0.489746,-0.511719,0.594238,0
15490,0.481445,-0.51123,0.601074,0
15510,0.484863,-0.497559,0.598633,0
15530,0.496582,-0.498535,0.591309,0
15550,0.512207,-0.509277,0.586426,0
15570,0.500488,-0.51123,0.588379,0
15590,0.496582,-0.509277,0.583984,0
15610,0.504395,-0.508789,0.580078,0
15630,0.509766,-0.510742,0.589355,0
15650,0.506348,-0.504395,0.581055,0
15670,0.535156,-0.512695,0.586426,0
15690,0.541016,-0.500977,0.584961,0
15710,0.546387,-0.504395,0.569824,0
15730,0.573242,-0.504395,0.570801,0
15750,0.600098,-0.519531,0.558594,0
15770,0.614746,-0.527344,0.548828,0
15790,0.618652,-0.511719,0.562012,0
15810,0.643066,-0.516113,0.561523,0
15830,0.64502,-0.505371,0.544434,0
15850,0.620605,-0.506348,0.546875,0
15870,0.626953,-0.516113,0.550781,0
15890,0.635254,-0.51123,0.53125,0
15910,0.592285,-0.506836,0.539062,0
15930,0.580078,-0.504883,0.529785,0
15950,0.566895,-0.5,0.560547,0
15970,0.54248,-0.496582,0.53418,0
15990,0.544922,-0.500488,0.538086,0
16010,0.524902,-0.492676,0.550293,0
16030,0.507812,-0.495605,0.572754,0
16050,0.48877,-0.491699,0.57959,0
16070,0.498535,-0.507812,0.568848,0
16090,0.508301,-0.499512,0.581055,0
16110,0.493164,-0.499023,0.585449,0
16130,0.474609,-0.505859,0.585938,0
16160,0.493164,-0.519531,0.598145,0
16200,0.48584,-0.507812,0.595215,0
16220,0.515137,-0.527832,0.600586,0
16240,0.512207,-0.515137,0.606445,0
16260,0.479004,-0.51416,0.602051,0
16280,0.463379,-0.510254,0.597168,0
16300,0.461914,-0.512207,0.600586,0
16320,0.44873,-0.510254,0.597656,0
16340,0.447754,-0.505859,0.592773,0
16360,0.458008,-0.522949,0.601074,0
16380,0.447266,-0.520508,0.609375,0
16410,0.460938,-0.519043,0.602051,0
16430,0.469727,-0.522461,0.60791,0
16450,0.469238,-0.525391,0.601562,0
16470,0.474121,-0.53418,0.606445,0
16490,0.480957,-0.53125,0.606445,0
16510,0.463867,-0.535645,0.605957,0
16530,0.464844,-0.538086,0.603516,0
16550,0.490234,-0.535645,0.596191,0
16570,0.474121,-0.536133,0.604492,0
16590,0.450195,-0.533691,0.612793,0
16610,0.473145,-0.532715,0.599609,0
16620,0.487793,-0.519531,0.593262,0
16640,0.436523,-0.526855,0.610352,0
16660,0.455078,-0.546875,0.608398,0
16680,0.474121,-0.536621,0.606445,0
16700,0.462402,-0.530273,0.600098,0
16720,0.452637,-0.529297,0.592285,0
16740,0.452637,-0.536133,0.613281,0
16760,0.463867,-0.526855,0.61084,0
16780,0.458984,-0.533691,0.602051,0
16800,0.453613,-0.538574,0.599609,0
16820,0.452637,-0.534668,0.605957,0
16840,0.462402,-0.527832,0.608398,0
16860,0.461914,-0.528809,0.605469,0
16880,0.456055,-0.535156,0.608887,0
16900,0.44873,-0.524414,0.61084,0
16920,0.4375,-0.521973,0.608398,0
16940,0.437012,-0.531738,0.604492,0
16960,0.43457,-0.528809,0.612305,0
16980,0.429199,-0.526367,0.617676,0
17000,0.424316,-0.520996,0.606934,0
17020,0.425293,-0.52832,0.614746,0
17040,0.431641,-0.538086,0.612793,0
17060,0.432617,-0.525879,0.61084,0
17080,0.428711,-0.523438,0.600586,0
17100,0.427246,-0.527832,0.608887,0
17120,0.429688,-0.532715,0.61084,0
17140,0.444824,-0.526367,0.60791,0
17160,0.456543,-0.522949,0.606445,0
17180,0.461426,-0.523926,0.609375,0
17200,0.474121,-0.523926,0.60498,0
17220,0.478516,-0.53125,0.604004,0
17240,0.47998,-0.527344,0.600098,0
17260,0.479004,-0.535156,0.615723,0
17280,0.500977,-0.53418,0.599609,0
17300,0.500977,-0.52832,0.592285,0
17320,0.489746,-0.521484,0.598145,0
17340,0.505371,-0.523438,0.60791,0
17360,0.534668,-0.52832,0.588379,0
17380,0.53418,-0.533203,0.585449,0
17400,0.509766,-0.513672,0.600586,0
17420,0.510254,-0.509277,0.606934,0
17440,0.496094,-0.506348,0.583008,0
17460,0.480957,-0.51416,0.583008,0
17480,0.487793,-0.505859,0.587402,0
17500,0.493652,-0.498047,0.598145,0
17520,0.487793,-0.5,0.595703,0
17540,0.506836,-0.492676,0.592773,0
17560,0.537598,-0.495117,0.592773,0
17580,0.574707,-0.501953,0.572754,0
17600,0.570312,-0.489746,0.574707,0
17620,0.589355,-0.505371,0.583496,0
17640,0.619629,-0.51709,0.578125,0
17660,0.653809,-0.525879,0.558105,0
17680,0.67041,-0.495605,0.560059,0
17700,0.677734,-0.516113,0.561035,0
17720,0.672852,-0.523926,0.542969,0
17740,0.645996,-0.512207,0.527832,0
17760,0.640625,-0.52002,0.53125,0
17780,0.64209,-0.53418,0.523438,0
17800,0.586426,-0.521973,0.529297,0
17820,0.518066,-0.496094,0.563477,0
17840,0.459961,-0.500488,0.57666,0
17860,0.44043,-0.48877,0.570801,0
17880,0.462402,-0.496094,0.598145,0
17900,0.484375,-0.483887,0.603516,0
17920,0.483398,-0.505371,0.597656,0
17940,0.441406,-0.500488,0.609863,0
17960,0.435059,-0.513672,0.608887,0
17980,0.452637,-0.51416,0.609863,0
18000,0.438965,-0.51416,0.594238,0
18020,0.412598,-0.507324,0.621094,0
18040,0.424805,-0.523438,0.617676,0
18060,0.451172,-0.531738,0.62207,0
18080,0.431641,-0.511719,0.629395,0
18100,0.419434,-0.512695,0.619629,0
18120,0.41748,-0.513672,0.614746,0
18140,0.424316,-0.52002,0.620605,0
18160,0.416992,-0.518555,0.628418,0
18180,0.40918,-0.531738,0.615723,0
18200,0.414551,-0.527344,0.621094,0
18220,0.414062,-0.536621,0.630859,0
18240,0.411133,-0.540039,0.61377,0
18260,0.40332,-0.552246,0.62793,0
18280,0.420898,-0.552734,0.631348,0
18300,0.427246,-0.56543,0.631348,0
18320,0.421875,-0.570312,0.615234,0
18340,0.42041,-0.564941,0.625977,0
18360,0.429688,-0.558105,0.625488,0
18380,0.418457,-0.554199,0.618164,0
18400,0.408691,-0.557129,0.614258,0
18420,0.422852,-0.555664,0.620605,0
18440,0.413574,-0.552246,0.621094,0
18460,0.410156,-0.554688,0.632812,0
18480,0.427246,-0.568359,0.623535,0
18500,0.436523,-0.558105,0.624512,0
18520,0.418457,-0.542969,0.627441,0
18540,0.430664,-0.552734,0.611328,0
18560,0.447754,-0.555176,0.618164,0
18580,0.413574,-0.546387,0.62207,0
18600,0.396484,-0.556641,0.62207,0
18620,0.438477,-0.558105,0.616211,0
18640,0.439941,-0.553223,0.620117,0
18660,0.404785,-0.547852,0.610352,0
18680,0.418945,-0.552734,0.617188,0
18700,0.42334,-0.554199,0.629395,0
18720,0.39502,-0.572754,0.606934,0
18740,0.395508,-0.562012,0.59375,0
18760,0.394043,-0.539551,0.610352,0
18780,0.353027,-0.560059,0.606445,0
18800,0.347168,-0.55957,0.607422,0
18820,0.373535,-0.538574,0.623535,0
18840,0.360352,-0.541992,0.623047,0
18860,0.348633,-0.546387,0.618164,0
18880,0.364746,-0.54541,0.631836,0
18900,0.383301,-0.560547,0.625977,0
18920,0.376465,-0.565918,0.619141,0
18940,0.379395,-0.557129,0.620117,0
18960,0.40625,-0.547363,0.62793,0
18980,0.395996,-0.562988,0.617676,0
19000,0.397949,-0.574219,0.620117,0
19020,0.416992,-0.562988,0.629395,0
19040,0.412598,-0.570312,0.63623,0
19060,0.402832,-0.564941,0.643066,0
19080,0.408691,-0.566895,0.64209,0
19100,0.415527,-0.560059,0.633301,0
19120,0.421387,-0.55957,0.635254,0
19140,0.421875,-0.549316,0.643555,0
19160,0.402344,-0.549805,0.633301,0
19190,0.419922,-0.555664,0.638184,0
19210,0.422363,-0.543457,0.632812,0
19230,0.398926,-0.545898,0.623535,0
19250,0.388184,-0.538086,0.632324,0
19270,0.405273,-0.535645,0.638184,0
19290,0.425293,-0.543945,0.62207,0
19310,0.42041,-0.536133,0.625,0
19330,0.419922,-0.515137,0.633301,0
19350,0.447266,-0.532715,0.634766,0
19370,0.521973,-0.56543,0.625977,0
19390,0.550293,-0.553223,0.625977,0
19410,0.549805,-0.560547,0.625977,0
19430,0.589355,-0.557617,0.626465,0
19450,0.577637,-0.566406,0.632812,0
19470,0.573242,-0.566406,0.598633,0
19490,0.557129,-0.551758,0.600586,0
19510,0.545898,-0.55127,0.589844,0
19530,0.521973,-0.569824,0.57959,0
19550,0.512695,-0.577148,0.564453,0
19570,0.45459,-0.536133,0.590332,0
19590,0.390625,-0.51123,0.588867,0
19610,0.38623,-0.514648,0.585449,0
19630,0.382324,-0.499023,0.60791,0
19650,0.349609,-0.515137,0.620117,0
19670,0.379395,-0.537598,0.61377,0
19690,0.40332,-0.553711,0.634766,0
19710,0.371094,-0.542969,0.633301,0
19730,0.375,-0.553711,0.61377,0
19750,0.407227,-0.552246,0.63623,0
19770,0.40332,-0.541504,0.626465,0
19790,0.402832,-0.548828,0.609863,0
19810,0.415527,-0.55957,0.627441,0
19830,0.416504,-0.556641,0.620117,0
19850,0.402832,-0.553711,0.607422,0
19870,0.391113,-0.54834,0.595703,0
19890,0.401367,-0.55957,0.608398,0
19910,0.409668,-0.569336,0.605957,0
19930,0.385742,-0.561523,0.606445,0
19950,0.358398,-0.568359,0.59668,0
19970,0.384277,-0.578125,0.608887,0
19990,0.395996,-0.593262,0.626953,0
20010,0.394043,-0.594727,0.609375,0
20030,0.397949,-0.595215,0.623535,0
20050,0.38916,-0.587891,0.635254,0
20060,0.391602,-0.594727,0.628906,0
20080,0.399902,-0.597168,0.624023,0
20100,0.365723,-0.591797,0.629395,0
20120,0.345703,-0.581543,0.63623,0
20140,0.357422,-0.584473,0.632324,0
20160,0.335938,-0.577148,0.632324,0
20180,0.328613,-0.58252,0.632324,0
20200,0.339844,-0.577637,0.633789,0
20220,0.332031,-0.574707,0.631836,0
20240,0.329102,-0.572266,0.634766,0
20260,0.342285,-0.584473,0.635742,0
20280,0.358887,-0.596191,0.637207,0
20300,0.356445,-0.588379,0.645508,0
20320,0.346191,-0.58252,0.633301,0
20340,0.363281,-0.591797,0.635254,0
20360,0.369141,-0.584961,0.628418,0
20380,0.353516,-0.591309,0.634766,0
20400,0.347168,-0.590332,0.62793,0
20420,0.344727,-0.587402,0.627441,0
20440,0.334473,-0.583008,0.621094,0
20460,0.324707,-0.583008,0.625488,0
20480,0.328613,-0.589844,0.629883,0
20500,0.34668,-0.582031,0.606934,0
20520,0.322754,-0.585449,0.615723,0
20540,0.32959,-0.583008,0.625977,0
20560,0.358887,-0.599609,0.619141,0
20580,0.359375,-0.588867,0.598145,0
20600,0.32959,-0.574219,0.623047,0
20620,0.335938,-0.588867,0.624023,0
20640,0.353516,-0.591309,0.609375,0
20660,0.342285,-0.57373,0.612793,0
20680,0.351074,-0.569824,0.639648,0
20700,0.354492,-0.57373,0.622559,0
20720,0.34082,-0.595215,0.609375,0
20740,0.357422,-0.572266,0.62793,0
20760,0.368164,-0.566895,0.622559,0
20780,0.371582,-0.586914,0.608887,0
20800,0.382812,-0.592285,0.623047,0
20820,0.402344,-0.578613,0.616699,0
20840,0.397949,-0.590332,0.600586,0
20860,0.40332,-0.590332,0.614746,0
20880,0.394531,-0.587402,0.625488,0
20900,0.407715,-0.58252,0.604492,0
20920,0.425293,-0.574219,0.612793,0
20940,0.419434,-0.567383,0.624512,0
20960,0.418945,-0.57666,0.614258,0
20980,0.416992,-0.583008,0.605469,0
21000,0.408203,-0.566406,0.616211,0
21020,0.402344,-0.556641,0.62207,0
21040,0.404785,-0.574219,0.597656,0
21060,0.435059,-0.583984,0.595703,0
21080,0.44043,-0.566895,0.608398,0
21100,0.450684,-0.557129,0.61377,0
21120,0.463379,-0.567871,0.592773,0
21140,0.482422,-0.572754,0.612793,0
21160,0.492676,-0.567871,0.61084,0
21180,0.508301,-0.578613,0.597656,0
21200,0.526855,-0.583008,0.589355,0
21220,0.523926,-0.57666,0.588379,0
21240,0.530762,-0.571777,0.604004,0
21260,0.541992,-0.579102,0.592773,0
21280,0.526855,-0.566406,0.577637,0
21300,0.520508,-0.5625,0.586426,0
21320,0.530762,-0.578613,0.589355,0
21340,0.521973,-0.574219,0.570312,0
21360,0.506348,-0.560547,0.588379,0
21380,0.495605,-0.549316,0.588379,0
21400,0.450195,-0.555176,0.59082,0
21420,0.443359,-0.560059,0.57959,0
21440,0.435059,-0.540527,0.603516,0
21460,0.415039,-0.533203,0.599121,0
21480,0.418945,-0.53418,0.60791,0
21500,0.421387,-0.546875,0.607422,0
21520,0.404785,-0.54834,0.61084,0
21540,0.405762,-0.558594,0.606934,0
21560,0.412598,-0.560547,0.609375,0
21580,0.41748,-0.557617,0.598145,0
21600,0.416016,-0.55127,0.609863,0
21620,0.399902,-0.550781,0.607422,0
21640,0.390625,-0.574219,0.602051,0
21660,0.40918,-0.555664,0.614746,0
21680,0.418945,-0.564941,0.59082,0
21700,0.38916,-0.55957,0.599121,0
21720,0.377441,-0.553711,0.616699,0
21740,0.416992,-0.556152,0.615234,0
21760,0.427734,-0.563965,0.607422,0
21780,0.39209,-0.574219,0.600098,0
21800,0.397949,-0.571289,0.600098,0
21820,0.419922,-0.566406,0.598633,0
21840,0.416016,-0.565918,0.59668,0
21860,0.427734,-0.577148,0.59668,0
21880,0.414062,-0.573242,0.600586,0
21900,0.403809,-0.56543,0.603516,0
21920,0.437012,-0.581055,0.612793,0
21940,0.432129,-0.58252,0.588379,0
21960,0.40918,-0.565918,0.598145,0
21980,0.404297,-0.587402,0.590332,0
22000,0.412598,-0.573242,0.59082,0
22020,0.422363,-0.569336,0.561035,0
22030,0.38916,-0.564453,0.604004,0
22050,0.331543,-0.605957,0.567871,0
22070,0.338379,-0.635254,0.556641,0
22090,0.394043,-0.604492,0.560059,0
22110,0.395996,-0.566406,0.552246,0
22130,0.393555,-0.55957,0.598145,0
22150,0.455078,-0.523926,0.674316,0
22170,0.458008,-0.506836,0.662598,0
22190,0.419434,-0.526367,0.634277,0
22210,0.380859,-0.530762,0.647949,0
22230,0.326172,-0.536621,0.658203,0
22250,0.324219,-0.563477,0.663086,0
22270,0.35498,-0.566895,0.679688,0
22290,0.361816,-0.574707,0.662109,0
22310,0.349121,-0.596191,0.630371,0
22330,0.373535,-0.602051,0.629883,0
22350,0.406738,-0.598633,0.647461,0
22370,0.413086,-0.607422,0.607422,0
22390,0.433105,-0.592285,0.63916,0
22410,0.423828,-0.556641,0.652832,0
22430,0.39502,-0.550781,0.682129,0
22450,0.437012,-0.574219,0.65918,0
22470,0.414062,-0.543945,0.674316,0
22490,0.298828,-0.496582,0.695801,0
22510,0.27002,-0.539551,0.708496,0
22530,0.245605,-0.544922,0.677734,0
22550,0.211426,-0.561523,0.67041,0
22570,0.145508,-0.54248,0.725098,0
22590,0.190918,-0.536621,0.714844,0
22610,0.34375,-0.557129,0.694824,0
22630,0.323242,-0.602051,0.655762,0
22650,0.356445,-0.654297,0.669922,0
22670,0.356445,-0.572266,0.719727,0
22690,0.314453,-0.51709,0.683105,0
22710,0.329102,-0.474609,0.699219,0
22730,0.331055,-0.505859,0.706055,0
22750,0.368652,-0.523438,0.717773,0
22770,0.370117,-0.522949,0.681152,0
22790,0.331543,-0.521973,0.674805,0
22810,0.30127,-0.50293,0.716797,0
22830,0.360352,-0.531738,0.6875,0
22850,0.381836,-0.539551,0.668945,0
22870,0.282227,-0.525391,0.69043,0
22890,0.285645,-0.51416,0.706543,0
22910,0.32373,-0.528809,0.679199,0
22930,0.251953,-0.508301,0.689453,0
22950,0.228027,-0.469727,0.734863,0
22970,0.444336,-0.48877,0.700195,0
22990,0.491699,-0.518066,0.696777,0
23010,0.336426,-0.503906,0.691895,0
23030,0.37207,-0.492676,0.664062,0
23050,0.412598,-0.50293,0.672852,0
23070,0.330078,-0.51709,0.646973,0
23090,0.365723,-0.519531,0.685547,0
23110,0.361328,-0.509766,0.679199,0
23130,0.313477,-0.505859,0.646973,0
23150,0.353027,-0.485352,0.677246,0
23170,0.371582,-0.495117,0.681641,0
23190,0.380371,-0.466309,0.69873,0
23210,0.470703,-0.515137,0.660156,0
23230,0.408691,-0.469727,0.699707,0
23250,0.369141,-0.477539,0.712402,0
23270,0.416504,-0.509766,0.658203,0
23290,0.40918,-0.544434,0.689453,0
23310,0.345215,-0.519531,0.688477,0
23330,0.350586,-0.532227,0.681641,0
23350,0.374023,-0.543457,0.675293,0
23370,0.352539,-0.533203,0.699219,0
23390,0.396973,-0.520508,0.680664,0
23410,0.390137,-0.525391,0.660156,0
23430,0.351074,-0.530762,0.666992,0
23450,0.335938,-0.52002,0.69043,0
23470,0.35498,-0.518555,0.680176,0
23490,0.362305,-0.468262,0.666016,0
23510,0.373535,-0.494629,0.684082,0
23530,0.368652,-0.509766,0.665527,0
23550,0.338867,-0.511719,0.678711,0
23570,0.321289,-0.501465,0.672363,0
23590,0.307617,-0.505859,0.671387,0
23610,0.379883,-0.527832,0.661133,0
23630,0.374512,-0.529297,0.655273,0
23650,0.334473,-0.552246,0.625,0
23670,0.293945,-0.553223,0.632812,0
23690,0.274902,-0.523438,0.660645,0
23710,0.281738,-0.475586,0.713379,0
23730,0.383301,-0.476074,0.71582,0
23750,0.432129,-0.494141,0.692383,0
23770,0.441895,-0.481445,0.70459,0
23790,0.439941,-0.535645,0.692871,0
23810,0.396973,-0.521484,0.703125,0
23830,0.382812,-0.555664,0.710449,0
23850,0.373047,-0.560059,0.69873,0
23870,0.368652,-0.560059,0.725098,0
23890,0.37793,-0.513184,0.720215,0
23910,0.339844,-0.535645,0.680664,0
23930,0.36084,-0.564941,0.652344,0
23950,0.398438,-0.531738,0.680176,0
23970,0.367188,-0.512695,0.682129,0
23990,0.341309,-0.513184,0.700195,0
24010,0.35498,-0.484863,0.674805,0
24030,0.400879,-0.533203,0.655273,0
24050,0.384277,-0.528809,0.675293,0
24070,0.354004,-0.541504,0.680664,0
24090,0.40332,-0.532227,0.634766,0
24110,0.38916,-0.540039,0.643555,0
24130,0.354004,-0.569336,0.634766,0
24150,0.40918,-0.558594,0.67627,0
24170,0.434082,-0.580566,0.637207,0
24190,0.376465,-0.539062,0.667969,0
24210,0.365723,-0.548828,0.672852,0
24230,0.410156,-0.564453,0.648926,0
24250,0.425781,-0.532227,0.644043,0
24270,0.419922,-0.53125,0.631836,0
24290,0.347656,-0.527832,0.667969,0
24310,0.393066,-0.535156,0.628906,0
24330,0.437988,-0.512695,0.602539,0
24350,0.420898,-0.517578,0.631348,0
24370,0.394043,-0.522461,0.614258,0
24390,0.397461,-0.496582,0.619629,0
24410,0.394531,-0.470215,0.602539,0
24430,0.377441,-0.45752,0.617676,0
24450,0.435059,-0.520508,0.599121,0
24470,0.424805,-0.518555,0.615723,0
24490,0.46582,-0.544922,0.584961,0
24510,0.467285,-0.529297,0.590332,0
24530,0.466797,-0.538086,0.624512,0
24550,0.44043,-0.567871,0.607422,0
24570,0.446289,-0.54834,0.633301,0
24590,0.493652,-0.576172,0.607422,0
24610,0.487793,-0.550781,0.643555,0
24630,0.466797,-0.577148,0.636719,0
24650,0.501953,-0.589355,0.602051,0
24670,0.48877,-0.570312,0.605469,0
24690,0.430664,-0.540527,0.620605,0
24710,0.444336,-0.563477,0.606934,0
24730,0.460449,-0.562012,0.596191,0
24750,0.450684,-0.535156,0.608398,0
24770,0.452148,-0.527832,0.588867,0
24790,0.459961,-0.53125,0.577148,0
24810,0.456055,-0.52832,0.610352,0
24830,0.460938,-0.516113,0.577148,0
24850,0.493652,-0.510742,0.583496,0
24870,0.46582,-0.518555,0.588867,0
24890,0.466309,-0.529785,0.59082,0
24910,0.485352,-0.528809,0.582031,0
24930,0.487305,-0.520508,0.57959,0
24950,0.480469,-0.53418,0.572754,0
24970,0.478516,-0.54248,0.569824,0
24990,0.478516,-0.544434,0.593262,0
25010,0.485352,-0.539551,0.579102,0
25030,0.483398,-0.539062,0.589355,0
25050,0.486328,-0.559082,0.57666,0
25070,0.490234,-0.554199,0.581055,0
25090,0.479492,-0.525391,0.590332,0
25110,0.494629,-0.526855,0.602539,0
25130,0.499023,-0.542969,0.569824,0
25150,0.502441,-0.54834,0.577148,0
25170,0.496582,-0.52832,0.598145,0
25190,0.493164,-0.541016,0.577148,0
25210,0.496094,-0.540039,0.572754,0
25230,0.500488,-0.540527,0.578125,0
25250,0.499023,-0.538574,0.583008,0
25270,0.501953,-0.529297,0.571289,0
25290,0.489746,-0.525391,0.577637,0
25310,0.49707,-0.53125,0.571289,0
25330,0.498535,-0.544922,0.580078,0
25350,0.491211,-0.540527,0.578125,0
25370,0.518555,-0.554199,0.581055,0
25390,0.538574,-0.549316,0.583008,0
25410,0.507812,-0.542969,0.569336,0
25430,0.49707,-0.550781,0.576172,0
25450,0.518555,-0.537598,0.59082,0
25470,0.516113,-0.533203,0.57666,0
25490,0.507812,-0.540527,0.564453,0
25500,0.493652,-0.543457,0.571289,0
25520,0.480957,-0.541016,0.560059,0
25540,0.487305,-0.530762,0.566895,0
25560,0.493164,-0.525391,0.56543,0
25580,0.473145,-0.526367,0.566895,0
25600,0.486816,-0.53125,0.570312,0
25620,0.489258,-0.529785,0.577637,0
25640,0.489746,-0.529297,0.564453,0
25660,0.492188,-0.535645,0.563477,0
25680,0.501465,-0.527832,0.568359,0
25700,0.495117,-0.535645,0.554688,0
25720,0.504395,-0.551758,0.558594,0
25740,0.49707,-0.540039,0.578125,0
25760,0.513184,-0.546875,0.562012,0
25780,0.520996,-0.552734,0.571777,0
25800,0.500488,-0.547363,0.576172,0
25820,0.515137,-0.556152,0.560547,0
25840,0.520508,-0.537109,0.564941,0
25860,0.490723,-0.553223,0.563477,0
25880,0.493652,-0.560547,0.571289,0
25900,0.508301,-0.552734,0.563477,0
25920,0.499023,-0.538574,0.572266,0
25940,0.48877,-0.541992,0.559082,0
25960,0.500977,-0.552246,0.568359,0
25980,0.505371,-0.541504,0.547363,0
26000,0.493652,-0.544922,0.553223,0
26020,0.483887,-0.551758,0.562012,0
26040,0.471191,-0.554688,0.564453,0
26060,0.472168,-0.553223,0.567383,0
26080,0.452148,-0.554199,0.566895,0
26100,0.447754,-0.546875,0.57666,0
26120,0.46875,-0.54541,0.571777,0
26140,0.482422,-0.549316,0.56543,0
26160,0.481445,-0.548828,0.567383,0
26180,0.514648,-0.550781,0.57666,0
26200,0.524902,-0.557617,0.547852,0
26220,0.501465,-0.5625,0.54541,0
26240,0.508789,-0.565918,0.557617,0
26260,0.503906,-0.544434,0.564453,0
26280,0.497559,-0.53125,0.54834,0
26300,0.495605,-0.539062,0.540039,0
26320,0.501953,-0.543945,0.545898,0
26340,0.512695,-0.533691,0.552246,0
26360,0.51709,-0.534668,0.533691,0
26380,0.532715,-0.541016,0.542969,0
26400,0.538086,-0.545898,0.541504,0
26420,0.53418,-0.552246,0.52832,0
26440,0.541992,-0.551758,0.536133,0
26460,0.56543,-0.552246,0.535156,0
26480,0.567383,-0.543457,0.529785,0
26500,0.558105,-0.551758,0.519043,0
26520,0.553223,-0.54248,0.547852,0
26540,0.572266,-0.554688,0.52832,0
26560,0.576172,-0.538574,0.515625,0
26580,0.572754,-0.522949,0.515625,0
26600,0.592285,-0.523438,0.517578,0
26620,0.611328,-0.525391,0.498047,0
26640,0.581055,-0.529297,0.506836,0
26660,0.585449,-0.527344,0.510254,0
26680,0.603516,-0.525879,0.505859,0
26700,0.605469,-0.535156,0.507324,0
26720,0.618652,-0.525391,0.48584,0
26740,0.638184,-0.524414,0.490234,0
26760,0.653809,-0.521973,0.494141,0
26780,0.681152,-0.519531,0.481934,0
26800,0.691895,-0.515625,0.48291,0
26820,0.705078,-0.529785,0.474121,0
26840,0.715332,-0.536133,0.465332,0
26860,0.698242,-0.540039,0.457031,0
26880,0.666504,-0.544434,0.467773,0
26900,0.713379,-0.57666,0.46582,0
26920,0.666504,-0.567871,0.482422,0
26940,0.55957,-0.537598,0.487793,0
26960,0.563477,-0.56543,0.492188,0
26980,0.58252,-0.565918,0.519043,0
27000,0.540039,-0.541016,0.535156,0
27020,0.505371,-0.537598,0.541504,0
27040,0.503418,-0.523926,0.53125,0
27060,0.53418,-0.541504,0.560059,0
27080,0.566406,-0.556152,0.530273,0
27100,0.541016,-0.552246,0.510742,0
27120,0.516113,-0.533691,0.515625,0
27140,0.517578,-0.569336,0.507324,0
27160,0.517578,-0.551758,0.509277,0
27180,0.480469,-0.538086,0.509766,0
27200,0.487793,-0.556641,0.495605,0
27220,0.488281,-0.555176,0.506348,0
27240,0.471191,-0.571777,0.516113,0
27260,0.473145,-0.569824,0.523926,0
27280,0.498535,-0.595215,0.519531,0
27300,0.522461,-0.620605,0.497559,0
27320,0.506348,-0.605469,0.511719,0
27340,0.485352,-0.592285,0.523926,0
27360,0.488281,-0.60498,0.5,0
27380,0.495605,-0.618164,0.494629,0
27400,0.462402,-0.614258,0.493652,0
27420,0.452148,-0.605469,0.480469,0
27440,0.464355,-0.62793,0.481934,0
27460,0.445312,-0.617676,0.491211,0
27480,0.442871,-0.622559,0.483887,0
27490,0.45752,-0.614746,0.501953,0
27510,0.458496,-0.617188,0.516113,0
27530,0.442871,-0.635742,0.496094,0
27550,0.460449,-0.64502,0.488281,0
27570,0.459473,-0.620605,0.506836,0
27590,0.447754,-0.626953,0.497559,0
27610,0.443359,-0.645996,0.50293,0
27630,0.479004,-0.65918,0.493652,0
27650,0.465332,-0.642578,0.502441,0
27670,0.458008,-0.628906,0.504883,0
27690,0.458008,-0.652832,0.509277,0
27710,0.486816,-0.64209,0.509277,0
27730,0.483887,-0.641602,0.512207,0
27750,0.494141,-0.644043,0.499512,0
27770,0.496582,-0.640137,0.514648,0
27790,0.479492,-0.654785,0.513184,0
27810,0.488281,-0.647461,0.499023,0
27830,0.500488,-0.649902,0.512695,0
27850,0.484375,-0.641113,0.506836,0
27870,0.45752,-0.633301,0.501465,0
27890,0.460938,-0.640137,0.514648,0
27910,0.460449,-0.635254,0.48291,0
27930,0.438965,-0.63623,0.510742,0
27950,0.439453,-0.666504,0.497559,0
27970,0.463867,-0.659668,0.518066,0
27990,0.438477,-0.646484,0.5,0
28010,0.426758,-0.655273,0.505371,0
28030,0.431641,-0.630859,0.518066,0
28050,0.42334,-0.641602,0.514648,0
28070,0.419922,-0.644531,0.515137,0
28090,0.425781,-0.65918,0.508789,0
28110,0.441406,-0.647461,0.519531,0
28130,0.442383,-0.648926,0.513184,0
28150,0.452148,-0.640625,0.508789,0
28170,0.461426,-0.644531,0.513184,0
28190,0.457031,-0.666992,0.5,0
28210,0.452637,-0.656738,0.498535,0
28230,0.444336,-0.646484,0.493652,0
28250,0.440918,-0.644531,0.502441,0
28270,0.435059,-0.64209,0.492188,0
28290,0.442871,-0.64502,0.499023,0
28310,0.45166,-0.639648,0.493652,0
28330,0.42041,-0.647949,0.486328,0
28350,0.394043,-0.652344,0.495117,0
28370,0.40625,-0.65918,0.484863,0
28390,0.416016,-0.665039,0.469238,0
28410,0.382812,-0.658203,0.499512,0
28430,0.383301,-0.650879,0.508301,0
28450,0.439941,-0.658203,0.483887,0
28470,0.488281,-0.648926,0.491699,0
28490,0.477539,-0.637207,0.503906,0
28510,0.482422,-0.674316,0.474609,0
28530,0.476074,-0.661133,0.48877,0
28550,0.474609,-0.637695,0.489746,0
28570,0.503418,-0.630859,0.46875,0
28590,0.505859,-0.654785,0.453125,0
28610,0.525879,-0.646973,0.489746,0
28630,0.541016,-0.630371,0.486328,0
28650,0.548828,-0.636719,0.463379,0
28670,0.51416,-0.631836,0.447266,0
28690,0.535156,-0.614746,0.498535,0
28710,0.571289,-0.606445,0.464844,0
28730,0.569824,-0.637695,0.442871,0
28750,0.564453,-0.629395,0.446289,0
28770,0.568848,-0.618652,0.462891,0
28790,0.583496,-0.605957,0.443848,0
28810,0.581543,-0.623047,0.419434,0
28830,0.578125,-0.634277,0.430176,0
28850,0.595215,-0.611328,0.444824,0
28870,0.623047,-0.619629,0.422363,0
28890,0.624023,-0.616699,0.419922,0
28910,0.616699,-0.611328,0.439453,0
28930,0.619141,-0.614258,0.428223,0
28950,0.628906,-0.612305,0.418457,0
28970,0.668945,-0.614258,0.417969,0
28990,0.681152,-0.617676,0.408203,0
29010,0.695801,-0.616699,0.396484,0
29030,0.714844,-0.626465,0.381348,0
29050,0.720215,-0.625488,0.373535,0
29070,0.694336,-0.632324,0.38916,0
29090,0.702148,-0.646973,0.402344,0
29110,0.686035,-0.636719,0.418945,0
29130,0.594238,-0.595703,0.425781,0
29150,0.530762,-0.583984,0.421875,0
29170,0.495605,-0.570801,0.425781,0
29190,0.470703,-0.584961,0.453613,0
29210,0.462402,-0.600098,0.458496,0
29230,0.486328,-0.627441,0.449219,0
29250,0.504395,-0.598633,0.439941,0
29270,0.491211,-0.623047,0.479004,0
29290,0.478027,-0.615723,0.454102,0
29310,0.467285,-0.637695,0.441895,0
29330,0.491211,-0.622559,0.458496,0
29350,0.449219,-0.616699,0.449219,0
29370,0.447754,-0.634277,0.460938,0
29390,0.45752,-0.639648,0.462891,0
29410,0.429688,-0.649414,0.464355,0
29430,0.431152,-0.65332,0.469727,0
29450,0.447754,-0.660156,0.480957,0
29470,0.432617,-0.662109,0.49707,0
29490,0.445801,-0.649902,0.504395,0
29510,0.484375,-0.647949,0.496582,0
29530,0.486816,-0.65918,0.48877,0
29550,0.469727,-0.67041,0.489746,0
29570,0.494629,-0.670898,0.490723,0
29590,0.48877,-0.65625,0.496094,0
29610,0.443848,-0.657715,0.487305,0
29630,0.430664,-0.668457,0.490723,0
29650,0.45166,-0.677246,0.49707,0
29670,0.441895,-0.680176,0.48877,0
29690,0.419922,-0.67627,0.48584,0
29710,0.413574,-0.660645,0.494629,0
29730,0.433105,-0.670898,0.473633,0
29750,0.422852,-0.668457,0.477051,0
29770,0.416992,-0.674805,0.489746,0
29790,0.441895,-0.681641,0.494141,0
29810,0.447266,-0.672363,0.492188,0
29830,0.466309,-0.681641,0.466309,0
29850,0.456543,-0.691895,0.498535,0
29870,0.452148,-0.707031,0.490234,0
29890,0.46875,-0.708496,0.473145,0
29910,0.472656,-0.662598,0.48291,0
29930,0.439941,-0.663086,0.490723,0
29950,0.451172,-0.680176,0.48584,0
29970,0.458008,-0.675781,0.490234,0
29990,0.455566,-0.664062,0.489746,0
30010,0.441895,-0.659668,0.48877,0
30030,0.432617,-0.66748,0.478516,0
30050,0.440918,-0.67627,0.48877,0
30070,0.440918,-0.673828,0.482422,0
30090,0.432617,-0.683105,0.484375,0
30110,0.433105,-0.669922,0.481934,0
30130,0.446777,-0.671387,0.477051,0
30150,0.423828,-0.680176,0.472656,0
30170,0.405762,-0.688477,0.48584,0
30190,0.419434,-0.693359,0.47998,0
30210,0.400879,-0.689941,0.46875,0
30230,0.365234,-0.698242,0.466797,0
30250,0.348145,-0.709473,0.45459,0
30270,0.349121,-0.700195,0.456055,0
30290,0.363281,-0.6875,0.477051,0
30310,0.373535,-0.695312,0.471191,0
30330,0.389648,-0.709961,0.453613,0
30350,0.397949,-0.6875,0.478516,0
30370,0.425781,-0.662598,0.491211,0
30390,0.475586,-0.663574,0.46582,0
30410,0.495605,-0.668945,0.461426,0
30430,0.501953,-0.658203,0.481445,0
30450,0.552246,-0.639648,0.482422,0
30470,0.537109,-0.642578,0.44873,0
30490,0.503418,-0.641602,0.447266,0
30510,0.517578,-0.634766,0.480469,0
30530,0.561035,-0.621582,0.464844,0
30550,0.557129,-0.633301,0.433594,0
30570,0.540039,-0.638672,0.44873,0
30590,0.566406,-0.619141,0.477539,0
30610,0.579102,-0.617676,0.442383,0
30630,0.568848,-0.640625,0.425293,0
30650,0.587891,-0.631348,0.439453,0
30670,0.598145,-0.614746,0.455078,0
30690,0.598633,-0.632812,0.424805,0
30710,0.606445,-0.640137,0.419434,0
30730,0.625977,-0.631836,0.430664,0
30750,0.649414,-0.620605,0.42627,0
30770,0.650391,-0.617188,0.423828,0
30790,0.666016,-0.634277,0.422363,0
30810,0.669922,-0.632812,0.422852,0
30830,0.647461,-0.636719,0.400879,0
30850,0.642578,-0.671875,0.383789,0
30870,0.623047,-0.644043,0.410645,0
30890,0.583984,-0.592773,0.448242,0
30910,0.527832,-0.578125,0.428223,0
30930,0.488281,-0.572754,0.432617,0
30940,0.455078,-0.569336,0.455566,0
30960,0.427246,-0.552734,0.453125,0
30980,0.383789,-0.539551,0.449707,0
31000,0.362793,-0.551758,0.449707,0
31020,0.365723,-0.577148,0.47998,0
31040,0.366211,-0.54834,0.484375,0
31060,0.380859,-0.585938,0.503418,0
31080,0.400879,-0.64209,0.525879,0
31100,0.419434,-0.670898,0.528809,0
31120,0.396973,-0.671875,0.547852,0
31140,0.371582,-0.671875,0.554688,0
31160,0.394531,-0.684082,0.546387,0
31180,0.414551,-0.681152,0.54541,0
31200,0.412109,-0.677734,0.560547,0
31220,0.378418,-0.716797,0.570801,0
31240,0.35791,-0.737793,0.565918,0
31260,0.355469,-0.745605,0.572754,0
31280,0.362305,-0.734863,0.582031,0
31300,0.353027,-0.717285,0.593262,0
31320,0.342773,-0.715332,0.569336,0
31340,0.342773,-0.722656,0.571777,0
31360,0.332031,-0.700684,0.594238,0
31380,0.316406,-0.685547,0.575684,0
31400,0.297852,-0.703613,0.565918,0
31420,0.335938,-0.708008,0.575684,0
31440,0.336914,-0.690918,0.57959,0
31460,0.321289,-0.671875,0.576172,0
31480,0.318848,-0.681152,0.577148,0
31500,0.307617,-0.675293,0.59375,0
31520,0.334961,-0.677734,0.567871,0
31540,0.335449,-0.674805,0.594727,0
31560,0.335938,-0.65625,0.575684,0
31580,0.319336,-0.65332,0.565918,0
31600,0.30127,-0.676758,0.573242,0
31620,0.313477,-0.663574,0.566406,0
31640,0.272949,-0.665039,0.560059,0
31660,0.252441,-0.669434,0.568848,0
31680,0.264648,-0.668945,0.562988,0
31700,0.266113,-0.660645,0.564941,0
31720,0.251953,-0.657715,0.565918,0
31740,0.253906,-0.666504,0.588379,0
31760,0.259766,-0.709473,0.592773,0
31780,0.266602,-0.709473,0.594727,0
31800,0.250977,-0.693359,0.605957,0
31820,0.26123,-0.689453,0.595703,0
31840,0.240234,-0.706543,0.598145,0
31860,0.221191,-0.711914,0.606445,0
31880,0.251953,-0.713867,0.609375,0
31900,0.262695,-0.71875,0.618652,0
31920,0.261719,-0.688477,0.620605,0
31940,0.257324,-0.695312,0.617188,0
31960,0.274902,-0.685059,0.644531,0
31980,0.291992,-0.637695,0.661621,0
32000,0.287598,-0.650391,0.609863,0
32020,0.297363,-0.622559,0.646484,0
32040,0.300293,-0.570801,0.647461,0
32060,0.277832,-0.616211,0.578613,0
32080,0.293457,-0.57959,0.589355,0
32100,0.199219,-0.623535,0.589844,0
32120,0.192871,-0.615234,0.564453,0
32140,0.15918,-0.585449,0.623535,0
32160,0.184082,-0.647949,0.592285,0
32180,0.183594,-0.63623,0.623535,0
32200,0.108887,-0.634277,0.657715,0
32220,0.175781,-0.673828,0.662109,0
32240,0.14209,-0.67627,0.697266,0
32260,0.130859,-0.661133,0.736816,0
32280,0.163574,-0.652344,0.731445,0
32300,0.166016,-0.649902,0.717773,0
32320,0.191406,-0.67041,0.730957,0
32340,0.147949,-0.626465,0.726074,0
32360,0.160156,-0.621094,0.712402,0
32380,0.183105,-0.619141,0.722656,0
32400,0.156738,-0.594727,0.711426,0
32420,0.20752,-0.613281,0.699707,0
32440,0.199219,-0.611328,0.691895,0
32460,0.136719,-0.57959,0.702637,0
32480,0.177734,-0.569336,0.710938,0
32500,0.185059,-0.578125,0.687012,0
32520,0.190918,-0.603027,0.692383,0
32540,0.174805,-0.573242,0.709473,0
32560,0.145996,-0.5625,0.70166,0
32580,0.189941,-0.600586,0.66748,0
32600,0.168457,-0.61084,0.703125,0
32620,0.157715,-0.572754,0.708984,0
32640,0.150879,-0.577148,0.693848,0
32660,0.165527,-0.600098,0.681641,0
32680,0.170898,-0.615234,0.709473,0
32700,0.15625,-0.589355,0.708496,0
32720,0.157715,-0.583008,0.699707,0
32740,0.171875,-0.600098,0.713867,0
32760,0.186035,-0.614258,0.72168,0
32780,0.167969,-0.587891,0.69873,0
32800,0.161621,-0.569824,0.70459,0
32820,0.151855,-0.578613,0.720215,0
32840,0.164062,-0.605469,0.705078,0
32860,0.197754,-0.588867,0.706055,0
32880,0.129395,-0.562988,0.705566,0
32900,0.143066,-0.577637,0.711426,0
32920,0.171387,-0.59375,0.691895,0
32940,0.180664,-0.604492,0.70459,0
32950,0.175293,-0.584961,0.69043,0
32970,0.127441,-0.564453,0.702148,0
32990,0.165039,-0.569336,0.728516,0
33010,0.249023,-0.613281,0.715332,0
33030,0.275879,-0.618652,0.69873,0
33050,0.147949,-0.567871,0.705566,0
33070,0.146484,-0.572266,0.706543,0
33090,0.263184,-0.631348,0.71582,0
33110,0.277344,-0.614258,0.69043,0
33130,0.115234,-0.560547,0.69873,0
33150,0.180664,-0.569824,0.694336,0
33170,0.214355,-0.603516,0.692383,0
33190,0.21582,-0.606934,0.707031,0
33210,0.182617,-0.566406,0.698242,0
33230,0.166016,-0.568848,0.70459,0
33250,0.20166,-0.605957,0.692383,0
33270,0.206055,-0.606934,0.692383,0
33290,0.208984,-0.595215,0.683105,0
33310,0.158203,-0.572266,0.685059,0
33330,0.18457,-0.586426,0.698242,0
33350,0.226074,-0.610352,0.687012,0
33370,0.187012,-0.590332,0.693848,0
33390,0.17041,-0.569824,0.700195,0
33410,0.208496,-0.592773,0.700195,0
33430,0.20166,-0.617188,0.692383,0
33440,0.199219,-0.589844,0.700684,0
33460,0.174805,-0.565918,0.708984,0
33480,0.192383,-0.599609,0.705566,0
33500,0.232422,-0.618652,0.696289,0
33520,0.190918,-0.589355,0.701172,0
33540,0.161621,-0.566895,0.706543,0
33560,0.181641,-0.595703,0.688477,0
33580,0.198242,-0.610352,0.700195,0
33600,0.191895,-0.585449,0.696777,0
33620,0.171875,-0.574707,0.69873,0
33640,0.186523,-0.591309,0.708496,0
33660,0.189941,-0.595215,0.693359,0
33680,0.208984,-0.599609,0.703125,0
33700,0.181152,-0.58252,0.697266,0
33720,0.183105,-0.589355,0.687012,0
33740,0.167969,-0.601074,0.696289,0
33760,0.206055,-0.602051,0.710938,0
33780,0.208496,-0.600586,0.703613,0
33800,0.173828,-0.602051,0.683105,0
33820,0.164551,-0.597168,0.702148,0
33840,0.195312,-0.600098,0.693359,0
33860,0.221191,-0.616211,0.682129,0
33880,0.174805,-0.584473,0.686523,0
33900,0.181641,-0.591797,0.699707,0
33920,0.195801,-0.606934,0.695801,0
33940,0.201172,-0.60791,0.695312,0
33960,0.196289,-0.598145,0.690918,0
33980,0.177246,-0.589355,0.69043,0
34000,0.186035,-0.605469,0.682129,0
34020,0.188477,-0.594727,0.696289,0
34040,0.206543,-0.597656,0.705078,0
34060,0.200684,-0.600098,0.676758,0
34080,0.175781,-0.601074,0.694824,0
34100,0.1875,-0.603516,0.697266,0
34120,0.184082,-0.598145,0.687988,0
34140,0.212402,-0.611816,0.691895,0
34160,0.190918,-0.609863,0.680664,0
34180,0.171387,-0.585449,0.693848,0
34200,0.183594,-0.590332,0.692383,0
34220,0.214844,-0.617676,0.691895,0
34240,0.19873,-0.598145,0.682129,0
34260,0.165039,-0.585449,0.694336,0
34280,0.19043,-0.59668,0.697754,0
34300,0.210938,-0.611328,0.682617,0
34320,0.213379,-0.605957,0.685059,0
34340,0.174316,-0.588867,0.689453,0
34360,0.164062,-0.592285,0.684082,0
34380,0.205078,-0.617676,0.689453,0
34400,0.190918,-0.597168,0.688965,0
34420,0.158691,-0.583008,0.677734,0
34440,0.184082,-0.600586,0.672852,0
34460,0.171387,-0.601074,0.683105,0
34480,0.174316,-0.610352,0.675293,0
34500,0.168457,-0.599609,0.662109,0
34520,0.140137,-0.589355,0.675781,0
34540,0.153809,-0.606445,0.682617,0
34560,0.191406,-0.630859,0.677734,0
34580,0.195801,-0.620605,0.654297,0
34600,0.140625,-0.591797,0.666992,0
34620,0.157227,-0.592285,0.680664,0
34640,0.186523,-0.628418,0.678223,0
34660,0.185059,-0.616211,0.669922,0
34680,0.161133,-0.588867,0.678711,0
34700,0.160645,-0.598145,0.693359,0
34720,0.200195,-0.616211,0.673828,0
34740,0.223633,-0.610352,0.689453,0
34760,0.188965,-0.609375,0.680176,0
34780,0.175293,-0.59375,0.679688,0
34800,0.194824,-0.600586,0.680664,0
34820,0.219727,-0.625,0.6875,0
34840,0.22998,-0.616699,0.678223,0
34860,0.208984,-0.617676,0.671387,0
34880,0.228516,-0.620605,0.679688,0
34900,0.232422,-0.629883,0.67334,0
34920,0.202637,-0.615723,0.672852,0
34940,0.194824,-0.601562,0.689941,0
34960,0.223145,-0.60498,0.67041,0
34980,0.221191,-0.62207,0.667969,0
35000,0.216797,-0.608887,0.677734,0
35020,0.200195,-0.606934,0.680176,0
35040,0.223633,-0.596191,0.683105,0
35060,0.226562,-0.611816,0.677246,0
35080,0.23291,-0.616699,0.689453,0
35100,0.259277,-0.631348,0.690918,0
35120,0.276855,-0.609863,0.669922,0
35140,0.236328,-0.601074,0.686523,0
35160,0.235352,-0.595703,0.700195,0
35180,0.272949,-0.597168,0.681152,0
35200,0.258301,-0.592773,0.674316,0
35220,0.235352,-0.574707,0.69043,0
35240,0.291016,-0.578125,0.676758,0
35260,0.308105,-0.586426,0.67334,0
35280,0.280762,-0.571289,0.671875,0
35300,0.292969,-0.580078,0.682617,0
35320,0.329102,-0.592773,0.679688,0
35340,0.34082,-0.586914,0.672852,0
35360,0.329102,-0.58252,0.689453,0
35380,0.335938,-0.584473,0.680176,0
35400,0.36084,-0.600586,0.672852,0
35420,0.35498,-0.587402,0.674316,0
35440,0.354004,-0.581055,0.679199,0
35460,0.353516,-0.59668,0.670898,0
35480,0.377441,-0.608887,0.651855,0
35500,0.396973,-0.606445,0.666016,0
35520,0.400391,-0.596191,0.634766,0
35540,0.363281,-0.569824,0.659668,0
35560,0.300293,-0.594727,0.677734,0
35580,0.334473,-0.619141,0.668945,0
35600,0.385742,-0.615234,0.676758,0
35620,0.360352,-0.601074,0.655762,0
35640,0.236816,-0.580566,0.662598,0
35660,0.228027,-0.588867,0.686523,0
35680,0.277344,-0.60791,0.65625,0
35700,0.256348,-0.586426,0.678711,0
35720,0.224121,-0.59668,0.666504,0
35740,0.160645,-0.583008,0.648438,0
35760,0.177734,-0.59668,0.672852,0
35780,0.206543,-0.602051,0.648926,0
35800,0.178223,-0.598633,0.65625,0
35820,0.209961,-0.587402,0.660645,0
35840,0.203613,-0.606445,0.671387,0
35860,0.196777,-0.615234,0.657715,0
35880,0.20752,-0.590332,0.671875,0
35900,0.197266,-0.590332,0.679688,0
35920,0.227051,-0.60498,0.672852,0
35940,0.249512,-0.626465,0.665527,0
35960,0.234863,-0.600586,0.663574,0
35980,0.203125,-0.585938,0.679688,0
36000,0.208984,-0.618164,0.680176,0
36020,0.233398,-0.621582,0.687012,0
36040,0.215332,-0.601074,0.675293,0
36060,0.19043,-0.564453,0.694824,0
36080,0.146973,-0.587891,0.672852,0
36100,0.19043,-0.604492,0.688965,0
36120,0.210449,-0.584961,0.676758,0
36140,0.191895,-0.581543,0.704102,0
36160,0.183594,-0.599121,0.6875,0
36180,0.188965,-0.610352,0.690918,0
36200,0.192383,-0.598633,0.701172,0
36220,0.213867,-0.609375,0.707031,0
36240,0.210938,-0.620117,0.694824,0
36260,0.183594,-0.605469,0.69043,0
36280,0.157227,-0.575684,0.68457,0
36300,0.166992,-0.577148,0.687988,0
36320,0.167969,-0.591309,0.674316,0
36340,0.169922,-0.575684,0.675293,0
36360,0.175293,-0.586914,0.670898,0
36380,0.163574,-0.580078,0.673828,0
36390,0.165039,-0.584473,0.672852,0
36410,0.17041,-0.598633,0.679199,0
36430,0.180176,-0.588867,0.669922,0
36450,0.190918,-0.599121,0.683594,0
36470,0.20752,-0.603516,0.685547,0
36490,0.204102,-0.607422,0.681152,0
36510,0.221191,-0.617676,0.673828,0
36530,0.212891,-0.611328,0.680664,0
36550,0.192383,-0.605957,0.681641,0
36570,0.208496,-0.612305,0.674316,0
36590,0.241699,-0.62793,0.685059,0
36610,0.236328,-0.625488,0.688477,0
36630,0.239258,-0.609863,0.680664,0
36650,0.238281,-0.607422,0.69043,0
36670,0.242676,-0.625488,0.685547,0
36690,0.21875,-0.612305,0.680176,0
36710,0.227051,-0.61377,0.688965,0
36730,0.237305,-0.613281,0.687012,0
36750,0.216309,-0.610352,0.682129,0
36770,0.191895,-0.588867,0.68457,0
36790,0.227539,-0.598633,0.685059,0
36810,0.225586,-0.60498,0.687988,0
36830,0.20166,-0.588867,0.684082,0
36850,0.186523,-0.595215,0.666504,0
36870,0.219238,-0.602051,0.676758,2000
36890,0.225098,-0.628906,0.672363,0
36910,0.20459,-0.612793,0.669434,0
36930,0.194336,-0.595703,0.666016,0
36950,0.216797,-0.611816,0.669922,0
36970,0.22998,-0.625977,0.665527,0
36990,0.209473,-0.606445,0.672363,0
37010,0.208496,-0.593262,0.68457,0
37030,0.223633,-0.615723,0.677734,0
37050,0.215332,-0.610352,0.680176,0
37070,0.205078,-0.606934,0.682617,0
37090,0.218262,-0.617188,0.665039,0
37110,0.219727,-0.615234,0.674805,0
37130,0.204102,-0.604004,0.675293,0
37150,0.210449,-0.598633,0.680176,0
37170,0.220215,-0.615723,0.66748,0
37190,0.208496,-0.617676,0.674805,0
37210,0.196289,-0.60791,0.676758,0
37230,0.206543,-0.601562,0.669922,0
37250,0.210449,-0.610352,0.67334,0
37270,0.203125,-0.607422,0.67334,0
37290,0.211914,-0.625,0.664551,0
37310,0.197754,-0.612793,0.657227,0
37330,0.179688,-0.586914,0.674805,0
37350,0.172363,-0.597656,0.673828,0
37370,0.18457,-0.619629,0.65332,0
37390,0.186035,-0.606934,0.657715,0
37410,0.154785,-0.593262,0.649414,0
37430,0.131348,-0.593262,0.666016,0
37450,0.145996,-0.586426,0.650391,0
37470,0.158691,-0.591309,0.652832,0
37490,0.168945,-0.59668,0.664551,0
37510,0.192383,-0.596191,0.650391,0
37530,0.201172,-0.59375,0.663574,0
37550,0.191895,-0.615234,0.649902,0
37570,0.214355,-0.608887,0.685059,0
37590,0.219727,-0.609863,0.676758,0
37610,0.190918,-0.614258,0.663574,0
37630,0.187988,-0.623047,0.67334,0
37650,0.244141,-0.612305,0.69873,0
37670,0.26123,-0.616699,0.678711,0
37690,0.249023,-0.629395,0.669434,0
37710,0.263184,-0.640137,0.706055,0
37730,0.253906,-0.608398,0.694336,0
37750,0.233887,-0.612793,0.687988,0
37770,0.197754,-0.61084,0.683105,0
37790,0.19873,-0.601074,0.691895,0
37810,0.210938,-0.584961,0.702148,0
37830,0.210938,-0.582031,0.686035,0
37850,0.210938,-0.580566,0.688477,0
37870,0.228027,-0.57959,0.707031,0
37890,0.237793,-0.591309,0.697266,0
37910,0.251465,-0.605957,0.690918,0
37930,0.258301,-0.582031,0.717285,0
37950,0.263672,-0.583496,0.708496,0
37970,0.253418,-0.569336,0.69043,0
37990,0.266602,-0.56543,0.687012,0
38010,0.261719,-0.568848,0.679199,0
38030,0.249512,-0.563477,0.677246,0
38050,0.252441,-0.536621,0.691895,0
38070,0.275879,-0.522949,0.689453,0
38090,0.299805,-0.523926,0.681641,0
38110,0.27832,-0.558105,0.675293,0
38130,0.271484,-0.570801,0.686035,0
38150,0.30127,-0.560059,0.69873,0
38170,0.310547,-0.562988,0.691895,0
38190,0.297852,-0.563477,0.688965,0
38210,0.330078,-0.532715,0.743164,0
38230,0.36084,-0.532227,0.704102,0
38250,0.34375,-0.556641,0.686035,0
38270,0.311035,-0.557129,0.673828,0
38290,0.321777,-0.540527,0.706055,0
38310,0.374512,-0.512695,0.699707,0
38330,0.369141,-0.513672,0.674316,0
38350,0.350586,-0.530273,0.656738,0
38370,0.365234,-0.507812,0.685059,0
38380,0.417969,-0.497559,0.699219,0
38400,0.398926,-0.502441,0.654297,0
38420,0.394043,-0.523926,0.65332,0
38440,0.400391,-0.504395,0.654785,0
38460,0.459473,-0.470215,0.693848,0
38480,0.456055,-0.475098,0.655273,0
38500,0.425781,-0.5,0.640625,0
38520,0.445801,-0.525391,0.655273,0
38540,0.462402,-0.491211,0.675781,0
38560,0.45459,-0.509766,0.638672,0
38580,0.455078,-0.516602,0.630859,0
38600,0.463379,-0.507812,0.651855,0
38620,0.458008,-0.48584,0.641113,0
38640,0.477051,-0.48877,0.624512,0
38660,0.477539,-0.487793,0.619141,0
38680,0.48584,-0.458496,0.649902,0
38700,0.490234,-0.455078,0.62793,0
38720,0.507812,-0.477539,0.624512,0
38740,0.497559,-0.493164,0.618652,0
38760,0.522949,-0.470215,0.643066,0
38780,0.531738,-0.461914,0.625488,0
38800,0.535645,-0.47168,0.595703,0
38820,0.571289,-0.488281,0.604492,0
38840,0.567871,-0.468262,0.606445,0
38860,0.563965,-0.467285,0.594238,0
38880,0.568359,-0.470215,0.574219,0
38900,0.600586,-0.483887,0.588379,0
38920,0.582031,-0.459961,0.591309,0
38940,0.571777,-0.465332,0.589355,0
38960,0.564453,-0.477051,0.603027,0
38980,0.58252,-0.45752,0.624512,0
39000,0.536133,-0.419922,0.635254,0
39020,0.562988,-0.443359,0.606445,0
39040,0.581055,-0.439941,0.61084,0
39060,0.571289,-0.435059,0.622559,0
39080,0.585449,-0.460449,0.609375,0
39100,0.62793,-0.464844,0.594727,0
39120,0.630371,-0.465332,0.603516,0
39140,0.580078,-0.456543,0.618652,0
39160,0.567871,-0.442383,0.640625,0
39180,0.548828,-0.448242,0.627441,0
39200,0.519043,-0.435547,0.630859,0
39220,0.519043,-0.410156,0.643066,0
39240,0.534668,-0.424805,0.630859,0
39260,0.55957,-0.442383,0.621094,0
39280,0.55127,-0.45166,0.602539,0
39300,0.45752,-0.438477,0.603516,0
39320,0.496094,-0.435547,0.608887,0
39340,0.581055,-0.443359,0.658203,0
39360,0.504883,-0.427246,0.591797,0
39380,0.510742,-0.443359,0.617188,0
39400,0.563965,-0.439453,0.635742,0
39420,0.54541,-0.442383,0.633301,0
39440,0.527832,-0.419434,0.631836,0
39460,0.547852,-0.428711,0.652344,0
39480,0.531738,-0.427734,0.647949,0
39500,0.486816,-0.427246,0.635254,0
39520,0.48584,-0.447266,0.645996,0
39540,0.515137,-0.462891,0.665039,0
39560,0.515625,-0.433105,0.652344,0
39580,0.478516,-0.437988,0.637207,0
39600,0.448242,-0.448242,0.616699,0
39620,0.500977,-0.47998,0.637695,0
39640,0.492676,-0.451172,0.643066,0
39660,0.441406,-0.461426,0.624023,0
39680,0.462402,-0.487793,0.639648,0
39700,0.499512,-0.490723,0.647949,0
39720,0.455566,-0.505371,0.633301,0
39740,0.434082,-0.506348,0.612793,0
39760,0.462891,-0.505859,0.640625,0
39780,0.442383,-0.531738,0.629883,0
39800,0.418945,-0.526367,0.623535,0
39820,0.42627,-0.526367,0.629883,0
39840,0.422363,-0.521973,0.628418,0
39860,0.370117,-0.515625,0.595703,0
39880,0.40625,-0.539062,0.593262,0
39900,0.397461,-0.526855,0.606445,0
39920,0.345215,-0.541016,0.570312,0
39940,0.398438,-0.57666,0.556641,0
39960,0.393555,-0.593262,0.566406,0
39980,0.347168,-0.582031,0.573242,0
40000,0.374023,-0.602051,0.552734,0
40020,0.384277,-0.619141,0.559082,0
40040,0.352051,-0.607422,0.561035,0
40060,0.34375,-0.59668,0.538086,0
40080,0.368164,-0.61377,0.524414,0
40100,0.370605,-0.616699,0.543945,0
40120,0.358398,-0.635254,0.501465,0
40140,0.39502,-0.645996,0.506348,0
40160,0.370605,-0.638672,0.510254,0
40180,0.378906,-0.660645,0.480957,0
40200,0.410645,-0.682617,0.488281,0
40220,0.421387,-0.65625,0.511719,0
40240,0.395996,-0.67334,0.484375,0
40260,0.416504,-0.689453,0.476562,0
40280,0.452148,-0.686523,0.489258,0
40300,0.419434,-0.672363,0.501465,0
40320,0.359375,-0.682129,0.453613,0
40340,0.389648,-0.711914,0.486328,0
40360,0.482422,-0.680176,0.494629,0
40380,0.503906,-0.680664,0.481445,0
40400,0.427734,-0.691406,0.45459,0
40420,0.418457,-0.696777,0.447754,0
40440,0.453613,-0.660645,0.458496,0
40460,0.462402,-0.665527,0.461426,0
40480,0.50293,-0.6875,0.429688,0
40500,0.513184,-0.721191,0.413574,0
40520,0.483887,-0.666504,0.417969,0
40540,0.501953,-0.659668,0.414062,0
40560,0.55957,-0.661621,0.401855,0
40580,0.592285,-0.68457,0.382812,0
40600,0.554688,-0.652832,0.400391,0
40620,0.562012,-0.615723,0.40625,0
40640,0.631348,-0.603027,0.392578,0
40660,0.692383,-0.645508,0.368652,0
40680,0.600098,-0.619141,0.353516,0
40700,0.61377,-0.62207,0.355469,0
40720,0.701172,-0.60791,0.342285,0
40740,0.711426,-0.600098,0.355957,0
40760,0.674316,-0.602539,0.32959,0
40780,0.690918,-0.535645,0.373535,0
40800,0.719238,-0.541504,0.360352,0
40820,0.720215,-0.555664,0.333984,0
40840,0.717773,-0.565918,0.348633,0
40860,0.703125,-0.528809,0.348633,0
40880,0.728516,-0.512695,0.351074,0
40900,0.745605,-0.54248,0.328613,0
40920,0.737793,-0.527344,0.346191,0
40940,0.720703,-0.506348,0.346191,0
40960,0.724609,-0.513672,0.339355,0
40980,0.754883,-0.513184,0.347168,0
41000,0.77832,-0.477539,0.371582,0
41020,0.753906,-0.456055,0.341797,0
41040,0.762695,-0.477051,0.33252,0
41060,0.791992,-0.466797,0.379395,0
41080,0.739746,-0.397949,0.398926,0
41100,0.719727,-0.412598,0.363281,0
41120,0.740234,-0.427246,0.362305,0
41140,0.761719,-0.44873,0.357422,0
41160,0.758789,-0.440918,0.374512,0
41180,0.762207,-0.451172,0.375,0
41200,0.753906,-0.441895,0.366699,0
41220,0.745605,-0.432129,0.397461,0
41240,0.731445,-0.409668,0.395996,0
41260,0.778809,-0.441406,0.391113,0
41280,0.784668,-0.433594,0.395508,0
41300,0.740234,-0.43457,0.407227,0
41320,0.743652,-0.397949,0.399414,0
41340,0.774414,-0.413574,0.42334,0
41360,0.769531,-0.412598,0.439941,0
41380,0.737305,-0.398438,0.426758,0
41400,0.768066,-0.416016,0.427246,0
41420,0.796387,-0.415527,0.429199,0
41440,0.754395,-0.405762,0.4375,0
41460,0.71582,-0.386719,0.446777,0
41480,0.731934,-0.394531,0.442383,0
41500,0.765137,-0.400391,0.452637,0
41520,0.749023,-0.408203,0.470703,0
41540,0.719238,-0.37207,0.450684,0
41560,0.709961,-0.382812,0.449707,0
41580,0.779297,-0.40625,0.477539,0
41600,0.745117,-0.388184,0.477051,0
41620,0.690918,-0.384277,0.457031,0
41640,0.706543,-0.382324,0.471191,0
41660,0.718262,-0.375488,0.506348,0
41680,0.684082,-0.357422,0.48584,0
41700,0.678711,-0.382324,0.47998,0
41720,0.712402,-0.396973,0.484863,0
41740,0.694336,-0.371094,0.527832,0
41760,0.619141,-0.353027,0.501465,0
41780,0.671387,-0.380859,0.51416,0
41800,0.728027,-0.392578,0.498047,0
41810,0.651367,-0.387207,0.514648,0
41830,0.628418,-0.398438,0.517578,0
41850,0.699707,-0.401367,0.49707,0
41870,0.690918,-0.41748,0.515625,0
41890,0.628418,-0.431152,0.492676,0
41910,0.650879,-0.444824,0.48291,0
41930,0.659668,-0.457031,0.48584,0
41950,0.621582,-0.450684,0.48291,0
41970,0.603027,-0.474121,0.498047,0
41990,0.647949,-0.46875,0.497559,0
42010,0.643555,-0.475098,0.493652,0
42030,0.589355,-0.483887,0.484863,0
42050,0.591309,-0.513672,0.503418,0
42070,0.631836,-0.496582,0.498047,0
42090,0.604492,-0.508789,0.479492,0
42110,0.578613,-0.51709,0.487305,0
42130,0.585938,-0.512207,0.499023,0
42150,0.599609,-0.52832,0.460449,0
42170,0.587402,-0.532227,0.480469,0
42190,0.551758,-0.531738,0.453125,0
42210,0.550781,-0.533203,0.458496,0
42230,0.577637,-0.560547,0.450195,0
42250,0.571777,-0.57666,0.438965,0
42270,0.543945,-0.557129,0.444336,0
42290,0.550293,-0.580078,0.42627,0
42310,0.55957,-0.601562,0.421387,0
42330,0.525391,-0.590332,0.427734,0
42350,0.567383,-0.592773,0.42627,0
42370,0.599121,-0.629395,0.399902,0
42390,0.559082,-0.635254,0.404785,0
42410,0.540527,-0.619629,0.398438,0
42430,0.572754,-0.628906,0.377441,0
42450,0.549805,-0.64502,0.380371,0
42470,0.526855,-0.648438,0.37793,0
42490,0.567871,-0.658203,0.342285,0
42510,0.584961,-0.671875,0.358398,0
42530,0.556152,-0.668945,0.352539,0
42550,0.562988,-0.69043,0.320801,0
42570,0.555664,-0.702148,0.312988,0
42590,0.521973,-0.706543,0.315918,0
42610,0.502441,-0.681641,0.318359,0
42630,0.50293,-0.704102,0.299316,0
42650,0.554199,-0.723145,0.307129,0
42670,0.568359,-0.736328,0.306152,0
42690,0.537598,-0.71582,0.28418,0
42710,0.547852,-0.71875,0.289551,0
42730,0.587891,-0.725098,0.290527,0
42750,0.626953,-0.687988,0.320801,0
42770,0.625,-0.700195,0.274414,0
42790,0.617676,-0.70166,0.259277,0
42810,0.612305,-0.672363,0.283691,0
42830,0.652344,-0.649902,0.263672,0
42850,0.660156,-0.648438,0.237793,0
42870,0.630859,-0.634277,0.243164,0
42890,0.660645,-0.587891,0.283203,0
42910,0.680176,-0.562988,0.22168,0
42930,0.675781,-0.572266,0.196777,0
42950,0.696777,-0.588867,0.212891,0
42970,0.701172,-0.589355,0.20459,0
42990,0.735352,-0.581055,0.197754,0
43010,0.780273,-0.580078,0.219238,0
43030,0.777832,-0.549316,0.215332,0
43050,0.776855,-0.547852,0.200684,0
43070,0.784668,-0.55127,0.204102,0
43090,0.808594,-0.536133,0.214844,0
43110,0.817871,-0.53125,0.209473,0
43130,0.780762,-0.493652,0.208008,0
43150,0.803223,-0.492188,0.225098,0
43170,0.816895,-0.462402,0.216309,0
43190,0.79541,-0.464355,0.178223,0
43210,0.788574,-0.491699,0.175293,0
43230,0.786133,-0.475098,0.180176,0
43250,0.802246,-0.470215,0.177246,0
43270,0.824219,-0.445801,0.18457,0
43290,0.821777,-0.430176,0.213867,0
43310,0.813477,-0.422852,0.211426,0
43330,0.823242,-0.401855,0.239258,0
43350,0.816406,-0.379395,0.225586,0
43370,0.849121,-0.389648,0.211426,0
43390,0.849121,-0.378906,0.227539,0
43410,0.875488,-0.368164,0.251465,0
43430,0.866699,-0.339355,0.240723,0
43450,0.894043,-0.352051,0.240723,0
43470,0.89502,-0.349609,0.247559,0
43490,0.875977,-0.343262,0.255371,0
43510,0.856445,-0.32373,0.26416,0
43530,0.895996,-0.308594,0.280762,0
43550,0.862305,-0.321777,0.303711,0
43570,0.837402,-0.320801,0.30957,0
43590,0.849609,-0.301758,0.325684,0
43610,0.868652,-0.309082,0.354004,0
43630,0.869141,-0.322266,0.347168,0
43650,0.867676,-0.319824,0.375488,0
43670,0.878906,-0.29248,0.381348,0
43690,0.867676,-0.307129,0.357422,0
43710,0.839355,-0.344238,0.378906,0
43730,0.878418,-0.32666,0.394043,0
43750,0.837891,-0.315918,0.392578,0
43770,0.77832,-0.320312,0.384766,0
43790,0.802734,-0.307129,0.400391,0
43810,0.79541,-0.316406,0.41748,0
43830,0.771484,-0.312012,0.402344,0
43840,0.783203,-0.335938,0.402832,0
43860,0.784668,-0.330078,0.429688,0
43880,0.761719,-0.330078,0.452148,0
43900,0.785645,-0.352539,0.449219,0
43920,0.783203,-0.359375,0.443848,0
43940,0.74707,-0.355469,0.44873,0
43960,0.76123,-0.362793,0.470703,0
43980,0.73877,-0.366699,0.458496,0
44000,0.694824,-0.35791,0.449219,0
44020,0.714844,-0.354492,0.438477,0
44040,0.714844,-0.403809,0.427246,0
44060,0.69873,-0.404297,0.444824,0
44080,0.686523,-0.404297,0.434082,0
44100,0.696289,-0.402344,0.410645,0
44120,0.677734,-0.437012,0.415039,0
44140,0.64502,-0.425781,0.427734,0
44160,0.664551,-0.455078,0.401367,0
44180,0.672852,-0.467773,0.405273,0
44200,0.667969,-0.473145,0.413574,0
44220,0.650391,-0.503906,0.394043,0
44240,0.663574,-0.508301,0.393066,0
44260,0.680664,-0.525879,0.398438,0
44280,0.652832,-0.527832,0.376465,0
44300,0.637207,-0.551758,0.370117,0
44320,0.625977,-0.543945,0.388184,0
44340,0.650391,-0.537598,0.372559,0
44360,0.658691,-0.566895,0.354492,0
44380,0.617188,-0.568359,0.342285,0
44400,0.648438,-0.552246,0.370117,0
44420,0.649902,-0.544434,0.343262,0
44440,0.662109,-0.592773,0.312012,0
44460,0.64209,-0.58252,0.332031,0
44480,0.643555,-0.570312,0.324219,0
44500,0.674316,-0.600098,0.300293,0
44520,0.663086,-0.616699,0.299316,0
44540,0.647461,-0.615723,0.312988,0
44560,0.635742,-0.613281,0.296387,0
44580,0.658691,-0.635742,0.287598,0
44600,0.681152,-0.648926,0.294922,0
44620,0.62793,-0.644043,0.287109,0
44640,0.629883,-0.625488,0.272461,0
44660,0.664062,-0.655762,0.246094,0
44680,0.654297,-0.666992,0.253418,0
44700,0.646973,-0.662598,0.242676,0
44720,0.658203,-0.668945,0.243652,0
44740,0.677246,-0.654297,0.226562,0
44760,0.699219,-0.663086,0.211914,0
44780,0.696289,-0.670898,0.20459,0
44800,0.678223,-0.645996,0.20166,0
44820,0.696777,-0.637695,0.180176,0
44840,0.709473,-0.637207,0.165527,0
44860,0.679688,-0.612793,0.17041,0
44880,0.697754,-0.601562,0.158691,0
44900,0.717773,-0.623047,0.129395,0
44920,0.712402,-0.618652,0.139648,0
44940,0.716309,-0.584473,0.135254,0
44960,0.716309,-0.568359,0.123535,0
44980,0.744141,-0.570801,0.117188,0
45000,0.755371,-0.562988,0.123047,0
45020,0.746094,-0.532715,0.136719,0
45040,0.779297,-0.543945,0.115723,0
45060,0.813965,-0.566406,0.0922852,0
45080,0.778809,-0.529297,0.117188,0
45100,0.755371,-0.480957,0.114746,0
45120,0.78125,-0.486816,0.103516,0
45140,0.803223,-0.529297,0.0825195,0
45160,0.8125,-0.490723,0.0888672,0
45180,0.776855,-0.454102,0.0859375,0
45200,0.796387,-0.469238,0.0986328,0
45220,0.826172,-0.479492,0.10498,0
45240,0.828613,-0.484863,0.112305,0
45260,0.824219,-0.483398,0.0981445,0
45280,0.872559,-0.451172,0.0991211,2001
45300,0.86377,-0.45752,0.120605,0
45320,0.853027,-0.455078,0.128906,0
45340,0.884766,-0.460449,0.115723,0
45360,0.87793,-0.446777,0.117188,0
45380,0.86084,-0.429688,0.114746,0
45400,0.855957,-0.424316,0.111816,0
45420,0.845703,-0.430664,0.109375,0
45440,0.841309,-0.427734,0.11377,0
45460,0.856934,-0.415039,0.10498,0
45480,0.833008,-0.411133,0.110352,0
45500,0.785645,-0.425293,0.111816,0
45520,0.805664,-0.432617,0.115234,0
45540,0.834473,-0.454102,0.0864258,0
45560,0.802734,-0.432129,0.10498,0
45580,0.802734,-0.447266,0.106934,0
45600,0.868164,-0.476074,0.0771484,0
45620,0.834473,-0.453613,0.101562,0
45640,0.827637,-0.450195,0.0883789,0
45660,0.79834,-0.447266,0.0942383,0
45680,0.763672,-0.449707,0.0986328,0
45700,0.737793,-0.437012,0.121582,0
45720,0.716309,-0.427734,0.114746,0
45740,0.709473,-0.403809,0.0976562,0
45760,0.659668,-0.408691,0.0883789,0
45780,0.590332,-0.381836,0.108398,0
45800,0.550781,-0.364258,0.105469,0
45820,0.532715,-0.370117,0.107422,0
45840,0.553223,-0.389648,0.0986328,0
45860,0.616699,-0.40918,0.142578,0
45880,0.681152,-0.411621,0.150391,0
45900,0.726074,-0.452148,0.124023,0
45920,0.714355,-0.487793,0.151855,0
45940,0.709961,-0.490234,0.188965,0
45960,0.759277,-0.505859,0.189453,0
45980,0.85498,-0.513184,0.233887,0
46000,0.833984,-0.508789,0.253906,0
46020,0.8125,-0.563965,0.26416,0
46040,0.881348,-0.617188,0.300293,0
46060,0.911133,-0.608398,0.322266,0
46080,0.827637,-0.569336,0.296875,0
46100,0.786133,-0.631836,0.311523,0
46120,0.807617,-0.701172,0.351074,0
46140,0.772461,-0.706055,0.418457,0
46160,0.736816,-0.657227,0.439941,0
46180,0.678711,-0.600586,0.444336,0
46200,0.662598,-0.638672,0.471191,0
46220,0.652832,-0.67334,0.473145,0
46240,0.630371,-0.638672,0.507812,0
46260,0.61084,-0.592285,0.535645,0
46280,0.585449,-0.611328,0.525391,0
46300,0.63623,-0.666504,0.525391,0
46320,0.644531,-0.640137,0.566895,0
46340,0.616699,-0.617188,0.574707,0
46360,0.61377,-0.600098,0.581055,0
46380,0.609375,-0.601074,0.604492,0
46400,0.600586,-0.605469,0.612793,0
46420,0.571777,-0.598633,0.612305,0
46440,0.544434,-0.57373,0.598633,0
46460,0.506348,-0.557617,0.611816,0
46480,0.494629,-0.551758,0.606934,0
46500,0.47998,-0.558105,0.624023,0
46520,0.448242,-0.560059,0.608887,0
46540,0.429199,-0.54541,0.631836,0
46560,0.434082,-0.530762,0.640137,0
46580,0.446289,-0.546387,0.623535,0
46600,0.444824,-0.551758,0.620605,0
46620,0.430176,-0.54541,0.626953,0
46640,0.416016,-0.558105,0.621582,0
46660,0.411133,-0.550781,0.627441,0
46680,0.425293,-0.561523,0.614258,0
46700,0.424316,-0.561523,0.616211,0
46720,0.400391,-0.556641,0.615723,0
46740,0.381348,-0.563965,0.625,0
46760,0.404785,-0.562988,0.620605,0
46780,0.389648,-0.54834,0.618164,0
46800,0.350586,-0.552734,0.632324,0
46820,0.355469,-0.576172,0.620605,0
46840,0.39502,-0.575195,0.617188,0
46860,0.387207,-0.561523,0.615723,0
46880,0.364746,-0.566406,0.623535,0
46900,0.391113,-0.586426,0.624512,0
46920,0.407715,-0.56543,0.611328,0
46940,0.387207,-0.561523,0.62207,0
46960,0.413574,-0.577637,0.628418,0
46980,0.430664,-0.577637,0.625,0
47000,0.398926,-0.558594,0.612793,0
47020,0.400391,-0.569824,0.626953,0
47040,0.414062,-0.571777,0.625,0
47060,0.402832,-0.560059,0.636719,0
47080,0.389648,-0.553223,0.626953,0
47100,0.388672,-0.552734,0.632324,0
47120,0.382812,-0.564453,0.64209,0
47140,0.392578,-0.557617,0.626465,0
47160,0.383789,-0.562012,0.62207,0
47180,0.377441,-0.555664,0.636719,0
47200,0.376465,-0.549805,0.644043,0
47220,0.388672,-0.561523,0.620117,0
47240,0.390137,-0.557129,0.628418,0
47250,0.400879,-0.552734,0.64209,0
47270,0.405762,-0.555176,0.630859,0
47290,0.408203,-0.562012,0.623047,0
47310,0.399902,-0.579102,0.618652,0
47330,0.405762,-0.57373,0.632324,0
47350,0.414062,-0.571289,0.625,0
47370,0.394531,-0.558105,0.624023,0
47390,0.36084,-0.567871,0.625,2000
47410,0.380371,-0.571289,0.627441,0
47430,0.409668,-0.569336,0.635742,0
47450,0.40918,-0.549316,0.621094,0
47470,0.387695,-0.55957,0.62793,0
47490,0.39209,-0.581543,0.616699,0
47510,0.40332,-0.585938,0.617676,0
47530,0.380371,-0.568359,0.616699,0
47550,0.362793,-0.565918,0.619629,0
47570,0.35498,-0.562988,0.62793,0
47590,0.372559,-0.569824,0.621094,0
47610,0.375,-0.583984,0.614746,0
47630,0.393555,-0.567383,0.62793,0
47650,0.388184,-0.560059,0.625488,0
47670,0.394043,-0.566895,0.602051,0
47690,0.394531,-0.583008,0.597656,0
47710,0.388672,-0.585938,0.614258,0
47730,0.403809,-0.569336,0.608398,0
47750,0.390137,-0.575684,0.598633,0
47770,0.388672,-0.568359,0.61377,0
47790,0.404297,-0.551758,0.621094,0
47810,0.414062,-0.547363,0.61084,0
47830,0.415039,-0.567871,0.596191,0
47850,0.424805,-0.57666,0.617676,0
47870,0.429199,-0.573242,0.608398,0
47890,0.428711,-0.562988,0.593262,0
47910,0.421875,-0.570312,0.583984,0
47930,0.435059,-0.581055,0.591309,0
47950,0.428711,-0.580078,0.582031,0
47970,0.43457,-0.575195,0.586914,0
47990,0.444336,-0.573242,0.598145,0
48010,0.447754,-0.562988,0.597168,0
48030,0.441406,-0.562988,0.585449,0
48050,0.447754,-0.561523,0.585449,0
48070,0.435059,-0.574219,0.594727,0
48090,0.455078,-0.565918,0.589355,0
48110,0.464355,-0.557617,0.574219,0
48130,0.446777,-0.558594,0.570801,0
48150,0.456055,-0.571777,0.581055,0
48170,0.464355,-0.562012,0.580566,0
48190,0.479492,-0.556641,0.566406,0
48210,0.495605,-0.558594,0.560547,0
48230,0.490723,-0.558105,0.583008,0
48250,0.459473,-0.56543,0.557129,0
48270,0.474609,-0.565918,0.55127,0
48290,0.492676,-0.5625,0.56543,0
48310,0.516113,-0.547363,0.588379,0
48330,0.516113,-0.521973,0.549805,0
48350,0.500977,-0.551758,0.535156,0
48370,0.486328,-0.536621,0.566895,0
48390,0.509766,-0.54541,0.55127,0
48410,0.53125,-0.535645,0.531738,0
48430,0.529297,-0.560547,0.525879,0
48450,0.527344,-0.568359,0.54541,0
48470,0.521484,-0.533691,0.552246,0
48490,0.538086,-0.539551,0.53125,0
48510,0.553223,-0.545898,0.535156,0
48530,0.572754,-0.552246,0.541504,0
48550,0.537598,-0.530762,0.54248,0
48570,0.526855,-0.547852,0.525879,0
48590,0.571289,-0.543457,0.537598,0
48610,0.584473,-0.524414,0.543457,0
48630,0.589844,-0.503906,0.520508,0
48650,0.583984,-0.509766,0.509766,0
48670,0.571777,-0.536621,0.503906,0
48690,0.549805,-0.512207,0.515137,0
48710,0.54248,-0.523926,0.510254,0
48730,0.565918,-0.531738,0.5,0
48750,0.599609,-0.506836,0.514648,0
48770,0.596191,-0.505371,0.509277,0
48790,0.600586,-0.529297,0.491699,0
48810,0.629395,-0.528809,0.499512,0
48830,0.663574,-0.497559,0.514648,0
48850,0.654785,-0.488281,0.475098,0
48870,0.651367,-0.496094,0.467285,0
48890,0.647461,-0.519531,0.461914,0
48910,0.65332,-0.49707,0.477539,0
48930,0.67041,-0.504883,0.46582,0
48950,0.666016,-0.510742,0.446777,0
48970,0.660156,-0.510742,0.450195,0
48990,0.663086,-0.503418,0.451172,0
49010,0.655273,-0.492676,0.440918,0
49030,0.665527,-0.505371,0.438477,0
49050,0.677246,-0.506836,0.440918,0
49070,0.686523,-0.487793,0.448242,0
49090,0.683594,-0.490234,0.436523,0
49100,0.682129,-0.481934,0.418945,0
49120,0.678223,-0.486328,0.431152,0
49140,0.674805,-0.498047,0.428223,0
49160,0.677734,-0.509277,0.424805,0
49180,0.66748,-0.499023,0.443848,0
49200,0.663086,-0.500488,0.446289,0
49220,0.646484,-0.480957,0.455078,0
49230,0.648926,-0.473633,0.464355,0
49250,0.662109,-0.478516,0.463867,0
49270,0.672363,-0.473145,0.466309,0
49290,0.658691,-0.464844,0.455566,0
49310,0.672852,-0.470703,0.456543,0
49330,0.664551,-0.469238,0.451172,0
49350,0.687988,-0.469727,0.456055,0
49370,0.687012,-0.469727,0.455078,0
49390,0.713867,-0.475586,0.454102,0
49410,0.691406,-0.479492,0.455566,0
49430,0.712891,-0.476562,0.457031,0
49450,0.720703,-0.470215,0.452637,0
49470,0.723145,-0.466309,0.459473,0
49490,0.727539,-0.490234,0.460449,0
49510,0.713379,-0.47998,0.463867,0
49530,0.703125,-0.461914,0.476074,0
49550,0.709961,-0.457031,0.455078,0
49570,0.746582,-0.471191,0.488281,0
49590,0.668457,-0.457031,0.469238,0
49610,0.668457,-0.443848,0.474121,0
49630,0.703613,-0.460938,0.53418,0
49650,0.677246,-0.419434,0.494629,0
49670,0.664062,-0.438477,0.517578,0
49690,0.664062,-0.453125,0.495605,0
49710,0.661133,-0.459961,0.544434,0
49730,0.640625,-0.428711,0.522949,0
49750,0.641602,-0.430176,0.508301,0
49770,0.696777,-0.48877,0.546875,0
49790,0.628418,-0.477539,0.517578,0
49810,0.578125,-0.455566,0.511719,0
49830,0.61377,-0.450684,0.541016,0
49850,0.668945,-0.49707,0.541504,0
49870,0.577148,-0.455566,0.532227,0
49890,0.547852,-0.463867,0.518066,0
49910,0.596191,-0.476074,0.521973,0
49930,0.646973,-0.501953,0.552734,0
49950,0.613281,-0.49707,0.525391,0
49970,0.561523,-0.478027,0.537598,0
49990,0.578125,-0.475098,0.533691,0
50010,0.600098,-0.500977,0.535156,0
50030,0.568359,-0.515137,0.54248,0
50050,0.520996,-0.496094,0.532715,0
50070,0.552246,-0.518555,0.537598,0
50090,0.563477,-0.522949,0.537109,0
50110,0.523926,-0.551758,0.53125,0
50130,0.545898,-0.537109,0.527344,0
50150,0.54834,-0.540527,0.521484,0
50170,0.541992,-0.552734,0.512695,0
50190,0.515625,-0.54834,0.510742,0
50210,0.538574,-0.547363,0.527832,0
50230,0.535645,-0.527344,0.527344,0
50250,0.491699,-0.542969,0.498047,0
50270,0.480957,-0.566895,0.516602,0
50290,0.512207,-0.53418,0.53125,0
50310,0.501465,-0.54248,0.504883,0
50330,0.481445,-0.583496,0.48291,0
50350,0.501953,-0.574707,0.501465,0
50370,0.512207,-0.577148,0.510254,0
50390,0.506348,-0.576172,0.479004,0
50410,0.48877,-0.606934,0.477051,0
50430,0.509277,-0.616699,0.485352,0
50450,0.53125,-0.60791,0.469727,0
50470,0.515137,-0.628906,0.450684,0
50490,0.480469,-0.618652,0.46582,0
50510,0.496582,-0.625,0.458984,0
50530,0.516113,-0.631836,0.442871,0
50550,0.506836,-0.646973,0.418457,0
50570,0.480469,-0.635742,0.435547,0
50590,0.483398,-0.638184,0.40625,0
50610,0.519043,-0.651855,0.416504,0
50630,0.49707,-0.656738,0.420898,0
50650,0.496582,-0.657715,0.401367,0
50670,0.530762,-0.658203,0.408203,0
50690,0.509766,-0.673828,0.383789,0
50710,0.503418,-0.705566,0.398926,0
50730,0.533203,-0.696777,0.382812,0
50750,0.523438,-0.690918,0.375488,0
50770,0.501953,-0.70166,0.378418,0
50790,0.515625,-0.703613,0.38623,0
50810,0.518066,-0.689453,0.374512,0
50830,0.53418,-0.711426,0.356445,0
50850,0.52002,-0.728027,0.366211,0
50870,0.493164,-0.688965,0.362305,0
50890,0.481445,-0.718262,0.339844,0
50910,0.521973,-0.72998,0.342773,0
50930,0.523438,-0.72168,0.355469,0
50950,0.516113,-0.700684,0.337891,0
50970,0.507324,-0.733887,0.312012,0
50990,0.530273,-0.713867,0.349121,0
51010,0.547852,-0.703125,0.320801,0
51030,0.516602,-0.702637,0.307617,0
51050,0.517578,-0.712891,0.297852,0
51070,0.54541,-0.719727,0.29248,0
51090,0.552246,-0.691895,0.275391,0
51110,0.551758,-0.715332,0.252441,0
51130,0.562012,-0.723633,0.253418,0
51150,0.617188,-0.699219,0.266113,0
51170,0.627441,-0.681152,0.244141,0
51190,0.59668,-0.691895,0.212891,0
51210,0.613281,-0.700195,0.218262,0
51230,0.653809,-0.689453,0.221191,0
51250,0.640625,-0.663086,0.212402,0
51270,0.641602,-0.67041,0.195801,0
51290,0.663086,-0.672852,0.200684,0
51310,0.694824,-0.657227,0.210938,0
51330,0.685059,-0.640137,0.193359,0
51350,0.67334,-0.64209,0.192871,0
51370,0.687988,-0.660156,0.183594,0
51390,0.686035,-0.657227,0.183594,0
51410,0.688477,-0.634766,0.186523,0
51430,0.721191,-0.624512,0.196289,0
51450,0.708496,-0.605469,0.203125,0
51470,0.718262,-0.602051,0.192383,0
51490,0.742188,-0.616211,0.182617,0
51510,0.742188,-0.611816,0.191895,0
51530,0.757812,-0.61084,0.178223,0
51550,0.758301,-0.594238,0.186035,0
51570,0.763184,-0.569336,0.200195,0
51590,0.777344,-0.52832,0.204102,0
51610,0.803711,-0.524902,0.199707,0
51630,0.799316,-0.521973,0.178711,0
51650,0.79541,-0.524414,0.175293,0
51670,0.81543,-0.525391,0.185059,0
51690,0.825684,-0.502441,0.186523,0
51710,0.825684,-0.48584,0.210938,0
51730,0.832031,-0.45166,0.209961,0
51750,0.803711,-0.432129,0.217773,0
51770,0.827148,-0.445801,0.223145,0
51790,0.845703,-0.449707,0.21582,0
51810,0.837402,-0.440918,0.207031,0
51830,0.827637,-0.457031,0.213867,0
51850,0.805664,-0.446289,0.223145,0
51870,0.82666,-0.44873,0.231934,0
51890,0.849609,-0.458008,0.21582,0
51910,0.856445,-0.472656,0.244629,0
51930,0.830566,-0.464844,0.249512,0
51950,0.810059,-0.458496,0.248047,0
51970,0.836914,-0.446777,0.270996,0
51990,0.844238,-0.441406,0.288086,0
52010,0.825684,-0.45166,0.285156,0
52030,0.796875,-0.443848,0.270508,0
52050,0.820312,-0.455078,0.306641,0
52070,0.884766,-0.48584,0.320801,0
52090,0.808594,-0.439453,0.296387,0
52110,0.760742,-0.473145,0.297363,0
52130,0.799805,-0.44873,0.306152,0
52150,0.859863,-0.48291,0.348145,0
52170,0.810059,-0.441895,0.288574,0
52190,0.758789,-0.467285,0.303711,0
52210,0.788574,-0.460938,0.337402,0
52230,0.821777,-0.461426,0.333496,0
52250,0.760254,-0.458008,0.28125,0
52270,0.732422,-0.480469,0.336426,0
52290,0.76709,-0.473145,0.352051,0
52310,0.769531,-0.471191,0.35791,0
52330,0.70459,-0.475586,0.296875,0
52350,0.70166,-0.463379,0.367676,0
52370,0.729004,-0.473145,0.366699,0
52390,0.69043,-0.470703,0.349609,0
52410,0.689453,-0.466797,0.38623,0
52430,0.701172,-0.47998,0.370605,0
52450,0.712891,-0.487305,0.365234,0
52470,0.661621,-0.494141,0.352051,0
52490,0.644043,-0.515137,0.38916,0
52510,0.694824,-0.500977,0.370117,0
52530,0.685547,-0.507812,0.364746,0
52550,0.633301,-0.522461,0.35498,0
52570,0.643555,-0.533691,0.375,0
52590,0.689941,-0.534668,0.362793,0
52610,0.647949,-0.552734,0.341309,0
52630,0.613281,-0.569824,0.365234,0
52650,0.645996,-0.57959,0.352539,0
52670,0.682129,-0.590332,0.351562,0
52690,0.638672,-0.583984,0.336914,0
52700,0.611816,-0.607422,0.326172,0
52720,0.657227,-0.603027,0.341309,0
52740,0.651367,-0.617188,0.321777,0
52760,0.599121,-0.618164,0.31543,0
52780,0.609375,-0.630859,0.308594,0
52800,0.648438,-0.638184,0.3125,0
52820,0.624512,-0.644531,0.283691,0
52840,0.598145,-0.65625,0.271973,0
52860,0.617188,-0.644043,0.27832,0
52880,0.606934,-0.639648,0.28125,0
52900,0.596191,-0.675781,0.255859,0
52920,0.614746,-0.678223,0.26123,0
52940,0.599609,-0.674316,0.250488,0
52960,0.585449,-0.673828,0.238281,0
52980,0.585449,-0.696289,0.239258,0
53000,0.603516,-0.695801,0.257812,0
53020,0.628418,-0.683105,0.25293,0
53040,0.620605,-0.706055,0.233887,0
53060,0.609375,-0.719238,0.212891,0
53080,0.589355,-0.706543,0.207031,0
53100,0.57373,-0.710938,0.192383,0
53120,0.606934,-0.723633,0.189941,0
53140,0.590332,-0.742676,0.169434,0
53160,0.55957,-0.740234,0.157715,0
53180,0.584473,-0.766602,0.135254,0
53200,0.60791,-0.744629,0.149902,0
53220,0.592285,-0.758789,0.133789,0
53240,0.597656,-0.791016,0.114258,0
53260,0.621582,-0.779785,0.114746,0
53280,0.628906,-0.747559,0.135742,0
53300,0.686035,-0.711914,0.10791,0
53320,0.648438,-0.724121,0.0952148,0
53340,0.641113,-0.741699,0.102539,0
53360,0.668457,-0.682617,0.116211,0
53380,0.687988,-0.669922,0.0864258,0
53400,0.682617,-0.666016,0.0444336,0
53420,0.616699,-0.662598,0.0297852,0
53440,0.612305,-0.667969,0.0283203,0
53460,0.702637,-0.664062,0.0375977,0
53480,0.771973,-0.592773,0.0488281,0
53500,0.749023,-0.584961,0.0117188,0
53520,0.71875,-0.608887,0,0
53540,0.748535,-0.604004,-0.012207,0
53560,0.804688,-0.580078,-0.00146484,0
53580,0.799316,-0.563477,-0.0458984,0
53600,0.756348,-0.597656,-0.0668945,0
53620,0.781738,-0.59082,-0.0644531,0
53640,0.81543,-0.5625,-0.0361328,0
53660,0.82959,-0.492188,-0.0253906,0
53680,0.805176,-0.528809,-0.0620117,0
53700,0.793457,-0.516602,-0.0522461,0
53720,0.831055,-0.497559,-0.0429688,0
53740,0.816895,-0.45459,-0.0532227,0
53760,0.840332,-0.469727,-0.0595703,0
53780,0.861816,-0.448242,-0.034668,0
53800,0.858887,-0.437012,-0.0244141,0
53820,0.850098,-0.434082,-0.0537109,0
53840,0.875488,-0.41748,-0.0175781,0
53860,0.858887,-0.391602,-0.00976562,0
53880,0.839844,-0.388672,-0.0180664,0
53900,0.897461,-0.375,0.0200195,0
53920,0.868652,-0.31543,0.0244141,0
53940,0.848633,-0.299805,0.019043,0
53960,0.896973,-0.336914,0.0327148,0
53980,0.901367,-0.311523,0.0556641,0
54000,0.896973,-0.287598,0.0546875,0
54020,0.916504,-0.289062,0.0644531,0
54040,0.958984,-0.310059,0.0849609,0
54060,0.972168,-0.280762,0.140625,0
54080,0.920898,-0.262695,0.116699,0
54100,0.932129,-0.276367,0.122559,0
54120,0.933594,-0.274902,0.140137,0
54140,0.916016,-0.268555,0.173828,0
54160,0.928711,-0.283691,0.183594,0
54180,0.935059,-0.3125,0.213867,0
54200,0.944824,-0.308594,0.219727,0
54220,0.92041,-0.296875,0.228027,0
54240,0.925293,-0.310547,0.244141,0
54260,0.936035,-0.337891,0.254883,0
54280,0.919922,-0.337402,0.25293,0
54300,0.883301,-0.331543,0.226562,0
54320,0.90332,-0.348145,0.262695,0
54340,0.880859,-0.326172,0.266113,0
54360,0.830078,-0.34668,0.248535,0
54380,0.869141,-0.365234,0.263672,0
54400,0.901855,-0.382812,0.273926,0
54420,0.844238,-0.364746,0.277344,0
54440,0.793945,-0.376953,0.27832,0
54460,0.806641,-0.396484,0.293945,0
54480,0.860352,-0.395508,0.32373,0
54500,0.851562,-0.416016,0.312988,0
54520,0.826172,-0.416992,0.308594,0
54540,0.819824,-0.416016,0.311523,0
54560,0.800781,-0.429688,0.325684,0
54580,0.780762,-0.422363,0.298828,0
54600,0.753906,-0.445312,0.306152,0
54620,0.783691,-0.453125,0.29834,0
54640,0.768066,-0.463379,0.296875,0
54660,0.717285,-0.473633,0.28125,0
54680,0.748047,-0.490234,0.29541,0
54690,0.765625,-0.492188,0.269531,0
54710,0.728516,-0.504883,0.268066,0
54730,0.728516,-0.512207,0.272461,0
54750,0.763672,-0.533203,0.25293,0
54770,0.751465,-0.531738,0.241211,0
54790,0.708008,-0.522949,0.23584,0
54810,0.745605,-0.521484,0.237305,0
54830,0.757812,-0.534668,0.228027,0
54850,0.738281,-0.544922,0.196777,0
54870,0.731445,-0.564941,0.195801,0
54890,0.744141,-0.568359,0.189453,0
54910,0.737305,-0.582031,0.177246,0
54930,0.740234,-0.594727,0.183594,0
54950,0.770996,-0.595215,0.164062,0
54970,0.729492,-0.593262,0.157715,0
54990,0.724121,-0.597168,0.140625,0
55010,0.74707,-0.632324,0.144531,0
55030,0.734375,-0.615723,0.157227,0
55050,0.719238,-0.626953,0.130371,0
55070,0.736328,-0.649902,0.117188,0
55090,0.739746,-0.67334,0.112305,0
55110,0.736328,-0.655273,0.115234,0
55130,0.726562,-0.65918,0.0976562,0
55150,0.743652,-0.663086,0.090332,0
55170,0.733398,-0.663574,0.0800781,0
55190,0.73291,-0.641602,0.0688477,0
55210,0.75293,-0.642578,0.0537109,0
55230,0.749512,-0.633301,0.0522461,0
55250,0.74707,-0.631836,0.0288086,0
55270,0.734863,-0.619141,0.0224609,0
55290,0.733398,-0.625488,0.00976562,0
55310,0.743652,-0.599121,0.00341797,0
55330,0.708008,-0.579102,-0.00488281,0
55350,0.711426,-0.579102,-0.0253906,0
55370,0.751465,-0.582031,-0.0253906,0
55390,0.737793,-0.563965,-0.0249023,0
55410,0.724121,-0.541992,-0.0385742,0
55430,0.741211,-0.562988,-0.0566406,0
55450,0.765137,-0.546387,-0.0532227,0
55470,0.739746,-0.540527,-0.0541992,0
55490,0.761719,-0.536133,-0.0683594,0
55510,0.803223,-0.529785,-0.0512695,0
55530,0.787109,-0.516602,-0.0458984,0
55550,0.789551,-0.518555,-0.0449219,0
55570,0.806641,-0.512207,-0.0395508,0
55590,0.8125,-0.492188,-0.0356445,0
55610,0.825684,-0.490723,-0.0327148,0
55630,0.85498,-0.513672,-0.0361328,0
55650,0.828125,-0.496582,-0.0395508,0
55670,0.83252,-0.496582,-0.0488281,0
55690,0.854004,-0.488281,-0.0322266,0
55710,0.849609,-0.493164,-0.034668,0
55730,0.866699,-0.489746,-0.0380859,0
55750,0.844727,-0.461914,-0.0375977,0
55770,0.846191,-0.443848,-0.0288086,0
55790,0.849121,-0.453613,-0.0493164,0
55810,0.832031,-0.441406,-0.0551758,0
55830,0.871582,-0.439453,-0.0654297,0
55850,0.874512,-0.436523,-0.0498047,0
55870,0.869629,-0.439941,-0.0727539,0
55890,0.891602,-0.45166,-0.0898438,0
55910,0.857422,-0.414062,-0.0634766,0
55930,0.844727,-0.411133,-0.0673828,0
55950,0.872559,-0.410156,-0.0708008,0
55970,0.883301,-0.400879,-0.0664062,0
55990,0.874023,-0.402832,-0.0756836,0
56010,0.87793,-0.402832,-0.0673828,0
56030,0.865723,-0.403809,-0.0864258,0
56050,0.88623,-0.407715,-0.0908203,0
56070,0.906738,-0.418945,-0.112793,0
56090,0.908691,-0.456055,-0.120605,0
56110,0.872559,-0.416992,-0.0869141,0
56130,0.844238,-0.390625,-0.102539,0
56150,0.886719,-0.420898,-0.121582,0
56170,0.895508,-0.439941,-0.110352,2001
56190,0.822754,-0.407227,-0.11377,0
56210,0.858887,-0.40625,-0.106934,0
56230,0.912109,-0.427734,-0.115723,0
56250,0.896973,-0.428711,-0.105957,0
56270,0.849609,-0.409668,-0.112305,0
56290,0.860352,-0.42041,-0.109863,0
56310,0.867188,-0.398926,-0.106934,0
56330,0.920898,-0.425293,-0.14209,0
56350,0.900879,-0.40918,-0.117188,0
56370,0.891113,-0.412598,-0.12793,0
56390,0.907227,-0.437012,-0.144531,0
56410,0.882812,-0.420898,-0.12793,0
56430,0.882324,-0.441406,-0.130859,0
56450,0.865723,-0.407715,-0.120117,0
56470,0.829102,-0.426758,-0.119141,0
56490,0.834473,-0.416504,-0.120605,0
56510,0.82959,-0.404297,-0.116211,0
56530,0.839355,-0.400391,-0.116211,0
56550,0.86084,-0.414551,-0.109863,0
56570,0.874023,-0.43457,-0.131348,0
56590,0.853516,-0.418457,-0.134766,0
56610,0.822266,-0.425293,-0.128906,0
56630,0.800781,-0.411621,-0.117676,0
56650,0.820801,-0.393555,-0.119141,0
56670,0.799805,-0.370605,-0.114258,0
56690,0.748535,-0.392578,-0.119629,0
56710,0.696289,-0.381348,-0.105957,0
56730,0.680176,-0.362793,-0.0795898,0
56750,0.63623,-0.325195,-0.0527344,0
56770,0.638184,-0.345215,-0.0532227,0
56790,0.650391,-0.361816,-0.0683594,0
56810,0.653809,-0.371094,-0.0473633,0
56830,0.68457,-0.372559,-0.0375977,0
56850,0.725098,-0.374512,-0.0683594,0
56870,0.763184,-0.414062,-0.0546875,0
56890,0.769531,-0.4375,-0.019043,0
56910,0.789062,-0.466797,-0.0332031,0
56930,0.818848,-0.468262,-0.0107422,0
56950,0.857422,-0.463867,0.0185547,0
56970,0.825684,-0.435059,0.0664062,0
56990,0.84668,-0.502441,0.0820312,0
57010,0.935547,-0.546875,0.12793,0
57030,0.885742,-0.508789,0.158691,0
57050,0.84668,-0.550781,0.146973,0
57070,0.827148,-0.632812,0.173828,0
57090,0.876953,-0.655273,0.205078,0
57110,0.908691,-0.633301,0.256348,0
57130,0.891602,-0.632812,0.296387,0
57150,0.896484,-0.713379,0.297363,0
57170,0.929199,-0.770508,0.303711,0
57190,0.90625,-0.704102,0.366699,0
57210,0.82666,-0.691895,0.381348,0
57230,0.785156,-0.716309,0.414551,0
57250,0.739258,-0.679199,0.461914,0
57270,0.697754,-0.624512,0.47998,0
57290,0.65625,-0.598145,0.481445,0
57310,0.640137,-0.608398,0.474121,0
57330,0.595215,-0.579102,0.515137,0
57350,0.585938,-0.541504,0.500488,0
57370,0.588379,-0.538086,0.50293,0
57390,0.575195,-0.55127,0.504883,0
57410,0.5625,-0.539551,0.523438,0
57430,0.570801,-0.520996,0.518555,0
57450,0.604492,-0.546875,0.529297,0
57470,0.609863,-0.558105,0.525391,0
57490,0.573242,-0.532715,0.53418,0
57510,0.566406,-0.534668,0.544922,0
57530,0.567871,-0.545898,0.533691,0
57550,0.525391,-0.526855,0.554199,0
57570,0.512207,-0.512695,0.540527,0
57590,0.541504,-0.525879,0.550781,0
57610,0.537109,-0.526855,0.55127,0
57630,0.507324,-0.520996,0.56543,0
57650,0.51416,-0.521973,0.557617,0
57670,0.538086,-0.538574,0.54248,0
57690,0.549316,-0.540039,0.546387,0
57710,0.534668,-0.535156,0.548828,0
57730,0.530762,-0.538574,0.528809,0
57750,0.520996,-0.535156,0.53418,0
57770,0.503418,-0.556641,0.567383,0
57790,0.527344,-0.554688,0.567871,0
57810,0.550293,-0.562012,0.563965,0
57830,0.527832,-0.55127,0.577637,0
57850,0.502441,-0.541016,0.578613,0
57870,0.502441,-0.54248,0.581543,0
57890,0.495605,-0.531738,0.569336,0
57910,0.476562,-0.54834,0.552246,0
57930,0.471191,-0.556641,0.556641,0
57950,0.486816,-0.554199,0.5625,0
57970,0.498535,-0.549805,0.553223,0
57990,0.499023,-0.554688,0.566895,0
58010,0.496094,-0.553223,0.559082,0
58030,0.504883,-0.550781,0.56543,0
58050,0.515625,-0.551758,0.561523,0
58070,0.498047,-0.551758,0.555664,0
58090,0.489258,-0.557129,0.569824,0
58110,0.489746,-0.54541,0.573242,0
58130,0.486328,-0.541504,0.580078,0
58140,0.485352,-0.553223,0.582031,0
58160,0.486816,-0.552246,0.575684,0
58180,0.480469,-0.546387,0.578125,0
58200,0.470703,-0.556152,0.571777,0
58220,0.467773,-0.560547,0.586426,0
58240,0.483887,-0.55957,0.578125,0
58260,0.484863,-0.556152,0.581055,0
58280,0.480469,-0.557617,0.570312,0
58300,0.478516,-0.567383,0.576172,0
58320,0.478027,-0.556641,0.587891,0
58340,0.465332,-0.560547,0.581543,0
58360,0.463867,-0.567383,0.577637,0
58380,0.46875,-0.569824,0.578125,0
58400,0.458984,-0.565918,0.579102,0
58420,0.446777,-0.565918,0.563477,0
58440,0.458984,-0.564453,0.585449,0
58460,0.477051,-0.562012,0.57666,0
58480,0.475098,-0.55127,0.57959,0
58500,0.461914,-0.547852,0.571777,0
58520,0.471191,-0.558594,0.575684,2000
58540,0.484863,-0.558105,0.579102,0
58560,0.48877,-0.556152,0.575684,0
58580,0.44873,-0.561523,0.58252,0
58600,0.455078,-0.575684,0.568848,0
58620,0.443359,-0.576172,0.57959,0
58640,0.421875,-0.572266,0.574219,0
58660,0.401855,-0.583496,0.583984,0
58680,0.428223,-0.586426,0.587402,0
58700,0.432617,-0.569336,0.59375,0
58720,0.432129,-0.578613,0.59082,0
58740,0.432617,-0.575684,0.584473,0
58760,0.442871,-0.573242,0.594727,0
58780,0.459473,-0.572266,0.567383,0
58800,0.454102,-0.581543,0.564941,0
58820,0.442871,-0.589355,0.566406,0
58840,0.456543,-0.581055,0.565918,0
58860,0.459473,-0.586426,0.5625,0
58880,0.460938,-0.586426,0.554688,0
58900,0.461426,-0.577148,0.557129,0
58920,0.472656,-0.582031,0.553711,0
58940,0.48291,-0.571289,0.544434,0
58960,0.473633,-0.58252,0.542969,0
58980,0.47998,-0.572266,0.55957,0
59000,0.492188,-0.580078,0.549316,0
59020,0.520996,-0.584473,0.526855,0
59040,0.512207,-0.583008,0.521484,0
59060,0.51123,-0.556641,0.538574,0
59080,0.506348,-0.569824,0.508789,0
59100,0.521973,-0.583008,0.497559,0
59120,0.520508,-0.58252,0.498047,0
59140,0.54248,-0.572754,0.495117,0
59160,0.512207,-0.562988,0.505371,0
59180,0.500488,-0.573242,0.487305,0
59200,0.522461,-0.59375,0.505371,0
59220,0.549316,-0.578613,0.506348,0
59240,0.539551,-0.57373,0.486816,0
59260,0.547363,-0.583008,0.485352,0
59280,0.557129,-0.598145,0.488281,0
59300,0.555664,-0.598633,0.493164,0
59320,0.572754,-0.575684,0.487305,0
59340,0.570312,-0.587402,0.470703,0
59360,0.513184,-0.581055,0.476074,0
59380,0.573242,-0.583008,0.483887,0
59400,0.605957,-0.572754,0.476562,0
59420,0.570801,-0.572266,0.45166,0
59440,0.567871,-0.563965,0.469727,0
59460,0.602051,-0.561035,0.476562,0
59480,0.592285,-0.529785,0.476562,0
59500,0.60791,-0.555176,0.47168,0
59520,0.611816,-0.536133,0.441406,0
59540,0.619141,-0.570312,0.425781,0
59560,0.609375,-0.552246,0.426758,0
59580,0.632324,-0.544434,0.435059,0
59600,0.640625,-0.564941,0.427734,0
59620,0.655273,-0.568359,0.416992,0
59640,0.650391,-0.59082,0.428223,0
59660,0.631836,-0.572754,0.42041,0
59680,0.670898,-0.546387,0.428223,0
59700,0.668945,-0.551758,0.416504,0
59720,0.679199,-0.549805,0.399414,0
59740,0.657715,-0.535645,0.405762,0
59760,0.668457,-0.552246,0.388184,0
59780,0.664062,-0.536621,0.377441,0
59800,0.668945,-0.524902,0.378906,0
59820,0.689941,-0.520996,0.382812,0
59840,0.708496,-0.486816,0.382324,0
59860,0.703613,-0.504395,0.358398,0
59880,0.696289,-0.499023,0.376953,0
59900,0.724609,-0.506348,0.377441,0
59920,0.734375,-0.469727,0.357422,0
59940,0.726562,-0.483887,0.336426,0
59960,0.714844,-0.501465,0.337402,0
59980,0.73877,-0.499023,0.349609,0
60000,0.754395,-0.487305,0.326172,0
60020,0.742676,-0.486816,0.314941,0
60040,0.72168,-0.491211,0.324707,0
60060,0.736816,-0.491699,0.339355,0
60080,0.751465,-0.494629,0.320312,0
60100,0.734863,-0.490723,0.312988,0
60110,0.740234,-0.479004,0.325684,0
60130,0.768555,-0.449219,0.32666,0
60150,0.779297,-0.438477,0.310059,0
60170,0.76416,-0.445312,0.300781,0
60190,0.76416,-0.442383,0.29248,0
60210,0.789062,-0.436035,0.304688,0
60230,0.832031,-0.420898,0.297852,0
60250,0.809082,-0.408691,0.286621,0
60270,0.79541,-0.409668,0.302734,0
60290,0.809082,-0.417969,0.306641,0
60310,0.826172,-0.419922,0.317871,0
60330,0.813477,-0.40332,0.319336,0
60350,0.800293,-0.406738,0.324707,0
60370,0.810059,-0.408691,0.341309,0
60390,0.837402,-0.402344,0.35791,0
60410,0.806152,-0.407715,0.367676,0
60430,0.758301,-0.427734,0.361328,0
60450,0.783203,-0.431641,0.384766,0
60460,0.791992,-0.414551,0.397949,0
60480,0.790527,-0.411621,0.421387,0
60500,0.78418,-0.421875,0.423828,0
60520,0.77832,-0.421875,0.431641,0
60540,0.745117,-0.402344,0.44043,0
60560,0.760742,-0.410645,0.456543,0
60580,0.753906,-0.428711,0.46875,0
60600,0.725098,-0.412109,0.462891,0
60620,0.700195,-0.412109,0.468262,0
60640,0.743652,-0.421875,0.475586,0
60660,0.729004,-0.432129,0.493164,0
60680,0.682617,-0.409668,0.467285,0
60700,0.665527,-0.414551,0.470703,0
60720,0.729004,-0.440918,0.518555,0
60740,0.705078,-0.419434,0.495605,0
60760,0.638184,-0.437988,0.483398,0
60780,0.613281,-0.42334,0.47998,0
60800,0.675293,-0.42627,0.494141,0
60820,0.731934,-0.457031,0.509277,0
60840,0.663086,-0.458984,0.488281,0
60860,0.607422,-0.443848,0.495117,0
60880,0.670898,-0.462402,0.529785,0
60900,0.708984,-0.452148,0.52002,0
60920,0.620605,-0.469238,0.48291,0
60940,0.540039,-0.484375,0.510254,0
60960,0.58252,-0.495605,0.527832,0
60980,0.621582,-0.464355,0.530273,0
61000,0.585938,-0.476562,0.534668,0
61020,0.522461,-0.467285,0.527344,0
61040,0.519531,-0.492188,0.542969,0
61060,0.556152,-0.494141,0.540527,0
61080,0.512207,-0.476074,0.520996,0
61100,0.492676,-0.475586,0.521484,0
61120,0.513672,-0.495117,0.530762,0
61140,0.502441,-0.481445,0.508789,0
61160,0.492676,-0.489258,0.507324,0
61180,0.520508,-0.509277,0.52002,0
61200,0.557129,-0.536621,0.521484,0
61220,0.526367,-0.525879,0.501465,0
61240,0.498047,-0.553711,0.514648,0
61260,0.518555,-0.584473,0.511719,0
61280,0.554199,-0.573242,0.507812,0
61300,0.54248,-0.572754,0.511719,0
61320,0.51709,-0.589355,0.527832,0
61340,0.552246,-0.592773,0.528809,0
61360,0.568848,-0.617188,0.515625,0
61380,0.54834,-0.598633,0.525879,0
61400,0.524414,-0.606934,0.523438,0
61420,0.543945,-0.623535,0.490234,0
61440,0.530273,-0.614746,0.48584,0
61460,0.509766,-0.608887,0.482422,0
61480,0.508301,-0.603027,0.492676,0
61500,0.511719,-0.607422,0.477051,0
61520,0.503418,-0.619141,0.469238,0
61540,0.526855,-0.617188,0.47168,0
61560,0.535156,-0.578613,0.475098,0
61580,0.538574,-0.60791,0.442871,0
61600,0.572754,-0.620117,0.463379,0
61620,0.557129,-0.605957,0.441406,0
61640,0.540527,-0.585938,0.428711,0
61660,0.546875,-0.592285,0.421875,0
61680,0.562988,-0.620117,0.423828,0
61700,0.558594,-0.620605,0.419434,0
61720,0.540527,-0.633301,0.390625,0
61740,0.555664,-0.629395,0.388184,0
61760,0.546875,-0.642578,0.373047,0
61780,0.521973,-0.634277,0.37207,0
61800,0.533203,-0.655273,0.368164,0
61820,0.554199,-0.613281,0.366699,0
61840,0.519043,-0.635742,0.344238,0
61860,0.508301,-0.689941,0.327148,0
61880,0.54834,-0.688965,0.339355,0
61900,0.560547,-0.64209,0.35498,0
61920,0.541504,-0.647461,0.318359,0
61940,0.54248,-0.688965,0.322266,0
61960,0.58252,-0.671387,0.351074,0
61980,0.577637,-0.634277,0.351562,0
62000,0.52832,-0.635742,0.316895,0
62020,0.59082,-0.674805,0.324707,0
62040,0.623047,-0.657715,0.334473,0
62060,0.633789,-0.643066,0.336914,0
62080,0.626465,-0.646484,0.306641,0
62100,0.639648,-0.677734,0.285156,0
62120,0.663574,-0.673828,0.299805,0
62140,0.646973,-0.666992,0.270508,0
62160,0.618164,-0.674805,0.265625,0
62180,0.678223,-0.67627,0.24707,0
62200,0.673828,-0.625,0.259766,0
62220,0.630859,-0.596191,0.242676,0
62240,0.657227,-0.649902,0.21875,0
62260,0.67334,-0.63916,0.24707,0
62280,0.71582,-0.587891,0.263184,0
62300,0.700684,-0.567383,0.223145,0
62320,0.704102,-0.588379,0.20459,0
62340,0.745605,-0.575195,0.224121,0
62360,0.754883,-0.558105,0.21582,0
62380,0.751953,-0.566406,0.188965,0
62400,0.754883,-0.579102,0.165039,0
62420,0.772461,-0.55127,0.183594,0
62440,0.772461,-0.490234,0.20459,0
62460,0.783691,-0.477539,0.182617,0
62480,0.798828,-0.509766,0.179199,0
62500,0.80957,-0.462402,0.199707,0
62520,0.811523,-0.45752,0.160645,0
62540,0.835938,-0.480957,0.171387,0
62560,0.799805,-0.485352,0.178223,0
62580,0.794922,-0.47168,0.187988,0
62600,0.84668,-0.456543,0.173828,0
62620,0.854492,-0.461914,0.164551,0
62640,0.824219,-0.461426,0.169922,0
62660,0.843262,-0.431641,0.19873,0
62680,0.884766,-0.366699,0.223145,0
62700,0.890137,-0.362305,0.183105,0
62720,0.861816,-0.373047,0.179199,0
62740,0.882324,-0.36377,0.183594,0
62760,0.884277,-0.353516,0.183105,0
62780,0.89502,-0.355957,0.179688,0
62800,0.897949,-0.36084,0.191895,0
62820,0.914062,-0.307129,0.223633,0
62840,0.909668,-0.286621,0.218262,0
62860,0.882812,-0.296875,0.209961,0
62880,0.908203,-0.27832,0.231445,0
62900,0.904297,-0.256348,0.234375,0
62920,0.907715,-0.250977,0.219727,0
62940,0.92041,-0.272949,0.221191,0
62960,0.918945,-0.254395,0.240723,0
62980,0.916992,-0.228516,0.237305,0
63000,0.915527,-0.239258,0.219727,0
63020,0.945801,-0.270996,0.224121,0
63040,0.938965,-0.253418,0.26123,0
63060,0.880859,-0.232422,0.234375,0
63080,0.911133,-0.241211,0.237305,0
63100,0.933594,-0.268555,0.274414,0
63120,0.885742,-0.227051,0.290527,0
63140,0.866211,-0.231445,0.268555,0
63160,0.938965,-0.26123,0.25293,0
63180,0.943848,-0.283203,0.319824,0
63200,0.832031,-0.200684,0.302734,0
63220,0.87793,-0.231445,0.307617,0
63240,0.921387,-0.28125,0.338379,0
63260,0.853516,-0.266602,0.378418,0
63280,0.787598,-0.215332,0.345703,0
63300,0.812988,-0.257324,0.354492,0
63320,0.857422,-0.290527,0.385742,0
63340,0.828613,-0.275879,0.382812,0
63360,0.785645,-0.261719,0.37207,0
63380,0.766113,-0.293457,0.37207,0
63400,0.81543,-0.316895,0.400391,0
63420,0.831055,-0.326172,0.40918,0
63440,0.783203,-0.296387,0.42041,0
63460,0.713867,-0.314941,0.376465,0
63480,0.75293,-0.324219,0.42334,0
63500,0.772949,-0.34082,0.431641,0
63520,0.727051,-0.361328,0.398438,0
63540,0.687012,-0.374023,0.404297,0
63550,0.72168,-0.375,0.434082,0
63570,0.720703,-0.403809,0.402344,0
63590,0.657227,-0.420898,0.402832,0
63610,0.674316,-0.429688,0.419922,0
63630,0.728516,-0.439941,0.402832,0
63650,0.706055,-0.436035,0.405762,0
63670,0.658203,-0.463867,0.396973,0
63690,0.697266,-0.476562,0.40625,0
63710,0.733398,-0.470215,0.411621,0
63730,0.698242,-0.477051,0.389648,0
63750,0.6875,-0.487793,0.420898,0
63770,0.680664,-0.48291,0.421875,0
63790,0.67334,-0.508789,0.387695,0
63810,0.700684,-0.51123,0.402344,0
63830,0.683105,-0.509277,0.374512,0
63850,0.655762,-0.54834,0.369141,0
63870,0.689941,-0.558594,0.358398,0
63890,0.690918,-0.546875,0.367188,0
63910,0.644043,-0.560059,0.347656,0
63930,0.677734,-0.59082,0.346191,0
63950,0.673828,-0.59082,0.32373,0
63970,0.598633,-0.583496,0.324707,0
63990,0.611328,-0.600586,0.311523,0
64010,0.647461,-0.616211,0.318848,0
64030,0.625977,-0.636719,0.32373,0
64050,0.611328,-0.613281,0.293945,0
64070,0.636719,-0.631836,0.294434,0
64090,0.646484,-0.65332,0.280273,0
64110,0.620605,-0.641113,0.276855,0
64130,0.651855,-0.658203,0.251953,0
64150,0.698242,-0.679688,0.228027,0
64170,0.663086,-0.660645,0.220215,0
64190,0.655762,-0.66748,0.195801,0
64210,0.666504,-0.660156,0.185059,0
64230,0.644043,-0.656738,0.179688,0
64250,0.661133,-0.646484,0.157227,0
64270,0.674805,-0.651855,0.140625,0
64290,0.695801,-0.657715,0.134766,0
64310,0.69043,-0.637695,0.118164,0
64330,0.660645,-0.650391,0.0922852,0
64350,0.672363,-0.65625,0.0966797,0
64370,0.686523,-0.637207,0.114258,0
64390,0.705078,-0.652344,0.078125,0
64410,0.703613,-0.657715,0.0527344,0
64430,0.694336,-0.642578,0.0703125,0
64450,0.713379,-0.620117,0.0708008,0
64470,0.712891,-0.637695,0.0498047,0
64490,0.710938,-0.620117,0.0454102,0
64510,0.736328,-0.616699,0.0507812,0
64530,0.757812,-0.581543,0.0537109,0
64550,0.769531,-0.584961,0.0244141,0
64570,0.785645,-0.597656,0.0244141,0
64590,0.785156,-0.589355,0.0249023,0
64610,0.757812,-0.568848,0.0078125,0
64630,0.770508,-0.562988,-0.0126953,0
64650,0.790039,-0.566406,-0.0151367,0
64670,0.799805,-0.549316,-0.0219727,0
64690,0.797852,-0.532227,-0.012207,0
64710,0.800781,-0.515137,-0.0424805,0
64730,0.803223,-0.533691,-0.034668,0
64750,0.795898,-0.522949,-0.0166016,0
64770,0.823242,-0.499512,-0.0517578,0
64790,0.85791,-0.491699,-0.043457,0
64810,0.865723,-0.47998,-0.0444336,0
64830,0.827148,-0.473633,-0.0454102,0
64850,0.84375,-0.455566,-0.0390625,0
64870,0.870605,-0.429199,-0.0527344,0
64890,0.878906,-0.410156,-0.034668,0
64910,0.885254,-0.400391,-0.0458984,0
64930,0.883789,-0.393555,-0.0527344,0
64950,0.909668,-0.395508,-0.0351562,0
64970,0.884277,-0.377441,-0.0327148,0
64990,0.898438,-0.341309,-0.0151367,0
65010,0.920898,-0.307617,0.00585938,0
65030,0.894531,-0.315918,-0.0185547,0
65050,0.897949,-0.316895,0.012207,0
65070,0.916016,-0.275391,0.0336914,0
65090,0.916016,-0.246582,0.0166016,0
65110,0.929688,-0.250977,0.0180664,0
65130,0.940918,-0.243164,0.0751953,0
65150,0.913574,-0.223145,0.0585938,0
65170,0.914062,-0.203613,0.0551758,0
65190,0.906738,-0.182129,0.0849609,0
65210,0.944336,-0.202148,0.0737305,0
65230,0.992188,-0.219727,0.09375,0
65250,0.926758,-0.221191,0.10791,0
65270,0.913574,-0.208984,0.0957031,0
65290,0.948242,-0.195312,0.12207,0
65310,0.958496,-0.195312,0.149414,0
65330,0.913086,-0.182617,0.157715,0
65350,0.9375,-0.205078,0.165039,0
65370,0.956055,-0.204102,0.180176,0
65390,0.949707,-0.206543,0.189941,0
65410,0.95752,-0.21875,0.198242,0
65430,0.962402,-0.205566,0.222656,0
65450,0.961914,-0.216309,0.251953,0
65470,0.929688,-0.206055,0.251465,0
65490,0.912109,-0.206543,0.263184,0
65510,0.919922,-0.184082,0.29541,0
65530,0.89502,-0.182617,0.280762,0
65550,0.890137,-0.217773,0.288086,0
65560,0.896973,-0.194336,0.304199,0
65580,0.870117,-0.1875,0.285645,0
65600,0.879395,-0.185547,0.289062,0
65620,0.915039,-0.204102,0.311523,0
65640,0.874512,-0.20459,0.300293,0
65660,0.864258,-0.216797,0.294434,0
65680,0.884277,-0.248535,0.307617,0
65700,0.887207,-0.24707,0.309082,0
65720,0.833984,-0.259277,0.302734,0
65740,0.857422,-0.28125,0.307129,0
65760,0.877441,-0.287109,0.313477,0
65780,0.846191,-0.278809,0.31543,0
65800,0.84375,-0.300293,0.312988,0
65820,0.854492,-0.326172,0.337891,0
65840,0.824707,-0.296875,0.314453,0
65860,0.825684,-0.312988,0.333496,0
65880,0.835449,-0.318359,0.359375,0
65900,0.791504,-0.335938,0.341797,0
65920,0.766113,-0.337891,0.339355,0
65940,0.785645,-0.344238,0.336914,0
65960,0.76709,-0.36084,0.339844,0
65980,0.748047,-0.378418,0.345215,0
66000,0.773438,-0.396484,0.318848,0
66020,0.791992,-0.401367,0.328613,0
66040,0.777832,-0.418945,0.333496,0
66060,0.751953,-0.433105,0.341309,0
66080,0.766602,-0.442871,0.335449,0
66100,0.791992,-0.447266,0.356445,0
66120,0.725586,-0.442871,0.332031,0
66140,0.694336,-0.459961,0.324707,0
66160,0.734375,-0.458008,0.328125,0
66180,0.742188,-0.475098,0.328125,0
66200,0.721191,-0.470703,0.328613,0
66220,0.737793,-0.487305,0.310547,0
66240,0.76709,-0.500977,0.313477,0
66260,0.76123,-0.511719,0.296387,0
66280,0.737793,-0.518066,0.29541,0
66300,0.763184,-0.527832,0.297363,0
66320,0.761719,-0.524902,0.277344,0
66340,0.737793,-0.541504,0.263672,0
66360,0.731934,-0.550293,0.258789,0
66380,0.748535,-0.542969,0.263672,0
66400,0.758301,-0.526367,0.259277,0
66420,0.751465,-0.549805,0.238281,0
66440,0.776367,-0.546875,0.234863,0
66460,0.748047,-0.520996,0.217773,0
66480,0.750977,-0.508301,0.207031,0
66500,0.784668,-0.51416,0.197754,0
66520,0.763184,-0.54248,0.178711,0
66540,0.754395,-0.541992,0.155762,0
66560,0.778809,-0.53418,0.16748,0
66580,0.774414,-0.548828,0.145508,0
66600,0.762207,-0.547852,0.131836,0
66620,0.76416,-0.547852,0.114258,0
66640,0.760254,-0.546875,0.132324,0
66660,0.730957,-0.536133,0.118652,0
66680,0.727539,-0.54541,0.0927734,0
66700,0.780273,-0.552734,0.0922852,0
66720,0.803223,-0.541016,0.0966797,0
66740,0.769043,-0.560547,0.0605469,0
66760,0.779785,-0.560547,0.0512695,0
66780,0.798828,-0.545898,0.0625,0
66800,0.800293,-0.525391,0.0522461,0
66820,0.791504,-0.532715,0.0302734,0
66840,0.793457,-0.530273,0.0283203,0
66860,0.777344,-0.503418,0.0175781,0
66880,0.776367,-0.48877,0.0214844,0
66900,0.799316,-0.496094,-0.00146484,0
66920,0.821289,-0.513672,-0.0117188,0
66940,0.822754,-0.485352,0.00830078,0
66960,0.806641,-0.45752,-0.00634766,0
66980,0.823242,-0.463867,-0.0229492,0
67000,0.850586,-0.466309,-0.0200195,0
67020,0.836914,-0.44043,-0.0253906,0
67040,0.82666,-0.429688,-0.034668,0
67060,0.849121,-0.418457,-0.03125,0
67080,0.879883,-0.429199,-0.0283203,0
67100,0.850098,-0.416016,-0.0395508,0
67120,0.852051,-0.412109,-0.0410156,0
67140,0.896484,-0.380859,-0.0249023,0
67160,0.893555,-0.37793,-0.0405273,0
67180,0.868652,-0.381348,-0.0458984,0
67200,0.876465,-0.384766,-0.0444336,0
67220,0.919434,-0.358398,-0.0463867,0
67240,0.896973,-0.345215,-0.0585938,0
67260,0.840332,-0.345703,-0.0688477,0
