Timestamp, Acceleration x, Acceleration y, Acceleration z, Marker
50,-0.492188,-0.804199,0.158691,0
70,-0.376465,-0.929688,0.167969,0
90,-0.302246,-1.01074,0.0800781,0
110,-0.333984,-0.98877,0.0615234,0
130,-0.38916,-0.953125,0.0966797,0
150,-0.393066,-0.94043,0.0717773,0
160,-0.463379,-0.877441,0.119141,0
160,-0.504883,-0.82373,0.227539,0
200,-0.480957,-0.839355,0.262207,0
210,-0.455078,-0.866699,0.245117,0
230,-0.45166,-0.853516,0.239258,0
250,-0.467285,-0.838379,0.22998,0
270,-0.484863,-0.839355,0.226562,0
290,-0.493164,-0.852051,0.20752,0
310,-0.509277,-0.861328,0.193848,0
330,-0.514648,-0.843262,0.181641,0
350,-0.515625,-0.843262,0.186523,0
370,-0.487793,-0.860352,0.204102,0
390,-0.45752,-0.876465,0.214844,0
410,-0.45459,-0.888672,0.232422,0
430,-0.466309,-0.899414,0.248047,0
450,-0.467285,-0.910645,0.241211,0
470,-0.463379,-0.900879,0.228516,0
490,-0.456543,-0.883789,0.236816,0
510,-0.459473,-0.866699,0.235352,0
530,-0.478027,-0.836914,0.217773,0
550,-0.466797,-0.804199,0.206543,0
570,-0.466797,-0.795898,0.208008,0
590,-0.479004,-0.802734,0.222168,0
610,-0.467285,-0.84082,0.233398,0
630,-0.431641,-0.899902,0.239746,0
650,-0.410645,-0.950684,0.249512,0
670,-0.420898,-0.979492,0.257812,0
690,-0.462402,-0.962402,0.260254,0
710,-0.497559,-0.931152,0.243652,0
730,-0.524902,-0.885742,0.225586,0
750,-0.53418,-0.807129,0.227539,0
770,-0.554199,-0.745605,0.237305,0
790,-0.560547,-0.720215,0.247559,0
810,-0.543945,-0.722656,0.241699,0
830,-0.504395,-0.740723,0.241211,0
850,-0.467773,-0.773926,0.245117,0
870,-0.461426,-0.817383,0.248047,0
890,-0.452148,-0.862793,0.257324,0
910,-0.450684,-0.89502,0.244141,0
920,-0.447754,-0.918945,0.22168,0
940,-0.431152,-0.934082,0.205078,0
960,-0.430664,-0.931152,0.204102,0
980,-0.449707,-0.918945,0.208496,0
1000,-0.456543,-0.908691,0.221191,0
1020,-0.458008,-0.889648,0.216797,0
1040,-0.464355,-0.870117,0.235352,0
1060,-0.472656,-0.858398,0.258789,0
1080,-0.480469,-0.853516,0.270996,0
1100,-0.482422,-0.851562,0.268555,0
1120,-0.472656,-0.847168,0.254883,0
1140,-0.466309,-0.834961,0.245605,0
1160,-0.467773,-0.821289,0.23291,0
1180,-0.489258,-0.805664,0.237793,0
1200,-0.497559,-0.800293,0.23584,0
1220,-0.501953,-0.814453,0.241699,0
1240,-0.489746,-0.835938,0.260742,0
1260,-0.477539,-0.85498,0.253906,0
1280,-0.469238,-0.868652,0.244141,0
1300,-0.461426,-0.875488,0.240723,0
1320,-0.451172,-0.876465,0.237305,0
1340,-0.450195,-0.875977,0.229492,0
1360,-0.449219,-0.881348,0.227051,0
1380,-0.452148,-0.88916,0.225098,0
1400,-0.463867,-0.873535,0.241211,0
1420,-0.474121,-0.856445,0.245117,0
1440,-0.467773,-0.849609,0.24707,0
1460,-0.455566,-0.857422,0.227539,0
1480,-0.447266,-0.868652,0.216797,0
1500,-0.455566,-0.867188,0.235352,0
1520,-0.463867,-0.878418,0.235352,0
1540,-0.460449,-0.877441,0.210449,0
1560,-0.452148,-0.875,0.207031,0
1580,-0.463379,-0.875488,0.23291,0
1600,-0.452148,-0.875488,0.23584,0
1620,-0.438965,-0.894043,0.212402,0
1640,-0.438477,-0.883301,0.199707,0
1660,-0.436523,-0.882324,0.217773,0
1680,-0.455566,-0.911133,0.231934,0
1700,-0.455566,-0.826172,0.253418,0
1720,-0.449707,-0.839355,0.204102,0
1740,-0.401855,-0.905273,0.222656,0
1760,-0.412598,-0.954102,0.182129,0
1780,-0.464844,-0.928711,0.193848,0
1800,-0.460449,-0.906738,0.177734,0
1820,-0.441895,-0.916016,0.124512,0
1840,-0.462891,-0.941406,0.119629,0
1860,-0.485352,-0.933105,0.126465,0
1880,-0.503418,-0.87207,0.11084,0
1900,-0.53125,-0.86084,0.0698242,0
1920,-0.51416,-0.880859,0.125488,0
1940,-0.515625,-0.882812,0.0981445,0
1960,-0.54248,-0.84668,0.0605469,0
1980,-0.571777,-0.802246,0.0957031,0
2000,-0.594727,-0.798828,0.0991211,0
2020,-0.588867,-0.802246,0.0981445,0
2040,-0.575684,-0.817383,0.0786133,0
2060,-0.585938,-0.822266,0.0800781,0
2080,-0.595215,-0.813477,0.0566406,0
2100,-0.566895,-0.846191,0.0424805,0
2120,-0.554199,-0.856934,0.0322266,0
2140,-0.559082,-0.854492,0.0375977,0
2160,-0.532227,-0.851562,0.0249023,0
2180,-0.533203,-0.840332,0.0258789,0
2200,-0.546387,-0.848633,0.0449219,0
2220,-0.546387,-0.855469,0.0527344,0
2240,-0.530273,-0.862793,0.0625,0
2260,-0.533203,-0.882812,0.0722656,0
2280,-0.543457,-0.899414,0.0869141,0
2300,-0.523926,-0.898438,0.0673828,0
2320,-0.48291,-0.874023,0.0561523,0
2340,-0.45166,-0.844727,0.0737305,0
2360,-0.473145,-0.828613,0.0947266,0
2380,-0.500977,-0.833496,0.102539,0
2400,-0.531738,-0.861328,0.090332,0
2420,-0.562012,-0.862305,0.0981445,0
2440,-0.567871,-0.854004,0.121582,0
2460,-0.541016,-0.867676,0.124512,0
2480,-0.518066,-0.887207,0.119141,0
2500,-0.507324,-0.878418,0.120117,0
2520,-0.516113,-0.878906,0.125488,0
2540,-0.519531,-0.899414,0.117188,0
2560,-0.506836,-0.914551,0.112793,0
2580,-0.480957,-0.942871,0.135254,0
2600,-0.475098,-0.955566,0.16748,0
2620,-0.473633,-0.955566,0.16748,0
2640,-0.477051,-0.933105,0.166504,0
2660,-0.494141,-0.880859,0.17041,0
2680,-0.507812,-0.823242,0.168457,0
2700,-0.502441,-0.79541,0.158203,0
2720,-0.490234,-0.790527,0.141113,0
2740,-0.500488,-0.804688,0.129883,0
2760,-0.505371,-0.838867,0.120117,0
2780,-0.513672,-0.878418,0.11377,0
2800,-0.526855,-0.888184,0.105957,0
2820,-0.521484,-0.878418,0.108398,0
2840,-0.513184,-0.866699,0.090332,0
2860,-0.484375,-0.876465,0.101562,0
2880,-0.469238,-0.89209,0.104004,0
2900,-0.478516,-0.90332,0.125,0
2910,-0.486328,-0.910156,0.125488,0
2930,-0.494141,-0.890137,0.132324,0
2950,-0.498535,-0.85498,0.128906,0
2970,-0.501953,-0.842285,0.138184,0
2990,-0.510254,-0.853027,0.144043,0
3010,-0.516113,-0.855469,0.146484,0
3030,-0.506348,-0.879395,0.141113,0
3050,-0.504395,-0.884277,0.129395,0
3070,-0.503418,-0.875488,0.126953,0
3090,-0.508301,-0.872559,0.126953,0
3110,-0.504883,-0.879395,0.132812,0
3130,-0.504883,-0.889648,0.150879,0
3150,-0.503418,-0.894043,0.161621,0
3170,-0.498535,-0.887207,0.160156,0
3190,-0.493652,-0.878418,0.163574,0
3210,-0.49707,-0.869629,0.160156,0
3230,-0.495117,-0.864746,0.156738,0
3250,-0.490723,-0.859375,0.14502,0
3270,-0.500488,-0.871582,0.134277,0
3290,-0.495605,-0.876953,0.126465,0
3310,-0.499512,-0.869141,0.134277,0
3330,-0.505859,-0.866211,0.146973,0
3350,-0.499023,-0.868652,0.152832,0
3370,-0.486816,-0.862305,0.158691,0
3390,-0.477539,-0.865723,0.162109,0
3410,-0.475586,-0.879883,0.177246,0
3430,-0.494141,-0.884766,0.16748,0
3450,-0.491699,-0.89209,0.162109,0
3470,-0.503906,-0.89502,0.152344,0
3490,-0.511719,-0.891602,0.145996,0
3510,-0.515625,-0.881348,0.13916,0
3530,-0.515625,-0.870117,0.140625,0
3550,-0.514648,-0.87207,0.144531,0
3570,-0.503418,-0.859863,0.152832,0
3590,-0.491699,-0.869141,0.147461,0
3610,-0.496582,-0.859375,0.132324,0
3630,-0.501465,-0.853027,0.156738,0
3650,-0.490234,-0.862305,0.157227,0
3670,-0.480957,-0.868652,0.166016,0
3690,-0.471191,-0.866699,0.174805,0
3710,-0.475586,-0.871582,0.187012,0
3730,-0.461914,-0.883789,0.210449,0
3750,-0.460449,-0.872559,0.209473,0
3770,-0.458496,-0.859863,0.183594,0
3790,-0.456055,-0.86377,0.173828,0
3810,-0.474609,-0.857422,0.17334,0
3830,-0.48584,-0.860352,0.175293,0
3850,-0.501953,-0.875977,0.172852,0
3870,-0.510254,-0.869629,0.168945,0
3890,-0.516113,-0.844238,0.177246,0
3910,-0.531738,-0.839355,0.179199,0
3930,-0.541992,-0.840332,0.156738,0
3950,-0.50293,-0.849121,0.169434,0
3970,-0.486328,-0.869629,0.185059,0
3990,-0.511719,-0.862305,0.179688,0
4010,-0.49707,-0.873047,0.174316,0
4030,-0.458984,-0.885254,0.182617,0
4050,-0.448242,-0.90332,0.196777,0
4070,-0.478027,-0.914551,0.208008,0
4090,-0.449219,-0.92334,0.220215,0
4110,-0.441406,-0.895508,0.21875,0
4130,-0.461426,-0.846191,0.211914,0
4150,-0.472168,-0.830078,0.21875,0
4170,-0.484375,-0.816895,0.23291,0
4190,-0.499512,-0.828125,0.244629,0
4210,-0.494141,-0.843262,0.243652,0
4230,-0.483398,-0.858887,0.216309,0
4250,-0.480957,-0.873535,0.194824,0
4270,-0.487305,-0.875977,0.177734,0
4290,-0.501465,-0.883301,0.177734,0
4310,-0.519531,-0.885254,0.173828,0
4330,-0.515625,-0.876953,0.183105,0
4350,-0.489258,-0.86084,0.178223,0
4370,-0.46875,-0.841797,0.173828,0
4390,-0.472656,-0.828613,0.190918,0
4410,-0.486816,-0.815918,0.211426,0
4430,-0.503418,-0.833984,0.22998,0
4450,-0.487793,-0.882324,0.214355,0
4470,-0.485352,-0.896973,0.208008,0
4490,-0.488281,-0.890625,0.19873,0
4510,-0.495605,-0.87793,0.194336,0
4530,-0.499512,-0.868652,0.1875,0
4550,-0.5,-0.848145,0.190918,0
4570,-0.495117,-0.844238,0.186523,0
4590,-0.484375,-0.841309,0.186035,0
4610,-0.490723,-0.846191,0.19873,0
4630,-0.503418,-0.843262,0.208984,0
4650,-0.498535,-0.851074,0.222656,0
4670,-0.495117,-0.869141,0.217285,0
4690,-0.487305,-0.878418,0.208008,0
4710,-0.491211,-0.879395,0.185059,0
4730,-0.492676,-0.882324,0.191895,0
4750,-0.506836,-0.877441,0.189453,0
4770,-0.504883,-0.845703,0.185059,0
4790,-0.489746,-0.824219,0.174805,0
4810,-0.481934,-0.822754,0.185059,0
4830,-0.489258,-0.837402,0.202637,0
4850,-0.499023,-0.85498,0.220215,0
4870,-0.496582,-0.87793,0.222168,0
4890,-0.503906,-0.894043,0.20459,0
4910,-0.504883,-0.880859,0.191406,0
4930,-0.494629,-0.867676,0.181152,0
4950,-0.498535,-0.865234,0.185059,0
4970,-0.506348,-0.86084,0.202637,0
4990,-0.507324,-0.856934,0.200195,0
5010,-0.496094,-0.837891,0.187988,0
5030,-0.477539,-0.832031,0.177734,0
5050,-0.488281,-0.83252,0.191895,0
5070,-0.509766,-0.838379,0.202148,0
5090,-0.513184,-0.862793,0.215332,0
5110,-0.512207,-0.88623,0.209961,0
5130,-0.504883,-0.880859,0.194336,0
5150,-0.505859,-0.873047,0.192383,0
5170,-0.500977,-0.867676,0.183594,0
5190,-0.506348,-0.856934,0.177734,0
5210,-0.516113,-0.838379,0.180664,0
5230,-0.510254,-0.828613,0.171387,0
5250,-0.49707,-0.825684,0.163574,0
5270,-0.5,-0.827148,0.171875,0
5290,-0.505859,-0.84082,0.195801,0
5310,-0.507324,-0.855957,0.206543,0
5330,-0.511719,-0.870605,0.208008,0
5350,-0.509277,-0.875977,0.203613,0
5370,-0.509766,-0.866699,0.183105,0
5390,-0.504395,-0.867676,0.17627,0
5410,-0.512207,-0.864258,0.169922,0
5430,-0.51709,-0.840332,0.174805,0
5450,-0.508789,-0.830078,0.164551,0
5470,-0.491699,-0.814941,0.165527,0
5490,-0.5,-0.820801,0.171875,0
5510,-0.518066,-0.838867,0.195801,0
5530,-0.519531,-0.864746,0.199707,0
5550,-0.510254,-0.893066,0.20752,0
5570,-0.500977,-0.893066,0.19873,0
5590,-0.489258,-0.87793,0.179199,0
5610,-0.5,-0.862793,0.180176,0
5630,-0.513184,-0.856934,0.1875,0
5650,-0.514648,-0.848633,0.185059,0
5670,-0.499512,-0.837402,0.175293,0
5690,-0.490723,-0.82666,0.178223,0
5710,-0.495605,-0.813477,0.17334,0
5730,-0.512207,-0.824219,0.185059,0
5750,-0.516113,-0.852539,0.210449,0
5770,-0.512695,-0.891602,0.212402,0
5790,-0.510742,-0.907227,0.213379,0
5810,-0.5,-0.899414,0.195801,0
5830,-0.482422,-0.875977,0.185547,0
5850,-0.492188,-0.846191,0.177246,0
5870,-0.507324,-0.82373,0.186035,0
5890,-0.50293,-0.812988,0.178223,0
5910,-0.491211,-0.831055,0.181152,0
5930,-0.48877,-0.841797,0.199219,0
5950,-0.500977,-0.849609,0.21582,0
5970,-0.505371,-0.867676,0.217773,0
5990,-0.502441,-0.878418,0.211426,0
6010,-0.496582,-0.889648,0.202637,0
6030,-0.493652,-0.880859,0.192383,0
6050,-0.495605,-0.876953,0.1875,0
6070,-0.496094,-0.855957,0.191895,0
6090,-0.494141,-0.839844,0.193848,0
6110,-0.499512,-0.832031,0.192871,0
6130,-0.495605,-0.838379,0.187012,0
6150,-0.483887,-0.842285,0.196289,0
6170,-0.49707,-0.849609,0.188477,0
6190,-0.501953,-0.862305,0.199707,0
6210,-0.50293,-0.87207,0.210938,0
6230,-0.495117,-0.865234,0.215332,0
6250,-0.490723,-0.85791,0.214355,0
6270,-0.494141,-0.856445,0.203125,0
6290,-0.478027,-0.863281,0.21582,0
6310,-0.479004,-0.874512,0.225098,0
6330,-0.489258,-0.87207,0.209961,0
6350,-0.483887,-0.866699,0.197266,0
6370,-0.485352,-0.842773,0.187012,0
6380,-0.497559,-0.84082,0.190918,0
6400,-0.5,-0.847168,0.19873,0
6420,-0.497559,-0.867188,0.200684,0
6440,-0.494141,-0.867676,0.212402,0
6460,-0.486816,-0.864746,0.21875,0
6480,-0.490723,-0.858887,0.212402,0
6500,-0.487793,-0.85498,0.197266,0
6520,-0.475098,-0.847168,0.195801,0
6540,-0.484863,-0.854004,0.208984,0
6560,-0.492188,-0.870117,0.221191,0
6580,-0.484863,-0.880859,0.216309,0
6600,-0.484375,-0.871582,0.214844,0
6620,-0.481934,-0.857422,0.206055,0
6640,-0.486816,-0.841309,0.205078,0
6660,-0.486816,-0.842285,0.198242,0
6680,-0.493164,-0.850098,0.208008,0
6700,-0.490234,-0.86377,0.208496,0
6720,-0.490723,-0.868164,0.209961,0
6740,-0.485352,-0.859375,0.209961,0
6760,-0.484375,-0.855469,0.202637,0
6780,-0.48584,-0.855469,0.208496,0
6800,-0.487793,-0.854492,0.205566,0
6820,-0.499512,-0.849121,0.201172,0
6840,-0.487793,-0.867188,0.202637,0
6860,-0.461914,-0.87207,0.20752,0
6880,-0.483398,-0.862793,0.209961,0
6900,-0.485352,-0.861328,0.206055,0
6920,-0.481934,-0.866699,0.209961,0
6940,-0.48584,-0.863281,0.203125,0
6960,-0.480469,-0.861328,0.204102,0
6980,-0.475586,-0.858887,0.203613,0
7000,-0.487793,-0.867188,0.218262,0
7020,-0.493652,-0.864746,0.224121,0
7040,-0.48584,-0.863281,0.216309,0
7060,-0.47998,-0.864258,0.195801,0
7080,-0.484375,-0.855469,0.195312,0
7100,-0.486816,-0.848633,0.201172,0
7120,-0.492676,-0.857422,0.19873,0
7140,-0.489258,-0.85791,0.203613,0
7160,-0.47998,-0.861816,0.208496,0
7180,-0.480469,-0.855469,0.210449,0
7200,-0.480957,-0.857422,0.209961,0
7220,-0.479004,-0.866699,0.202148,0
7240,-0.480469,-0.864746,0.20459,0
7260,-0.48584,-0.861328,0.203125,0
7280,-0.489258,-0.861328,0.212402,0
7300,-0.48584,-0.865234,0.213379,0
7320,-0.484863,-0.863281,0.208984,0
7340,-0.47998,-0.858398,0.20459,0
7360,-0.486328,-0.853516,0.204102,0
7380,-0.487305,-0.85791,0.206055,0
7400,-0.488281,-0.854004,0.206055,0
7420,-0.483398,-0.86377,0.204102,0
7440,-0.47998,-0.869629,0.20752,0
7460,-0.479492,-0.869141,0.206055,0
7480,-0.481445,-0.863281,0.202637,0
7500,-0.482422,-0.858887,0.210449,0
7520,-0.486328,-0.865234,0.20166,0
7540,-0.481934,-0.856934,0.205078,0
7560,-0.483398,-0.861328,0.205566,0
7580,-0.484863,-0.87207,0.208984,0
7600,-0.490234,-0.865234,0.205566,0
7620,-0.47998,-0.859375,0.202148,0
7640,-0.482422,-0.858398,0.208496,0
7660,-0.486816,-0.859375,0.212402,0
7680,-0.48584,-0.863281,0.209961,0
7700,-0.480469,-0.86084,0.205078,0
7720,-0.482422,-0.86084,0.200195,0
7740,-0.482422,-0.85498,0.203125,0
7760,-0.487793,-0.853027,0.216309,0
7780,-0.494629,-0.861328,0.223145,0
7800,-0.488281,-0.874512,0.210938,0
7820,-0.474609,-0.875,0.205566,0
7840,-0.48291,-0.862793,0.196289,0
7860,-0.485352,-0.85791,0.205078,0
7880,-0.491211,-0.85498,0.202148,0
7900,-0.492676,-0.849121,0.19873,0
7920,-0.481445,-0.852539,0.203613,0
7940,-0.486816,-0.862305,0.209473,0
7960,-0.489258,-0.866211,0.210449,0
7980,-0.486328,-0.866699,0.199219,0
8000,-0.487305,-0.861328,0.200684,0
8020,-0.492676,-0.859863,0.207031,0
8040,-0.490723,-0.858398,0.209961,0
8060,-0.490723,-0.860352,0.208008,0
8080,-0.486328,-0.85791,0.206543,0
8100,-0.487793,-0.852539,0.203613,0
8120,-0.489258,-0.858887,0.20459,0
8140,-0.489746,-0.855957,0.202637,0
8160,-0.487305,-0.856934,0.203125,0
8180,-0.493164,-0.866211,0.207031,0
8200,-0.487305,-0.857422,0.202148,0
8220,-0.490723,-0.855469,0.200684,0
8240,-0.489746,-0.856445,0.199707,0
8260,-0.493652,-0.861816,0.198242,0
8280,-0.493164,-0.856934,0.198242,0
8300,-0.494141,-0.85498,0.198242,0
8320,-0.493164,-0.858398,0.195801,0
8340,-0.492188,-0.85791,0.196289,0
8360,-0.492188,-0.849609,0.205078,0
8370,-0.493652,-0.854004,0.196777,0
8390,-0.493652,-0.858887,0.20459,0
8410,-0.494629,-0.853027,0.200195,0
8430,-0.494141,-0.860352,0.206055,0
8450,-0.490234,-0.865723,0.201172,0
8470,-0.491699,-0.859375,0.196777,0
8490,-0.489746,-0.851074,0.19873,0
8510,-0.486816,-0.84668,0.192383,0
8530,-0.491699,-0.851562,0.202637,0
8550,-0.5,-0.859863,0.217773,0
8570,-0.501953,-0.867676,0.208984,0
8590,-0.486328,-0.87207,0.196289,0
8610,-0.482422,-0.868164,0.185059,0
8630,-0.487305,-0.849609,0.191406,0
8650,-0.493652,-0.844727,0.200684,0
8670,-0.490234,-0.855957,0.200684,0
8690,-0.492676,-0.859863,0.202637,0
8710,-0.488281,-0.861816,0.206543,0
8730,-0.493652,-0.864746,0.212402,0
8750,-0.490234,-0.867676,0.199707,0
8770,-0.491211,-0.871094,0.205078,0
8790,-0.491211,-0.855957,0.202148,0
8810,-0.494629,-0.850586,0.195312,0
8830,-0.490723,-0.849121,0.19873,0
8850,-0.483398,-0.848633,0.196289,0
8870,-0.48291,-0.854492,0.192383,0
8890,-0.484863,-0.865723,0.19873,0
8910,-0.482422,-0.864258,0.208984,0
8930,-0.488281,-0.857422,0.208984,0
8950,-0.48291,-0.85498,0.205078,0
8970,-0.483887,-0.864258,0.20166,0
8990,-0.487305,-0.86084,0.195312,0
9010,-0.48291,-0.872559,0.196289,0
9030,-0.486816,-0.870117,0.203125,0
9050,-0.486328,-0.865234,0.205078,0
9070,-0.489258,-0.852539,0.205566,0
9090,-0.491211,-0.850586,0.203125,0
9110,-0.485352,-0.863281,0.214355,0
9130,-0.476074,-0.870117,0.216797,0
9150,-0.477051,-0.870605,0.21875,0
9170,-0.481934,-0.868652,0.214844,0
9190,-0.475586,-0.870117,0.209473,0
9210,-0.476074,-0.860352,0.205566,0
9230,-0.482422,-0.859375,0.203125,0
9250,-0.478516,-0.86377,0.209961,0
9270,-0.479492,-0.857422,0.208008,0
9290,-0.482422,-0.847168,0.206543,0
9310,-0.481934,-0.851562,0.204102,0
9330,-0.486328,-0.852051,0.209961,0
9350,-0.490234,-0.86084,0.221191,0
9370,-0.491211,-0.866211,0.222656,0
9390,-0.483887,-0.87207,0.205078,0
9410,-0.481934,-0.861328,0.19043,0
9430,-0.480957,-0.857422,0.195801,0
9450,-0.473145,-0.856445,0.202637,0
9470,-0.463379,-0.865234,0.213379,0
9490,-0.457031,-0.888184,0.21582,0
9510,-0.458496,-0.879883,0.229004,0
9530,-0.460938,-0.87793,0.224609,0
9550,-0.458496,-0.872559,0.228027,0
9570,-0.466309,-0.868164,0.225586,0
9590,-0.469727,-0.858398,0.227051,0
9610,-0.473145,-0.863281,0.233887,0
9630,-0.461914,-0.871582,0.228516,0
9640,-0.457031,-0.871582,0.219727,0
9660,-0.45752,-0.858887,0.213867,0
9680,-0.461914,-0.86377,0.218262,0
9700,-0.472168,-0.86084,0.21582,0
9720,-0.476074,-0.866211,0.222656,0
9740,-0.467285,-0.874512,0.226074,0
9760,-0.461426,-0.876465,0.221191,0
9780,-0.458984,-0.874512,0.219727,0
9800,-0.464844,-0.86084,0.214355,0
9820,-0.461426,-0.867676,0.214844,0
9840,-0.470215,-0.864258,0.208984,0
9860,-0.472168,-0.866699,0.213379,0
9880,-0.470215,-0.862793,0.230957,0
9900,-0.477051,-0.866699,0.216797,0
9920,-0.481445,-0.865723,0.226074,0
9940,-0.486816,-0.859375,0.212891,0
9960,-0.483398,-0.865234,0.210449,0
9980,-0.472168,-0.867188,0.197266,0
10000,-0.468262,-0.864258,0.206543,0
10020,-0.470703,-0.855957,0.21875,0
10040,-0.475586,-0.85498,0.214355,0
10060,-0.475098,-0.85791,0.221191,0
10080,-0.477051,-0.853027,0.211426,0
10100,-0.46875,-0.856445,0.208008,0
10120,-0.470703,-0.859863,0.208984,0
10140,-0.471191,-0.860352,0.220215,0
10160,-0.469727,-0.86084,0.226562,0
10180,-0.465332,-0.867188,0.228516,0
10200,-0.469727,-0.873535,0.226562,0
10220,-0.461914,-0.875977,0.231934,0
10240,-0.465332,-0.876465,0.230469,0
10260,-0.47168,-0.879395,0.229004,0
10280,-0.469727,-0.874512,0.211914,0
10300,-0.474609,-0.861816,0.203613,0
10320,-0.48584,-0.852051,0.197754,0
10340,-0.480469,-0.82959,0.186523,0
10360,-0.463867,-0.820801,0.185059,0
10380,-0.45752,-0.84375,0.197266,0
10400,-0.474609,-0.869629,0.206055,0
10420,-0.474609,-0.884277,0.215332,0
10440,-0.462402,-0.897461,0.223633,0
10460,-0.458496,-0.896973,0.238281,0
10480,-0.456543,-0.896484,0.248535,0
10500,-0.458008,-0.894043,0.253418,0
10520,-0.474121,-0.870117,0.240234,0
10540,-0.484375,-0.835938,0.239258,0
10560,-0.479492,-0.819824,0.230957,0
10580,-0.5,-0.797852,0.214844,0
10600,-0.502441,-0.797363,0.202637,0
10620,-0.492676,-0.830078,0.190918,0
10640,-0.486816,-0.862305,0.178711,0
10660,-0.481934,-0.88623,0.185059,0
10680,-0.478516,-0.898438,0.185059,0
10700,-0.466797,-0.905762,0.195312,0
10720,-0.467285,-0.90918,0.199707,0
10740,-0.460938,-0.904785,0.214355,0
10760,-0.449707,-0.886719,0.226562,0
10780,-0.442383,-0.873535,0.224121,0
10800,-0.443848,-0.877441,0.228027,0
10820,-0.458008,-0.85791,0.234863,0
10840,-0.47168,-0.851074,0.235352,0
10860,-0.466797,-0.856934,0.235352,0
10880,-0.473145,-0.856934,0.23291,0
10900,-0.482422,-0.841797,0.228516,0
10920,-0.483887,-0.839844,0.224121,0
10940,-0.493164,-0.846191,0.222656,0
10960,-0.493164,-0.845215,0.216797,0
10980,-0.498047,-0.850586,0.206055,0
11000,-0.488281,-0.855957,0.205078,0
11020,-0.469238,-0.864258,0.212891,0
11040,-0.46582,-0.876465,0.219238,0
11060,-0.461914,-0.892578,0.224609,0
11080,-0.463867,-0.905762,0.228516,0
11100,-0.474121,-0.884766,0.224609,0
11120,-0.470215,-0.867676,0.224609,0
11140,-0.477539,-0.850098,0.21582,0
11160,-0.479004,-0.83252,0.195801,0
11180,-0.478027,-0.820801,0.192871,0
11200,-0.483887,-0.827148,0.189941,0
11220,-0.483887,-0.86084,0.19873,0
11240,-0.484375,-0.88623,0.210938,0
11260,-0.480957,-0.891113,0.213379,0
11280,-0.48291,-0.882324,0.206543,0
11300,-0.490723,-0.878906,0.210449,0
11320,-0.48584,-0.867676,0.20752,0
11340,-0.489258,-0.856445,0.212891,0
11360,-0.481934,-0.855957,0.206543,0
11380,-0.474121,-0.85791,0.202637,0
11400,-0.479004,-0.853027,0.199707,0
11420,-0.48877,-0.845215,0.203613,0
11440,-0.487793,-0.852539,0.20166,0
11460,-0.492676,-0.851562,0.205566,0
11480,-0.491211,-0.85791,0.200684,0
11500,-0.492676,-0.870605,0.203613,0
11520,-0.48877,-0.877441,0.209473,0
11540,-0.480469,-0.87207,0.202148,0
11560,-0.481445,-0.85791,0.209473,0
11580,-0.481934,-0.855957,0.198242,0
11600,-0.493652,-0.858887,0.197266,0
11620,-0.489746,-0.849609,0.186035,0
11640,-0.483887,-0.848145,0.191895,0
11660,-0.484375,-0.855469,0.193848,0
11680,-0.501465,-0.869629,0.202637,0
11700,-0.502441,-0.870117,0.20459,0
11720,-0.491211,-0.871582,0.198242,0
11740,-0.489258,-0.866699,0.187012,0
11760,-0.491211,-0.86084,0.196777,0
11780,-0.499512,-0.845215,0.193359,0
11800,-0.496582,-0.842285,0.186523,0
11820,-0.489258,-0.850098,0.195801,0
11830,-0.489746,-0.86084,0.195312,0
11850,-0.493164,-0.870605,0.202148,0
11870,-0.497559,-0.875977,0.200195,0
11890,-0.505859,-0.866211,0.196777,0
11910,-0.506836,-0.851562,0.191406,0
11930,-0.502441,-0.847168,0.188965,0
11950,-0.497559,-0.859375,0.187012,0
11970,-0.49707,-0.860352,0.1875,0
11990,-0.5,-0.858887,0.183105,0
12010,-0.49707,-0.860352,0.191406,0
12030,-0.499023,-0.862305,0.193848,0
12050,-0.49707,-0.853027,0.189941,0
12070,-0.499023,-0.856445,0.192383,0
12090,-0.493652,-0.861816,0.19043,0
12110,-0.501953,-0.861328,0.191406,0
12130,-0.5,-0.862793,0.191406,0
12150,-0.507812,-0.864746,0.182617,0
12170,-0.50293,-0.859863,0.178711,0
12190,-0.504883,-0.847656,0.182617,0
12210,-0.505859,-0.839355,0.184082,0
12230,-0.506836,-0.848145,0.179199,0
12250,-0.509766,-0.849121,0.17627,0
12270,-0.507324,-0.853516,0.17041,0
12290,-0.509766,-0.857422,0.171387,0
12310,-0.505859,-0.864746,0.177246,0
12330,-0.511719,-0.864258,0.183105,0
12350,-0.509766,-0.849609,0.172852,0
12370,-0.49707,-0.846191,0.180176,0
12390,-0.505371,-0.857422,0.18457,0
12410,-0.521973,-0.855469,0.190918,0
12430,-0.51416,-0.860352,0.182617,0
12450,-0.506348,-0.857422,0.168945,0
12470,-0.5,-0.852539,0.172363,0
12490,-0.506348,-0.843262,0.175293,0
12510,-0.506348,-0.848145,0.178711,0
12530,-0.505859,-0.862305,0.183105,0
12550,-0.504883,-0.864258,0.180664,0
12570,-0.505859,-0.860352,0.186035,0
12590,-0.508789,-0.854492,0.177734,0
12610,-0.504395,-0.856445,0.177734,0
12630,-0.505859,-0.856934,0.181641,0
12650,-0.509766,-0.853516,0.18457,0
12670,-0.510254,-0.852051,0.177246,0
12690,-0.506836,-0.864258,0.178711,0
12710,-0.505371,-0.854492,0.183594,0
12730,-0.50293,-0.851562,0.182617,0
12750,-0.503418,-0.852539,0.178223,0
12770,-0.502441,-0.849121,0.180176,0
12790,-0.505859,-0.856934,0.179199,0
12810,-0.504395,-0.861328,0.176758,0
12830,-0.50293,-0.86084,0.188477,0
12850,-0.503418,-0.854492,0.178223,0
12870,-0.499512,-0.851074,0.174805,0
12890,-0.499023,-0.85791,0.180176,0
12910,-0.5,-0.866699,0.180664,0
12930,-0.50293,-0.868164,0.186035,0
12950,-0.503418,-0.86377,0.190918,0
12970,-0.499023,-0.865234,0.185547,0
12990,-0.495605,-0.862305,0.186523,0
13010,-0.496094,-0.851074,0.189453,0
13030,-0.500488,-0.85791,0.18457,0
13050,-0.49707,-0.864258,0.18457,0
13070,-0.50293,-0.86084,0.189941,0
13090,-0.496094,-0.855469,0.185547,0
13110,-0.483887,-0.861328,0.188965,0
13130,-0.497559,-0.864746,0.200195,0
13150,-0.503418,-0.854492,0.208984,0
13170,-0.498535,-0.863281,0.199219,0
13190,-0.491699,-0.861816,0.186035,0
13210,-0.496094,-0.858887,0.182617,0
13230,-0.496582,-0.855957,0.188477,0
13250,-0.497559,-0.85498,0.186035,0
13270,-0.499023,-0.866699,0.186035,0
13290,-0.493164,-0.857422,0.196777,0
13310,-0.492676,-0.856445,0.191895,0
13330,-0.496582,-0.859375,0.188965,0
13350,-0.489258,-0.864258,0.189941,0
13370,-0.495605,-0.854492,0.185059,0
13390,-0.5,-0.856445,0.188965,0
13410,-0.497559,-0.860352,0.192871,0
13430,-0.494141,-0.864746,0.192383,0
13450,-0.493652,-0.864746,0.188477,0
13470,-0.495117,-0.85791,0.185059,0
13490,-0.492676,-0.863281,0.195801,0
13510,-0.490723,-0.858398,0.196777,0
13530,-0.495117,-0.856934,0.193359,0
13550,-0.492676,-0.858398,0.190918,0
13570,-0.495605,-0.862793,0.188965,0
13590,-0.495117,-0.858398,0.193359,0
13610,-0.496582,-0.855469,0.191895,0
13630,-0.496094,-0.860352,0.1875,0
13650,-0.496094,-0.860352,0.1875,0
13670,-0.495605,-0.861328,0.188477,0
13690,-0.495605,-0.862305,0.194824,0
13710,-0.491211,-0.863281,0.187988,0
13730,-0.492676,-0.870117,0.186035,0
13750,-0.487305,-0.858887,0.191406,0
13770,-0.496094,-0.861328,0.195801,0
13790,-0.498535,-0.860352,0.192383,0
13800,-0.48584,-0.856934,0.195801,0
13820,-0.484375,-0.854492,0.191895,0
13840,-0.491699,-0.856445,0.193359,0
13860,-0.49707,-0.858398,0.199707,0
13880,-0.497559,-0.863281,0.200684,0
13900,-0.490234,-0.867676,0.182129,0
13920,-0.489746,-0.865234,0.180176,0
13940,-0.491211,-0.858398,0.187988,0
13960,-0.480957,-0.867676,0.205078,0
13980,-0.497559,-0.873047,0.198242,0
14000,-0.493652,-0.878906,0.203613,0
14020,-0.494629,-0.873535,0.197754,0
14040,-0.495117,-0.858887,0.193359,0
14060,-0.488281,-0.856445,0.196289,0
14080,-0.495605,-0.859863,0.197266,0
14100,-0.494141,-0.855469,0.193359,0
14120,-0.497559,-0.861328,0.19043,0
14140,-0.495117,-0.870117,0.19873,0
14160,-0.494629,-0.859863,0.197754,0
14180,-0.48584,-0.842285,0.190918,0
14200,-0.486816,-0.841797,0.188965,0
14220,-0.486816,-0.841797,0.196289,0
14240,-0.495117,-0.861328,0.194336,0
14260,-0.496582,-0.871094,0.202148,0
14280,-0.480469,-0.880859,0.183594,0
14300,-0.474609,-0.874512,0.178711,0
14320,-0.476074,-0.865723,0.186523,0
14340,-0.488281,-0.874512,0.180176,0
14360,-0.487305,-0.878418,0.162109,0
14380,-0.480957,-0.878418,0.154785,0
14400,-0.485352,-0.892578,0.161621,0
14420,-0.496582,-0.876465,0.191895,0
14440,-0.487793,-0.880371,0.176758,0
14460,-0.485352,-0.900391,0.169922,0
14480,-0.48584,-0.887695,0.172363,0
14500,-0.493652,-0.89502,0.163086,0
14520,-0.494629,-0.851562,0.177246,0
14540,-0.53418,-0.864258,0.137207,0
14560,-0.527832,-0.871094,0.0976562,0
14580,-0.540039,-0.86377,0.0957031,0
14600,-0.53418,-0.81543,0.100098,0
14620,-0.553711,-0.806641,0.0952148,0
14640,-0.544434,-0.846191,0.0986328,0
14660,-0.509277,-0.901855,0.0683594,0
14680,-0.509277,-0.904785,0.0644531,0
14700,-0.51709,-0.888184,0.0888672,0
14720,-0.527832,-0.862793,0.107422,0
14740,-0.53125,-0.853027,0.120117,0
14760,-0.523438,-0.842285,0.129395,0
14780,-0.493164,-0.845215,0.121094,0
14800,-0.489746,-0.876465,0.126953,0
14820,-0.473633,-0.891602,0.133301,0
14840,-0.480957,-0.88916,0.0991211,0
14860,-0.516602,-0.893066,0.0966797,0
14880,-0.547852,-0.874023,0.0986328,0
14900,-0.562012,-0.831543,0.0942383,0
14920,-0.550781,-0.810059,0.105957,0
14940,-0.520996,-0.826172,0.10791,0
14960,-0.504395,-0.839844,0.105957,0
14980,-0.513184,-0.857422,0.111816,0
15000,-0.53125,-0.901855,0.135254,0
15020,-0.536621,-0.936035,0.151367,0
15040,-0.519531,-0.923828,0.133789,0
15060,-0.508301,-0.894043,0.120117,0
15080,-0.50293,-0.876465,0.118652,0
15100,-0.503418,-0.865234,0.109863,0
15120,-0.504883,-0.855957,0.119141,0
15140,-0.507812,-0.853027,0.117676,0
15160,-0.510254,-0.858887,0.128418,0
15180,-0.51709,-0.857422,0.119629,0
15200,-0.515625,-0.849609,0.110352,0
15220,-0.520508,-0.846191,0.108887,0
15240,-0.523438,-0.851074,0.114746,0
15260,-0.527344,-0.861328,0.123047,0
15280,-0.53125,-0.870117,0.115723,0
15300,-0.528809,-0.874023,0.10498,0
15320,-0.517578,-0.872559,0.105957,0
15340,-0.520996,-0.860352,0.102539,0
15360,-0.527832,-0.862793,0.114258,0
15380,-0.534668,-0.869629,0.123535,0
15400,-0.530762,-0.874023,0.120605,0
15420,-0.51416,-0.868652,0.131348,0
15440,-0.514648,-0.861816,0.125,0
15460,-0.520996,-0.86084,0.125977,0
15480,-0.525391,-0.857422,0.123047,0
15500,-0.524414,-0.854492,0.120117,0
15520,-0.522949,-0.855469,0.117676,0
15540,-0.520996,-0.85498,0.111328,0
15560,-0.527344,-0.856934,0.108398,0
15580,-0.520508,-0.865723,0.11377,0
15600,-0.525879,-0.866211,0.106445,0
15620,-0.526855,-0.86377,0.116699,0
15640,-0.524414,-0.857422,0.121094,0
15660,-0.522949,-0.854492,0.11084,0
15680,-0.526855,-0.864258,0.115234,0
15700,-0.520996,-0.853516,0.117676,0
15720,-0.52002,-0.852051,0.11377,0
15740,-0.525391,-0.86084,0.114746,0
15760,-0.521484,-0.856934,0.117676,0
15780,-0.522949,-0.853027,0.12207,0
15800,-0.520508,-0.862793,0.12207,0
15820,-0.520996,-0.870117,0.129883,0
15840,-0.519531,-0.866211,0.121094,0
15860,-0.514648,-0.867676,0.126953,0
15880,-0.512695,-0.865723,0.12793,0
15900,-0.513672,-0.873047,0.128906,0
15920,-0.51416,-0.866699,0.138672,0
15940,-0.512207,-0.863281,0.143066,0
15960,-0.514648,-0.864746,0.14209,0
15980,-0.512207,-0.869629,0.140137,0
16000,-0.509766,-0.859863,0.145508,0
16020,-0.507812,-0.86084,0.146484,0
16040,-0.509766,-0.868652,0.149902,0
16060,-0.507324,-0.865723,0.150391,0
16080,-0.515137,-0.868652,0.147461,0
16100,-0.516113,-0.874023,0.151367,0
16120,-0.509766,-0.874512,0.147949,0
16140,-0.503418,-0.87207,0.153809,0
16160,-0.518555,-0.879395,0.161133,0
16180,-0.500488,-0.895508,0.168945,0
16200,-0.507324,-0.901855,0.166504,0
16220,-0.51709,-0.887207,0.16748,0
16240,-0.506348,-0.873535,0.16748,0
16260,-0.503906,-0.86377,0.155762,0
16280,-0.505371,-0.86084,0.154297,0
16300,-0.504395,-0.861328,0.15332,0
16320,-0.513184,-0.868164,0.140625,0
16340,-0.490234,-0.872559,0.141602,0
16360,-0.481934,-0.883301,0.14209,0
16380,-0.505371,-0.880859,0.145996,0
16400,-0.522949,-0.876953,0.15332,0
16420,-0.521484,-0.859375,0.139648,0
16440,-0.520508,-0.84375,0.132812,0
16460,-0.524414,-0.850586,0.134766,0
16480,-0.521484,-0.865234,0.129395,0
16500,-0.51123,-0.865234,0.114746,0
16520,-0.513184,-0.854004,0.111328,0
16540,-0.511719,-0.840332,0.113281,0
16560,-0.505371,-0.842773,0.11084,0
16580,-0.512207,-0.85791,0.115723,0
16600,-0.52832,-0.871582,0.134277,0
16630,-0.537598,-0.877441,0.135742,0
16650,-0.533203,-0.867676,0.130371,0
16670,-0.52832,-0.857422,0.119629,0
16690,-0.522461,-0.854492,0.112793,0
16710,-0.51709,-0.84668,0.105469,0
16730,-0.51123,-0.838867,0.109863,0
16750,-0.514648,-0.850098,0.119629,0
16770,-0.53418,-0.867188,0.134277,0
16790,-0.532227,-0.877441,0.130371,0
16810,-0.522461,-0.879395,0.129883,0
16830,-0.522461,-0.880859,0.120605,0
16850,-0.527344,-0.865234,0.109375,0
16870,-0.523438,-0.850098,0.104004,0
16890,-0.521484,-0.848145,0.112305,0
16910,-0.52832,-0.844238,0.116211,0
16930,-0.532715,-0.839355,0.117188,0
16950,-0.527832,-0.850098,0.124023,0
16970,-0.541016,-0.868652,0.140625,0
16990,-0.54248,-0.888672,0.137695,0
17010,-0.527832,-0.898926,0.125488,0
17030,-0.523438,-0.901855,0.128906,0
17050,-0.529297,-0.889648,0.132812,0
17070,-0.543457,-0.864258,0.141602,0
17090,-0.553711,-0.842285,0.140137,0
17110,-0.54248,-0.825195,0.140625,0
17130,-0.552734,-0.820312,0.138672,0
17150,-0.568359,-0.810547,0.12793,0
17170,-0.554688,-0.80957,0.120117,0
17190,-0.541504,-0.812988,0.111328,0
17210,-0.544434,-0.834473,0.124023,0
17230,-0.546387,-0.854004,0.129883,0
17250,-0.534668,-0.876953,0.120605,0
17270,-0.508301,-0.887207,0.124512,0
17280,-0.521484,-0.874512,0.133301,0
17300,-0.521484,-0.866699,0.136719,0
17320,-0.497559,-0.891602,0.140137,0
17340,-0.518555,-0.901367,0.140137,0
17360,-0.544434,-0.879883,0.136719,0
17380,-0.535156,-0.849609,0.115723,0
17400,-0.534668,-0.82959,0.106934,0
17420,-0.555176,-0.831055,0.100586,0
17440,-0.550293,-0.834473,0.0981445,0
17460,-0.532715,-0.844727,0.103516,0
17480,-0.540527,-0.863281,0.12207,0
17500,-0.546387,-0.861328,0.126465,0
17520,-0.533203,-0.851562,0.129395,0
17540,-0.531738,-0.847168,0.143555,0
17560,-0.539551,-0.859863,0.147949,0
17580,-0.541992,-0.85498,0.141113,0
17600,-0.541016,-0.841797,0.137695,0
17620,-0.54248,-0.835938,0.127441,0
17640,-0.537598,-0.831055,0.113281,0
17660,-0.532715,-0.82959,0.10498,0
17680,-0.534668,-0.828125,0.0981445,0
17700,-0.538574,-0.844238,0.0991211,0
17720,-0.541016,-0.85498,0.11377,0
17740,-0.533203,-0.859863,0.119629,0
17760,-0.540527,-0.876465,0.139648,0
17780,-0.545898,-0.887207,0.138672,0
17800,-0.54248,-0.876953,0.138672,0
17820,-0.535645,-0.870605,0.134766,0
17840,-0.544434,-0.84668,0.128418,0
17860,-0.54541,-0.826172,0.117188,0
17880,-0.538574,-0.822266,0.113281,0
17900,-0.538086,-0.830566,0.125977,0
17920,-0.540527,-0.842773,0.12793,0
17940,-0.536133,-0.861328,0.133789,0
17960,-0.524414,-0.869629,0.14209,0
17980,-0.522949,-0.875,0.148438,0
18000,-0.519531,-0.872559,0.147949,0
18020,-0.518555,-0.869141,0.145996,0
18040,-0.529785,-0.849121,0.133789,0
18060,-0.539551,-0.835449,0.138184,0
18080,-0.549805,-0.833984,0.144043,0
18100,-0.54834,-0.834961,0.14502,0
18120,-0.543945,-0.848145,0.142578,0
18140,-0.530273,-0.862305,0.132324,0
18160,-0.523438,-0.858887,0.120117,0
18180,-0.512207,-0.852051,0.122559,0
18200,-0.522461,-0.852539,0.140137,0
18220,-0.52832,-0.866211,0.166504,0
18240,-0.521973,-0.877441,0.161133,0
18260,-0.510742,-0.876465,0.164062,0
18280,-0.519043,-0.870605,0.157715,0
18300,-0.532227,-0.855957,0.144531,0
18320,-0.530273,-0.840332,0.143066,0
18340,-0.536133,-0.827148,0.147949,0
18360,-0.539551,-0.836426,0.157715,0
18380,-0.53418,-0.850098,0.161621,0
18400,-0.522461,-0.873047,0.17334,0
18420,-0.51123,-0.878906,0.162598,0
18440,-0.499023,-0.881836,0.146973,0
18460,-0.503418,-0.868164,0.141602,0
18480,-0.531738,-0.864258,0.160645,0
18500,-0.55127,-0.86084,0.161621,0
18520,-0.539551,-0.868164,0.151855,0
18540,-0.507324,-0.862305,0.138672,0
18560,-0.51123,-0.849121,0.141113,0
18580,-0.512207,-0.839844,0.162109,0
18600,-0.519531,-0.849121,0.174805,0
18620,-0.517578,-0.856445,0.169434,0
18640,-0.521484,-0.860352,0.149414,0
18660,-0.526855,-0.851074,0.12793,0
18680,-0.539551,-0.818848,0.116699,0
18700,-0.545898,-0.808594,0.117188,0
18720,-0.54541,-0.835449,0.134766,0
18740,-0.543945,-0.868164,0.139648,0
18760,-0.532227,-0.880371,0.14209,0
18780,-0.506348,-0.870605,0.13623,0
18800,-0.493652,-0.853516,0.163574,0
18820,-0.509277,-0.845703,0.181641,0
18840,-0.519043,-0.854004,0.196289,0
18860,-0.520996,-0.865723,0.185547,0
18880,-0.519043,-0.879395,0.17041,0
18900,-0.510254,-0.886719,0.164062,0
18920,-0.519531,-0.870117,0.143066,0
18940,-0.501465,-0.862305,0.145996,0
18960,-0.505371,-0.839844,0.132812,0
18980,-0.535645,-0.814453,0.131348,0
19000,-0.524902,-0.818848,0.139648,0
19020,-0.523926,-0.863281,0.168457,0
19040,-0.533691,-0.891602,0.18457,0
19060,-0.512207,-0.902832,0.188965,0
19080,-0.5,-0.883301,0.177734,0
19100,-0.496094,-0.847168,0.171387,0
19120,-0.506836,-0.821289,0.15918,0
19140,-0.501953,-0.837891,0.172852,0
19160,-0.495605,-0.864258,0.173828,0
19180,-0.507324,-0.893555,0.192383,0
19200,-0.512695,-0.882324,0.189941,0
19220,-0.513184,-0.857422,0.16748,0
19240,-0.503906,-0.830566,0.152344,0
19260,-0.507812,-0.81543,0.161133,0
19270,-0.540527,-0.837891,0.179199,0
19290,-0.562988,-0.881836,0.196777,0
19310,-0.550781,-0.912109,0.198242,0
19330,-0.512695,-0.89502,0.180664,0
19350,-0.482422,-0.839844,0.15625,0
19370,-0.486816,-0.799316,0.140137,0
19390,-0.483398,-0.808105,0.142578,0
19410,-0.499512,-0.842773,0.157227,0
19430,-0.549805,-0.874023,0.172363,0
19450,-0.541992,-0.909668,0.19043,0
19470,-0.533203,-0.930176,0.204102,0
19490,-0.500977,-0.902832,0.200195,0
19500,-0.442383,-0.889648,0.197266,0
19520,-0.416992,-0.869141,0.199707,0
19540,-0.413086,-0.856934,0.209473,0
19560,-0.430176,-0.851074,0.202637,0
19580,-0.432617,-0.869141,0.179688,0
19600,-0.459961,-0.872559,0.141602,0
19620,-0.495605,-0.86084,0.126465,0
19640,-0.518066,-0.853027,0.119629,0
19660,-0.525391,-0.841797,0.125977,0
19680,-0.520508,-0.832031,0.147949,0
19700,-0.505371,-0.813477,0.160645,0
19720,-0.501953,-0.805176,0.174805,0
19740,-0.522949,-0.822754,0.208984,0
19760,-0.523926,-0.839355,0.215332,0
19780,-0.51709,-0.87207,0.203125,0
19800,-0.513184,-0.90332,0.192871,0
19820,-0.530273,-0.906738,0.179688,0
19840,-0.540527,-0.873047,0.162598,0
19860,-0.606445,-0.816895,0.125977,0
19880,-0.653809,-0.79248,0.10791,0
19900,-0.62207,-0.812012,0.110352,0
19920,-0.547852,-0.851562,0.140625,0
19940,-0.436523,-0.92041,0.162109,0
19960,-0.355957,-0.93457,0.253906,0
19980,-0.374023,-0.889648,0.255371,0
20000,-0.461914,-0.838867,0.25293,0
20020,-0.446289,-0.828125,0.205078,0
20040,-0.529297,-0.816406,0.184082,0
20060,-0.505371,-0.834961,0.141113,0
20080,-0.476562,-0.893555,0.137695,0
20100,-0.465332,-0.913574,0.200195,0
20120,-0.461426,-0.935547,0.231445,0
20140,-0.504395,-0.900879,0.243164,0
20160,-0.548828,-0.858398,0.222168,0
20180,-0.556641,-0.847656,0.203613,0
20200,-0.51709,-0.837891,0.164551,0
20220,-0.507324,-0.834473,0.151855,0
20240,-0.503418,-0.849609,0.164551,0
20260,-0.492676,-0.856934,0.171387,0
20280,-0.507812,-0.854004,0.183594,0
20300,-0.520996,-0.861816,0.193359,0
20320,-0.510742,-0.864258,0.193359,0
20340,-0.488281,-0.867188,0.190918,0
20360,-0.482422,-0.869629,0.205078,0
20380,-0.485352,-0.894043,0.231445,0
20400,-0.472168,-0.899902,0.223633,0
20420,-0.458496,-0.877441,0.20166,0
20440,-0.467285,-0.844727,0.179199,0
20460,-0.511719,-0.820801,0.159668,0
20470,-0.510742,-0.819336,0.14209,0
20490,-0.494629,-0.840332,0.15625,0
20510,-0.503906,-0.867676,0.175293,0
20530,-0.500488,-0.88623,0.195312,0
20550,-0.491211,-0.89502,0.203125,0
20570,-0.481934,-0.883789,0.192383,0
20590,-0.479004,-0.874023,0.167969,0
20610,-0.494141,-0.880371,0.171387,0
20630,-0.521973,-0.885254,0.150879,0
20650,-0.556641,-0.867676,0.12793,0
20670,-0.549316,-0.84668,0.123047,0
20690,-0.528809,-0.811523,0.131348,0
20710,-0.512695,-0.803711,0.159668,0
20730,-0.506836,-0.828613,0.197266,0
20750,-0.507812,-0.859863,0.212891,0
20770,-0.500488,-0.873535,0.202637,0
20790,-0.481445,-0.878906,0.17627,0
20810,-0.491211,-0.872559,0.157715,0
20830,-0.54248,-0.862305,0.160645,0
20850,-0.568848,-0.861816,0.145508,0
20870,-0.571289,-0.855957,0.117676,0
20890,-0.560059,-0.842285,0.12793,0
20910,-0.557617,-0.811035,0.130859,0
20930,-0.545898,-0.792969,0.146973,0
20950,-0.535645,-0.808105,0.163086,0
20970,-0.518555,-0.842285,0.168457,0
20990,-0.507812,-0.866699,0.151367,0
21010,-0.499512,-0.873535,0.15332,0
21030,-0.515625,-0.876953,0.154297,0
21050,-0.514648,-0.858887,0.135254,0
21070,-0.527344,-0.849121,0.137207,0
21090,-0.545898,-0.847656,0.151855,0
21110,-0.533691,-0.826172,0.154785,0
21130,-0.507812,-0.803711,0.14502,0
21150,-0.493652,-0.809082,0.156738,0
21170,-0.492676,-0.841797,0.178711,0
21190,-0.508301,-0.883789,0.187988,0
21210,-0.520996,-0.910156,0.199707,0
21230,-0.541504,-0.917969,0.203125,0
21250,-0.54541,-0.897949,0.198242,0
21270,-0.53418,-0.856445,0.175781,0
21290,-0.507324,-0.82373,0.17041,0
21310,-0.507812,-0.810547,0.166992,0
21330,-0.527344,-0.824219,0.171387,0
21350,-0.549316,-0.838379,0.169434,0
21370,-0.549805,-0.83252,0.182129,0
21390,-0.52832,-0.842285,0.181152,0
21410,-0.491699,-0.865723,0.191406,0
21430,-0.463867,-0.882812,0.203613,0
21450,-0.455566,-0.89502,0.207031,0
21470,-0.48584,-0.865234,0.194824,0
21490,-0.543457,-0.831055,0.164551,0
21510,-0.561035,-0.804199,0.154297,0
21530,-0.561035,-0.809082,0.135254,0
21550,-0.549805,-0.841797,0.144531,0
21570,-0.499023,-0.883301,0.16748,0
21590,-0.445312,-0.899902,0.193359,0
21610,-0.42041,-0.916016,0.220703,0
21630,-0.415039,-0.916016,0.229004,0
21650,-0.467285,-0.881348,0.208496,0
21670,-0.550781,-0.847168,0.175781,0
21690,-0.568359,-0.860352,0.17334,0
21710,-0.556641,-0.87793,0.175293,0
21730,-0.538574,-0.897949,0.172852,0
21750,-0.468262,-0.905762,0.179688,0
21770,-0.413574,-0.887695,0.19873,0
21790,-0.418457,-0.843262,0.21875,0
21810,-0.422852,-0.825195,0.245117,0
21830,-0.449707,-0.833984,0.250488,0
21850,-0.535645,-0.808105,0.231934,0
21870,-0.624512,-0.791992,0.183594,0
21890,-0.634277,-0.811035,0.146484,0
21910,-0.560547,-0.85498,0.134766,0
21930,-0.494141,-0.898926,0.134277,0
21950,-0.460449,-0.916016,0.149902,0
21970,-0.450684,-0.919922,0.180176,0
21990,-0.450684,-0.904785,0.194336,0
22010,-0.447754,-0.864746,0.183594,0
22030,-0.522461,-0.813477,0.18457,0
22050,-0.618652,-0.788574,0.17041,0
22070,-0.652344,-0.803711,0.156738,0
22090,-0.579102,-0.842285,0.151855,0
22110,-0.519043,-0.871094,0.146973,0
22130,-0.446777,-0.866699,0.156738,0
22150,-0.404297,-0.844727,0.168457,0
22170,-0.405762,-0.820801,0.194824,0
22190,-0.42627,-0.814941,0.214355,0
22210,-0.472168,-0.816406,0.206543,0
22230,-0.585938,-0.786133,0.17627,0
22250,-0.678223,-0.785156,0.166504,0
22270,-0.657715,-0.857422,0.185059,0
22290,-0.591309,-0.931641,0.17041,0
22310,-0.468262,-0.943848,0.164551,0
22330,-0.379395,-0.931152,0.177734,0
22350,-0.346191,-0.912598,0.220215,0
22370,-0.410645,-0.861816,0.209961,0
22390,-0.473633,-0.84375,0.243164,0
22410,-0.582031,-0.837402,0.205566,0
22430,-0.666992,-0.808105,0.197266,0
22450,-0.587891,-0.854004,0.172363,0
22470,-0.504883,-0.887695,0.157227,0
22490,-0.421387,-0.882812,0.17041,0
22510,-0.387207,-0.876465,0.196289,0
22530,-0.380859,-0.857422,0.216797,0
22550,-0.385254,-0.851562,0.231445,0
22570,-0.437988,-0.834961,0.217285,0
22590,-0.574707,-0.791016,0.200684,0
22610,-0.687988,-0.78125,0.182617,0
22630,-0.663086,-0.82373,0.177734,0
22650,-0.564453,-0.898438,0.157715,0
22670,-0.452637,-0.923828,0.17041,0
22680,-0.364746,-0.921387,0.199219,0
22700,-0.333984,-0.916504,0.252441,0
22720,-0.414551,-0.865723,0.213379,0
22740,-0.456543,-0.852539,0.224121,0
22760,-0.506348,-0.85498,0.183105,0
22780,-0.689453,-0.793945,0.165039,0
22800,-0.686523,-0.784668,0.167969,0
22820,-0.569824,-0.828613,0.147461,0
22840,-0.46582,-0.852539,0.180664,0
22860,-0.378418,-0.883301,0.223633,0
22880,-0.335938,-0.915039,0.257812,0
22900,-0.389648,-0.884766,0.224609,0
22920,-0.413086,-0.861328,0.19873,0
22940,-0.430664,-0.893066,0.22998,0
22960,-0.581543,-0.874023,0.199219,0
22980,-0.720215,-0.805664,0.153809,0
23000,-0.640625,-0.835938,0.146973,0
23020,-0.532227,-0.859375,0.145996,0
23040,-0.435059,-0.850586,0.180664,0
23060,-0.376465,-0.865234,0.243164,0
23080,-0.348145,-0.899414,0.279785,0
23100,-0.384277,-0.881836,0.248047,0
23120,-0.43457,-0.852539,0.206543,0
23140,-0.435059,-0.897461,0.214844,0
23160,-0.625977,-0.880859,0.182617,0
23180,-0.743652,-0.820312,0.148926,0
23200,-0.645996,-0.849121,0.144043,0
23220,-0.532227,-0.854492,0.125488,0
23240,-0.418945,-0.838867,0.15625,0
23250,-0.359863,-0.856934,0.219238,0
23270,-0.339844,-0.877441,0.272461,0
23290,-0.410645,-0.856934,0.245117,0
23310,-0.454102,-0.83252,0.241699,0
23330,-0.486328,-0.85791,0.241211,0
23350,-0.655273,-0.821777,0.204102,0
23370,-0.71875,-0.806152,0.160156,0
23390,-0.594238,-0.850098,0.133301,0
23410,-0.480469,-0.866211,0.129395,0
23430,-0.367676,-0.872559,0.174316,0
23450,-0.333984,-0.90332,0.23291,0
23470,-0.32373,-0.910156,0.254883,0
23490,-0.412598,-0.857422,0.213379,0
23510,-0.410645,-0.85791,0.197754,0
23530,-0.550293,-0.836426,0.233887,0
23550,-0.728516,-0.80957,0.216309,0
23570,-0.714355,-0.853516,0.202637,0
23590,-0.588379,-0.902832,0.163574,0
23610,-0.462891,-0.902344,0.17041,0
23630,-0.360352,-0.895996,0.195312,0
23650,-0.354004,-0.890625,0.22998,0
23670,-0.344238,-0.875488,0.239258,0
23690,-0.37207,-0.856445,0.22168,0
23710,-0.464844,-0.843262,0.219727,0
23730,-0.594238,-0.841309,0.210449,0
23750,-0.703125,-0.825195,0.193359,0
23770,-0.6875,-0.828613,0.180176,0
23790,-0.559082,-0.84668,0.157227,0
23810,-0.455566,-0.847168,0.167969,0
23830,-0.358887,-0.847656,0.205078,0
23850,-0.343262,-0.869629,0.242188,0
23870,-0.361328,-0.881836,0.260254,0
23890,-0.432129,-0.870117,0.246582,0
23910,-0.541992,-0.826172,0.206543,0
23930,-0.648926,-0.794434,0.193848,0
23950,-0.644531,-0.822754,0.187012,0
23970,-0.561523,-0.866699,0.151855,0
23990,-0.45166,-0.890625,0.175293,0
24010,-0.354492,-0.916992,0.199707,0
24030,-0.346191,-0.921387,0.236328,0
24050,-0.35791,-0.899902,0.243652,0
24070,-0.401367,-0.871094,0.222168,0
24090,-0.483887,-0.837402,0.208984,0
24110,-0.628906,-0.803223,0.200195,0
24130,-0.709961,-0.783691,0.214355,0
24150,-0.63623,-0.837402,0.204102,0
24170,-0.522949,-0.873047,0.189453,0
24190,-0.39209,-0.876465,0.201172,0
24210,-0.330566,-0.888184,0.240234,0
24230,-0.307617,-0.886719,0.268555,0
24250,-0.396973,-0.859375,0.215332,0
24270,-0.44043,-0.847168,0.209961,0
24290,-0.467773,-0.877441,0.211426,0
24310,-0.625488,-0.831543,0.191895,0
24330,-0.678223,-0.804688,0.208984,0
24350,-0.599609,-0.837402,0.231934,0
24370,-0.487793,-0.85498,0.224121,0
24390,-0.364746,-0.874512,0.23291,0
24410,-0.3125,-0.898438,0.260742,0
24430,-0.318359,-0.894043,0.250488,0
24450,-0.421387,-0.866699,0.22168,0
24470,-0.435547,-0.89502,0.227051,0
24490,-0.522949,-0.896973,0.199219,0
24510,-0.684082,-0.822266,0.16748,0
24530,-0.686523,-0.806152,0.196777,0
24550,-0.563477,-0.84375,0.202637,0
24570,-0.441895,-0.847168,0.235352,0
24590,-0.328125,-0.87793,0.262695,0
24610,-0.297363,-0.905762,0.266602,0
24630,-0.35791,-0.885254,0.249512,0
24650,-0.397461,-0.895996,0.248047,0
24670,-0.425293,-0.90918,0.220703,0
24680,-0.609375,-0.864258,0.177734,0
24700,-0.716309,-0.831055,0.150391,0
24720,-0.573242,-0.895508,0.131348,0
24740,-0.458984,-0.911621,0.0483398,0
24760,-0.40332,-0.911621,0.102051,0
24780,-0.361816,-0.987793,0.166504,0
24810,-0.284668,-0.935059,0.200684,0
24830,-0.382812,-0.938477,0.0947266,0
24850,-0.418945,-0.973145,0.104004,0
24870,-0.458496,-0.980957,0.0976562,0
24890,-0.500488,-0.902344,0.0405273,0
24910,-0.535645,-0.913574,-0.0180664,0
24930,-0.54834,-0.847656,-0.0351562,0
24950,-0.538574,-0.717773,0.00585938,0
24970,-0.540527,-0.725098,0.0483398,0
24990,-0.527832,-0.819824,0.0644531,0
25010,-0.477539,-0.864258,0.0380859,0
25030,-0.435547,-0.873047,0.0712891,0
25050,-0.485352,-0.831055,0.090332,0
25070,-0.625,-0.762207,0.104492,0
25090,-0.688477,-0.719238,0.206543,0
25110,-0.638184,-0.734375,0.231445,0
25130,-0.495605,-0.757812,0.231445,0
25150,-0.378906,-0.78125,0.22168,0
25170,-0.382812,-0.799316,0.21582,0
25190,-0.358887,-0.913574,0.26709,0
25210,-0.337402,-1.02832,0.258789,0
25230,-0.34375,-1.08789,0.263184,0
25250,-0.354492,-1.08887,0.272461,0
25270,-0.45166,-1.03516,0.304199,0
25290,-0.52002,-0.927246,0.3125,0
25310,-0.424316,-0.853516,0.319336,0
25330,-0.298828,-0.827148,0.300293,0
25350,-0.299805,-0.806152,0.280273,0
25370,-0.330078,-0.821777,0.349121,0
25390,-0.324707,-0.869141,0.378906,0
25410,-0.34668,-0.890625,0.404297,0
25430,-0.359863,-0.883789,0.421387,0
25450,-0.415527,-0.85791,0.433594,0
25470,-0.552734,-0.796387,0.400391,0
25490,-0.507812,-0.769043,0.370117,0
25510,-0.376953,-0.765625,0.330078,0
25530,-0.300781,-0.79541,0.334473,0
25550,-0.273438,-0.849609,0.342285,0
25570,-0.299316,-0.874023,0.332031,0
25590,-0.365234,-0.862793,0.338867,0
25610,-0.351562,-0.876953,0.348633,0
25630,-0.441895,-0.852539,0.337891,0
25650,-0.602539,-0.795898,0.365234,0
25670,-0.61084,-0.796875,0.380371,0
25690,-0.47998,-0.805664,0.369141,0
25710,-0.333496,-0.800781,0.370117,0
25730,-0.243652,-0.824707,0.376465,0
25750,-0.265137,-0.855469,0.357422,0
25770,-0.356934,-0.874512,0.347168,0
25790,-0.341309,-0.909668,0.320312,0
25810,-0.348633,-0.908691,0.300781,0
25830,-0.482422,-0.867188,0.322754,0
25850,-0.635254,-0.810059,0.346191,0
25870,-0.563965,-0.803711,0.379883,0
25890,-0.399414,-0.818359,0.362793,0
25910,-0.281738,-0.825684,0.379395,0
25930,-0.231934,-0.845215,0.36377,0
25950,-0.299316,-0.838867,0.354004,0
25970,-0.333984,-0.855469,0.347656,0
25990,-0.347168,-0.88623,0.331543,0
26010,-0.411621,-0.862793,0.29541,0
26030,-0.59375,-0.808594,0.303223,0
26050,-0.633301,-0.788574,0.341309,0
26070,-0.499023,-0.802246,0.344238,0
26090,-0.363281,-0.812988,0.364258,0
26110,-0.259766,-0.836914,0.395508,0
26130,-0.230469,-0.878418,0.381836,0
26150,-0.310059,-0.880371,0.37207,0
26170,-0.328125,-0.881836,0.333496,0
26190,-0.362793,-0.896973,0.30957,0
26210,-0.564453,-0.843262,0.278809,0
26230,-0.691406,-0.791016,0.283203,0
26250,-0.564453,-0.79248,0.291016,0
26270,-0.419922,-0.805664,0.305176,0
26290,-0.303711,-0.812012,0.366211,0
26310,-0.22998,-0.860352,0.407227,0
26330,-0.231934,-0.89209,0.380859,0
26350,-0.315918,-0.877441,0.379395,0
26370,-0.315918,-0.879883,0.337402,0
26390,-0.348145,-0.900391,0.314941,0
26410,-0.499023,-0.861328,0.296387,0
26430,-0.679688,-0.817871,0.299316,0
26450,-0.638672,-0.799805,0.304688,0
26470,-0.459473,-0.793457,0.284668,0
26490,-0.351562,-0.791992,0.322754,0
26510,-0.272461,-0.817871,0.370117,0
26530,-0.248047,-0.870605,0.375488,0
26550,-0.334473,-0.894043,0.375977,0
26570,-0.372559,-0.911621,0.36084,0
26590,-0.473145,-0.905273,0.32959,0
26610,-0.536133,-0.864258,0.313477,0
26630,-0.481445,-0.857422,0.291504,0
26650,-0.427246,-0.851562,0.294434,0
26670,-0.350586,-0.82959,0.307617,0
26690,-0.302246,-0.820801,0.326172,0
26710,-0.299805,-0.821289,0.344727,0
26730,-0.339355,-0.817383,0.364746,0
26750,-0.477051,-0.798828,0.365723,0
26770,-0.622559,-0.800293,0.359863,0
26790,-0.626953,-0.82959,0.338379,0
26810,-0.499512,-0.870605,0.30957,0
26830,-0.367188,-0.871094,0.300293,0
26850,-0.26416,-0.883789,0.304688,0
26870,-0.230469,-0.899414,0.305664,0
26890,-0.305664,-0.87207,0.297363,0
26910,-0.348633,-0.835938,0.30127,0
26930,-0.348145,-0.878906,0.324219,0
26950,-0.428223,-0.867188,0.345703,0
26970,-0.617188,-0.830078,0.317871,0
26990,-0.663086,-0.830078,0.330566,0
27010,-0.508789,-0.833008,0.295898,0
27030,-0.378906,-0.832031,0.288086,0
27050,-0.299316,-0.840332,0.311035,0
27070,-0.257324,-0.875488,0.322266,0
27090,-0.321777,-0.881348,0.313965,0
27110,-0.388184,-0.858887,0.324707,0
27130,-0.375,-0.884766,0.313477,0
27150,-0.535645,-0.838867,0.27832,0
27170,-0.693359,-0.79541,0.270508,0
27190,-0.637695,-0.805176,0.274902,0
27210,-0.477051,-0.811523,0.255859,0
27230,-0.361328,-0.827148,0.271484,0
27250,-0.264648,-0.860352,0.31543,0
27270,-0.248047,-0.896484,0.318848,0
27290,-0.358398,-0.880371,0.319336,0
27310,-0.36377,-0.874512,0.311523,0
27330,-0.383301,-0.896484,0.301758,0
27350,-0.534668,-0.845215,0.280762,0
27370,-0.693848,-0.797852,0.257812,0
27390,-0.626465,-0.809082,0.262695,0
27410,-0.478516,-0.811523,0.23877,0
27430,-0.385254,-0.822266,0.251953,0
27450,-0.307129,-0.854492,0.285645,0
27470,-0.283691,-0.896973,0.315918,0
27490,-0.311035,-0.902832,0.327148,0
27510,-0.376953,-0.890137,0.315918,0
27530,-0.494629,-0.858398,0.282227,0
27550,-0.649902,-0.805176,0.266113,0
27570,-0.67041,-0.786133,0.265137,0
27590,-0.543945,-0.817383,0.250977,0
27610,-0.425781,-0.838379,0.255859,0
27630,-0.326172,-0.846191,0.291992,0
27650,-0.275391,-0.888672,0.325195,0
27670,-0.276367,-0.909668,0.32959,0
27690,-0.340332,-0.888672,0.322266,0
27710,-0.407227,-0.882812,0.301758,0
27730,-0.54834,-0.84375,0.276855,0
27750,-0.688965,-0.793457,0.258301,0
27770,-0.658203,-0.78125,0.266602,0
27790,-0.504395,-0.802246,0.253906,0
27810,-0.397949,-0.817871,0.260254,0
27830,-0.309082,-0.851562,0.301758,0
27850,-0.27832,-0.911133,0.33252,0
27870,-0.305176,-0.928711,0.331543,0
27890,-0.401367,-0.895508,0.312012,0
27910,-0.477539,-0.854004,0.26709,0
27930,-0.632812,-0.78125,0.235352,0
27950,-0.647461,-0.750488,0.25,0
27970,-0.53418,-0.800293,0.25293,0
27990,-0.426758,-0.830078,0.286621,0
28010,-0.318359,-0.854492,0.327148,0
28030,-0.267578,-0.904785,0.364258,0
28050,-0.280273,-0.925781,0.342773,0
28070,-0.364258,-0.884277,0.313965,0
28090,-0.356934,-0.894043,0.288086,0
28110,-0.495117,-0.877441,0.272461,0
28120,-0.666504,-0.809082,0.248047,0
28140,-0.669922,-0.794922,0.249023,0
28160,-0.523438,-0.79248,0.23877,0
28180,-0.414551,-0.80127,0.256348,0
28200,-0.328613,-0.834961,0.314941,0
28220,-0.287109,-0.881348,0.363281,0
28240,-0.287109,-0.922363,0.366211,0
28260,-0.345215,-0.915527,0.351562,0
28280,-0.448242,-0.866699,0.304199,0
28300,-0.601074,-0.811035,0.257324,0
28320,-0.665039,-0.789551,0.254395,0
28340,-0.581055,-0.8125,0.245117,0
28360,-0.470703,-0.81543,0.223633,0
28380,-0.352539,-0.823242,0.26416,0
28400,-0.282715,-0.862793,0.320312,0
28420,-0.270508,-0.907715,0.363281,0
28440,-0.307617,-0.911133,0.367676,0
28460,-0.39502,-0.89502,0.338867,0
28480,-0.464844,-0.867676,0.308105,0
28500,-0.637207,-0.813965,0.273926,0
28520,-0.652344,-0.791992,0.263184,0
28540,-0.530273,-0.815918,0.233398,0
28560,-0.439453,-0.822266,0.223633,0
28580,-0.352539,-0.835449,0.260254,0
28600,-0.290527,-0.866211,0.297363,0
28620,-0.274902,-0.901367,0.327637,0
28640,-0.375,-0.871582,0.358887,0
28660,-0.413574,-0.870117,0.350586,0
28680,-0.562012,-0.848633,0.332031,0
28700,-0.679688,-0.800781,0.311523,0
28720,-0.564453,-0.811523,0.260742,0
28740,-0.442871,-0.80957,0.229492,0
28760,-0.345703,-0.813965,0.260254,0
28780,-0.287598,-0.862305,0.299316,0
28800,-0.271973,-0.908203,0.313477,0
28820,-0.342285,-0.891602,0.318359,0
28840,-0.361816,-0.893066,0.330566,0
28860,-0.41748,-0.886719,0.331055,0
28880,-0.605469,-0.820312,0.33252,0
28900,-0.660645,-0.811035,0.312012,0
28920,-0.539551,-0.816406,0.291016,0
28940,-0.413574,-0.803711,0.260254,0
28960,-0.318359,-0.816406,0.289551,0
28980,-0.280762,-0.866211,0.3125,0
29000,-0.302246,-0.894531,0.304199,0
29020,-0.331543,-0.888672,0.311035,0
29040,-0.386719,-0.886719,0.292969,0
29060,-0.544434,-0.84668,0.290527,0
29080,-0.68457,-0.815918,0.30957,0
29100,-0.63916,-0.829102,0.327637,0
29120,-0.487305,-0.847168,0.295898,0
29140,-0.348633,-0.851562,0.304199,0
29160,-0.255371,-0.869629,0.322754,0
29180,-0.23584,-0.893555,0.321777,0
29200,-0.364258,-0.870117,0.308105,0
29220,-0.360352,-0.88916,0.311035,0
29240,-0.414062,-0.887695,0.313965,0
29260,-0.600098,-0.806152,0.293457,0
29280,-0.664062,-0.78418,0.315918,0
29300,-0.533203,-0.797363,0.326172,0
29320,-0.409668,-0.798828,0.324219,0
29340,-0.317383,-0.833008,0.350098,0
29360,-0.251953,-0.890137,0.358398,0
29380,-0.296387,-0.908691,0.324707,0
29400,-0.344238,-0.880371,0.317383,0
29420,-0.380859,-0.88916,0.284668,0
29440,-0.553711,-0.846191,0.246094,0
29460,-0.678711,-0.785156,0.240234,0
29480,-0.653809,-0.788574,0.262695,0
29500,-0.525879,-0.802734,0.274414,0
29520,-0.407715,-0.813477,0.306152,0
29540,-0.300293,-0.831543,0.336426,0
29560,-0.254883,-0.874023,0.35498,0
29580,-0.272461,-0.895508,0.339844,0
29600,-0.376465,-0.880371,0.322266,0
29620,-0.466309,-0.872559,0.28418,0
29640,-0.645996,-0.817383,0.236816,0
29660,-0.67334,-0.795898,0.246582,0
29680,-0.556152,-0.813965,0.231445,0
29700,-0.432129,-0.825195,0.266113,0
29720,-0.32373,-0.853027,0.317871,0
29740,-0.279297,-0.89209,0.354492,0
29760,-0.260742,-0.912109,0.36084,0
29780,-0.348633,-0.887207,0.336914,0
29800,-0.42334,-0.861816,0.291016,0
29820,-0.579102,-0.816895,0.250977,0
29840,-0.681152,-0.768555,0.243652,0
29860,-0.599609,-0.788086,0.234375,0
29880,-0.488281,-0.813965,0.239258,0
29900,-0.388672,-0.835938,0.288086,0
29920,-0.311523,-0.870117,0.346191,0
29940,-0.291504,-0.915527,0.358398,0
29960,-0.308105,-0.921387,0.362793,0
29980,-0.381348,-0.885742,0.343262,0
30000,-0.551758,-0.845215,0.279297,0
30020,-0.673828,-0.808594,0.263184,0
30040,-0.637207,-0.802246,0.237793,0
30060,-0.51709,-0.812988,0.228027,0
30080,-0.403809,-0.820801,0.248047,0
30100,-0.333496,-0.848145,0.297363,0
30120,-0.313477,-0.875977,0.334473,0
30130,-0.296387,-0.900879,0.357422,0
30150,-0.334961,-0.89209,0.349121,0
30170,-0.449707,-0.855469,0.310059,0
30190,-0.587402,-0.819336,0.289551,0
30210,-0.624023,-0.813477,0.282227,0
30230,-0.570801,-0.824707,0.258301,0
30250,-0.480469,-0.838867,0.263184,0
30270,-0.411621,-0.837402,0.253418,0
30290,-0.359863,-0.849609,0.279297,0
30310,-0.372559,-0.880371,0.286621,0
30330,-0.377441,-0.875977,0.291016,0
30350,-0.443359,-0.870605,0.280762,0
30370,-0.518555,-0.871094,0.258301,0
30390,-0.521484,-0.851562,0.246582,0
30410,-0.502441,-0.82959,0.240234,0
30430,-0.463379,-0.814941,0.237793,0
30450,-0.425293,-0.812988,0.22998,0
30470,-0.40918,-0.858887,0.237793,0
30490,-0.405762,-0.898926,0.261719,0
30510,-0.416016,-0.925781,0.282227,0
30530,-0.436035,-0.906738,0.294434,0
30550,-0.436523,-0.850586,0.271973,0
30570,-0.424316,-0.814453,0.260742,0
30590,-0.430664,-0.827148,0.259766,0
30610,-0.45166,-0.842285,0.241699,0
30630,-0.451172,-0.865234,0.234863,0
30650,-0.45459,-0.876465,0.241699,0
30670,-0.478027,-0.86377,0.259277,0
30690,-0.494629,-0.851074,0.259766,0
30710,-0.511719,-0.840332,0.254395,0
30730,-0.508301,-0.837891,0.224121,0
30750,-0.515137,-0.812988,0.208984,0
30770,-0.530273,-0.802246,0.199707,0
30790,-0.539551,-0.800293,0.187012,0
30810,-0.521484,-0.819824,0.174805,0
30830,-0.466797,-0.85498,0.19043,0
30850,-0.464355,-0.869141,0.223145,0
30870,-0.460938,-0.873047,0.248535,0
30890,-0.45752,-0.875488,0.260742,0
30910,-0.444824,-0.870117,0.249512,0
30930,-0.440918,-0.871094,0.248047,0
30950,-0.44873,-0.869629,0.246094,0
30970,-0.451172,-0.862305,0.245117,0
30990,-0.444336,-0.861816,0.23584,0
31010,-0.447754,-0.869141,0.242188,0
31030,-0.462402,-0.87207,0.257812,0
31050,-0.458008,-0.870117,0.262207,0
31070,-0.44043,-0.875,0.262207,0
31090,-0.43457,-0.880859,0.271484,0
31110,-0.448242,-0.872559,0.265625,0
31130,-0.447754,-0.858887,0.266602,0
31150,-0.448242,-0.861816,0.257324,0
31170,-0.459473,-0.853516,0.242676,0
31190,-0.460449,-0.835449,0.249023,0
31210,-0.464355,-0.832031,0.271973,0
31230,-0.462891,-0.842285,0.285645,0
31250,-0.452637,-0.835449,0.280273,0
31270,-0.43457,-0.820312,0.272949,0
31290,-0.420898,-0.810547,0.280762,0
31310,-0.418457,-0.814941,0.290527,0
31330,-0.424316,-0.846191,0.290527,0
31350,-0.423828,-0.870117,0.286621,0
31370,-0.416504,-0.880859,0.282715,0
31390,-0.406738,-0.885742,0.294922,0
31410,-0.397949,-0.884277,0.29834,0
31430,-0.395508,-0.889648,0.315918,0
31450,-0.407227,-0.893066,0.336914,0
31470,-0.417969,-0.888672,0.345703,0
31490,-0.416016,-0.87793,0.341797,0
31510,-0.413086,-0.865234,0.33252,0
31530,-0.424805,-0.862793,0.319824,0
31550,-0.431641,-0.842285,0.31543,0
31570,-0.417969,-0.822754,0.306641,0
31590,-0.411133,-0.82373,0.317383,0
31610,-0.403809,-0.837891,0.327148,0
31630,-0.402832,-0.855957,0.330078,0
31650,-0.409668,-0.862305,0.333984,0
31670,-0.419922,-0.849121,0.329102,0
31690,-0.458984,-0.827637,0.3125,0
31710,-0.478027,-0.820312,0.318848,0
31730,-0.480957,-0.819336,0.30127,0
31750,-0.447754,-0.830078,0.307617,0
31770,-0.376465,-0.857422,0.321777,0
31790,-0.324707,-0.875,0.332031,0
31810,-0.33252,-0.873535,0.325195,0
31830,-0.365234,-0.872559,0.332031,0
31850,-0.390137,-0.875,0.354492,0
31870,-0.401367,-0.874023,0.337402,0
31890,-0.38623,-0.871582,0.316406,0
31910,-0.390625,-0.86084,0.305176,0
31930,-0.42334,-0.846191,0.313965,0
31950,-0.434082,-0.843262,0.332031,0
31970,-0.398926,-0.852539,0.330078,0
31990,-0.345215,-0.861816,0.331543,0
32010,-0.31543,-0.870117,0.330078,0
32030,-0.313965,-0.865234,0.335938,0
32050,-0.327148,-0.851562,0.347168,0
32070,-0.365234,-0.836426,0.34082,0
32090,-0.507324,-0.825684,0.326172,0
32100,-0.479004,-0.867676,0.301758,0
32120,-0.405273,-0.874023,0.311035,0
32140,-0.292969,-0.89209,0.329102,0
32160,-0.233398,-0.895996,0.353027,0
32180,-0.238281,-0.875,0.383301,0
32200,-0.278809,-0.862305,0.384277,0
32220,-0.313477,-0.871582,0.367676,0
32240,-0.427734,-0.870605,0.344238,0
32260,-0.590332,-0.833008,0.311035,0
32280,-0.626953,-0.826172,0.304199,0
32300,-0.513184,-0.841309,0.276855,0
32320,-0.402344,-0.851562,0.271973,0
32340,-0.30957,-0.856445,0.305176,0
32360,-0.258301,-0.871582,0.340332,0
32380,-0.264648,-0.884766,0.350098,0
32400,-0.325684,-0.86377,0.35498,0
32420,-0.328125,-0.890625,0.333008,0
32440,-0.443359,-0.847168,0.318848,0
32460,-0.620117,-0.811035,0.291016,0
32480,-0.585938,-0.82373,0.274902,0
32500,-0.456055,-0.844727,0.251465,0
32520,-0.385742,-0.870605,0.273926,0
32540,-0.325684,-0.898926,0.314941,0
32560,-0.29248,-0.919922,0.33252,0
32580,-0.334961,-0.88623,0.318848,0
32600,-0.333008,-0.86084,0.29834,0
32620,-0.386719,-0.845215,0.296387,0
32640,-0.582031,-0.777344,0.29248,0
32660,-0.627441,-0.794922,0.288574,0
32680,-0.519531,-0.821777,0.258789,0
32700,-0.422852,-0.820312,0.258789,0
32720,-0.345215,-0.82666,0.272461,0
32740,-0.294922,-0.857422,0.313965,0
32760,-0.306152,-0.902344,0.324707,0
32780,-0.393066,-0.883301,0.3125,0
32800,-0.383301,-0.901855,0.293945,0
32820,-0.529785,-0.880371,0.260742,0
32840,-0.679688,-0.806641,0.254883,0
32860,-0.615234,-0.824707,0.245605,0
32880,-0.48291,-0.837402,0.231445,0
32900,-0.386719,-0.834961,0.260254,0
32920,-0.3125,-0.862305,0.287109,0
32940,-0.345215,-0.859863,0.279785,0
32960,-0.405762,-0.831543,0.29248,0
32980,-0.400879,-0.861328,0.26709,0
33000,-0.433105,-0.871582,0.287109,0
33020,-0.559082,-0.847168,0.279785,0
33040,-0.682129,-0.835449,0.269531,0
33060,-0.552734,-0.86377,0.263184,0
33080,-0.413086,-0.862793,0.219238,0
33100,-0.312012,-0.851562,0.256836,0
33120,-0.307617,-0.862305,0.275391,0
33140,-0.388672,-0.833008,0.270996,0
33160,-0.365723,-0.833984,0.255371,0
33180,-0.394531,-0.876465,0.244141,0
33200,-0.45166,-0.882324,0.255859,0
33220,-0.638672,-0.833008,0.23584,0
33240,-0.673828,-0.822754,0.269531,0
33260,-0.550293,-0.84082,0.253418,0
33280,-0.420898,-0.833008,0.255371,0
33300,-0.306152,-0.860352,0.284668,0
33320,-0.26709,-0.90332,0.299316,0
33340,-0.374512,-0.912598,0.279297,0
33360,-0.421387,-0.898926,0.276855,0
33380,-0.469238,-0.894043,0.236816,0
33400,-0.663574,-0.823242,0.200195,0
33420,-0.705078,-0.794922,0.221191,0
33440,-0.597168,-0.825195,0.233398,0
33460,-0.478516,-0.827637,0.23877,0
33480,-0.330566,-0.844727,0.271484,0
33500,-0.255859,-0.861816,0.301758,0
33520,-0.335449,-0.821289,0.298828,0
33530,-0.377441,-0.785156,0.299805,0
33550,-0.398438,-0.824219,0.304199,0
33570,-0.470215,-0.860352,0.266113,0
33590,-0.647949,-0.817383,0.226074,0
33610,-0.723145,-0.824707,0.234375,0
33630,-0.612305,-0.853027,0.224121,0
33650,-0.478027,-0.850098,0.204102,0
33670,-0.352539,-0.86377,0.241211,0
33690,-0.290527,-0.88916,0.290527,0
33710,-0.288574,-0.900879,0.318848,0
33730,-0.406738,-0.87793,0.30127,0
33750,-0.428223,-0.884277,0.280273,0
33770,-0.541992,-0.891602,0.253418,0
33790,-0.762695,-0.847656,0.291504,0
33810,-0.714844,-0.903809,0.320801,0
33830,-0.547363,-0.852051,0.254883,0
33850,-0.380371,-0.762695,0.243652,0
33870,-0.379883,-0.790527,0.271484,0
33890,-0.390137,-0.847168,0.288574,0
33910,-0.302734,-0.931641,0.258789,0
33930,-0.290039,-0.907227,0.206055,0
33950,-0.341309,-0.815918,0.216797,0
33970,-0.362305,-0.827637,0.241211,0
33990,-0.404785,-0.852539,0.244141,0
34010,-0.501953,-0.861816,0.251465,0
34030,-0.580566,-0.879883,0.263672,0
34050,-0.597168,-0.861328,0.245117,0
34070,-0.602051,-0.801758,0.23291,0
34090,-0.560547,-0.770508,0.216309,0
34110,-0.503418,-0.793457,0.227051,0
34130,-0.437012,-0.84668,0.22168,0
34150,-0.400391,-0.89502,0.240723,0
34170,-0.385254,-0.91748,0.257812,0
34190,-0.396484,-0.889648,0.267578,0
34210,-0.430176,-0.84668,0.271484,0
34230,-0.473633,-0.824707,0.267578,0
34250,-0.46875,-0.82373,0.265137,0
34270,-0.445801,-0.851074,0.256836,0
34290,-0.450195,-0.887207,0.249512,0
34310,-0.451172,-0.883301,0.26123,0
34330,-0.427246,-0.864746,0.277832,0
34350,-0.431641,-0.85791,0.273438,0
34370,-0.437988,-0.840332,0.266602,0
34390,-0.434082,-0.837891,0.263672,0
34410,-0.422363,-0.851562,0.266602,0
34430,-0.448242,-0.848633,0.262695,0
34450,-0.53418,-0.838867,0.229004,0
34470,-0.556641,-0.839844,0.200684,0
34490,-0.544922,-0.840332,0.196777,0
34510,-0.547363,-0.827637,0.19873,0
34530,-0.533691,-0.822266,0.213379,0
34550,-0.52002,-0.830078,0.229492,0
34570,-0.504395,-0.843262,0.238281,0
34590,-0.478516,-0.84668,0.255371,0
34610,-0.455566,-0.838867,0.281738,0
34630,-0.435547,-0.849121,0.324707,0
34650,-0.427734,-0.866699,0.337891,0
34670,-0.430176,-0.876465,0.342773,0
34690,-0.421387,-0.867188,0.322266,0
34710,-0.415039,-0.864258,0.308594,0
34730,-0.431152,-0.842285,0.276855,0
34750,-0.487305,-0.831055,0.237305,0
34770,-0.488281,-0.84082,0.214355,0
34790,-0.473633,-0.870605,0.234375,0
34810,-0.456543,-0.870117,0.271484,0
34830,-0.428711,-0.859863,0.322266,0
34850,-0.417969,-0.837402,0.342285,0
34870,-0.436523,-0.800781,0.31543,0
34890,-0.494629,-0.797852,0.263672,0
34910,-0.541016,-0.819336,0.222168,0
34930,-0.546387,-0.838379,0.200684,0
34950,-0.534668,-0.854004,0.206055,0
34970,-0.486816,-0.848145,0.236328,0
34990,-0.428223,-0.848145,0.292969,0
35010,-0.408203,-0.85498,0.329102,0
35030,-0.412109,-0.863281,0.324219,0
35050,-0.446289,-0.855957,0.291992,0
35070,-0.493652,-0.846191,0.260742,0
35090,-0.510742,-0.848633,0.241211,0
35110,-0.486816,-0.851074,0.242188,0
35130,-0.46875,-0.850098,0.256348,0
35150,-0.451172,-0.853027,0.272461,0
35170,-0.449707,-0.85498,0.299805,0
35190,-0.442871,-0.85498,0.315918,0
35210,-0.445801,-0.84082,0.322754,0
35230,-0.456543,-0.834473,0.309082,0
35250,-0.460449,-0.828125,0.296387,0
35270,-0.455078,-0.82666,0.282227,0
35290,-0.458496,-0.833496,0.279297,0
35310,-0.464844,-0.849121,0.279297,0
35330,-0.469727,-0.844727,0.268066,0
35350,-0.473145,-0.830566,0.279297,0
35370,-0.475098,-0.830078,0.270996,0
35390,-0.469238,-0.837891,0.269531,0
35410,-0.461914,-0.844238,0.281738,0
35430,-0.458984,-0.848633,0.282715,0
35450,-0.454102,-0.853516,0.287109,0
35470,-0.447754,-0.84668,0.285645,0
35490,-0.451172,-0.849609,0.293945,0
35510,-0.44873,-0.848633,0.289551,0
35520,-0.452148,-0.849609,0.290527,0
35540,-0.457031,-0.836426,0.290039,0
35560,-0.449219,-0.82959,0.282715,0
35580,-0.446289,-0.833984,0.289551,0
35600,-0.465332,-0.847168,0.29834,0
35620,-0.462402,-0.850586,0.291016,0
35640,-0.450195,-0.850098,0.287598,0
35660,-0.450195,-0.849609,0.289551,0
35680,-0.451172,-0.847656,0.291504,0
35700,-0.453613,-0.837891,0.302246,0
35720,-0.45166,-0.833008,0.307617,0
35740,-0.452148,-0.841797,0.30127,0
35760,-0.451172,-0.838379,0.302734,0
35780,-0.443359,-0.833008,0.29834,0
35800,-0.439453,-0.839844,0.29541,0
35820,-0.443359,-0.845215,0.28418,0
35840,-0.452637,-0.831543,0.299316,0
35860,-0.446777,-0.839844,0.307129,0
35880,-0.449707,-0.849609,0.299316,0
35900,-0.445312,-0.855469,0.296387,0
35920,-0.439453,-0.849121,0.29834,0
35940,-0.439941,-0.835938,0.302246,0
35960,-0.438965,-0.842285,0.314453,0
35980,-0.440918,-0.847168,0.31543,0
36000,-0.440918,-0.84668,0.312988,0
36020,-0.436035,-0.851074,0.312988,0
36040,-0.44043,-0.847656,0.31543,0
36060,-0.438965,-0.841309,0.308594,0
36080,-0.435059,-0.838379,0.319336,0
36100,-0.443359,-0.841797,0.312012,0
36120,-0.443848,-0.845703,0.310059,0
36140,-0.433105,-0.837402,0.312988,0
36160,-0.4375,-0.827637,0.31543,0
36180,-0.443848,-0.837891,0.314453,0
36200,-0.430664,-0.84668,0.319336,0
36220,-0.431152,-0.849121,0.3125,0
36240,-0.433594,-0.831543,0.3125,0
36260,-0.432617,-0.837891,0.312988,0
36280,-0.429199,-0.839355,0.316895,0
36300,-0.429199,-0.839844,0.331543,0
36320,-0.441895,-0.852051,0.325195,0
36340,-0.445312,-0.853516,0.318848,0
36360,-0.427734,-0.85498,0.308105,0
36380,-0.424316,-0.848633,0.300293,0
36400,-0.425293,-0.842285,0.315918,0
36420,-0.432129,-0.838379,0.319824,0
36440,-0.427734,-0.837891,0.327148,0
36460,-0.434082,-0.842285,0.331055,0
36480,-0.4375,-0.842773,0.334961,0
36500,-0.439453,-0.833496,0.336426,0
36520,-0.434082,-0.828613,0.324707,0
36540,-0.42627,-0.833496,0.317871,0
36560,-0.426758,-0.84082,0.323242,0
36580,-0.430664,-0.841797,0.331055,0
36600,-0.42627,-0.840332,0.326172,0
36620,-0.429688,-0.844727,0.327148,0
36640,-0.428711,-0.841309,0.320801,0
36660,-0.424805,-0.836914,0.327637,0
36680,-0.426758,-0.83252,0.327637,0
36700,-0.43457,-0.838867,0.325684,0
36720,-0.436523,-0.837402,0.317871,0
36740,-0.436035,-0.825684,0.319824,0
36760,-0.431641,-0.841797,0.32373,0
36780,-0.427246,-0.843262,0.319824,0
36800,-0.424805,-0.844238,0.320312,0
36820,-0.425781,-0.858398,0.316895,0
36840,-0.425293,-0.852539,0.317383,0
36860,-0.428223,-0.836426,0.32959,0
36880,-0.431152,-0.826172,0.331543,0
36900,-0.422852,-0.820801,0.335449,0
36920,-0.424316,-0.836914,0.325195,0
36940,-0.430176,-0.843262,0.326172,0
36960,-0.428223,-0.843262,0.318848,0
36980,-0.430176,-0.830078,0.312988,0
37000,-0.432617,-0.834473,0.314453,0
37020,-0.421875,-0.84082,0.321289,0
37040,-0.431641,-0.849609,0.330078,0
37060,-0.432129,-0.858398,0.340332,0
37080,-0.433105,-0.853027,0.332031,0
37100,-0.422852,-0.834961,0.318848,0
37120,-0.421875,-0.822754,0.314453,0
37140,-0.425293,-0.834473,0.321777,0
37160,-0.430176,-0.842285,0.320801,0
37180,-0.430176,-0.84668,0.327148,0
37200,-0.428711,-0.845215,0.323242,0
37220,-0.432617,-0.84082,0.32373,0
37240,-0.428223,-0.84668,0.324707,0
37260,-0.427246,-0.833984,0.320801,0
37280,-0.429688,-0.839844,0.317871,0
37300,-0.430664,-0.837402,0.320801,0
37320,-0.439453,-0.835938,0.325195,0
37340,-0.435547,-0.837891,0.321289,0
37360,-0.425781,-0.848145,0.322754,0
37380,-0.431641,-0.844238,0.324707,0
37400,-0.42334,-0.838379,0.321289,0
37420,-0.424805,-0.842773,0.319824,0
37440,-0.430664,-0.846191,0.310059,0
37460,-0.431152,-0.845215,0.310059,0
37480,-0.432129,-0.847168,0.311523,0
37500,-0.430664,-0.841797,0.313965,0
37520,-0.433594,-0.836426,0.322754,0
37540,-0.432129,-0.833496,0.319824,0
37560,-0.429688,-0.84082,0.320801,0
37580,-0.430176,-0.848145,0.313965,0
37600,-0.435059,-0.84668,0.321289,0
37620,-0.431152,-0.844727,0.314941,0
37640,-0.428711,-0.84082,0.317871,0
37660,-0.430176,-0.838867,0.317871,0
37680,-0.432129,-0.844238,0.322266,0
37700,-0.43457,-0.840332,0.320801,0
37720,-0.432617,-0.843262,0.323242,0
37740,-0.436035,-0.834961,0.3125,0
37760,-0.429199,-0.829102,0.311523,0
37780,-0.431152,-0.833496,0.313477,0
37800,-0.437012,-0.844727,0.327148,0
37820,-0.439941,-0.853027,0.327148,0
37840,-0.438477,-0.842773,0.327637,0
37860,-0.428223,-0.837402,0.309082,0
37880,-0.428711,-0.84082,0.304199,0
37900,-0.432129,-0.834473,0.314941,0
37920,-0.435059,-0.830078,0.314453,0
37940,-0.436035,-0.836426,0.32373,0
37960,-0.441406,-0.845215,0.324219,0
37980,-0.433594,-0.844727,0.327148,0
38000,-0.43457,-0.841309,0.316406,0
38020,-0.436035,-0.842285,0.307617,0
38040,-0.434082,-0.835938,0.311523,0
38060,-0.439941,-0.824707,0.323242,0
38080,-0.440918,-0.837402,0.321777,0
38100,-0.44043,-0.843262,0.319336,0
38120,-0.434082,-0.842773,0.314941,0
38140,-0.435059,-0.839355,0.3125,0
38160,-0.434082,-0.835938,0.315918,0
38180,-0.434082,-0.839355,0.319824,0
38200,-0.439453,-0.835938,0.316895,0
38220,-0.438477,-0.84082,0.309082,0
38240,-0.438965,-0.839355,0.315918,0
38260,-0.438965,-0.844727,0.312988,0
38280,-0.439941,-0.842285,0.318359,0
38300,-0.437988,-0.835449,0.31543,0
38320,-0.438965,-0.833008,0.316406,0
38340,-0.438965,-0.836914,0.3125,0
38360,-0.4375,-0.834473,0.318359,0
38380,-0.440918,-0.843262,0.3125,0
38400,-0.4375,-0.841309,0.320312,0
38420,-0.438965,-0.837891,0.316895,0
38440,-0.438477,-0.824707,0.30957,0
38460,-0.438965,-0.833984,0.307617,0
38480,-0.441895,-0.836426,0.311035,0
38500,-0.43457,-0.837402,0.303223,0
38520,-0.438477,-0.837891,0.310059,0
38540,-0.443848,-0.84375,0.322266,0
38560,-0.447754,-0.838867,0.325195,0
38580,-0.44043,-0.841797,0.30957,0
38600,-0.433105,-0.844727,0.299805,0
38620,-0.434082,-0.842773,0.303711,0
38640,-0.4375,-0.834473,0.313965,0
38660,-0.437012,-0.833496,0.316895,0
38680,-0.440918,-0.84668,0.315918,0
38700,-0.441406,-0.845703,0.320312,0
38720,-0.442871,-0.837891,0.3125,0
38740,-0.435547,-0.838867,0.30957,0
38760,-0.437988,-0.833984,0.305176,0
38780,-0.438965,-0.835938,0.318848,0
38800,-0.441406,-0.833008,0.312012,0
38820,-0.445312,-0.844238,0.318359,0
38840,-0.438965,-0.842773,0.31543,0
38860,-0.433105,-0.836914,0.314941,0
38880,-0.434082,-0.828125,0.317383,0
38900,-0.437988,-0.838867,0.316406,0
38920,-0.437988,-0.84668,0.313965,0
38940,-0.440918,-0.849121,0.317383,0
38960,-0.437988,-0.842773,0.310059,0
38980,-0.440918,-0.844238,0.311035,0
38990,-0.440918,-0.83252,0.310547,0
39010,-0.441895,-0.833496,0.313477,0
39030,-0.436523,-0.838379,0.3125,0
39050,-0.438477,-0.850098,0.316895,0
39070,-0.435547,-0.84375,0.319824,0
39090,-0.437988,-0.835449,0.317871,0
39110,-0.436523,-0.839844,0.314453,0
39130,-0.435059,-0.839844,0.314453,0
39150,-0.432129,-0.836914,0.312988,0
39170,-0.435547,-0.838379,0.316895,0
39190,-0.441406,-0.838867,0.317871,0
39210,-0.441406,-0.838379,0.325684,0
39230,-0.44043,-0.836426,0.30957,0
39250,-0.424316,-0.839844,0.307129,0
39270,-0.43457,-0.841797,0.31543,0
39290,-0.444336,-0.844727,0.328613,0
39310,-0.442871,-0.846191,0.325684,0
39330,-0.43457,-0.841797,0.307617,0
39350,-0.430176,-0.839355,0.300293,0
39370,-0.427734,-0.833984,0.308594,0
39390,-0.435059,-0.835938,0.313965,0
39410,-0.437012,-0.84375,0.317871,0
39430,-0.439453,-0.845215,0.318848,0
39450,-0.439453,-0.839844,0.322754,0
39470,-0.438965,-0.837402,0.320312,0
39490,-0.436035,-0.836426,0.307129,0
39510,-0.429688,-0.839355,0.308105,0
39530,-0.435547,-0.842285,0.314453,0
39550,-0.441895,-0.84375,0.320801,0
39570,-0.440918,-0.838867,0.317871,0
39590,-0.4375,-0.837402,0.314453,0
39610,-0.433594,-0.832031,0.312988,0
39630,-0.431641,-0.835449,0.318848,0
39650,-0.433594,-0.842773,0.314453,0
39670,-0.431152,-0.844727,0.317871,0
39690,-0.435059,-0.847656,0.32373,0
39710,-0.442871,-0.845215,0.322754,0
39730,-0.437012,-0.838379,0.325195,0
39750,-0.433594,-0.836426,0.313965,0
39770,-0.436523,-0.837891,0.308105,0
39790,-0.43457,-0.842285,0.31543,0
39810,-0.436523,-0.842285,0.316406,0
39830,-0.443359,-0.835449,0.317871,0
39850,-0.438965,-0.84082,0.317871,0
39870,-0.440918,-0.84375,0.309082,0
39890,-0.432617,-0.835938,0.314941,0
39910,-0.431641,-0.842285,0.3125,0
39930,-0.431152,-0.841309,0.314941,0
39950,-0.433105,-0.841309,0.318848,0
39970,-0.432617,-0.839355,0.32373,0
39990,-0.43457,-0.842285,0.316406,0
40010,-0.435547,-0.837891,0.318848,0
40030,-0.433594,-0.827148,0.315918,0
40050,-0.432129,-0.833496,0.314941,0
40070,-0.443359,-0.843262,0.32373,0
40090,-0.449219,-0.851562,0.327637,0
40110,-0.439453,-0.84668,0.315918,0
40130,-0.430176,-0.836914,0.306152,0
40150,-0.427734,-0.836914,0.309082,0
40170,-0.434082,-0.835449,0.315918,0
40190,-0.434082,-0.834961,0.322266,0
40210,-0.435547,-0.842773,0.32666,0
40230,-0.432617,-0.847168,0.325684,0
40250,-0.433594,-0.836914,0.324707,0
40270,-0.426758,-0.83252,0.31543,0
40290,-0.427246,-0.841309,0.312988,0
40310,-0.438477,-0.839844,0.317383,0
40330,-0.442383,-0.833008,0.327148,0
40350,-0.439941,-0.834473,0.32373,0
40370,-0.439453,-0.84375,0.321777,0
40390,-0.43457,-0.839355,0.319336,0
40410,-0.43457,-0.835449,0.316406,0
40430,-0.43457,-0.838379,0.31543,0
40450,-0.437988,-0.841797,0.318359,0
40470,-0.435059,-0.838379,0.321777,0
40490,-0.432617,-0.841797,0.324219,0
40510,-0.436523,-0.84082,0.317383,0
40530,-0.433105,-0.839355,0.313965,0
40550,-0.432617,-0.83252,0.30957,0
40570,-0.43457,-0.839844,0.3125,0
40590,-0.439453,-0.845215,0.324707,0
40610,-0.436523,-0.837891,0.317871,0
40630,-0.435059,-0.837402,0.313965,0
40650,-0.435059,-0.841309,0.317383,0
40670,-0.437012,-0.84082,0.32373,0
40690,-0.435059,-0.841309,0.317871,0
40710,-0.432617,-0.841797,0.319336,0
40730,-0.432129,-0.835938,0.316406,0
40750,-0.438965,-0.839844,0.3125,0
40770,-0.43457,-0.837891,0.309082,0
40790,-0.437012,-0.842285,0.320801,0
40810,-0.4375,-0.839355,0.319336,0
40830,-0.424805,-0.834961,0.31543,0
40850,-0.435547,-0.834473,0.32373,0
40870,-0.443848,-0.841309,0.331543,0
40890,-0.444336,-0.855957,0.325684,0
40910,-0.430176,-0.846191,0.310547,0
40930,-0.425781,-0.833984,0.29834,0
40950,-0.428223,-0.827148,0.307617,0
40960,-0.437012,-0.833984,0.316895,0
40990,-0.439453,-0.840332,0.320801,0
41000,-0.432129,-0.848145,0.326172,0
41020,-0.435547,-0.851074,0.323242,0
41040,-0.436523,-0.839355,0.32373,0
41060,-0.432617,-0.831055,0.313477,0
41080,-0.436035,-0.830566,0.3125,0
41100,-0.442383,-0.836914,0.322266,0
41120,-0.442871,-0.837891,0.327637,0
41140,-0.437012,-0.841309,0.320312,0
41160,-0.433594,-0.849121,0.31543,0
41180,-0.431152,-0.839355,0.310059,0
41200,-0.430176,-0.833496,0.311523,0
41220,-0.434082,-0.837402,0.311523,0
41240,-0.435547,-0.846191,0.321289,0
41260,-0.437988,-0.84082,0.321289,0
41280,-0.441406,-0.836426,0.317383,0
41300,-0.437988,-0.837891,0.31543,0
41320,-0.438965,-0.837402,0.311035,0
41340,-0.436035,-0.836914,0.308594,0
41360,-0.435059,-0.835938,0.314941,0
41380,-0.44043,-0.839355,0.314453,0
41400,-0.438965,-0.844238,0.316406,0
41420,-0.435547,-0.835449,0.316895,0
41440,-0.435059,-0.839844,0.317383,0
41460,-0.4375,-0.841797,0.317383,0
41480,-0.437988,-0.842285,0.315918,0
41500,-0.438965,-0.837891,0.314941,0
41520,-0.436035,-0.834961,0.314453,0
41540,-0.436035,-0.84082,0.321289,0
41560,-0.440918,-0.84082,0.316406,0
41580,-0.435059,-0.837402,0.312012,0
41600,-0.438477,-0.837402,0.311035,0
41620,-0.441406,-0.837891,0.304199,0
41640,-0.443848,-0.84375,0.300781,0
41660,-0.46875,-0.893066,0.291016,0
41680,-0.453125,-0.916992,0.305664,0
41700,-0.459961,-0.87207,0.314941,0
41720,-0.438965,-0.853027,0.254395,0
41740,-0.480469,-0.805664,0.280273,0
41760,-0.465332,-0.888184,0.233398,0
41780,-0.367676,-0.946777,0.294434,0
41800,-0.344727,-0.893066,0.358398,0
41820,-0.424316,-0.852539,0.401367,0
41840,-0.44873,-1.00537,0.499023,0
41860,-0.391602,-1.12549,0.513184,0
41880,-0.291504,-1.1665,0.479492,0
41900,-0.135742,-1.18555,0.385254,0
41920,-0.0864258,-1.08398,0.358887,0
41940,-0.0942383,-0.962891,0.313477,0
41960,-0.0810547,-0.949707,0.279297,0
41980,-0.0825195,-0.855469,0.294434,0
42000,-0.0605469,-0.839844,0.264648,0
42020,-0.0493164,-0.867188,0.288574,0
42040,-0.0532227,-0.844727,0.300781,0
42060,-0.0390625,-0.797363,0.275391,0
42080,-0.0332031,-0.814453,0.248047,0
42100,-0.0180664,-0.821777,0.270996,0
42120,-0.000976562,-0.791504,0.270508,0
42140,0.0361328,-0.782715,0.244629,0
42160,0.0527344,-0.757324,0.246094,0
42180,0.0600586,-0.781738,0.241699,0
42200,0.131836,-0.848145,0.249512,0
42220,0.237793,-0.925781,0.222168,0
42240,0.256348,-0.919922,0.224609,0
42260,0.268066,-0.871094,0.183105,0
42280,0.369141,-0.920898,0.102051,0
42300,0.428711,-0.961426,0.0708008,0
42320,0.356445,-0.914551,0.112793,0
42340,0.316895,-0.925781,0.105957,0
42360,0.348145,-1.0166,0.0839844,0
42380,0.395996,-1.04932,0.0966797,0
42400,0.394531,-0.98877,0.11377,0
42420,0.38623,-0.950195,0.0771484,0
42440,0.41748,-0.966309,0.0551758,0
42460,0.404297,-0.927246,0.121094,0
42480,0.391113,-0.974609,0.124023,0
42500,0.342773,-1.00879,0.165039,0
42520,0.367676,-0.98291,0.163086,0
42540,0.393066,-0.953613,0.162598,0
42560,0.383301,-0.930176,0.168945,0
42580,0.367188,-0.92627,0.16748,0
42600,0.362793,-0.898438,0.153809,0
42620,0.357422,-0.895996,0.182129,0
42640,0.38623,-0.911621,0.199707,0
42660,0.327148,-0.900391,0.180176,0
42680,0.283691,-0.837402,0.173828,0
42700,0.239258,-0.839844,0.1875,0
42720,0.213379,-0.871094,0.236816,0
42740,0.220215,-0.885254,0.250488,0
42760,0.242188,-0.878418,0.234375,0
42780,0.240234,-0.84375,0.222656,0
42800,0.211914,-0.823242,0.213867,0
42820,0.218262,-0.838379,0.207031,0
42840,0.245117,-0.877441,0.200684,0
42860,0.287598,-0.88916,0.203125,0
42880,0.289062,-0.851074,0.182617,0
42900,0.325195,-0.858887,0.171875,0
42920,0.280762,-0.861328,0.135254,0
42940,0.289551,-0.915527,0.142578,0
42960,0.355957,-0.944824,0.183594,0
42980,0.370605,-0.958496,0.171875,0
43000,0.342773,-0.906738,0.157227,0
43020,0.360352,-0.906738,0.143555,0
43040,0.355469,-0.94043,0.132812,0
43060,0.382324,-0.945312,0.125488,0
43080,0.381348,-0.937988,0.132812,0
43100,0.337891,-0.943848,0.119629,0
43120,0.312988,-0.952637,0.108398,0
43140,0.322754,-0.937988,0.156738,0
43160,0.356445,-0.90918,0.166504,0
43180,0.393555,-0.92041,0.143555,0
43200,0.455566,-0.99707,0.136719,0
43220,0.457031,-0.905762,0.196289,0
43240,0.48877,-0.901367,0.09375,0
43260,0.446777,-0.998535,0.156738,0
43280,0.418945,-1.05029,0.166504,0
43300,0.361328,-0.981445,0.108887,0
43320,0.339355,-0.874512,0.100098,0
43340,0.348145,-0.862793,0.145996,0
43360,0.290527,-0.882324,0.134277,0
43380,0.247559,-0.873535,0.132324,0
43400,0.233887,-0.861328,0.143555,0
43420,0.234863,-0.881348,0.129883,0
43440,0.250977,-0.882812,0.143066,0
43460,0.252441,-0.875,0.168457,0
43480,0.220215,-0.855957,0.132324,0
43500,0.194336,-0.82959,0.137695,0
43520,0.209473,-0.851074,0.12793,0
43540,0.234375,-0.896973,0.155273,0
43560,0.243164,-0.896484,0.164062,0
43580,0.223633,-0.918457,0.119629,0
43600,0.264648,-0.893555,0.165527,0
43620,0.311523,-0.903809,0.193359,0
43640,0.313965,-0.919434,0.163574,0
43660,0.265137,-0.908691,0.163574,0
43680,0.234375,-0.917969,0.17627,0
43700,0.251953,-0.956055,0.160156,0
43720,0.314453,-0.939453,0.168457,0
43740,0.364258,-0.960938,0.189941,0
43760,0.376953,-0.981445,0.182129,0
43780,0.361328,-0.978516,0.149414,0
43800,0.334961,-0.979004,0.161133,0
43820,0.335938,-0.975586,0.177246,0
43840,0.32666,-0.950195,0.151855,0
43860,0.280762,-0.928711,0.133789,0
43880,0.246094,-0.907227,0.140625,0
43900,0.215332,-0.915527,0.130371,0
43920,0.174316,-0.92041,0.135254,0
43940,0.155273,-0.895508,0.130371,0
43960,0.183105,-0.890625,0.128906,0
43980,0.193848,-0.88916,0.129883,0
44000,0.195312,-0.902832,0.134277,0
44020,0.254395,-0.933594,0.174316,0
44040,0.285645,-0.953613,0.178711,0
44060,0.277832,-0.964355,0.152344,0
44080,0.255859,-0.947754,0.136719,0
44100,0.270996,-0.969727,0.12207,0
44120,0.301758,-0.977539,0.126465,0
44140,0.296875,-0.964844,0.129883,0
44160,0.270508,-0.945801,0.131836,0
44180,0.244629,-0.925781,0.134277,0
44200,0.26123,-0.945312,0.132324,0
44220,0.291992,-0.947754,0.151855,0
44240,0.27832,-0.940918,0.149902,0
44260,0.248535,-0.926758,0.131348,0
44280,0.25293,-0.928223,0.139648,0
44300,0.272461,-0.929688,0.154785,0
44320,0.28125,-0.932129,0.160645,0
44340,0.271973,-0.931641,0.142578,0
44360,0.256348,-0.91748,0.141602,0
44380,0.250488,-0.911133,0.133789,0
44400,0.286621,-0.939453,0.141602,0
44420,0.333984,-0.956055,0.152832,0
44440,0.32373,-0.943848,0.149414,0
44450,0.294922,-0.941406,0.148438,0
44470,0.294434,-0.93457,0.138184,0
44490,0.310547,-0.952637,0.132812,0
44510,0.311035,-0.950684,0.149414,0
44530,0.288574,-0.932617,0.146484,0
44550,0.28125,-0.938965,0.145508,0
44570,0.26416,-0.943848,0.147949,0
44590,0.260254,-0.941406,0.145996,0
44610,0.263184,-0.929199,0.153809,0
44630,0.278809,-0.922852,0.15332,0
44650,0.286133,-0.921875,0.156738,0
44670,0.275879,-0.929199,0.147949,0
44690,0.277344,-0.934082,0.152832,0
44710,0.27002,-0.938477,0.160645,0
44730,0.260742,-0.931152,0.150391,0
44750,0.260742,-0.933594,0.147949,0
44770,0.262207,-0.955078,0.128906,0
44790,0.286133,-0.962891,0.135742,0
44810,0.299805,-0.942383,0.13916,0
44830,0.300781,-0.939941,0.139648,0
44850,0.333496,-0.960938,0.176758,0
44870,0.333008,-0.96582,0.182129,0
44890,0.3125,-0.983887,0.151855,0
44910,0.31543,-0.978027,0.132812,0
44930,0.333984,-0.942383,0.164062,0
44950,0.299805,-0.937012,0.169434,0
44970,0.251953,-0.935059,0.133301,0
44990,0.222656,-0.935059,0.13623,0
45010,0.202148,-0.935059,0.129883,0
45030,0.180664,-0.944824,0.120117,0
45050,0.160645,-0.941895,0.132324,0
45070,0.138184,-0.945801,0.122559,0
45090,0.127441,-0.938477,0.106445,0
45110,0.11377,-0.93457,0.114746,0
45130,0.122559,-0.937012,0.128906,0
45150,0.120117,-0.953125,0.134766,0
45170,0.117188,-0.960449,0.13623,0
45190,0.109375,-0.97998,0.135254,0
45210,0.107422,-0.970215,0.118652,0
45230,0.105957,-0.956543,0.104004,0
45250,0.114746,-0.983887,0.112305,0
45270,0.105469,-0.98584,0.105957,1000
45290,0.111816,-0.986816,0.106445,0
45310,0.129883,-0.984863,0.103027,0
45330,0.133789,-0.983398,0.0913086,0
45350,0.119629,-0.981934,0.100098,0
45370,0.117676,-0.993652,0.112793,0
45390,0.113281,-0.989746,0.107422,0
45410,0.123047,-0.983398,0.0917969,0
45430,0.131348,-0.994141,0.114746,0
45450,0.143555,-0.983398,0.112793,0
45470,0.161133,-0.978516,0.114746,0
45490,0.15918,-0.990234,0.0966797,0
45510,0.149902,-0.977051,0.109863,0
45530,0.15625,-0.978027,0.11377,0
45550,0.164551,-0.970703,0.103516,0
45570,0.162109,-0.967773,0.102051,0
45590,0.175781,-0.964355,0.109863,0
45610,0.177734,-0.961426,0.0976562,0
45630,0.157227,-0.975098,0.0917969,0
45650,0.161621,-0.967285,0.0908203,0
45670,0.174805,-0.970703,0.115723,0
45690,0.185547,-0.962891,0.112793,0
45710,0.182129,-0.95459,0.0991211,0
45730,0.164062,-0.958008,0.0888672,0
45750,0.178711,-0.97168,0.0849609,0
45770,0.199707,-0.972168,0.0922852,0
45790,0.199707,-0.984375,0.090332,0
45810,0.208984,-0.969238,0.0776367,0
45830,0.214355,-0.961914,0.0800781,0
45850,0.217773,-0.970703,0.09375,0
45870,0.222656,-0.995117,0.103027,0
45890,0.225098,-0.996094,0.0825195,0
45910,0.224121,-0.974609,0.0844727,0
45930,0.227051,-0.956055,0.0693359,0
45950,0.233398,-0.951172,0.0766602,0
45970,0.230957,-0.960449,0.0869141,0
45990,0.236816,-0.975098,0.0981445,0
46010,0.244141,-0.979492,0.0966797,0
46030,0.250977,-0.970215,0.0717773,0
46050,0.255859,-0.95459,0.0810547,0
46070,0.256348,-0.958984,0.0942383,0
46090,0.274414,-0.968262,0.110352,0
46110,0.278809,-0.969238,0.0898438,0
46130,0.276367,-0.946289,0.0771484,0
46150,0.289551,-0.956055,0.0864258,0
46170,0.322754,-0.957031,0.112793,0
46190,0.336914,-0.955566,0.0859375,0
46210,0.349121,-0.913574,0.0644531,0
46230,0.345215,-0.917969,0.0517578,0
46250,0.349121,-0.914062,0.0766602,0
46270,0.356934,-0.92041,0.0878906,0
46290,0.354004,-0.933594,0.0693359,0
46310,0.341309,-0.917969,0.0805664,0
46330,0.34375,-0.904297,0.0854492,0
46350,0.366699,-0.901855,0.0864258,0
46370,0.374512,-0.891113,0.0732422,0
46390,0.37793,-0.885254,0.0874023,0
46410,0.412598,-0.884766,0.0966797,0
46430,0.4375,-0.882812,0.0776367,0
46440,0.447266,-0.868164,0.0732422,0
46460,0.428223,-0.866211,0.0561523,0
46480,0.44043,-0.856934,0.0620117,0
46500,0.45752,-0.857422,0.0722656,0
46520,0.507812,-0.859863,0.0380859,0
46540,0.499512,-0.836914,0.0478516,0
46560,0.501953,-0.838867,0.046875,0
46580,0.504395,-0.842773,0.0229492,0
46600,0.507324,-0.859863,0.019043,0
46620,0.532715,-0.844238,0.0341797,0
46640,0.522949,-0.825195,0.0483398,0
46660,0.524902,-0.837402,0.0483398,0
46680,0.55127,-0.842773,0.0458984,0
46700,0.528809,-0.82959,0.0571289,0
46720,0.51123,-0.825684,0.0717773,0
46740,0.497559,-0.835938,0.0737305,0
46760,0.498047,-0.833984,0.0673828,0
46780,0.485352,-0.828125,0.0737305,0
46800,0.480957,-0.824219,0.0820312,0
46820,0.487305,-0.852051,0.112793,0
46840,0.47998,-0.835449,0.0996094,0
46860,0.486328,-0.809082,0.0864258,0
46880,0.496582,-0.812012,0.101074,0
46900,0.475098,-0.822266,0.0996094,0
46920,0.474609,-0.852051,0.119141,0
46940,0.492188,-0.842773,0.128418,0
46960,0.489258,-0.839844,0.106445,0
46980,0.495117,-0.833496,0.0961914,0
47000,0.509766,-0.845215,0.0981445,0
47020,0.529785,-0.842285,0.122559,0
47040,0.535645,-0.837402,0.116699,0
47060,0.53418,-0.833496,0.118652,0
47080,0.536621,-0.833496,0.116699,0
47100,0.552734,-0.8125,0.134766,0
47120,0.568848,-0.80957,0.132812,0
47140,0.55957,-0.791992,0.126465,0
47160,0.58252,-0.774414,0.126953,0
47180,0.588379,-0.779297,0.138672,0
47200,0.605469,-0.759277,0.157715,0
47220,0.604492,-0.747559,0.153809,0
47240,0.611816,-0.737305,0.154297,0
47260,0.589355,-0.727539,0.148926,0
47280,0.602539,-0.722168,0.148926,0
47300,0.603027,-0.729004,0.157715,0
47320,0.607422,-0.731445,0.161133,0
47340,0.622559,-0.726562,0.15332,0
47360,0.625,-0.703125,0.153809,0
47380,0.641113,-0.697754,0.154785,0
47400,0.641602,-0.716797,0.165527,0
47420,0.650391,-0.716797,0.166504,0
47440,0.634766,-0.714844,0.168945,0
47460,0.645996,-0.70752,0.163574,0
47480,0.641113,-0.707031,0.155273,0
47500,0.668945,-0.711426,0.143066,0
47520,0.6875,-0.717285,0.13623,0
47540,0.627441,-0.729492,0.142578,0
47560,0.594238,-0.750977,0.165527,0
47580,0.589355,-0.755371,0.191406,0
47600,0.60791,-0.772461,0.192383,0
47620,0.605469,-0.766602,0.191406,0
47640,0.605469,-0.727051,0.176758,0
47660,0.583008,-0.721191,0.199219,0
47680,0.575195,-0.760254,0.200195,0
47700,0.553711,-0.778809,0.195312,0
47730,0.549316,-0.783203,0.208984,0
47750,0.557129,-0.768066,0.189941,0
47770,0.536133,-0.776367,0.181152,0
47790,0.531738,-0.761719,0.192383,0
47810,0.544434,-0.799805,0.199219,0
47830,0.568359,-0.796875,0.216797,0
47850,0.57373,-0.785156,0.213867,0
47870,0.555664,-0.760742,0.20752,0
47890,0.544922,-0.757812,0.185547,0
47910,0.544434,-0.780762,0.222656,0
47930,0.530273,-0.818848,0.236816,0
47950,0.507812,-0.831055,0.231445,0
47970,0.500977,-0.774902,0.220215,0
47990,0.514648,-0.763672,0.256348,0
48010,0.504395,-0.83252,0.261719,0
48030,0.507324,-0.834961,0.249512,0
48050,0.520996,-0.804688,0.259766,0
48070,0.508301,-0.830078,0.282715,0
48090,0.480957,-0.830078,0.263672,0
48110,0.451172,-0.837891,0.287598,0
48130,0.428711,-0.859863,0.317383,0
48150,0.40332,-0.861328,0.308594,0
48170,0.39502,-0.832031,0.279785,0
48190,0.373047,-0.826172,0.293457,0
48210,0.337402,-0.862305,0.312012,0
48230,0.332031,-0.857422,0.30957,0
48250,0.325684,-0.834473,0.29541,0
48270,0.313965,-0.844238,0.291504,0
48290,0.280762,-0.877441,0.311523,0
48310,0.26416,-0.872559,0.284668,0
48330,0.263672,-0.858887,0.277344,0
48350,0.258789,-0.864258,0.28125,0
48370,0.232422,-0.875488,0.297363,0
48390,0.203613,-0.876465,0.307617,0
48410,0.222656,-0.857422,0.30127,0
48430,0.244629,-0.882324,0.306641,0
48450,0.237305,-0.882324,0.317383,0
48470,0.224121,-0.892578,0.29834,0
48490,0.236816,-0.907715,0.291504,0
48510,0.244629,-0.899414,0.309082,0
48530,0.231934,-0.885254,0.290039,0
48550,0.228516,-0.892578,0.273438,0
48570,0.230469,-0.908691,0.275391,0
48590,0.23584,-0.927246,0.30127,0
48610,0.246582,-0.912598,0.289551,0
48630,0.265137,-0.898926,0.277344,0
48650,0.259766,-0.89502,0.256348,0
48670,0.25293,-0.892578,0.250977,0
48690,0.258789,-0.916992,0.244629,0
48710,0.266602,-0.931641,0.253906,0
48730,0.249023,-0.92627,0.242676,0
48750,0.234863,-0.921875,0.241699,0
48770,0.230957,-0.924316,0.233887,0
48790,0.22998,-0.915039,0.216309,0
48810,0.230957,-0.918457,0.213867,0
48830,0.231934,-0.906738,0.233398,0
48850,0.20752,-0.92334,0.219238,0
48870,0.188965,-0.92627,0.18457,0
48890,0.216309,-0.927246,0.188477,0
48910,0.224609,-0.924316,0.229492,0
48930,0.205078,-0.927246,0.187012,0
48950,0.211914,-0.917969,0.169922,0
48970,0.229004,-0.923828,0.183105,0
48990,0.208496,-0.93457,0.180664,0
49010,0.209473,-0.928223,0.176758,0
49030,0.227051,-0.939941,0.166504,0
49050,0.23291,-0.948242,0.165039,0
49070,0.217285,-0.931641,0.147461,0
49090,0.203125,-0.949707,0.134277,0
49110,0.213867,-0.931152,0.125977,0
49130,0.208008,-0.930176,0.131836,0
49150,0.206543,-0.935547,0.127441,0
49170,0.211426,-0.954102,0.103027,0
49190,0.217773,-0.959961,0.090332,0
49210,0.249023,-0.947266,0.0986328,0
49230,0.256348,-0.946289,0.0961914,0
49250,0.246094,-0.94043,0.0742188,0
49270,0.250488,-0.947754,0.0844727,0
49290,0.268066,-0.949219,0.0961914,0
49310,0.283203,-0.939453,0.0737305,0
49330,0.304199,-0.942383,0.0698242,0
49350,0.31543,-0.924316,0.0722656,0
49370,0.330078,-0.929199,0.0712891,0
49390,0.336914,-0.940918,0.0678711,0
49410,0.351074,-0.923828,0.0732422,0
49430,0.380859,-0.936523,0.0561523,0
49450,0.378418,-0.91748,0.046875,0
49470,0.360352,-0.898926,0.0224609,0
49490,0.375488,-0.907715,0.0297852,0
49510,0.391113,-0.914551,0.0571289,0
49530,0.38916,-0.899414,0.0390625,0
49550,0.402344,-0.890137,0.0239258,0
49570,0.432617,-0.881836,0.0224609,0
49590,0.42627,-0.873535,0.0356445,0
49610,0.431152,-0.878418,0.0288086,0
49630,0.476562,-0.882324,0.0307617,0
49650,0.492188,-0.868652,0.0507812,0
49670,0.487793,-0.848145,0.0297852,0
49690,0.493652,-0.844727,-0.00976562,0
49710,0.483398,-0.847168,-0.00195312,0
49730,0.487305,-0.859863,0.0136719,0
49750,0.507324,-0.854492,0.0273438,0
49770,0.515137,-0.83252,0.0170898,0
49790,0.506836,-0.817383,-0.0214844,0
49810,0.52002,-0.797852,-0.00927734,0
49830,0.555176,-0.814941,0.015625,0
49850,0.555176,-0.803711,0.012207,0
49870,0.570312,-0.805664,-0.00146484,0
49880,0.603516,-0.822266,0.00439453,0
49900,0.606445,-0.805176,0.00488281,0
49920,0.596191,-0.786133,-0.0195312,0
49940,0.589844,-0.783691,-0.0200195,0
49960,0.610352,-0.776855,0.00830078,0
49980,0.631348,-0.766602,-0.0107422,0
50000,0.624512,-0.766113,-0.0527344,0
50020,0.647461,-0.771484,-0.0390625,0
50040,0.668945,-0.756836,0.000488281,0
50060,0.660156,-0.734375,0.000976562,0
50080,0.645508,-0.73584,-0.0429688,0
50100,0.668457,-0.731934,-0.0439453,0
50120,0.69043,-0.71875,0.00390625,0
50140,0.711426,-0.695312,0.00488281,0
50160,0.678711,-0.695312,-0.0371094,0
50180,0.685547,-0.69043,-0.0625,0
50200,0.683594,-0.687988,-0.00585938,0
50220,0.714355,-0.676758,0.0131836,0
50240,0.714355,-0.688477,-0.0107422,0
50260,0.715332,-0.669922,-0.00634766,0
50280,0.734863,-0.673828,0.0107422,0
50300,0.723633,-0.665039,0.0258789,0
50320,0.739258,-0.671387,0.0219727,0
50340,0.742188,-0.659668,0.0292969,0
50360,0.744629,-0.654785,0.0244141,0
50380,0.741211,-0.650879,0.0395508,0
50400,0.744629,-0.650879,0.0551758,0
50420,0.769043,-0.650391,0.0771484,0
50440,0.78125,-0.618652,0.0595703,0
50460,0.76416,-0.609863,0.0512695,0
50480,0.766602,-0.630371,0.0507812,0
50500,0.762695,-0.641113,0.065918,0
50520,0.779297,-0.644043,0.0849609,0
50540,0.785645,-0.631836,0.107422,0
50560,0.752441,-0.616211,0.10498,0
50580,0.743164,-0.579102,0.105957,0
50600,0.76416,-0.594727,0.111816,0
50620,0.765625,-0.602539,0.119629,0
50640,0.744141,-0.600098,0.113281,0
50660,0.724609,-0.599609,0.11084,0
50680,0.705078,-0.629395,0.111816,0
50700,0.687988,-0.659668,0.13916,0
50720,0.67041,-0.645508,0.160156,0
50740,0.672363,-0.642578,0.17041,0
50760,0.666504,-0.635254,0.181641,0
50780,0.691406,-0.624512,0.176758,0
50800,0.708984,-0.645996,0.168945,0
50820,0.691406,-0.658203,0.205078,0
50840,0.67334,-0.668457,0.203613,0
50860,0.685059,-0.660645,0.171875,0
50880,0.711426,-0.659668,0.172852,0
50900,0.71875,-0.688965,0.184082,0
50920,0.677734,-0.693359,0.197266,0
50940,0.645996,-0.695312,0.180176,0
50960,0.653809,-0.703613,0.20166,0
50980,0.641602,-0.70166,0.211914,0
51000,0.600586,-0.724121,0.198242,0
51020,0.575195,-0.734375,0.198242,0
51040,0.592773,-0.713867,0.202637,0
51060,0.589355,-0.749023,0.269043,0
51080,0.573242,-0.743652,0.292969,0
51100,0.580078,-0.750977,0.267578,0
51120,0.568359,-0.775879,0.270508,0
51140,0.54248,-0.763672,0.266113,0
51160,0.544922,-0.779297,0.284668,0
51180,0.533691,-0.784668,0.296387,0
51200,0.506836,-0.787109,0.266602,0
51220,0.467773,-0.821777,0.268066,0
51240,0.47168,-0.798828,0.275391,0
51260,0.465332,-0.816895,0.279785,0
51280,0.458008,-0.824707,0.274414,0
51300,0.424805,-0.806152,0.257812,0
51320,0.408203,-0.82373,0.254883,0
51340,0.415039,-0.83252,0.265625,0
51360,0.423828,-0.822266,0.261719,0
51380,0.392578,-0.835938,0.241699,0
51400,0.372559,-0.853027,0.21875,0
51420,0.385254,-0.840332,0.225098,0
51440,0.405273,-0.851562,0.253418,0
51460,0.381836,-0.877441,0.239746,0
51480,0.35791,-0.881348,0.216797,0
51500,0.359375,-0.912109,0.20752,0
51520,0.380371,-0.899902,0.214844,0
51540,0.368652,-0.895508,0.208496,0
51560,0.378418,-0.896973,0.188965,0
51580,0.387207,-0.920898,0.186523,0
51600,0.359375,-0.931152,0.206543,0
51620,0.308594,-0.914551,0.182129,0
51640,0.30127,-0.909668,0.160156,0
51660,0.314941,-0.909668,0.179199,0
51680,0.304688,-0.900879,0.189941,0
51700,0.267578,-0.899902,0.16748,0
51720,0.242188,-0.897461,0.153809,0
51740,0.239746,-0.88623,0.145996,0
51760,0.22168,-0.892578,0.165039,0
51780,0.220703,-0.887695,0.13623,0
51800,0.217285,-0.871582,0.147461,0
51820,0.230469,-0.871094,0.155762,0
51840,0.249512,-0.87793,0.143066,0
51860,0.25,-0.877441,0.112305,0
51880,0.26416,-0.870117,0.129395,0
51900,0.26709,-0.882812,0.140137,0
51910,0.299316,-0.898438,0.109375,0
51930,0.345703,-0.909668,0.0654297,0
51950,0.383789,-0.900391,0.0737305,0
51970,0.381348,-0.895996,0.106445,0
51990,0.361816,-0.902832,0.101074,0
52010,0.372559,-0.938477,0.0800781,0
52030,0.383301,-0.940918,0.046875,0
52050,0.375,-0.89502,0.0600586,0
52070,0.366699,-0.881348,0.0732422,0
52090,0.402832,-0.883301,0.0317383,0
52110,0.460449,-0.887695,0.0253906,0
52130,0.474609,-0.910156,0.0629883,0
52150,0.462891,-0.907715,0.0854492,0
52170,0.483887,-0.888184,0.0419922,0
52190,0.504883,-0.878906,0.0136719,0
52210,0.495117,-0.859375,0.0107422,0
52230,0.524902,-0.843262,-0.00878906,0
52250,0.5625,-0.849609,-0.0200195,0
52270,0.511719,-0.82666,-0.00878906,0
52290,0.539551,-0.805664,-0.00683594,0
52310,0.567871,-0.818848,-0.0131836,0
52330,0.564941,-0.810547,-0.0268555,0
52350,0.559082,-0.796875,-0.0571289,0
52370,0.547363,-0.77002,-0.0214844,0
52390,0.568848,-0.739258,-0.0151367,0
52410,0.629883,-0.708008,-0.0522461,0
52430,0.644531,-0.741699,-0.103027,0
52450,0.661621,-0.751465,-0.109863,0
52470,0.651855,-0.725098,-0.0942383,0
52490,0.658691,-0.70752,-0.10498,0
52510,0.673828,-0.711426,-0.123047,0
52530,0.697266,-0.708008,-0.138672,0
52550,0.734863,-0.683105,-0.168945,0
52570,0.754883,-0.680664,-0.183594,0
52590,0.742188,-0.660156,-0.179688,0
52610,0.752441,-0.645508,-0.162109,0
52630,0.782227,-0.640137,-0.175781,0
52650,0.805664,-0.620605,-0.248047,0
52670,0.791016,-0.622559,-0.227051,0
52690,0.786133,-0.603516,-0.205078,0
52710,0.795898,-0.599609,-0.196289,0
52730,0.838867,-0.589355,-0.199707,0
52750,0.827637,-0.561523,-0.226562,0
52770,0.788574,-0.536133,-0.226562,0
52790,0.819824,-0.521973,-0.196777,0
52810,0.891113,-0.521973,-0.162598,0
52830,0.899902,-0.5,-0.200684,0
52850,0.868164,-0.503418,-0.199219,0
52870,0.855469,-0.484375,-0.131836,0
52890,0.895508,-0.48291,-0.101562,0
52910,0.894043,-0.463867,-0.136719,0
52930,0.876953,-0.445312,-0.152344,0
52950,0.853027,-0.453125,-0.0795898,0
52970,0.858887,-0.497559,-0.043457,0
52990,0.911621,-0.506836,-0.0878906,0
53010,0.912598,-0.419434,-0.0800781,0
53030,0.885254,-0.392578,-0.0322266,0
53050,0.866699,-0.433594,-0.00244141,0
53070,0.81543,-0.477051,0.0371094,0
53090,0.782715,-0.501953,0.0458984,0
53110,0.763672,-0.473633,0.0791016,0
53130,0.753906,-0.438477,0.0966797,0
53150,0.717773,-0.436035,0.141602,0
53170,0.695312,-0.46582,0.157227,0
53190,0.716797,-0.487305,0.160156,0
53210,0.745605,-0.487305,0.19873,0
53230,0.739746,-0.508789,0.206055,0
53250,0.768066,-0.525879,0.153809,0
53270,0.883789,-0.53125,0.177246,0
53290,0.922363,-0.558594,0.234375,0
53310,0.867188,-0.601074,0.249512,0
53330,0.82666,-0.613281,0.216309,0
53350,0.79541,-0.63623,0.214844,0
53370,0.767578,-0.634766,0.253418,0
53390,0.756836,-0.643066,0.256836,0
53410,0.726074,-0.633789,0.258789,0
53430,0.697754,-0.62793,0.266113,0
53450,0.691895,-0.649414,0.308105,0
53470,0.665527,-0.660645,0.313965,0
53490,0.634766,-0.662598,0.308594,0
53510,0.660645,-0.654785,0.316406,0
53530,0.645996,-0.659668,0.320801,0
53550,0.641602,-0.675293,0.307617,0
53570,0.637207,-0.693359,0.309082,0
53590,0.633301,-0.69873,0.347168,0
53610,0.603027,-0.70459,0.331543,0
53630,0.583008,-0.737305,0.303711,0
53650,0.575684,-0.758789,0.319824,0
53670,0.557129,-0.765625,0.343262,0
53690,0.510742,-0.762695,0.322754,0
53710,0.501465,-0.754395,0.300293,0
53730,0.499512,-0.753906,0.300781,0
53750,0.465332,-0.758301,0.31543,0
53770,0.455566,-0.794434,0.32373,0
53790,0.42334,-0.793945,0.316895,0
53810,0.412109,-0.785156,0.290527,0
53830,0.428711,-0.772949,0.293457,0
53850,0.408203,-0.795898,0.284668,0
53870,0.373047,-0.803711,0.276855,0
53890,0.353516,-0.775879,0.249023,0
53910,0.35791,-0.787598,0.235352,0
53930,0.381836,-0.80127,0.222656,0
53950,0.416016,-0.828613,0.228027,0
53970,0.430176,-0.849609,0.229492,0
53990,0.42334,-0.84668,0.22998,0
54010,0.422852,-0.867676,0.226074,0
54030,0.387207,-0.902832,0.248535,0
54050,0.347168,-0.902832,0.193359,0
54070,0.362305,-0.87793,0.182617,0
54090,0.313477,-0.870117,0.199707,0
54110,0.287109,-0.859863,0.20459,0
54130,0.250977,-0.856445,0.183594,0
54150,0.238281,-0.868164,0.151367,0
54170,0.262695,-0.879395,0.13916,0
54190,0.265137,-0.874512,0.172852,0
54210,0.27002,-0.876953,0.140137,0
54230,0.30957,-0.89502,0.112305,0
54250,0.316895,-0.861328,0.120117,0
54270,0.292969,-0.859375,0.101562,0
54290,0.27832,-0.85791,0.0654297,0
54310,0.299805,-0.867676,0.034668,0
54330,0.34082,-0.86377,0.0527344,0
54350,0.359863,-0.839355,0.0732422,0
54370,0.354004,-0.868164,0.0600586,0
54390,0.376953,-0.880859,0.0283203,0
54410,0.40625,-0.915039,0.0205078,0
54430,0.401367,-0.913574,0.0610352,0
54450,0.406738,-0.932129,0.0712891,0
54470,0.48877,-0.928223,0.0327148,0
54490,0.514648,-0.883301,0.00585938,0
54510,0.447266,-0.869141,-0.0175781,0
54530,0.45166,-0.886719,-0.00390625,0
54550,0.523438,-0.902344,-0.00439453,0
54570,0.532715,-0.869141,0.0102539,0
54590,0.523438,-0.854492,0,0
54610,0.541504,-0.850098,-0.0112305,0
54630,0.529785,-0.822266,-0.0224609,0
54650,0.557617,-0.822754,-0.0585938,0
54670,0.570801,-0.824707,-0.0649414,0
54690,0.577148,-0.793945,-0.0405273,0
54710,0.588379,-0.79834,-0.0380859,0
54730,0.587891,-0.789062,-0.0703125,0
54750,0.65918,-0.763184,-0.117188,0
54770,0.674316,-0.745117,-0.0952148,0
54790,0.620117,-0.740234,-0.0766602,0
54810,0.62793,-0.734375,-0.0917969,0
54830,0.676758,-0.728516,-0.125977,0
54850,0.692383,-0.70459,-0.11377,0
54870,0.694824,-0.670898,-0.090332,0
54890,0.692871,-0.657715,-0.119629,0
54910,0.712891,-0.643066,-0.143555,0
54930,0.714844,-0.619141,-0.116211,0
54950,0.748047,-0.630371,-0.125,0
54970,0.759277,-0.619629,-0.144043,0
54990,0.799805,-0.598145,-0.153809,0
55010,0.848145,-0.599121,-0.14209,0
55030,0.848633,-0.572754,-0.140137,1001
55050,0.839355,-0.571777,-0.144043,0
55070,0.87793,-0.546387,-0.158691,0
55090,0.906738,-0.54248,-0.174805,0
55110,0.92041,-0.535645,-0.164551,0
55130,0.90918,-0.541992,-0.13623,0
55150,0.895996,-0.521973,-0.159668,0
55170,0.896484,-0.522461,-0.178711,0
55190,0.847656,-0.523926,-0.178711,0
55210,0.793945,-0.507812,-0.158691,0
55230,0.73291,-0.517578,-0.174316,0
55250,0.668457,-0.509766,-0.159668,0
55270,0.625488,-0.474121,-0.15332,0
55290,0.619141,-0.45459,-0.185547,0
55310,0.577148,-0.463379,-0.195801,0
55330,0.53125,-0.470215,-0.196777,0
55340,0.586914,-0.49707,-0.173828,0
55360,0.66748,-0.515625,-0.147949,0
55380,0.687988,-0.472656,-0.14502,0
55400,0.679199,-0.517578,-0.196289,0
55420,0.693359,-0.560059,-0.178223,0
55440,0.74707,-0.585938,-0.158203,0
55460,0.729492,-0.601562,-0.153809,0
55480,0.732422,-0.604004,-0.119629,0
55500,0.74707,-0.624023,-0.0859375,0
55520,0.750977,-0.644043,-0.125,0
55540,0.72168,-0.700195,-0.121582,0
55560,0.696777,-0.700195,-0.0693359,0
55580,0.685059,-0.706055,-0.0571289,0
55600,0.685547,-0.73584,-0.059082,0
55620,0.676758,-0.741211,-0.046875,0
55640,0.635742,-0.72998,-0.00390625,0
55660,0.613281,-0.771484,0.0126953,0
55680,0.651855,-0.827637,-0.0405273,0
55700,0.664062,-0.853516,-0.0263672,0
55720,0.622559,-0.804199,0.00146484,0
55740,0.57959,-0.79248,0.0366211,0
55760,0.583008,-0.838867,0.0463867,0
55780,0.596191,-0.896973,0.0200195,0
55800,0.549316,-0.91748,0.0332031,0
55820,0.508301,-0.889648,0.0351562,0
55840,0.476562,-0.888184,0.0541992,0
55860,0.484375,-0.915039,0.0629883,0
55880,0.487793,-0.916992,0.0664062,0
55900,0.494629,-0.931152,0.0712891,0
55920,0.477539,-0.936523,0.0913086,0
55940,0.469727,-0.933594,0.118652,0
55960,0.439941,-0.957031,0.119141,0
55980,0.387695,-0.974121,0.0976562,0
56000,0.359375,-0.976562,0.101562,0
56020,0.339844,-0.978516,0.101074,0
56040,0.325195,-0.992188,0.124512,0
56060,0.303711,-0.984863,0.125,0
56080,0.283691,-0.979004,0.126465,0
56100,0.275391,-0.963867,0.123047,0
56120,0.260254,-0.990723,0.125977,0
56140,0.239258,-0.990234,0.149414,0
56160,0.220703,-0.991699,0.154297,0
56180,0.209473,-0.976562,0.141602,0
56200,0.201172,-0.965332,0.148926,0
56220,0.20752,-0.995117,0.170898,0
56240,0.195801,-1.00586,0.172852,0
56260,0.193848,-0.967773,0.169434,0
56280,0.209961,-0.928711,0.156738,0
56300,0.207031,-0.940918,0.16748,0
56320,0.187988,-0.978027,0.166504,0
56340,0.18457,-0.979004,0.175781,0
56360,0.191895,-0.976074,0.171875,0
56380,0.180664,-0.966797,0.149902,0
56400,0.163086,-0.955566,0.146484,0
56420,0.162109,-0.975586,0.141113,0
56440,0.171875,-0.966309,0.155762,0
56460,0.162109,-0.953613,0.157715,1000
56480,0.137695,-0.955566,0.168457,0
56500,0.138184,-0.96875,0.163574,0
56520,0.12207,-0.966309,0.15918,0
56540,0.134766,-0.954102,0.172852,0
56560,0.151367,-0.958496,0.155762,0
56580,0.163086,-0.950195,0.144043,0
56600,0.164062,-0.946289,0.152344,0
56620,0.169922,-0.957031,0.154785,0
56640,0.178711,-0.977051,0.151367,0
56660,0.167969,-0.980469,0.134766,0
56680,0.155273,-0.98291,0.147461,0
56700,0.160156,-0.979004,0.157227,0
56720,0.174316,-0.983398,0.146973,0
56740,0.178223,-0.963867,0.124512,0
56760,0.178223,-0.947754,0.132812,0
56780,0.181152,-0.972656,0.14209,0
56800,0.199219,-0.976074,0.155273,0
56820,0.203613,-0.966797,0.149414,0
56840,0.213867,-0.961426,0.147949,0
56860,0.222656,-0.954102,0.142578,0
56880,0.22168,-0.960449,0.126953,0
56900,0.231934,-0.945801,0.133301,0
56920,0.238281,-0.955078,0.153809,0
56940,0.241211,-0.974121,0.147461,0
56960,0.228516,-0.95752,0.125,0
56980,0.239746,-0.946777,0.127441,0
57000,0.257812,-0.959961,0.125,0
57020,0.269531,-0.949707,0.128906,0
57040,0.266602,-0.937988,0.124023,0
57060,0.269531,-0.945312,0.111816,0
57080,0.274902,-0.933594,0.121582,0
57100,0.287598,-0.938965,0.121094,0
57120,0.288574,-0.928223,0.112793,0
57140,0.282227,-0.909668,0.105957,0
57160,0.297363,-0.919434,0.115723,0
57180,0.307129,-0.938477,0.123047,0
57200,0.324707,-0.91748,0.106934,0
57220,0.32959,-0.921387,0.0986328,0
57240,0.332031,-0.927246,0.0898438,0
57260,0.348145,-0.916504,0.0888672,0
57280,0.350586,-0.912598,0.11377,0
57300,0.359863,-0.916504,0.111816,0
57320,0.359863,-0.907227,0.101074,0
57330,0.371094,-0.906738,0.105469,0
57350,0.393555,-0.90625,0.115234,0
57370,0.413086,-0.891602,0.10791,0
57390,0.387695,-0.880371,0.103516,0
57410,0.387695,-0.873535,0.0957031,0
57430,0.40332,-0.885254,0.0883789,0
57450,0.386719,-0.873535,0.0844727,0
57470,0.403809,-0.850098,0.0766602,0
57490,0.402344,-0.839844,0.0820312,0
57510,0.424805,-0.85791,0.0986328,0
57530,0.432617,-0.868652,0.124512,0
57550,0.431641,-0.851074,0.145508,0
57570,0.456543,-0.834961,0.152832,0
57590,0.443359,-0.851562,0.15332,0
57610,0.453613,-0.856934,0.148926,0
57630,0.480957,-0.836914,0.164062,0
57650,0.471191,-0.850586,0.152344,0
57670,0.490234,-0.85498,0.155273,0
57690,0.48291,-0.844238,0.160156,0
57710,0.485352,-0.854492,0.165039,0
57730,0.509277,-0.847656,0.145508,0
57750,0.508301,-0.825195,0.142578,0
57770,0.513672,-0.815918,0.161133,0
57790,0.526367,-0.816406,0.166992,0
57810,0.522949,-0.811523,0.171875,0
57830,0.541504,-0.800293,0.185059,0
57850,0.546387,-0.766602,0.177246,0
57870,0.567871,-0.759277,0.180664,0
57890,0.598633,-0.760742,0.18457,0
57910,0.597656,-0.74707,0.172852,0
57930,0.626465,-0.731445,0.17041,0
57950,0.630859,-0.71875,0.160645,0
57970,0.645996,-0.717285,0.159668,0
57990,0.669922,-0.708984,0.140625,0
58010,0.69043,-0.708008,0.147461,0
58030,0.673828,-0.694824,0.139648,0
58050,0.678223,-0.695312,0.130371,0
58070,0.68457,-0.669434,0.127441,0
58090,0.67627,-0.668945,0.144531,0
58110,0.669922,-0.673828,0.170898,0
58130,0.681641,-0.653809,0.167969,0
58150,0.654785,-0.638672,0.182617,0
58170,0.661621,-0.645996,0.179688,0
58190,0.681152,-0.67041,0.17334,0
58210,0.651367,-0.655273,0.205078,0
58230,0.599609,-0.674316,0.242676,0
58250,0.602051,-0.699219,0.260742,0
58270,0.626465,-0.685059,0.26709,0
58290,0.641602,-0.690918,0.248047,0
58310,0.611816,-0.702637,0.250977,0
58330,0.601562,-0.725098,0.252441,0
58350,0.614258,-0.730957,0.259766,0
58370,0.621094,-0.740723,0.254883,0
58390,0.595215,-0.740723,0.264648,0
58410,0.548828,-0.756836,0.271973,0
58430,0.563477,-0.77832,0.253418,0
58450,0.569336,-0.76123,0.248535,0
58470,0.551758,-0.753418,0.250488,0
58490,0.550781,-0.751465,0.266113,0
58510,0.563965,-0.772949,0.263184,0
58530,0.579102,-0.786621,0.272949,0
58550,0.564941,-0.763672,0.281738,0
58570,0.533203,-0.73877,0.284668,0
58590,0.506348,-0.739746,0.317871,0
58610,0.523926,-0.776855,0.305664,0
58630,0.521484,-0.79541,0.313477,0
58650,0.525391,-0.750488,0.296875,0
58670,0.529785,-0.73584,0.287109,0
58690,0.501465,-0.76123,0.296875,0
58710,0.493652,-0.774902,0.272461,0
58730,0.520996,-0.774414,0.26709,0
58750,0.492676,-0.780273,0.291992,0
58770,0.470215,-0.750488,0.283691,0
58790,0.480957,-0.741699,0.294434,0
58810,0.476562,-0.783691,0.327637,0
58830,0.424805,-0.817383,0.349609,0
58850,0.414551,-0.811523,0.333984,0
58870,0.445312,-0.817383,0.328125,0
58890,0.476074,-0.806152,0.342285,0
58910,0.483887,-0.795898,0.353027,0
58940,0.417969,-0.791016,0.344238,0
58960,0.425781,-0.811035,0.367676,0
58980,0.407227,-0.855469,0.376953,0
59000,0.368164,-0.850098,0.362793,0
59020,0.374023,-0.804688,0.340332,0
59040,0.371094,-0.790527,0.359375,0
59060,0.330078,-0.824707,0.377441,0
59080,0.288086,-0.827637,0.399414,0
59100,0.290039,-0.814453,0.397461,0
59120,0.30957,-0.830078,0.393066,0
59140,0.284668,-0.844727,0.373535,0
59160,0.242676,-0.819336,0.373047,0
59180,0.251953,-0.824219,0.373535,0
59200,0.280273,-0.84375,0.356934,0
59220,0.269531,-0.866699,0.366699,0
59240,0.248535,-0.858887,0.364746,0
59260,0.251953,-0.859863,0.379883,0
59280,0.236816,-0.862305,0.366699,0
59300,0.187012,-0.870117,0.335938,0
59320,0.151855,-0.862793,0.339844,0
59340,0.148926,-0.866211,0.352539,0
59360,0.160156,-0.873047,0.367676,0
59380,0.17627,-0.859863,0.353516,0
59400,0.186523,-0.890137,0.343262,0
59420,0.196289,-0.895996,0.362305,0
59440,0.189941,-0.898926,0.340332,0
59460,0.190918,-0.890137,0.334473,0
59480,0.202148,-0.88623,0.309082,0
59500,0.227051,-0.898438,0.295898,0
59520,0.213867,-0.894531,0.300781,0
59540,0.18457,-0.887207,0.301758,0
59560,0.190918,-0.893066,0.280273,0
59580,0.188965,-0.892578,0.245605,0
59600,0.199219,-0.896484,0.266602,0
59620,0.17627,-0.887695,0.269043,0
59640,0.157715,-0.901367,0.260254,0
59660,0.199219,-0.907227,0.221191,0
59680,0.229004,-0.909668,0.224609,0
59700,0.208984,-0.909668,0.210938,0
59720,0.184082,-0.915527,0.193848,0
59740,0.206543,-0.90918,0.186523,0
59760,0.237305,-0.92334,0.169434,0
59780,0.248047,-0.943848,0.139648,0
59800,0.255859,-0.924805,0.134277,0
59820,0.25,-0.944336,0.149902,0
59840,0.254395,-0.949707,0.170898,0
59860,0.305176,-0.972656,0.148438,0
59880,0.348633,-0.970215,0.109375,0
59900,0.344238,-0.936523,0.122559,0
59920,0.32959,-0.930664,0.103027,0
59940,0.34375,-0.95459,0.0927734,0
59960,0.330078,-0.928711,0.0874023,0
59980,0.324219,-0.901855,0.0683594,0
60000,0.337891,-0.899902,0.0610352,0
60020,0.388184,-0.888184,0.0649414,0
60040,0.427246,-0.887207,0.0615234,0
60060,0.437988,-0.891602,0.0385742,0
60080,0.461914,-0.888184,0.0205078,0
60100,0.493164,-0.871094,0.0224609,0
60120,0.509766,-0.853516,0.0180664,0
60140,0.507324,-0.841309,0.00146484,0
60160,0.52832,-0.831543,0.00390625,0
60180,0.538574,-0.827637,0.0244141,0
60200,0.535156,-0.831055,-0.00292969,0
60220,0.516602,-0.836426,-0.0175781,0
60240,0.524414,-0.822266,0.0102539,0
60260,0.543945,-0.811035,0.0175781,0
60280,0.552246,-0.784668,0.0141602,0
60300,0.537598,-0.786621,-0.015625,0
60320,0.532227,-0.786133,-0.0175781,0
60340,0.561035,-0.800781,0.0166016,0
60360,0.585449,-0.788086,0.0356445,0
60380,0.593262,-0.771484,-0.00634766,0
60400,0.623047,-0.783203,-0.0488281,0
60420,0.612305,-0.753418,-0.0297852,0
60440,0.614258,-0.754395,-0.00390625,0
60460,0.651367,-0.758301,-0.00244141,0
60480,0.647949,-0.749023,-0.0214844,0
60500,0.633301,-0.753418,-0.0605469,0
60520,0.63916,-0.747559,-0.0625,0
60540,0.706055,-0.724121,-0.0375977,0
60560,0.717285,-0.706543,-0.0395508,0
60580,0.687012,-0.707031,-0.0263672,0
60600,0.702148,-0.716797,-0.046875,0
60620,0.679688,-0.713867,-0.0444336,0
60640,0.712891,-0.690918,-0.0327148,0
60660,0.754395,-0.682617,-0.0117188,0
60680,0.736816,-0.666016,-0.0166016,0
60700,0.713379,-0.659668,-0.0415039,0
60720,0.708008,-0.657715,-0.0244141,0
60740,0.747559,-0.655762,-0.0195312,0
60760,0.756348,-0.646973,-0.0229492,0
60780,0.741211,-0.650391,-0.0317383,0
60790,0.720703,-0.645996,-0.0244141,0
60810,0.746094,-0.645508,-0.0244141,0
60830,0.771484,-0.625,-0.0258789,0
60850,0.751953,-0.600098,-0.0200195,0
60870,0.738281,-0.606934,-0.0107422,0
60890,0.751465,-0.620605,-0.019043,0
60910,0.800293,-0.575195,0.00341797,0
60930,0.817383,-0.562012,0.00146484,0
60950,0.802246,-0.569336,-0.00488281,0
60970,0.796387,-0.565918,0.0166016,0
60990,0.818848,-0.557129,0.0200195,0
61010,0.851562,-0.525879,0.0151367,0
61030,0.838379,-0.528809,0.0214844,0
61050,0.839844,-0.52832,0.0292969,0
61070,0.855469,-0.541504,0.0390625,0
61090,0.842773,-0.565918,0.0527344,0
61110,0.786133,-0.552734,0.0839844,0
61130,0.785645,-0.549316,0.116211,0
61150,0.819336,-0.564453,0.115723,0
61170,0.805176,-0.570801,0.10498,0
61190,0.787598,-0.554199,0.119141,0
61210,0.775879,-0.568359,0.151855,0
61230,0.777344,-0.572754,0.154297,0
61250,0.764648,-0.55957,0.155762,0
61270,0.745605,-0.569824,0.148926,0
61290,0.743164,-0.550781,0.142578,0
61310,0.715332,-0.581055,0.202148,0
61330,0.684082,-0.622559,0.224121,0
61350,0.678223,-0.60791,0.191406,0
61370,0.672363,-0.604492,0.182617,0
61390,0.66748,-0.609375,0.21582,0
61410,0.652344,-0.60498,0.250488,0
61430,0.651367,-0.61084,0.230957,0
61450,0.67334,-0.617188,0.231934,0
61470,0.70166,-0.625,0.242676,0
61490,0.733887,-0.623047,0.264648,0
61510,0.735352,-0.653809,0.270996,0
61530,0.713867,-0.64209,0.268066,0
61550,0.687012,-0.631348,0.263672,0
61570,0.686523,-0.650391,0.275391,0
61590,0.701172,-0.664551,0.269531,0
61610,0.671875,-0.704102,0.288574,0
61630,0.623047,-0.703125,0.294434,0
61650,0.619141,-0.64502,0.275879,0
61670,0.643066,-0.662598,0.264648,0
61690,0.618164,-0.717285,0.262207,0
61710,0.568848,-0.738281,0.254883,0
61730,0.554688,-0.736816,0.256348,0
61750,0.585938,-0.6875,0.281738,0
61770,0.612305,-0.70459,0.312988,0
61790,0.572266,-0.745605,0.312988,0
61810,0.52832,-0.776855,0.297363,0
61830,0.54834,-0.743652,0.294922,0
61850,0.567383,-0.741699,0.270996,0
61870,0.552734,-0.749023,0.278809,0
61890,0.499512,-0.783203,0.299316,0
61910,0.520996,-0.76123,0.282227,0
61930,0.555664,-0.763672,0.254395,0
61950,0.516602,-0.76709,0.270996,0
61970,0.463379,-0.771973,0.260742,0
61990,0.458984,-0.79248,0.214355,0
62010,0.472168,-0.780762,0.237793,0
62030,0.455566,-0.795898,0.273926,0
62050,0.443359,-0.794922,0.253418,0
62070,0.420898,-0.805664,0.255859,0
62090,0.401367,-0.825195,0.258301,0
62110,0.40918,-0.819824,0.24707,0
62130,0.401855,-0.824219,0.243164,0
62150,0.376465,-0.806152,0.266113,0
62170,0.379883,-0.807129,0.240234,0
62190,0.396973,-0.841797,0.240723,0
62210,0.394531,-0.851074,0.25,0
62230,0.388672,-0.862305,0.225586,0
62250,0.409668,-0.855469,0.220215,0
62270,0.406738,-0.861816,0.220703,0
62290,0.38623,-0.867676,0.217773,0
62310,0.368164,-0.873535,0.20752,0
62330,0.391113,-0.887695,0.209473,0
62350,0.393555,-0.881348,0.217285,0
62370,0.375977,-0.885742,0.216797,0
62390,0.352539,-0.881348,0.184082,0
62410,0.382324,-0.898926,0.183594,0
62430,0.390137,-0.894531,0.196289,0
62450,0.381348,-0.910645,0.191406,0
62470,0.371094,-0.912109,0.148438,0
62490,0.379883,-0.907715,0.134277,0
62510,0.384766,-0.908691,0.132812,0
62530,0.390137,-0.911621,0.147461,0
62550,0.353516,-0.90918,0.131348,0
62570,0.286621,-0.946777,0.117676,0
62590,0.28125,-0.962891,0.119629,0
62610,0.296875,-0.925293,0.0825195,0
62630,0.336914,-0.868164,0.0751953,0
62650,0.310547,-0.859375,0.0751953,0
62670,0.298828,-0.878906,0.0751953,0
62690,0.315918,-0.911621,0.0649414,0
62710,0.32666,-0.915527,0.0595703,0
62730,0.339844,-0.886719,0.0610352,0
62750,0.359863,-0.888184,0.0415039,0
62770,0.385742,-0.876465,0.0229492,0
62790,0.378418,-0.866211,0.0239258,0
62800,0.359863,-0.891113,0.0170898,0
62820,0.372559,-0.898438,0.0180664,0
62840,0.39209,-0.873535,0.0131836,0
62860,0.434082,-0.868164,0.00488281,0
62880,0.474609,-0.855957,0.0288086,0
62900,0.48584,-0.853027,0.0078125,0
62920,0.486816,-0.861816,-0.0229492,0
62940,0.498535,-0.884766,-0.0297852,0
62960,0.501465,-0.867188,-0.0390625,0
62980,0.521973,-0.851074,-0.0341797,0
63000,0.557617,-0.818848,-0.0458984,0
63020,0.569824,-0.804688,-0.0556641,0
63040,0.584961,-0.79834,-0.0639648,0
63060,0.601074,-0.804688,-0.0756836,0
63080,0.569336,-0.794434,-0.0371094,0
63100,0.555176,-0.782227,-0.0546875,0
63120,0.59082,-0.757812,-0.0932617,0
63140,0.625,-0.742188,-0.11084,0
63160,0.664062,-0.727539,-0.127441,0
63180,0.671875,-0.734375,-0.130859,0
63200,0.66748,-0.724121,-0.133301,0
63220,0.658203,-0.750488,-0.142578,0
63240,0.677246,-0.773926,-0.188477,0
63260,0.729004,-0.773438,-0.181641,0
63280,0.715332,-0.722656,-0.151855,0
63310,0.681641,-0.705078,-0.214355,0
63330,0.681152,-0.702148,-0.208496,0
63350,0.691406,-0.681152,-0.198242,0
63370,0.692383,-0.689453,-0.217773,0
63390,0.689941,-0.687012,-0.234375,0
63410,0.691895,-0.65918,-0.223633,0
63430,0.711426,-0.661133,-0.234863,0
63450,0.727539,-0.64209,-0.250977,0
63470,0.726074,-0.633789,-0.258789,0
63490,0.73291,-0.616699,-0.270996,0
63510,0.740234,-0.609863,-0.271973,0
63530,0.755371,-0.619141,-0.283203,0
63550,0.735352,-0.610352,-0.291016,0
63570,0.751953,-0.59375,-0.28125,0
63590,0.791992,-0.584961,-0.28125,0
63610,0.789551,-0.570312,-0.294434,0
63630,0.768555,-0.553223,-0.29541,0
63650,0.785645,-0.552246,-0.288574,0
63670,0.777832,-0.530273,-0.297852,0
63690,0.794434,-0.529297,-0.316895,0
63710,0.828613,-0.504883,-0.293457,0
63730,0.822754,-0.509277,-0.28125,0
63750,0.810059,-0.523926,-0.271973,0
63770,0.828613,-0.534668,-0.280273,0
63790,0.864746,-0.508789,-0.224121,0
63810,0.852051,-0.483887,-0.240234,0
63830,0.834473,-0.459961,-0.267578,0
63850,0.838379,-0.430664,-0.248535,0
63870,0.869629,-0.428223,-0.20752,0
63890,0.84668,-0.4375,-0.224121,0
63910,0.825195,-0.432129,-0.225586,0
63930,0.848633,-0.430664,-0.208984,0
63950,0.857422,-0.439453,-0.180664,0
63970,0.867676,-0.421875,-0.17627,0
63990,0.887695,-0.396484,-0.199219,0
64010,0.894531,-0.378906,-0.200195,0
64030,0.91748,-0.373047,-0.200684,0
64050,0.913086,-0.380859,-0.180176,0
64070,0.894043,-0.381348,-0.137695,0
64090,0.910645,-0.376465,-0.131348,0
64110,0.913574,-0.361816,-0.15332,0
64130,0.880859,-0.342773,-0.133301,0
64150,0.878418,-0.330566,-0.103516,0
64170,0.894043,-0.335938,-0.0693359,0
64190,0.916016,-0.349609,-0.0825195,0
64210,0.88916,-0.361328,-0.0776367,0
64230,0.867676,-0.347656,-0.0258789,0
64250,0.865723,-0.377441,0.000976562,0
64270,0.876465,-0.358398,-0.015625,0
64290,0.878906,-0.374512,0.00683594,0
64310,0.875,-0.405762,0.0527344,0
64330,0.860352,-0.417969,0.0595703,0
64350,0.869141,-0.411133,0.0546875,0
64370,0.875,-0.425293,0.078125,0
64390,0.862793,-0.452637,0.114746,0
64410,0.837402,-0.469238,0.11377,0
64430,0.82959,-0.456543,0.0957031,0
64450,0.855469,-0.456543,0.100098,0
64470,0.857422,-0.493164,0.128906,0
64490,0.80127,-0.539062,0.157227,0
64510,0.786621,-0.529785,0.133789,0
64530,0.814941,-0.506348,0.130859,0
64550,0.828613,-0.515137,0.150391,0
64570,0.800781,-0.52832,0.165527,0
64590,0.772461,-0.547852,0.174316,0
64610,0.782715,-0.560059,0.190918,0
64630,0.804199,-0.572266,0.205566,0
64650,0.794922,-0.56543,0.191895,0
64670,0.777344,-0.557129,0.183594,0
64690,0.770996,-0.562988,0.186523,0
64710,0.727539,-0.609375,0.183105,0
64730,0.69873,-0.64209,0.197754,0
64750,0.714355,-0.646484,0.232422,0
64770,0.753906,-0.59082,0.231934,0
64790,0.756836,-0.608887,0.228027,0
64810,0.722656,-0.646484,0.242676,0
64830,0.723633,-0.646973,0.219727,0
64850,0.73584,-0.644531,0.220215,0
64870,0.727051,-0.632324,0.227051,0
64890,0.703613,-0.633301,0.226562,0
64910,0.68457,-0.632324,0.235352,0
64930,0.683594,-0.630371,0.225586,0
64950,0.6875,-0.647949,0.226074,0
64970,0.66748,-0.666992,0.242188,0
64990,0.658203,-0.683105,0.234863,0
65010,0.679199,-0.663574,0.214844,0
65030,0.661133,-0.661621,0.230957,0
65050,0.629883,-0.688965,0.219727,0
65070,0.621094,-0.703613,0.217285,0
65090,0.624023,-0.703125,0.212891,0
65110,0.587891,-0.697266,0.19043,0
65130,0.570801,-0.713379,0.192871,0
65150,0.574707,-0.710938,0.195312,0
65170,0.594238,-0.683594,0.230469,0
65190,0.590332,-0.729004,0.223145,0
65210,0.578613,-0.768066,0.202148,0
65230,0.563965,-0.797363,0.181152,0
65250,0.561035,-0.798828,0.185059,0
65270,0.550293,-0.771484,0.175293,0
65290,0.544922,-0.751465,0.179199,0
65310,0.53418,-0.783203,0.158203,0
65330,0.550781,-0.774414,0.14502,0
65350,0.560547,-0.78418,0.150879,0
65370,0.512695,-0.814941,0.145508,0
65390,0.529297,-0.817871,0.146973,0
65410,0.566406,-0.802734,0.130859,0
65430,0.557617,-0.79834,0.122559,0
65450,0.538574,-0.804688,0.118652,0
65470,0.524414,-0.821289,0.105469,0
65490,0.542969,-0.814941,0.112793,0
65510,0.541504,-0.812988,0.0996094,0
65530,0.544922,-0.818359,0.0556641,0
65550,0.552246,-0.841797,0.0429688,0
65570,0.524414,-0.840332,0.0522461,0
65590,0.512695,-0.850586,0.03125,0
65610,0.496094,-0.857422,0.0375977,0
65630,0.51416,-0.839844,0.034668,0
65650,0.517578,-0.847168,0.0195312,0
65670,0.481445,-0.836914,0.034668,0
65690,0.462891,-0.829102,0.03125,0
65710,0.464844,-0.842773,0.0322266,0
65730,0.447266,-0.844727,0.015625,0
65750,0.455078,-0.824219,0.0146484,0
65770,0.458496,-0.797363,0.00195312,0
65790,0.478027,-0.833984,-0.0195312,0
65810,0.457031,-0.842773,-0.0283203,0
65830,0.448242,-0.82666,-0.0454102,0
