Timestamp, Acceleration x, Acceleration y, Acceleration z, Marker
60,-0.791992,-0.548828,0.311035,0
80,-0.790039,-0.543457,0.301758,0
100,-0.799805,-0.534668,0.299316,0
120,-0.805664,-0.53418,0.291016,0
140,-0.794922,-0.53125,0.300781,0
150,-0.803711,-0.529297,0.290039,0
150,-0.810547,-0.528809,0.295898,0
190,-0.803223,-0.546387,0.285645,0
210,-0.800781,-0.544922,0.289062,0
230,-0.804688,-0.555176,0.291016,0
250,-0.804688,-0.545898,0.301758,0
270,-0.793457,-0.546875,0.299316,0
290,-0.786621,-0.547363,0.302734,0
310,-0.791016,-0.544434,0.30127,0
330,-0.788574,-0.541992,0.305176,0
350,-0.792969,-0.537598,0.304199,0
370,-0.797852,-0.53125,0.304688,0
390,-0.797363,-0.538086,0.297852,0
410,-0.801758,-0.540039,0.302246,0
430,-0.804199,-0.535645,0.303223,0
450,-0.795898,-0.53418,0.308105,0
470,-0.789062,-0.539551,0.302734,0
490,-0.790039,-0.54248,0.310059,0
510,-0.79834,-0.544922,0.299805,0
530,-0.794922,-0.544922,0.296875,0
550,-0.792969,-0.541016,0.296387,0
570,-0.787598,-0.541016,0.304199,0
590,-0.806641,-0.535156,0.306641,0
610,-0.807129,-0.540527,0.316406,0
630,-0.807617,-0.539062,0.308594,0
650,-0.808105,-0.538086,0.302246,0
670,-0.804688,-0.533691,0.306641,0
690,-0.799316,-0.529297,0.296387,0
710,-0.799805,-0.527344,0.301758,0
730,-0.794434,-0.521973,0.30957,0
750,-0.800781,-0.516113,0.313477,0
770,-0.79834,-0.528809,0.308594,0
790,-0.79834,-0.525879,0.302734,0
810,-0.801758,-0.53418,0.304688,0
830,-0.799316,-0.529297,0.311035,0
850,-0.797363,-0.541992,0.30957,0
870,-0.80127,-0.533203,0.303223,0
890,-0.801758,-0.535156,0.297363,0
910,-0.802246,-0.528809,0.308105,0
930,-0.803711,-0.531738,0.305176,0
950,-0.797852,-0.525391,0.310547,0
970,-0.798828,-0.536133,0.296387,0
990,-0.791504,-0.526855,0.29834,0
1010,-0.796387,-0.535156,0.311523,0
1030,-0.810547,-0.535156,0.312988,0
1050,-0.805664,-0.538574,0.309082,0
1070,-0.793945,-0.535645,0.300293,0
1090,-0.794434,-0.541504,0.302246,0
1110,-0.790527,-0.532227,0.305176,0
1130,-0.795898,-0.529785,0.307129,0
1140,-0.794434,-0.526367,0.308105,0
1160,-0.803711,-0.531738,0.311035,0
1180,-0.804688,-0.53418,0.316895,0
1200,-0.805176,-0.536133,0.304199,0
1220,-0.797852,-0.529297,0.303711,0
1240,-0.795898,-0.537109,0.311523,0
1260,-0.791992,-0.543945,0.29541,0
1280,-0.79541,-0.540527,0.299316,0
1300,-0.797852,-0.538574,0.301758,0
1320,-0.795898,-0.541016,0.306152,0
1340,-0.791992,-0.541016,0.309082,0
1360,-0.79248,-0.539551,0.303223,0
1380,-0.79248,-0.541992,0.305664,0
1400,-0.80127,-0.535156,0.314453,0
1420,-0.798828,-0.539551,0.308105,0
1440,-0.797363,-0.537109,0.308594,0
1460,-0.790527,-0.547852,0.313965,0
1480,-0.78418,-0.541504,0.304688,0
1500,-0.791992,-0.537598,0.307617,0
1520,-0.79541,-0.54248,0.301758,0
1540,-0.801758,-0.540039,0.314453,0
1560,-0.79834,-0.536133,0.30957,0
1580,-0.797363,-0.537598,0.310059,0
1600,-0.790039,-0.532715,0.304199,0
1620,-0.797852,-0.541504,0.303223,0
1640,-0.793945,-0.541016,0.301758,0
1660,-0.791504,-0.54248,0.312012,0
1680,-0.787109,-0.537598,0.305664,0
1700,-0.789062,-0.544434,0.306641,0
1720,-0.786133,-0.539062,0.300781,0
1740,-0.792969,-0.540039,0.307617,0
1760,-0.803711,-0.540039,0.30957,0
1780,-0.804199,-0.543457,0.311035,0
1800,-0.800781,-0.535156,0.30957,0
1820,-0.789551,-0.54248,0.305664,0
1840,-0.791992,-0.540039,0.307617,0
1860,-0.789551,-0.544922,0.309082,0
1880,-0.791504,-0.541504,0.310059,0
1900,-0.792969,-0.534668,0.312988,0
1920,-0.796875,-0.53125,0.309082,0
1940,-0.796875,-0.537109,0.312012,0
1960,-0.796387,-0.538574,0.307129,0
1980,-0.794434,-0.540039,0.298828,0
2000,-0.786621,-0.54541,0.306641,0
2020,-0.790039,-0.540527,0.313477,0
2040,-0.791016,-0.541504,0.311035,0
2060,-0.791504,-0.541504,0.306641,0
2080,-0.79248,-0.539062,0.298828,0
2100,-0.791992,-0.532227,0.301758,0
2120,-0.793457,-0.538574,0.308105,0
2140,-0.795898,-0.540039,0.305664,0
2160,-0.799316,-0.542969,0.312988,0
2180,-0.796387,-0.541504,0.311035,0
2200,-0.789551,-0.544922,0.306641,0
2220,-0.789062,-0.534668,0.306641,0
2240,-0.791016,-0.537598,0.311035,0
2260,-0.796875,-0.534668,0.317383,0
2280,-0.795898,-0.539062,0.307617,0
2300,-0.794434,-0.53418,0.309082,0
2320,-0.791992,-0.540527,0.305664,0
2340,-0.790039,-0.541992,0.306152,0
2360,-0.792969,-0.543457,0.304199,0
2380,-0.790527,-0.536133,0.308594,0
2400,-0.790039,-0.540527,0.313965,0
2420,-0.791992,-0.537109,0.3125,0
2440,-0.794922,-0.542969,0.311035,0
2460,-0.796875,-0.538574,0.309082,0
2480,-0.79541,-0.541992,0.315918,0
2500,-0.789551,-0.538574,0.306641,0
2520,-0.785645,-0.541992,0.305176,0
2540,-0.791016,-0.543945,0.3125,0
2560,-0.79834,-0.541016,0.312988,0
2580,-0.797363,-0.534668,0.30957,0
2600,-0.791992,-0.545898,0.304688,0
2620,-0.786621,-0.545898,0.306641,0
2640,-0.794434,-0.541992,0.308594,0
2660,-0.789062,-0.538574,0.3125,0
2680,-0.794922,-0.529785,0.308105,0
2700,-0.796875,-0.532227,0.309082,0
2720,-0.793945,-0.531738,0.300781,0
2740,-0.794922,-0.535156,0.307129,0
2760,-0.791504,-0.539062,0.312988,0
2780,-0.788086,-0.540527,0.309082,0
2800,-0.794434,-0.541016,0.311523,0
2820,-0.79541,-0.543945,0.311523,0
2840,-0.793945,-0.538574,0.305664,0
2860,-0.793945,-0.540527,0.310547,0
2880,-0.791504,-0.536621,0.308594,0
2900,-0.793457,-0.541992,0.311035,0
2920,-0.790527,-0.530273,0.317383,0
2940,-0.796387,-0.538574,0.312012,0
2960,-0.794922,-0.536621,0.312012,0
2980,-0.790039,-0.544922,0.305176,0
3000,-0.794922,-0.537598,0.311523,0
3020,-0.793457,-0.538086,0.307129,0
3040,-0.79248,-0.532715,0.314453,0
3060,-0.792969,-0.541992,0.312988,0
3080,-0.794434,-0.537109,0.311035,0
3100,-0.797363,-0.539551,0.311035,0
3120,-0.79248,-0.535645,0.306641,0
3130,-0.79541,-0.536133,0.313477,0
3150,-0.790039,-0.535645,0.316406,0
3170,-0.786621,-0.534668,0.310059,0
3190,-0.793945,-0.536621,0.307129,0
3210,-0.799316,-0.541992,0.308594,0
3230,-0.79541,-0.540039,0.311523,0
3250,-0.791992,-0.541504,0.316406,0
3270,-0.79248,-0.540039,0.310547,0
3290,-0.794922,-0.543457,0.297852,0
3310,-0.789062,-0.540527,0.308594,0
3330,-0.790527,-0.544434,0.313965,0
3350,-0.798828,-0.538086,0.316895,0
3370,-0.793945,-0.536621,0.307617,0
3390,-0.788086,-0.541992,0.311035,0
3410,-0.791016,-0.54541,0.313477,0
3430,-0.794922,-0.542969,0.304199,0
3450,-0.792969,-0.539551,0.307129,0
3470,-0.79248,-0.531738,0.311035,0
3490,-0.79834,-0.527832,0.306152,0
3510,-0.794434,-0.537109,0.309082,0
3530,-0.79248,-0.537598,0.316406,0
3550,-0.790527,-0.538086,0.312988,0
3570,-0.785645,-0.536621,0.312988,0
3590,-0.792969,-0.536133,0.307617,0
3610,-0.787109,-0.53418,0.304688,0
3630,-0.790527,-0.544434,0.314941,0
3650,-0.79541,-0.539551,0.317871,0
3670,-0.794922,-0.540039,0.309082,0
3690,-0.793945,-0.539551,0.311523,0
3710,-0.79541,-0.541504,0.3125,0
3730,-0.787598,-0.53125,0.318359,0
3750,-0.790039,-0.539062,0.315918,0
3770,-0.787598,-0.540039,0.314941,0
3790,-0.79248,-0.545898,0.313965,0
3810,-0.790527,-0.538086,0.312012,0
3830,-0.784668,-0.538574,0.314941,0
3850,-0.786133,-0.527832,0.321289,0
3870,-0.795898,-0.535645,0.31543,0
3890,-0.794434,-0.535645,0.320801,0
3910,-0.793945,-0.540527,0.311035,0
3930,-0.789062,-0.537109,0.315918,0
3950,-0.791992,-0.537598,0.314941,0
3970,-0.791504,-0.541504,0.317383,0
3990,-0.790527,-0.55127,0.321289,0
4010,-0.787109,-0.539551,0.315918,0
4030,-0.791016,-0.537109,0.317383,0
4050,-0.790527,-0.536133,0.307129,0
4070,-0.792969,-0.540527,0.312988,0
4090,-0.785645,-0.535645,0.313477,0
4110,-0.793457,-0.536621,0.324219,0
4130,-0.793457,-0.532227,0.322266,0
4150,-0.794434,-0.525879,0.316406,0
4170,-0.787109,-0.538086,0.310547,0
4190,-0.790039,-0.53125,0.318848,0
4210,-0.79248,-0.541016,0.319336,0
4230,-0.791504,-0.537109,0.317871,0
4250,-0.791016,-0.533691,0.319336,0
4270,-0.790039,-0.534668,0.307617,0
4290,-0.795898,-0.53418,0.314453,0
4310,-0.79248,-0.52832,0.316895,0
4330,-0.789062,-0.538574,0.32373,0
4350,-0.789062,-0.535156,0.318359,0
4370,-0.785645,-0.540527,0.318848,0
4390,-0.788574,-0.540527,0.323242,0
4410,-0.791992,-0.536621,0.319824,0
4430,-0.790527,-0.530762,0.317871,0
4450,-0.793945,-0.541504,0.323242,0
4470,-0.791992,-0.535156,0.317871,0
4490,-0.791992,-0.540039,0.320312,0
4510,-0.790039,-0.530762,0.321289,0
4530,-0.790039,-0.534668,0.319824,0
4550,-0.79248,-0.535156,0.320801,0
4570,-0.79248,-0.537109,0.320312,0
4590,-0.789551,-0.52832,0.318848,0
4610,-0.791016,-0.539062,0.318848,0
4630,-0.790039,-0.534668,0.316406,0
4650,-0.790039,-0.535645,0.324707,0
4670,-0.791504,-0.530273,0.328613,0
4690,-0.792969,-0.526855,0.326172,0
4710,-0.794434,-0.528809,0.32666,0
4730,-0.791992,-0.534668,0.320801,0
4750,-0.791504,-0.539062,0.324219,0
4770,-0.79248,-0.536133,0.325195,0
4790,-0.791992,-0.533691,0.324707,0
4810,-0.794922,-0.527344,0.315918,0
4830,-0.789062,-0.532227,0.324707,0
4850,-0.790527,-0.531738,0.30957,0
4870,-0.779785,-0.531738,0.320801,0
4890,-0.793457,-0.529297,0.330566,0
4910,-0.803711,-0.538574,0.331543,0
4930,-0.798828,-0.534668,0.322266,0
4950,-0.785156,-0.540039,0.322266,0
4970,-0.785156,-0.53125,0.321777,0
4990,-0.789062,-0.532715,0.320312,0
5010,-0.789551,-0.532715,0.321289,0
5030,-0.799316,-0.524414,0.327148,0
5050,-0.795898,-0.517578,0.319824,0
5070,-0.793945,-0.518555,0.319824,0
5090,-0.791016,-0.525391,0.320801,0
5110,-0.789062,-0.535645,0.325195,0
5130,-0.78418,-0.524414,0.331543,0
5150,-0.791504,-0.534668,0.332031,0
5170,-0.79248,-0.525391,0.32373,0
5190,-0.788574,-0.536133,0.318359,0
5210,-0.791992,-0.533691,0.324219,0
5230,-0.791992,-0.536133,0.314453,0
5250,-0.792969,-0.53125,0.324707,0
5270,-0.787109,-0.530273,0.318359,0
5290,-0.788086,-0.527832,0.324219,0
5310,-0.793945,-0.530273,0.314453,0
5330,-0.788574,-0.529297,0.333984,0
5350,-0.794434,-0.538086,0.318359,0
5370,-0.795898,-0.537109,0.320801,0
5390,-0.793945,-0.533203,0.314453,0
5410,-0.790527,-0.533691,0.317383,0
5430,-0.79248,-0.530762,0.318848,0
5450,-0.787598,-0.533691,0.319824,0
5470,-0.787598,-0.536133,0.321289,0
5490,-0.791504,-0.537598,0.318848,0
5510,-0.791504,-0.539062,0.324707,0
5530,-0.790039,-0.535645,0.321777,0
5550,-0.786621,-0.533691,0.31543,0
5570,-0.786621,-0.534668,0.311523,0
5590,-0.788086,-0.535645,0.317871,0
5610,-0.794922,-0.538574,0.328125,0
5630,-0.798828,-0.530762,0.320801,0
5650,-0.786133,-0.536621,0.306641,0
5670,-0.786621,-0.537598,0.313477,0
5690,-0.791992,-0.546875,0.314941,0
5710,-0.792969,-0.538574,0.316406,0
5730,-0.786133,-0.538574,0.320312,0
5750,-0.789062,-0.53125,0.317383,0
5770,-0.793457,-0.534668,0.315918,0
5790,-0.79541,-0.526855,0.313965,0
5810,-0.793945,-0.536621,0.318848,0
5830,-0.786133,-0.534668,0.318359,0
5850,-0.788086,-0.538086,0.319336,0
5870,-0.793945,-0.537598,0.322754,0
5890,-0.79541,-0.541504,0.316895,0
5910,-0.786133,-0.540039,0.319336,0
5930,-0.787109,-0.540039,0.311523,0
5950,-0.786621,-0.535156,0.310059,0
5970,-0.793457,-0.536133,0.316406,0
5990,-0.793945,-0.538574,0.318848,0
6010,-0.794434,-0.540039,0.312988,0
6030,-0.788574,-0.540527,0.307617,0
6050,-0.789062,-0.540039,0.308594,0
6070,-0.788574,-0.541992,0.31543,0
6090,-0.790039,-0.534668,0.315918,0
6110,-0.788574,-0.538086,0.310059,0
6130,-0.791504,-0.541992,0.31543,0
6150,-0.786621,-0.541016,0.31543,0
6170,-0.794434,-0.541992,0.317383,0
6190,-0.797852,-0.541992,0.314941,0
6210,-0.790039,-0.542969,0.312012,0
6230,-0.788574,-0.538574,0.319336,0
6250,-0.786621,-0.532227,0.3125,0
6270,-0.789062,-0.539551,0.30957,0
6290,-0.791992,-0.532715,0.306641,0
6310,-0.79248,-0.541016,0.312012,0
6330,-0.79248,-0.539062,0.321289,0
6350,-0.792969,-0.54541,0.311523,0
6370,-0.788574,-0.537598,0.303711,0
6390,-0.785156,-0.544434,0.304688,0
6410,-0.790039,-0.537109,0.311523,0
6430,-0.789551,-0.543945,0.316406,0
6450,-0.789551,-0.538574,0.318848,0
6470,-0.789551,-0.538086,0.31543,0
6490,-0.790527,-0.533691,0.311523,0
6510,-0.796875,-0.538574,0.315918,0
6530,-0.789062,-0.537598,0.320801,0
6540,-0.78418,-0.541992,0.317383,0
6560,-0.78418,-0.535156,0.314453,0
6580,-0.789062,-0.541992,0.317871,0
6600,-0.791504,-0.535156,0.318359,0
6620,-0.792969,-0.540039,0.318359,0
6640,-0.791992,-0.538574,0.323242,0
6660,-0.788086,-0.543457,0.311523,0
6680,-0.786621,-0.535645,0.316895,0
6700,-0.791016,-0.538086,0.320312,0
6720,-0.794922,-0.532227,0.316406,0
6740,-0.79248,-0.540039,0.317871,0
6760,-0.788086,-0.540039,0.313965,0
6780,-0.789062,-0.54248,0.31543,0
6800,-0.787598,-0.541992,0.318359,0
6820,-0.79248,-0.541016,0.3125,0
6840,-0.792969,-0.540039,0.304688,0
6860,-0.789551,-0.538086,0.31543,0
6880,-0.790039,-0.541992,0.30957,0
6900,-0.789551,-0.540039,0.317383,0
6920,-0.789551,-0.543945,0.30957,0
6940,-0.790527,-0.540039,0.308105,0
6960,-0.792969,-0.542969,0.306641,0
6980,-0.788086,-0.539062,0.305176,0
7000,-0.79248,-0.538086,0.314453,0
7020,-0.791016,-0.541504,0.311523,0
7040,-0.786133,-0.544434,0.309082,0
7060,-0.781738,-0.533691,0.30127,0
7080,-0.791504,-0.544434,0.310059,0
7100,-0.80127,-0.538574,0.312988,0
7120,-0.796387,-0.546387,0.310059,0
7140,-0.787598,-0.543945,0.30957,0
7160,-0.784668,-0.544922,0.30957,0
7180,-0.789062,-0.537598,0.310059,0
7200,-0.791992,-0.541504,0.309082,0
7220,-0.791504,-0.532227,0.310547,0
7240,-0.793457,-0.531738,0.317383,0
7260,-0.790527,-0.530762,0.313965,0
7280,-0.797852,-0.543457,0.30957,0
7300,-0.785645,-0.541992,0.313965,0
7320,-0.787598,-0.543945,0.310059,0
7340,-0.791016,-0.539551,0.313965,0
7360,-0.791504,-0.540039,0.320312,0
7380,-0.790039,-0.536621,0.31543,0
7400,-0.790039,-0.541504,0.311523,0
7420,-0.789551,-0.536621,0.314453,0
7440,-0.788574,-0.537598,0.318848,0
7460,-0.788574,-0.539551,0.321777,0
7480,-0.794922,-0.544434,0.324707,0
7500,-0.789551,-0.540039,0.317383,0
7520,-0.786133,-0.540039,0.322266,0
7540,-0.78418,-0.540527,0.322754,0
7560,-0.784668,-0.538086,0.317383,0
7580,-0.793457,-0.537598,0.318848,0
7600,-0.789551,-0.535156,0.32373,0
7620,-0.78418,-0.539551,0.318848,0
7640,-0.787598,-0.536133,0.323242,0
7660,-0.785645,-0.540039,0.316895,0
7680,-0.780762,-0.539062,0.309082,0
7700,-0.782715,-0.55127,0.310547,0
7720,-0.788574,-0.548828,0.313477,0
7740,-0.789551,-0.55127,0.315918,0
7760,-0.792969,-0.546387,0.315918,0
7780,-0.790039,-0.546387,0.314453,0
7800,-0.787109,-0.538574,0.313477,0
7820,-0.790039,-0.540527,0.307617,0
7840,-0.788574,-0.532715,0.310059,0
7860,-0.792969,-0.539062,0.32959,0
7880,-0.799316,-0.530762,0.323242,0
7900,-0.792969,-0.536133,0.323242,0
7920,-0.780273,-0.535156,0.317871,0
7940,-0.782227,-0.540039,0.306152,0
7960,-0.789062,-0.540039,0.313965,0
7980,-0.791504,-0.549805,0.317871,0
8000,-0.786621,-0.535645,0.317871,0
8020,-0.786133,-0.533691,0.321289,0
8040,-0.788086,-0.534668,0.31543,0
8060,-0.797852,-0.541504,0.310059,0
8080,-0.79248,-0.544434,0.325195,0
8100,-0.785156,-0.540527,0.319824,0
8120,-0.783691,-0.537109,0.320801,0
8140,-0.790039,-0.537598,0.316406,0
8160,-0.79248,-0.540527,0.318848,0
8180,-0.789551,-0.536621,0.325684,0
8200,-0.789551,-0.537598,0.317383,0
8220,-0.787109,-0.531738,0.320312,0
8240,-0.786621,-0.538086,0.324707,0
8260,-0.788574,-0.540039,0.318359,0
8280,-0.791992,-0.535156,0.314453,0
8300,-0.791992,-0.539062,0.320801,0
8320,-0.790527,-0.541016,0.321777,0
8340,-0.788574,-0.532227,0.324219,0
8360,-0.785645,-0.537598,0.322754,0
8380,-0.786621,-0.533691,0.315918,0
8400,-0.78418,-0.537598,0.321289,0
8420,-0.789062,-0.535645,0.321289,0
8440,-0.787109,-0.536621,0.317383,0
8460,-0.791016,-0.538574,0.316406,0
8480,-0.790039,-0.541992,0.325195,0
8500,-0.789062,-0.529785,0.321289,0
8520,-0.79248,-0.541504,0.318359,0
8540,-0.79248,-0.53125,0.323242,0
8550,-0.790039,-0.533203,0.325195,0
8570,-0.788574,-0.535156,0.320312,0
8590,-0.790527,-0.537109,0.32373,0
8610,-0.785156,-0.530273,0.327637,0
8630,-0.790039,-0.534668,0.330078,0
8650,-0.799316,-0.529785,0.33252,0
8670,-0.797852,-0.540527,0.322266,0
8690,-0.785156,-0.53418,0.328125,0
8710,-0.779297,-0.536133,0.322754,0
8730,-0.77832,-0.529297,0.320801,0
8750,-0.788574,-0.529785,0.322754,0
8770,-0.798828,-0.525879,0.318359,0
8790,-0.797363,-0.535156,0.322754,0
8810,-0.791992,-0.534668,0.324219,0
8830,-0.792969,-0.529785,0.328125,0
8850,-0.782715,-0.527832,0.323242,0
8870,-0.789551,-0.537109,0.319336,0
8890,-0.800293,-0.538086,0.315918,0
8910,-0.793457,-0.534668,0.326172,0
8930,-0.786133,-0.527832,0.328613,0
8950,-0.787109,-0.532715,0.326172,0
8970,-0.788086,-0.530762,0.317871,0
8990,-0.793945,-0.536133,0.317383,0
9010,-0.792969,-0.53418,0.322266,0
9030,-0.79248,-0.530273,0.333496,0
9050,-0.789062,-0.536133,0.322266,0
9070,-0.787598,-0.540039,0.321289,0
9090,-0.786133,-0.539062,0.316895,0
9110,-0.787109,-0.533203,0.321289,0
9130,-0.793945,-0.537109,0.315918,0
9150,-0.791016,-0.536621,0.321289,0
9170,-0.789551,-0.540527,0.318359,0
9190,-0.787598,-0.534668,0.317871,0
9210,-0.786133,-0.540527,0.319824,0
9230,-0.791504,-0.533691,0.312012,0
9250,-0.789551,-0.541992,0.322266,0
9270,-0.791016,-0.536621,0.318848,0
9290,-0.786621,-0.538086,0.322754,0
9310,-0.788574,-0.535645,0.3125,0
9330,-0.791504,-0.538086,0.316406,0
9350,-0.788574,-0.538574,0.322754,0
9370,-0.797852,-0.540039,0.325684,0
9390,-0.791992,-0.536621,0.322266,0
9410,-0.781738,-0.53418,0.311523,0
9430,-0.783203,-0.539551,0.312988,0
9450,-0.791016,-0.543457,0.3125,0
9470,-0.793945,-0.538086,0.313477,0
9490,-0.791504,-0.539551,0.321777,0
9510,-0.793457,-0.532227,0.319824,0
9530,-0.790527,-0.530273,0.318359,0
9550,-0.793945,-0.53418,0.317383,0
9570,-0.79248,-0.539062,0.319336,0
9590,-0.787109,-0.541016,0.31543,0
9610,-0.778809,-0.535645,0.319336,0
9630,-0.789551,-0.538086,0.322754,0
9650,-0.788086,-0.541992,0.314941,0
9670,-0.790527,-0.541016,0.314453,0
9690,-0.790039,-0.537598,0.313477,0
9710,-0.791504,-0.54248,0.319336,0
9730,-0.786133,-0.537598,0.319824,0
9750,-0.786621,-0.548828,0.316895,0
9770,-0.789062,-0.538574,0.3125,0
9790,-0.791992,-0.540527,0.312988,0
9810,-0.786621,-0.535645,0.313477,0
9830,-0.794922,-0.537598,0.312012,0
9850,-0.785645,-0.538086,0.313965,0
9870,-0.791992,-0.540039,0.320801,0
9890,-0.790527,-0.534668,0.320312,0
9910,-0.791016,-0.540039,0.313965,0
9930,-0.785645,-0.533203,0.313477,0
9950,-0.787109,-0.541504,0.30957,0
9970,-0.791992,-0.540039,0.317871,0
9990,-0.791016,-0.54248,0.321289,0
10010,-0.786621,-0.538086,0.319336,0
10030,-0.791504,-0.537598,0.316406,0
10050,-0.789551,-0.539551,0.3125,0
10070,-0.793945,-0.540527,0.310547,0
10090,-0.783691,-0.538086,0.317871,0
10110,-0.786133,-0.538574,0.320801,0
10130,-0.79541,-0.531738,0.318848,0
10150,-0.79541,-0.54248,0.313965,0
10170,-0.786621,-0.541992,0.311035,0
10190,-0.790039,-0.543457,0.315918,0
10210,-0.788086,-0.540527,0.320801,0
10230,-0.786133,-0.537109,0.319336,0
10250,-0.793457,-0.532227,0.318848,0
10270,-0.796387,-0.527832,0.313965,0
10290,-0.790527,-0.540527,0.314941,0
10310,-0.790039,-0.540039,0.320801,0
10330,-0.787598,-0.541992,0.316406,0
10350,-0.786621,-0.540039,0.315918,0
10370,-0.783691,-0.54248,0.314941,0
10390,-0.788086,-0.538086,0.31543,0
10410,-0.791992,-0.541016,0.311523,0
10430,-0.793457,-0.538574,0.307129,0
10450,-0.789062,-0.538574,0.309082,0
10470,-0.787598,-0.538574,0.316406,0
10490,-0.790527,-0.540039,0.308594,0
10510,-0.791016,-0.541992,0.311523,0
10530,-0.795898,-0.544434,0.314941,0
10550,-0.784668,-0.537598,0.314941,0
10570,-0.787109,-0.536621,0.30957,0
10590,-0.793457,-0.536621,0.310547,0
10610,-0.802734,-0.543457,0.304199,0
10630,-0.811035,-0.556152,0.293945,0
10650,-0.850098,-0.592285,0.258301,0
10670,-0.911621,-0.681641,0.24707,0
10690,-0.968262,-0.740234,0.183594,0
10710,-0.931641,-0.759277,0.233398,0
10730,-0.804688,-0.801758,0.217285,0
10750,-0.82666,-0.787598,0.238281,0
10770,-0.813965,-0.845703,0.268066,0
10790,-0.661621,-0.979492,0.277832,0
10810,-0.555664,-0.969727,0.341309,0
10830,-0.581543,-0.939941,0.279785,0
10850,-0.550781,-0.849121,0.319824,0
10870,-0.472656,-0.850586,0.400879,0
10890,-0.499023,-0.849609,0.475098,0
10910,-0.438477,-0.865723,0.499023,0
10930,-0.308594,-0.87207,0.469727,0
10950,-0.233887,-0.873535,0.426758,0
10970,-0.236816,-0.894043,0.436523,0
10990,-0.236816,-0.906738,0.422852,0
11010,-0.135254,-0.909668,0.436523,0
11030,-0.0820312,-0.895996,0.408691,0
11050,-0.0644531,-0.864258,0.407227,0
11070,-0.0444336,-0.848145,0.370605,0
11090,-0.019043,-0.838867,0.358887,0
11110,-0.027832,-0.830566,0.327148,0
11130,-0.0361328,-0.791504,0.27832,0
11150,0.0112305,-0.788574,0.297363,0
11170,0.0351562,-0.769531,0.281738,0
11190,0.0239258,-0.765625,0.28125,0
11210,0.0180664,-0.772461,0.226562,0
11230,0.00878906,-0.821289,0.213379,0
11250,-0.00585938,-0.839355,0.201172,0
11270,-0.0249023,-0.839844,0.19873,0
11290,-0.000976562,-0.825684,0.252441,0
11310,-0.015625,-0.84668,0.237793,0
11330,0.00878906,-0.890137,0.242188,0
11350,0.0395508,-0.931641,0.254883,0
11370,0.0244141,-0.957031,0.241699,0
11390,0.0541992,-0.957031,0.23291,0
11410,0.0708008,-0.935059,0.212891,0
11440,0.0380859,-0.967773,0.20752,0
11460,0.0332031,-0.97168,0.221191,0
11480,0.0302734,-0.969727,0.219238,0
11500,0.0522461,-0.95459,0.215332,0
11520,0.065918,-0.943359,0.212891,0
11540,0.0717773,-0.937988,0.231445,0
11560,0.0791016,-0.956055,0.210449,0
11580,0.0869141,-0.964355,0.197266,0
11600,0.0854492,-0.958984,0.208496,0
11620,0.065918,-0.953613,0.214844,0
11640,0.090332,-0.976562,0.206055,0
11660,0.09375,-0.963867,0.17627,0
11680,0.0512695,-0.960449,0.174316,0
11700,0.0239258,-0.973633,0.19043,0
11720,0.0297852,-0.990723,0.205078,0
11740,0.0566406,-0.985352,0.205078,0
11760,0.0585938,-0.992188,0.214355,0
11780,0.0444336,-0.984375,0.199707,0
11800,0.0395508,-0.997559,0.198242,0
11820,0.0478516,-0.983398,0.20459,0
11840,0.0556641,-0.97168,0.200195,0
11860,0.0732422,-0.944824,0.193359,0
11880,0.0761719,-0.960938,0.205566,0
11900,0.0585938,-0.969238,0.196777,0
11920,0.0478516,-0.974121,0.18457,0
11940,0.0576172,-0.930176,0.193848,0
11950,0.0595703,-0.920898,0.203125,0
11970,0.0615234,-0.95166,0.19873,0
11990,0.0463867,-0.98291,0.205566,0
12010,0.0415039,-0.983887,0.191895,0
12030,0.0673828,-0.961914,0.206543,0
12050,0.065918,-0.942383,0.203125,0
12070,0.0708008,-0.958008,0.200684,0
12090,0.0717773,-0.993164,0.203125,0
12110,0.0766602,-1.00781,0.214844,0
12130,0.0859375,-0.970215,0.209473,0
12150,0.090332,-0.944824,0.216797,0
12170,0.0893555,-0.951172,0.217773,0
12190,0.0800781,-0.977539,0.21582,0
12210,0.081543,-0.970215,0.216797,0
12230,0.090332,-0.953125,0.222168,0
12250,0.103516,-0.965332,0.21875,0
12270,0.101562,-0.96875,0.208984,0
12290,0.0986328,-0.975098,0.211426,0
12310,0.106445,-0.966797,0.211914,1000
12330,0.0917969,-0.946289,0.220215,0
12350,0.0913086,-0.959961,0.217773,0
12370,0.0898438,-0.973145,0.206055,0
12390,0.0966797,-0.964355,0.220703,0
12410,0.0927734,-0.95166,0.219727,0
12430,0.0932617,-0.945801,0.213379,0
12450,0.0825195,-0.95752,0.214844,0
12470,0.074707,-0.964844,0.220703,0
12490,0.0678711,-0.972168,0.212891,0
12510,0.0825195,-0.960938,0.203613,0
12530,0.078125,-0.95752,0.193848,0
12550,0.0532227,-0.949219,0.190918,0
12570,0.0458984,-0.947754,0.201172,0
12590,0.0537109,-0.94043,0.207031,0
12610,0.0532227,-0.942383,0.202148,0
12630,0.0415039,-0.951172,0.19043,0
12650,0.0302734,-0.952637,0.19043,0
12670,0.0600586,-0.953125,0.207031,0
12690,0.0917969,-0.960938,0.209473,0
12710,0.0703125,-0.95166,0.196289,0
12730,0.0527344,-0.953613,0.183594,0
12750,0.0615234,-0.939453,0.204102,0
12770,0.0600586,-0.954102,0.20166,0
12790,0.0849609,-0.95752,0.206055,0
12810,0.0966797,-0.962891,0.203125,0
12830,0.107422,-0.962891,0.206055,0
12850,0.119141,-0.954102,0.202637,0
12870,0.117676,-0.951172,0.207031,0
12890,0.121094,-0.968262,0.208008,0
12910,0.134766,-0.977539,0.216797,0
12930,0.137207,-0.972168,0.213867,0
12950,0.14209,-0.953613,0.207031,0
12970,0.144531,-0.943359,0.217773,0
12990,0.161133,-0.946289,0.21582,0
13010,0.17041,-0.959961,0.212402,0
13030,0.168457,-0.959473,0.224609,0
13050,0.174805,-0.954102,0.223145,0
13070,0.168945,-0.943359,0.237793,0
13090,0.175293,-0.938477,0.229004,0
13110,0.197266,-0.942383,0.230957,0
13130,0.199707,-0.942871,0.235352,0
13150,0.201172,-0.933594,0.24707,0
13170,0.219238,-0.932129,0.239746,0
13190,0.220215,-0.928223,0.233398,0
13210,0.219727,-0.939453,0.227051,0
13230,0.250977,-0.945801,0.242676,0
13250,0.254883,-0.927734,0.249512,0
13270,0.244629,-0.919922,0.225586,0
13290,0.258301,-0.91748,0.22998,0
13310,0.265137,-0.903809,0.251465,0
13330,0.271484,-0.90918,0.245117,0
13350,0.291504,-0.88916,0.236816,0
13370,0.263184,-0.890137,0.239258,0
13390,0.282227,-0.905273,0.229004,0
13410,0.310547,-0.90332,0.240234,0
13430,0.299316,-0.883789,0.234375,0
13450,0.291504,-0.894043,0.224121,0
13470,0.280762,-0.905273,0.223633,0
13490,0.297852,-0.905273,0.253906,0
13510,0.304688,-0.892578,0.228027,0
13530,0.297852,-0.881348,0.217285,0
13550,0.298828,-0.885254,0.231445,0
13570,0.331543,-0.889648,0.242188,0
13590,0.34082,-0.883301,0.232422,0
13610,0.347168,-0.880859,0.219727,0
13630,0.345703,-0.896484,0.235352,0
13650,0.338379,-0.889648,0.238281,0
13680,0.342773,-0.868164,0.221191,0
13710,0.367188,-0.875977,0.242676,0
13740,0.360352,-0.858887,0.246094,0
13760,0.409668,-0.851562,0.238281,0
13780,0.395508,-0.86377,0.274414,0
13800,0.399902,-0.839355,0.268066,0
13810,0.406738,-0.841309,0.239258,0
13830,0.424316,-0.84375,0.258789,0
13850,0.439453,-0.835938,0.246582,0
13870,0.415527,-0.823242,0.226074,0
13890,0.412598,-0.833496,0.228027,0
13910,0.413574,-0.830566,0.26123,0
13930,0.43457,-0.809082,0.243164,0
13950,0.446289,-0.827148,0.246582,0
13970,0.451172,-0.845703,0.249023,0
13990,0.437988,-0.809082,0.256348,0
14010,0.449219,-0.804199,0.268066,0
14030,0.435059,-0.818359,0.270996,0
14050,0.438965,-0.828125,0.266602,0
14070,0.436035,-0.80127,0.283203,0
14090,0.458008,-0.793457,0.287109,0
14110,0.431641,-0.792969,0.29541,0
14130,0.443848,-0.816406,0.296387,0
14150,0.447266,-0.817871,0.312988,0
14170,0.439453,-0.790039,0.305176,0
14190,0.451172,-0.780762,0.313477,0
14210,0.466797,-0.79541,0.320312,0
14230,0.473145,-0.798828,0.325684,0
14250,0.458008,-0.771484,0.317383,0
14270,0.473633,-0.773438,0.338867,0
14290,0.456055,-0.764648,0.316895,0
14310,0.496094,-0.746094,0.318848,0
14330,0.513184,-0.742676,0.327637,0
14350,0.525391,-0.753906,0.32959,0
14370,0.506836,-0.757324,0.333496,0
14390,0.52832,-0.744141,0.336914,0
14410,0.534668,-0.720703,0.333984,0
14430,0.549316,-0.717773,0.331055,0
14450,0.547363,-0.72998,0.335449,0
14470,0.550293,-0.743164,0.347168,0
14490,0.530762,-0.726562,0.349609,0
14510,0.537109,-0.699707,0.356934,0
14530,0.544922,-0.707031,0.373535,0
14550,0.546875,-0.716797,0.363281,0
14570,0.550781,-0.727051,0.36084,0
14590,0.523926,-0.720215,0.35791,0
14610,0.505859,-0.702637,0.38623,0
14630,0.503906,-0.702148,0.384766,0
14650,0.46582,-0.72168,0.390625,0
14670,0.439453,-0.729004,0.405273,0
14690,0.45459,-0.725586,0.406738,0
14710,0.452637,-0.713867,0.415527,0
14730,0.447754,-0.70166,0.42334,0
14750,0.434082,-0.712891,0.435059,0
14770,0.453613,-0.732422,0.429199,0
14790,0.481934,-0.73291,0.438965,0
14810,0.499023,-0.720703,0.417969,0
14830,0.480469,-0.712891,0.417969,0
14850,0.427246,-0.699707,0.43457,0
14870,0.427734,-0.716797,0.440918,0
14890,0.460449,-0.721191,0.449219,0
14910,0.474121,-0.717285,0.454102,0
14930,0.483398,-0.71875,0.440918,0
14950,0.472168,-0.724609,0.432617,0
14970,0.462402,-0.717285,0.449707,0
14990,0.428711,-0.71875,0.453125,0
15010,0.431152,-0.709961,0.462891,0
15030,0.442383,-0.720215,0.46582,0
15050,0.443359,-0.722656,0.479492,0
15070,0.436523,-0.724609,0.474121,0
15090,0.422852,-0.71875,0.48291,0
15110,0.422852,-0.69873,0.479492,0
15130,0.419434,-0.713867,0.496094,0
15150,0.407227,-0.737793,0.490723,0
15170,0.380371,-0.733887,0.49707,0
15190,0.374023,-0.713867,0.498047,0
15210,0.365234,-0.707031,0.494629,0
15230,0.384277,-0.720215,0.499512,0
15250,0.354492,-0.741699,0.49707,0
15270,0.296875,-0.737793,0.510254,0
15290,0.308105,-0.728516,0.519043,0
15310,0.333496,-0.730957,0.517578,0
15330,0.323242,-0.742676,0.498047,0
15350,0.275879,-0.748047,0.51123,0
15370,0.273926,-0.742188,0.507812,0
15390,0.292969,-0.739746,0.505859,0
15410,0.253418,-0.744141,0.517578,0
15430,0.251465,-0.75293,0.527344,0
15450,0.285645,-0.751953,0.512207,0
15470,0.283691,-0.750977,0.515137,0
15490,0.244141,-0.753418,0.516602,0
15510,0.21875,-0.754883,0.515137,0
15530,0.246582,-0.745605,0.533691,0
15550,0.269043,-0.749512,0.502441,0
15570,0.261719,-0.746582,0.520508,0
15590,0.224121,-0.752441,0.516602,0
15610,0.223633,-0.763672,0.531738,0
15630,0.233887,-0.761719,0.523926,0
15650,0.254395,-0.76709,0.526367,0
15670,0.250488,-0.760742,0.522949,0
15690,0.237793,-0.760254,0.519531,0
15710,0.217773,-0.764648,0.530273,0
15730,0.209473,-0.775391,0.530762,0
15750,0.211426,-0.772461,0.527344,0
15770,0.193359,-0.783203,0.537109,0
15790,0.195801,-0.787109,0.528809,0
15810,0.204102,-0.80127,0.527832,0
15830,0.188965,-0.795898,0.532715,0
15850,0.183105,-0.788086,0.516113,0
15860,0.188477,-0.794434,0.51709,0
15870,0.148926,-0.797363,0.513672,0
15890,0.14209,-0.791016,0.511719,0
15910,0.109863,-0.790039,0.501465,0
15930,0.105469,-0.79541,0.499512,0
15950,0.118164,-0.79248,0.497559,0
15970,0.129395,-0.794434,0.494629,0
15990,0.123535,-0.813477,0.479004,0
16010,0.129395,-0.829102,0.481445,0
16030,0.119629,-0.836914,0.491211,0
16050,0.106934,-0.835449,0.477051,0
16070,0.0913086,-0.82373,0.467285,0
16090,0.0717773,-0.820801,0.480469,0
16110,0.0488281,-0.821289,0.472168,0
16130,0.0732422,-0.83252,0.46582,0
16150,0.0893555,-0.818848,0.466309,0
16170,0.0693359,-0.821289,0.449219,0
16190,0.0678711,-0.807617,0.441406,0
16210,0.0849609,-0.829102,0.446777,0
16230,0.0913086,-0.828125,0.443848,0
16250,0.0786133,-0.830566,0.448242,0
16270,0.0776367,-0.814453,0.445801,0
16290,0.0981445,-0.824219,0.442383,0
16310,0.0800781,-0.836914,0.428711,0
16330,0.0854492,-0.850098,0.426758,0
16350,0.125977,-0.845703,0.426758,0
16370,0.120605,-0.842773,0.424805,0
16390,0.097168,-0.848145,0.433105,0
16410,0.108398,-0.865723,0.4375,0
16430,0.114258,-0.86377,0.428711,0
16450,0.10498,-0.859863,0.44043,0
16470,0.111328,-0.875,0.430176,0
16490,0.126465,-0.884277,0.430664,0
16510,0.119141,-0.883301,0.425781,0
16530,0.102051,-0.885742,0.422363,0
16550,0.112793,-0.87207,0.427734,0
16570,0.108398,-0.864746,0.431152,0
16590,0.0991211,-0.862793,0.407227,0
16610,0.0771484,-0.871094,0.399902,0
16630,0.065918,-0.884766,0.39502,0
16650,0.081543,-0.885742,0.381836,0
16670,0.0874023,-0.870605,0.367676,0
16690,0.0786133,-0.867188,0.356934,0
16710,0.0830078,-0.880371,0.351562,0
16730,0.0893555,-0.891602,0.342285,0
16750,0.0991211,-0.891602,0.35498,0
16770,0.09375,-0.871094,0.339844,0
16790,0.108887,-0.885742,0.324219,0
16810,0.0976562,-0.892578,0.329102,0
16830,0.0976562,-0.894043,0.310547,0
16850,0.11084,-0.885742,0.308594,0
16870,0.12793,-0.90625,0.319824,0
16890,0.145996,-0.914551,0.291992,0
16910,0.161621,-0.911621,0.299805,0
16930,0.155273,-0.899902,0.277832,0
16950,0.186523,-0.910645,0.274902,0
16970,0.20166,-0.885742,0.285645,0
16990,0.189453,-0.910645,0.264648,0
17010,0.225586,-0.916992,0.278809,0
17030,0.243164,-0.921875,0.266602,0
17050,0.243164,-0.920898,0.240723,0
17070,0.242188,-0.928223,0.247559,0
17090,0.240234,-0.900391,0.272461,0
17110,0.251953,-0.905762,0.26123,0
17130,0.293457,-0.924316,0.240723,0
17140,0.308105,-0.921387,0.236816,0
17160,0.319336,-0.906738,0.242188,0
17180,0.314453,-0.903809,0.256348,0
17200,0.328613,-0.889648,0.242188,0
17220,0.34082,-0.889648,0.223145,0
17240,0.351074,-0.880859,0.205078,0
17260,0.361816,-0.870605,0.228027,0
17280,0.376953,-0.879883,0.236816,0
17300,0.372559,-0.868164,0.22998,0
17320,0.356445,-0.859863,0.203125,0
17340,0.375977,-0.85498,0.206543,0
17360,0.405273,-0.842285,0.221191,0
17380,0.42041,-0.840332,0.207031,0
17400,0.401855,-0.85498,0.193848,0
17420,0.40625,-0.853027,0.206055,0
17440,0.442871,-0.849609,0.208984,0
17460,0.483398,-0.831543,0.186523,0
17480,0.483887,-0.812012,0.185059,0
17500,0.493164,-0.821777,0.186523,0
17520,0.496094,-0.838867,0.193359,0
17540,0.471191,-0.817871,0.184082,0
17560,0.486328,-0.819824,0.171875,0
17580,0.517578,-0.824219,0.163574,0
17600,0.513184,-0.825684,0.14209,0
17620,0.520508,-0.825195,0.146973,0
17640,0.534668,-0.84082,0.146484,0
17660,0.512695,-0.834473,0.152832,0
17680,0.495605,-0.817871,0.133789,0
17700,0.539062,-0.807617,0.118652,0
17720,0.578125,-0.813965,0.141602,0
17740,0.543457,-0.809082,0.127441,0
17760,0.532715,-0.808594,0.119629,0
17780,0.570801,-0.805664,0.120605,0
17800,0.55127,-0.803223,0.125,0
17820,0.573242,-0.790527,0.12793,0
17840,0.577148,-0.79541,0.114258,0
17860,0.57373,-0.779297,0.120117,0
17880,0.581055,-0.777832,0.123535,0
17900,0.564941,-0.762695,0.125977,0
17920,0.583984,-0.742676,0.122559,0
17940,0.606445,-0.728027,0.131348,0
17960,0.62793,-0.738281,0.132324,0
17980,0.627441,-0.737305,0.119141,0
18000,0.637695,-0.741699,0.108398,0
18020,0.619141,-0.72998,0.116699,0
18040,0.64209,-0.710938,0.118164,0
18060,0.649902,-0.702637,0.11084,0
18080,0.650391,-0.696289,0.104004,0
18100,0.665039,-0.712402,0.108398,0
18120,0.650879,-0.701172,0.112305,0
18140,0.69043,-0.681641,0.114746,0
18160,0.689941,-0.686523,0.111816,0
18180,0.671387,-0.678711,0.119141,0
18190,0.678223,-0.666992,0.112305,0
18220,0.680664,-0.652832,0.131348,0
18240,0.680664,-0.652832,0.135254,0
18260,0.698242,-0.656738,0.121094,0
18280,0.710449,-0.651367,0.127441,0
18300,0.706543,-0.638184,0.134766,0
18320,0.717285,-0.62793,0.134277,0
18340,0.720703,-0.632324,0.120605,0
18360,0.739258,-0.631836,0.12793,0
18380,0.723145,-0.633301,0.136719,0
18400,0.729492,-0.614746,0.145996,0
18420,0.739746,-0.618164,0.157227,0
18440,0.736816,-0.608398,0.161133,0
18460,0.740234,-0.612793,0.163086,0
18480,0.70459,-0.591309,0.171387,0
18500,0.731445,-0.598145,0.191895,0
18520,0.746094,-0.585449,0.194336,0
18540,0.75,-0.583496,0.196289,0
18560,0.759766,-0.588379,0.216797,0
18580,0.747559,-0.575684,0.228027,0
18600,0.726074,-0.559082,0.242188,0
18620,0.738281,-0.560547,0.240723,0
18640,0.734375,-0.55957,0.237305,0
18660,0.717773,-0.57666,0.255859,0
18680,0.723633,-0.575195,0.281738,0
18700,0.726562,-0.555176,0.285645,0
18720,0.754395,-0.553711,0.256348,0
18740,0.753906,-0.546875,0.265137,0
18760,0.731934,-0.580078,0.284668,0
18780,0.64502,-0.57666,0.322266,0
18800,0.680664,-0.568848,0.326172,0
18820,0.726074,-0.55127,0.305176,0
18840,0.721191,-0.585449,0.317871,0
18860,0.711426,-0.61084,0.34082,0
18880,0.636719,-0.607422,0.355469,0
18900,0.640137,-0.58252,0.364258,0
18920,0.670898,-0.590332,0.361816,0
18940,0.636719,-0.611816,0.377441,0
18960,0.560059,-0.645996,0.399414,0
18980,0.568359,-0.639648,0.410156,0
19000,0.623535,-0.621094,0.403809,0
19020,0.633789,-0.623535,0.395508,0
19030,0.575684,-0.671875,0.411621,0
19050,0.590332,-0.675781,0.424316,0
19070,0.607422,-0.664062,0.414062,0
19090,0.581543,-0.646973,0.402344,0
19110,0.54248,-0.66748,0.416504,0
19130,0.558594,-0.668457,0.413574,0
19150,0.56543,-0.67334,0.409668,0
19170,0.536133,-0.669434,0.405762,0
19190,0.532227,-0.678711,0.418945,0
19210,0.530273,-0.665527,0.418945,0
19230,0.544922,-0.68457,0.395996,0
19250,0.557129,-0.693359,0.397461,0
19270,0.520508,-0.71582,0.386719,0
19290,0.471191,-0.723633,0.414062,0
19310,0.477539,-0.715332,0.416016,0
19330,0.509766,-0.703125,0.40918,0
19350,0.504883,-0.700195,0.405762,0
19370,0.491699,-0.73877,0.410156,0
19390,0.458984,-0.739258,0.413574,0
19410,0.452637,-0.710938,0.410156,0
19430,0.479004,-0.709961,0.393555,0
19450,0.459961,-0.720215,0.404785,0
19470,0.436035,-0.734375,0.39502,0
19490,0.442871,-0.749023,0.391113,0
19510,0.458496,-0.739258,0.390625,0
19530,0.425293,-0.738281,0.379883,0
19550,0.399902,-0.754395,0.387207,0
19570,0.416016,-0.776367,0.391602,0
19580,0.435059,-0.779297,0.390625,0
19600,0.429688,-0.778809,0.378906,0
19610,0.400879,-0.778809,0.369629,0
19630,0.371094,-0.789062,0.384277,0
19640,0.369141,-0.790527,0.395996,0
19660,0.393555,-0.786133,0.384277,0
19680,0.396484,-0.788574,0.370117,0
19700,0.339844,-0.812988,0.368164,0
19720,0.309082,-0.811523,0.37793,0
19740,0.344238,-0.818848,0.374512,0
19760,0.340332,-0.816406,0.364258,0
19780,0.313477,-0.822754,0.37207,0
19800,0.300293,-0.82666,0.373047,0
19820,0.323242,-0.841309,0.365723,0
19840,0.341797,-0.834473,0.367188,0
19860,0.304199,-0.837891,0.355957,0
19880,0.298828,-0.836914,0.367676,0
19900,0.321777,-0.847656,0.393066,0
19920,0.330078,-0.836426,0.392578,0
19940,0.288086,-0.837891,0.371094,0
19960,0.262695,-0.851074,0.359375,0
19980,0.275391,-0.843262,0.360352,0
20000,0.29248,-0.844238,0.367676,0
20020,0.298828,-0.837402,0.345215,0
20040,0.280762,-0.861816,0.346191,0
20060,0.255859,-0.882812,0.343262,0
20080,0.249023,-0.868652,0.325684,0
20100,0.244629,-0.857422,0.330078,0
20120,0.227539,-0.843262,0.336426,0
20140,0.205078,-0.838867,0.314453,0
20160,0.20752,-0.86377,0.31543,0
20180,0.233398,-0.86084,0.317383,0
20200,0.260742,-0.874023,0.316406,0
20220,0.237305,-0.875488,0.300293,0
20240,0.251465,-0.898438,0.30127,0
20260,0.245605,-0.889648,0.297852,0
20280,0.23584,-0.893066,0.277832,0
20300,0.236816,-0.88623,0.29834,0
20320,0.218262,-0.878418,0.293945,0
20340,0.211426,-0.893066,0.302246,0
20360,0.221191,-0.895996,0.288574,0
20380,0.206543,-0.897949,0.26709,0
20400,0.230957,-0.899902,0.263184,0
20420,0.232422,-0.894531,0.250977,0
20440,0.240234,-0.887207,0.249023,0
20460,0.246582,-0.882812,0.267578,0
20480,0.25,-0.905273,0.252441,0
20500,0.21875,-0.908691,0.243164,0
20520,0.211914,-0.920898,0.236816,0
20540,0.257324,-0.911133,0.224609,0
20560,0.279297,-0.888672,0.244629,0
20580,0.247559,-0.895508,0.21875,0
20600,0.252441,-0.921875,0.220215,0
20620,0.276855,-0.919434,0.209961,0
20640,0.245605,-0.904785,0.196289,0
20660,0.266113,-0.905273,0.196777,0
20680,0.324707,-0.905762,0.199707,0
20700,0.3125,-0.913574,0.204102,0
20720,0.278809,-0.918945,0.209961,0
20740,0.297363,-0.936523,0.187012,0
20760,0.345215,-0.939453,0.17627,0
20780,0.339355,-0.901855,0.188477,0
20800,0.344238,-0.890137,0.190918,0
20820,0.35498,-0.890137,0.161621,0
20840,0.368652,-0.90332,0.166016,0
20860,0.356445,-0.887207,0.190918,0
20880,0.352539,-0.882324,0.180176,0
20900,0.404785,-0.89209,0.15332,0
20920,0.42334,-0.878906,0.148926,0
20940,0.389648,-0.892578,0.143555,0
20960,0.390625,-0.884277,0.145508,0
20980,0.421387,-0.889648,0.134277,0
21000,0.462891,-0.87207,0.116699,0
21020,0.439941,-0.860352,0.124512,0
21040,0.43457,-0.848145,0.125488,0
21060,0.46875,-0.855957,0.127441,0
21080,0.468262,-0.847656,0.118652,0
21100,0.480469,-0.847168,0.0986328,0
21120,0.5,-0.834961,0.104492,0
21140,0.51709,-0.832031,0.0966797,0
21160,0.519043,-0.833984,0.0991211,0
21180,0.523926,-0.823242,0.0976562,0
21200,0.534668,-0.8125,0.0864258,0
21220,0.550293,-0.806641,0.10498,0
21240,0.547363,-0.805664,0.065918,0
21260,0.5625,-0.796387,0.0688477,0
21280,0.564941,-0.764648,0.0981445,0
21300,0.561523,-0.770996,0.0908203,0
21320,0.580566,-0.772949,0.0800781,0
21340,0.630371,-0.77002,0.0629883,0
21360,0.643555,-0.760254,0.0600586,0
21380,0.632324,-0.739746,0.0600586,0
21400,0.634766,-0.741211,0.0449219,0
21420,0.638672,-0.745605,0.0141602,0
21440,0.652344,-0.73291,0.0292969,0
21460,0.663574,-0.725098,0.0415039,0
21480,0.65625,-0.710938,0.0429688,0
21500,0.669434,-0.710938,0.0400391,0
21520,0.691895,-0.70752,0.0258789,0
21540,0.67334,-0.703125,0.03125,0
21560,0.656738,-0.708008,0.00927734,0
21580,0.685059,-0.712891,0.0249023,0
21600,0.703613,-0.689453,0.00537109,0
21620,0.704102,-0.689453,-0.0078125,0
21640,0.706543,-0.68457,0,0
21660,0.71582,-0.67334,0.00292969,0
21680,0.710938,-0.654297,-0.00341797,0
21700,0.708496,-0.65332,-0.00683594,0
21720,0.739258,-0.649902,-0.00976562,0
21740,0.73291,-0.63916,0.0107422,0
21760,0.726074,-0.628418,0.00732422,0
21780,0.743652,-0.629883,0.012207,0
21800,0.759766,-0.613281,-0.00390625,0
21820,0.762207,-0.609863,0.00537109,0
21840,0.756836,-0.618164,0.00634766,0
21860,0.749023,-0.602051,-0.00634766,0
21880,0.755371,-0.590332,-0.015625,0
21900,0.774902,-0.586914,-0.00585938,0
21920,0.792969,-0.58252,0.0078125,0
21940,0.777344,-0.584473,0.012207,0
21960,0.789062,-0.566406,0,0
21980,0.811035,-0.561523,-0.00439453,0
22000,0.814453,-0.557129,-0.0244141,0
22020,0.800781,-0.539062,-0.00488281,0
22040,0.809082,-0.52832,0.00146484,0
22060,0.816406,-0.506836,0.00927734,0
22080,0.812988,-0.508301,0.00683594,0
22100,0.817383,-0.515625,0.0385742,0
22120,0.842285,-0.498535,0.0307617,0
22140,0.84082,-0.48291,0.0439453,0
22160,0.861816,-0.474609,0.0546875,0
22180,0.877441,-0.472168,0.0556641,0
22200,0.853516,-0.465332,0.0561523,0
22220,0.848145,-0.448242,0.0668945,0
22240,0.868164,-0.438965,0.0869141,0
22260,0.87207,-0.419922,0.0849609,0
22280,0.873047,-0.430664,0.0883789,0
22300,0.893066,-0.430176,0.115234,0
22320,0.883301,-0.39209,0.108398,0
22340,0.862305,-0.394043,0.101074,0
22360,0.85498,-0.395508,0.114746,0
22380,0.867188,-0.388184,0.12793,0
22400,0.840332,-0.375488,0.142578,0
22410,0.824707,-0.380371,0.15625,0
22430,0.827148,-0.374512,0.181152,0
22450,0.847168,-0.364746,0.186035,0
22470,0.890137,-0.372559,0.183594,0
22490,0.821289,-0.370117,0.214355,0
22510,0.798828,-0.389648,0.23584,0
22530,0.814941,-0.386719,0.247559,0
22550,0.838867,-0.397461,0.237793,0
22570,0.852539,-0.421387,0.243652,0
22590,0.835938,-0.447266,0.256348,0
22610,0.834473,-0.445312,0.283691,0
22630,0.84668,-0.432129,0.279297,0
22650,0.845215,-0.43457,0.288086,0
22670,0.799316,-0.477539,0.311035,0
22690,0.769043,-0.495605,0.331543,0
22710,0.776367,-0.491699,0.332031,0
22730,0.806641,-0.475586,0.319336,0
22750,0.772949,-0.480957,0.312012,0
22770,0.730957,-0.52002,0.358398,0
22790,0.751953,-0.520996,0.359375,0
22810,0.777344,-0.531738,0.35791,0
22830,0.758301,-0.538574,0.322266,0
22850,0.724121,-0.566406,0.355469,0
22870,0.708984,-0.565918,0.362793,0
22890,0.716797,-0.555176,0.360352,0
22910,0.695801,-0.549316,0.353027,0
22930,0.629395,-0.589355,0.37207,0
22950,0.62207,-0.600586,0.396484,0
22970,0.691406,-0.601074,0.389648,0
22990,0.708496,-0.589355,0.374023,0
23010,0.628906,-0.632812,0.394043,0
23030,0.610352,-0.664062,0.433105,0
23050,0.652832,-0.647461,0.417969,0
23070,0.641602,-0.645996,0.377441,0
23090,0.553711,-0.67041,0.395508,0
23110,0.520508,-0.687012,0.413574,0
23130,0.556641,-0.669434,0.400879,0
23150,0.559082,-0.656738,0.402832,0
23170,0.506836,-0.672363,0.394043,0
23190,0.47168,-0.680664,0.397949,0
23210,0.515137,-0.685547,0.413086,0
23230,0.543457,-0.656738,0.399414,0
23250,0.518066,-0.67627,0.380859,0
23270,0.469727,-0.694336,0.381348,0
23290,0.471191,-0.719238,0.397461,0
23310,0.526367,-0.712891,0.395996,0
23330,0.522461,-0.733887,0.344238,0
23350,0.482422,-0.76416,0.348633,0
23370,0.425293,-0.755371,0.371094,0
23390,0.454102,-0.742676,0.393066,0
23410,0.506348,-0.696777,0.366699,0
23430,0.448242,-0.719238,0.321777,0
23450,0.41748,-0.759766,0.349609,0
23470,0.42334,-0.779297,0.351074,0
23490,0.449707,-0.788574,0.32373,0
23510,0.429199,-0.784668,0.295898,0
23530,0.391602,-0.787109,0.287598,0
23550,0.414551,-0.804199,0.280273,0
23570,0.401367,-0.825684,0.268555,0
23590,0.397949,-0.831055,0.266602,0
23610,0.398926,-0.840332,0.266602,0
23630,0.40625,-0.829102,0.244629,0
23650,0.384766,-0.836914,0.22168,0
23670,0.380859,-0.853516,0.208496,0
23690,0.367676,-0.875,0.196777,0
23710,0.351074,-0.850586,0.18457,0
23730,0.382812,-0.853516,0.183594,0
23750,0.407715,-0.86084,0.181152,0
23770,0.387695,-0.878906,0.182129,0
23790,0.346191,-0.875977,0.17627,0
23810,0.335449,-0.850098,0.168945,0
23830,0.334961,-0.891113,0.146484,0
23850,0.378906,-0.89209,0.157227,0
23870,0.354004,-0.859375,0.15625,0
23890,0.335938,-0.867676,0.142578,0
23910,0.391602,-0.884277,0.123535,0
23930,0.363281,-0.894043,0.0786133,0
23950,0.355957,-0.895508,0.104004,0
23970,0.368164,-0.867676,0.116699,0
23990,0.35791,-0.887695,0.102539,0
24010,0.364746,-0.919922,0.0805664,0
24030,0.360352,-0.939941,0.0634766,0
24050,0.361816,-0.939941,0.0639648,0
24070,0.348633,-0.927246,0.0454102,0
24090,0.368652,-0.904785,0.0517578,0
24110,0.354492,-0.924805,0.0688477,0
24130,0.358398,-0.928711,0.0546875,0
24150,0.377441,-0.930176,0.0551758,0
24170,0.375977,-0.920898,0.0288086,0
24190,0.402832,-0.893066,0.0341797,0
24210,0.409668,-0.894531,0.0458984,0
24230,0.395996,-0.898926,0.0332031,0
24250,0.37793,-0.914062,-0.0146484,0
24270,0.374512,-0.90332,-0.0170898,0
24290,0.383789,-0.921387,-0.00390625,0
24310,0.415039,-0.925293,0,0
24330,0.436035,-0.919922,-0.0195312,0
24350,0.437988,-0.937988,-0.0283203,0
24370,0.445312,-0.939941,-0.0253906,0
24390,0.432617,-0.92041,-0.0229492,0
24400,0.421875,-0.911133,-0.0117188,0
24420,0.446289,-0.890137,-0.0341797,0
24440,0.439453,-0.875,-0.0400391,0
24460,0.439453,-0.882324,-0.0327148,0
24480,0.433105,-0.882324,-0.0532227,0
24500,0.428711,-0.880371,-0.0639648,0
24520,0.443848,-0.855469,-0.0571289,0
24540,0.464844,-0.841309,-0.0625,0
24560,0.487305,-0.841309,-0.0771484,0
24580,0.501465,-0.848633,-0.0795898,0
24600,0.492188,-0.858887,-0.0830078,0
24620,0.49707,-0.848633,-0.0854492,0
24640,0.492188,-0.84668,-0.0917969,0
24660,0.539062,-0.814453,-0.0834961,0
24680,0.572754,-0.789062,-0.0996094,0
24700,0.5625,-0.81543,-0.126953,0
24720,0.572266,-0.837402,-0.130371,0
24740,0.560547,-0.81543,-0.116211,0
24760,0.589355,-0.797363,-0.114746,0
24780,0.63916,-0.761719,-0.154297,0
24800,0.662598,-0.753906,-0.162109,0
24820,0.620117,-0.786133,-0.15625,0
24840,0.634766,-0.794922,-0.156738,0
24860,0.695312,-0.747559,-0.155273,0
24880,0.706055,-0.726562,-0.191895,0
24900,0.666992,-0.722168,-0.203125,0
24920,0.662109,-0.71875,-0.186035,0
24940,0.683105,-0.678223,-0.149902,0
24960,0.692871,-0.646484,-0.183105,0
24980,0.702148,-0.667969,-0.205078,0
25000,0.705566,-0.655273,-0.190918,0
25020,0.697266,-0.669922,-0.210449,0
25040,0.724609,-0.635254,-0.211426,0
25060,0.753906,-0.618164,-0.234863,0
25080,0.775391,-0.614746,-0.23584,0
25100,0.743164,-0.621094,-0.224609,0
25120,0.728516,-0.614258,-0.220215,0
25140,0.750488,-0.589355,-0.229492,0
25160,0.796387,-0.552734,-0.231445,0
25180,0.794922,-0.555176,-0.218262,0
25200,0.76416,-0.546387,-0.23291,0
25220,0.762695,-0.540527,-0.200195,0
25240,0.788086,-0.509766,-0.219238,0
25260,0.802734,-0.495605,-0.223633,0
25280,0.804199,-0.489258,-0.222168,0
25300,0.812988,-0.489746,-0.202148,0
25320,0.827148,-0.477539,-0.169434,1001
25340,0.80957,-0.453125,-0.182617,0
25360,0.79541,-0.426758,-0.193848,0
25380,0.865234,-0.41748,-0.157715,0
25400,0.893555,-0.429688,-0.14502,0
25420,0.912598,-0.419922,-0.137695,0
25440,0.942871,-0.408203,-0.131836,0
25460,0.98291,-0.402832,-0.125488,0
25480,0.968262,-0.40332,-0.109863,0
25500,0.933105,-0.390137,-0.132324,0
25520,0.951172,-0.385254,-0.117188,0
25540,0.931641,-0.381836,-0.11084,0
25560,0.905273,-0.385742,-0.11084,0
25580,0.869629,-0.396484,-0.105469,0
25600,0.858887,-0.398438,-0.11084,0
25620,0.869629,-0.393555,-0.140137,0
25640,0.865723,-0.398438,-0.144531,0
25660,0.811035,-0.44043,-0.102051,0
25680,0.804199,-0.436035,-0.156738,0
25700,0.796387,-0.477539,-0.114746,0
25720,0.801758,-0.48584,-0.102539,0
25740,0.811035,-0.465332,-0.123535,0
25760,0.774902,-0.466309,-0.141602,0
25780,0.753418,-0.482422,-0.09375,0
25800,0.773926,-0.524902,-0.0234375,0
25820,0.760254,-0.524414,-0.0654297,0
25840,0.695312,-0.55127,-0.0625,0
25860,0.537598,-0.569824,-0.0449219,0
25880,0.476562,-0.607422,0.0078125,0
25900,0.564453,-0.649414,0.0493164,0
25920,0.56543,-0.598145,0.0878906,0
25940,0.435547,-0.546387,0.101074,0
25960,0.367676,-0.588379,0.135254,0
25980,0.480957,-0.667969,0.181152,0
26000,0.588379,-0.716797,0.304688,0
26020,0.477051,-0.622559,0.333496,0
26040,0.371582,-0.564453,0.26709,0
26060,0.415039,-0.650879,0.20459,0
26080,0.608398,-0.696289,0.290527,0
26100,0.614258,-0.741211,0.444824,0
26120,0.480957,-0.690918,0.459473,0
26140,0.464844,-0.745605,0.383789,0
26160,0.54541,-0.78125,0.317383,0
26180,0.55957,-0.812988,0.416992,0
26200,0.470215,-0.797363,0.518555,0
26220,0.375488,-0.802246,0.53418,0
26240,0.384766,-0.916992,0.429688,0
26260,0.411133,-0.98877,0.431152,0
26280,0.316895,-1.01221,0.524414,0
26300,0.19873,-1.03711,0.496094,0
26320,0.208984,-1.03906,0.439941,0
26340,0.216797,-0.946289,0.52002,0
26360,0.0776367,-0.852539,0.476562,0
26380,-0.129395,-0.86377,0.509277,0
26400,-0.182617,-0.952148,0.442383,0
26420,-0.106445,-0.942383,0.422852,0
26440,-0.170898,-0.845215,0.474609,0
26460,-0.330078,-0.855469,0.47998,0
26480,-0.409668,-0.837891,0.460938,0
26500,-0.37793,-0.880859,0.458984,0
26520,-0.47168,-0.80957,0.439453,0
26540,-0.647461,-0.770996,0.460938,0
26560,-0.686523,-0.751465,0.416992,0
26580,-0.741699,-0.749512,0.329102,0
26600,-0.831543,-0.724121,0.259277,0
26620,-0.904297,-0.637695,0.296875,0
26640,-0.884277,-0.628906,0.288574,0
26660,-0.883301,-0.652344,0.243652,0
26680,-0.876953,-0.667969,0.249023,0
26700,-0.858887,-0.68457,0.220215,0
26750,-0.891113,-0.588379,0.27002,0
26770,-0.827148,-0.540039,0.257324,0
26790,-0.791992,-0.611816,0.239746,0
26810,-0.796387,-0.632812,0.240723,0
26830,-0.788574,-0.624023,0.266113,0
26850,-0.824707,-0.580078,0.266602,0
26870,-0.772461,-0.517578,0.191895,0
26890,-0.80127,-0.570312,0.184082,0
26910,-0.860352,-0.626465,0.242676,0
26930,-0.835449,-0.651855,0.241211,0
26950,-0.845703,-0.600586,0.263672,0
26970,-0.842773,-0.525391,0.291992,0
26990,-0.813965,-0.474609,0.322266,0
27010,-0.783203,-0.472656,0.307617,0
27030,-0.773926,-0.452148,0.263672,0
27040,-0.803223,-0.518066,0.288574,0
27070,-0.81543,-0.53418,0.260254,0
27090,-0.846191,-0.564941,0.265137,0
27110,-0.861816,-0.562012,0.300293,0
27130,-0.841309,-0.513184,0.320801,0
27150,-0.794434,-0.555176,0.321777,0
27170,-0.778809,-0.583008,0.306641,0
27190,-0.777832,-0.55957,0.279297,0
27210,-0.799805,-0.524902,0.273438,0
27230,-0.818359,-0.506836,0.274414,0
27250,-0.84375,-0.474609,0.271973,0
27270,-0.857422,-0.483887,0.27002,0
27290,-0.855469,-0.493164,0.271484,0
27310,-0.837891,-0.499512,0.275391,0
27330,-0.835938,-0.512695,0.269043,0
27350,-0.835449,-0.515137,0.282227,0
27360,-0.826172,-0.514648,0.278809,0
27380,-0.82373,-0.517578,0.279297,0
27400,-0.827637,-0.513672,0.274902,0
27410,-0.835449,-0.504395,0.266113,0
27430,-0.834961,-0.504395,0.265137,0
27450,-0.842773,-0.495605,0.272949,0
27470,-0.838867,-0.50293,0.273438,0
27490,-0.841309,-0.510254,0.26416,0
27510,-0.834473,-0.504883,0.268066,0
27530,-0.834961,-0.509277,0.261719,0
27550,-0.83252,-0.513672,0.277344,0
27570,-0.830078,-0.504395,0.27832,0
27590,-0.821777,-0.501465,0.274414,0
27610,-0.821289,-0.512695,0.277832,0
27630,-0.845215,-0.515137,0.265625,0
27650,-0.839355,-0.504883,0.265137,0
27670,-0.838867,-0.513672,0.270508,0
27690,-0.856934,-0.564941,0.275391,0
27710,-0.839355,-0.628906,0.296875,0
27730,-0.82666,-0.686523,0.251953,0
27750,-0.852539,-0.797852,0.183594,0
27770,-0.817383,-0.908691,0.262207,0
27790,-0.794434,-0.847656,0.390625,0
27810,-0.777344,-0.742188,0.361328,0
27820,-0.793945,-0.782227,0.356934,0
27840,-0.786621,-0.845215,0.435059,0
27860,-0.672363,-0.865723,0.507812,0
27880,-0.571289,-0.821777,0.527344,0
27900,-0.496094,-0.796387,0.505371,0
27920,-0.40918,-0.748047,0.528809,0
27940,-0.379395,-0.696289,0.516113,0
27960,-0.370117,-0.679199,0.489746,0
27980,-0.28125,-0.684082,0.477539,0
28000,-0.241211,-0.690918,0.505371,0
28020,-0.277832,-0.682129,0.478516,0
28040,-0.29248,-0.662109,0.417969,0
28060,-0.248535,-0.65332,0.420898,0
28080,-0.186035,-0.655762,0.468262,0
28100,-0.11084,-0.681641,0.447266,0
28120,-0.0595703,-0.753906,0.391602,0
28140,-0.0161133,-0.814453,0.42627,0
28160,0.0258789,-0.884766,0.480957,0
28180,0.0219727,-0.911621,0.541016,0
28200,0.0327148,-0.891113,0.521973,0
28220,0.043457,-0.868652,0.50293,0
28240,0.0922852,-0.862305,0.474609,0
28260,0.118652,-0.887207,0.456055,0
28280,0.112793,-0.896973,0.456055,0
28300,0.0864258,-0.860352,0.428223,0
28320,0.101074,-0.844238,0.395996,0
28340,0.115723,-0.841797,0.40332,0
28360,0.0922852,-0.819824,0.388184,0
28380,0.0478516,-0.788574,0.379395,0
28400,0.0180664,-0.791016,0.343262,0
28420,0.0351562,-0.799316,0.324219,0
28440,0.0532227,-0.824219,0.33252,0
28460,0.0629883,-0.854492,0.32666,0
28480,0.103516,-0.875977,0.322754,0
28500,0.15625,-0.873047,0.345703,0
28520,0.163574,-0.891602,0.34375,0
28540,0.18457,-0.895508,0.340332,0
28560,0.193359,-0.898926,0.341797,0
28580,0.150879,-0.875488,0.344727,0
28600,0.11084,-0.864746,0.325195,0
28620,0.130859,-0.86377,0.295898,0
28640,0.124023,-0.905273,0.305176,0
28660,0.0600586,-0.907227,0.320312,0
28680,0.00976562,-0.927734,0.30127,0
28750,0.125977,-0.932129,0.319336,0
28760,0.114258,-0.938965,0.317383,0
28780,0.10791,-0.92334,0.307129,0
28800,0.11084,-0.913574,0.294922,0
28820,0.0874023,-0.909668,0.30127,0
28840,0.0444336,-0.915039,0.299316,0
28860,0.0571289,-0.909668,0.324219,0
28880,0.0698242,-0.916016,0.32959,0
28900,0.0957031,-0.913086,0.317383,0
28920,0.11084,-0.92041,0.333008,0
28950,0.128906,-0.914062,0.33252,0
28970,0.130859,-0.898438,0.320312,0
28990,0.115234,-0.907227,0.307617,0
29030,0.114746,-0.929688,0.319336,0
29050,0.10498,-0.931641,0.31543,0
29070,0.123047,-0.891602,0.315918,1000
29090,0.159668,-0.875977,0.328613,0
29140,0.124023,-0.945801,0.332031,0
29160,0.128906,-0.933594,0.342285,0
29180,0.132324,-0.901855,0.345703,0
29200,0.137207,-0.902344,0.333984,0
29220,0.130371,-0.921875,0.334473,0
29250,0.132324,-0.930664,0.317871,0
29280,0.113281,-0.870117,0.322754,0
29330,0.120117,-0.939941,0.322754,0
29350,0.122559,-0.92041,0.314453,0
29370,0.109375,-0.903809,0.316895,0
29390,0.126465,-0.903809,0.325684,0
29410,0.144531,-0.915039,0.332031,0
29430,0.126465,-0.92334,0.32373,0
29450,0.125488,-0.913086,0.318359,0
29470,0.152832,-0.910645,0.334473,0
29490,0.143066,-0.907227,0.310059,0
29510,0.158203,-0.914551,0.304688,0
29530,0.15918,-0.916992,0.306641,0
29570,0.125488,-0.90918,0.304688,0
29610,0.163086,-0.900391,0.316406,0
29630,0.146973,-0.912598,0.320312,0
29640,0.134277,-0.905762,0.3125,0
29660,0.141602,-0.897949,0.312988,0
29680,0.138672,-0.876465,0.319824,0
29700,0.128418,-0.883789,0.314453,0
29720,0.162598,-0.907227,0.327148,0
29740,0.132812,-0.902832,0.318359,0
29780,0.20459,-0.896973,0.318359,0
29800,0.168945,-0.909668,0.3125,0
29820,0.202148,-0.904297,0.338867,0
29840,0.224609,-0.894531,0.325195,0
29860,0.209961,-0.899902,0.285645,0
29880,0.204102,-0.896484,0.30957,0
29900,0.238281,-0.901855,0.340332,0
29920,0.265625,-0.895508,0.318848,0
29940,0.274414,-0.891602,0.271973,0
29960,0.275391,-0.895508,0.288086,0
29980,0.283203,-0.902832,0.300293,0
30000,0.256348,-0.88623,0.287109,0
30020,0.248047,-0.862305,0.278809,0
30040,0.282227,-0.866211,0.288574,0
30060,0.305176,-0.878906,0.288086,0
30080,0.265625,-0.885254,0.276367,0
30100,0.277344,-0.879883,0.26416,0
30120,0.313965,-0.866211,0.275879,0
30130,0.337402,-0.861328,0.275391,0
30160,0.341797,-0.861816,0.288574,0
30180,0.358398,-0.853516,0.280273,0
30190,0.391113,-0.830566,0.265625,0
30220,0.433594,-0.830566,0.269043,0
30230,0.452148,-0.826172,0.281738,0
30250,0.445801,-0.830078,0.282227,0
30270,0.453613,-0.8125,0.287598,0
30290,0.470703,-0.796387,0.285645,0
30310,0.46875,-0.798828,0.285645,0
30330,0.448242,-0.800293,0.308105,0
30350,0.481445,-0.802246,0.314941,0
30370,0.484375,-0.793457,0.300293,0
30390,0.493164,-0.773438,0.305664,0
30410,0.492188,-0.775879,0.316406,0
30430,0.48584,-0.780762,0.312012,0
30450,0.45459,-0.770996,0.315918,0
30470,0.477539,-0.764648,0.325195,0
30490,0.491211,-0.751465,0.31543,0
30510,0.48877,-0.74707,0.310059,0
30530,0.497559,-0.755859,0.32373,0
30550,0.495117,-0.76123,0.325195,0
30570,0.494141,-0.742676,0.325684,0
30590,0.498047,-0.743164,0.329102,0
30610,0.514648,-0.739258,0.322266,0
30630,0.512207,-0.742676,0.324219,0
30650,0.51123,-0.733398,0.34375,0
30670,0.529297,-0.733398,0.345703,0
30690,0.549316,-0.720215,0.330566,0
30710,0.554688,-0.720703,0.335449,0
30730,0.555176,-0.708008,0.34082,0
30750,0.562012,-0.702148,0.342773,0
30770,0.558594,-0.688477,0.354004,0
30790,0.556641,-0.694824,0.359375,0
30810,0.547852,-0.697754,0.358887,0
30830,0.552734,-0.697754,0.370117,0
30850,0.549316,-0.678711,0.364258,0
30870,0.555664,-0.686523,0.368164,0
30890,0.551758,-0.685059,0.378906,0
30910,0.555664,-0.688965,0.375,0
30930,0.562988,-0.676758,0.382324,0
30950,0.575684,-0.672852,0.390137,0
30970,0.563477,-0.655762,0.384766,0
30990,0.558594,-0.662109,0.38916,0
31010,0.552734,-0.661621,0.401367,0
31030,0.555176,-0.666992,0.413574,0
31050,0.58252,-0.658203,0.417969,0
31070,0.571777,-0.643555,0.418457,0
31090,0.554199,-0.645508,0.414062,0
31110,0.546875,-0.662598,0.424316,0
31130,0.529297,-0.671387,0.447266,0
31150,0.535156,-0.672363,0.438965,0
31170,0.553711,-0.663086,0.430664,0
31190,0.543945,-0.658691,0.423828,0
31210,0.515625,-0.674316,0.442383,0
31230,0.519531,-0.6875,0.445312,0
31250,0.530762,-0.682129,0.454102,0
31270,0.532715,-0.673828,0.442871,0
31290,0.506348,-0.677246,0.435547,0
31310,0.452148,-0.681152,0.462891,0
31330,0.433594,-0.689941,0.481934,0
31350,0.470703,-0.675781,0.473145,0
31370,0.482422,-0.67041,0.466797,0
31390,0.438477,-0.669434,0.469727,0
31410,0.398926,-0.687012,0.486816,0
31430,0.437012,-0.680664,0.48877,0
31450,0.475586,-0.678223,0.479492,0
31470,0.472656,-0.677734,0.470215,0
31490,0.415527,-0.706055,0.486328,0
31510,0.39209,-0.700684,0.493164,0
31530,0.427246,-0.694336,0.496582,0
31550,0.459473,-0.671387,0.486328,0
31570,0.437012,-0.695312,0.483398,0
31590,0.381348,-0.703125,0.512695,0
31610,0.385742,-0.714844,0.519043,0
31630,0.424316,-0.695801,0.50293,0
31650,0.448242,-0.683594,0.504883,0
31670,0.432617,-0.6875,0.48877,0
31690,0.416504,-0.70752,0.504883,0
31710,0.408203,-0.714355,0.504883,0
31730,0.416992,-0.710449,0.494141,0
31750,0.40918,-0.705566,0.490723,0
31770,0.354492,-0.710449,0.48877,0
31790,0.316406,-0.711914,0.50293,0
31810,0.334473,-0.714355,0.521973,0
31830,0.361328,-0.708008,0.500488,0
31850,0.349609,-0.730957,0.477539,0
31890,0.324219,-0.748535,0.504395,0
31910,0.311523,-0.734863,0.475098,0
31930,0.25293,-0.756348,0.487305,0
31950,0.241699,-0.771484,0.509277,0
31970,0.272461,-0.759766,0.500977,0
31990,0.271484,-0.758301,0.477539,0
32010,0.23291,-0.764648,0.477539,0
32030,0.220703,-0.781738,0.497559,0
32050,0.242676,-0.787109,0.491211,0
32070,0.240723,-0.791504,0.483398,0
32090,0.212402,-0.816406,0.481934,0
32110,0.215332,-0.802734,0.496094,0
32130,0.239258,-0.786621,0.490723,0
32150,0.211914,-0.785645,0.475586,0
32170,0.179199,-0.812012,0.489746,0
32190,0.174805,-0.814941,0.499512,0
32210,0.197754,-0.806152,0.487305,0
32230,0.191406,-0.799316,0.478516,0
32250,0.183105,-0.799316,0.475586,0
32270,0.162109,-0.819824,0.474609,0
32290,0.166016,-0.819824,0.486328,0
32310,0.196777,-0.821777,0.495605,0
32330,0.171387,-0.828613,0.486328,0
32350,0.152832,-0.83252,0.473633,0
32370,0.140137,-0.830566,0.470703,0
32390,0.15918,-0.822754,0.478027,0
32410,0.155762,-0.814941,0.474609,0
32430,0.137695,-0.828613,0.458984,0
32450,0.120605,-0.843262,0.461426,0
32470,0.123047,-0.814941,0.460449,0
32490,0.124512,-0.820801,0.446777,0
32510,0.101074,-0.814453,0.431641,0
32530,0.0859375,-0.831543,0.434082,0
32550,0.0883789,-0.83252,0.437012,0
32570,0.111816,-0.81543,0.432617,0
32590,0.0854492,-0.819824,0.416992,0
32610,0.0825195,-0.830566,0.429688,0
32630,0.081543,-0.84375,0.437988,0
32650,0.090332,-0.862305,0.418457,0
32670,0.117676,-0.863281,0.421875,0
32690,0.110352,-0.85498,0.41748,0
32700,0.0917969,-0.859375,0.410645,0
32720,0.108398,-0.869629,0.428711,0
32740,0.112793,-0.876465,0.418945,0
32760,0.0913086,-0.868652,0.411621,0
32780,0.0673828,-0.879883,0.405762,0
32800,0.0893555,-0.865234,0.409668,0
32820,0.090332,-0.878906,0.416016,0
32840,0.0874023,-0.874512,0.40625,0
32860,0.0976562,-0.896973,0.414551,0
32880,0.0898438,-0.88916,0.419434,0
32900,0.0712891,-0.896484,0.394531,0
32920,0.0947266,-0.885254,0.386719,0
32940,0.115234,-0.896484,0.402832,0
32960,0.0917969,-0.879883,0.392578,0
32980,0.0830078,-0.902832,0.367188,0
33000,0.107422,-0.899902,0.364258,0
33020,0.0952148,-0.889648,0.35498,0
33040,0.107422,-0.866211,0.351074,0
33060,0.139648,-0.878906,0.337891,0
33080,0.125488,-0.892578,0.328613,0
33100,0.10791,-0.906738,0.333496,0
33120,0.133789,-0.911621,0.317383,0
33140,0.170898,-0.900391,0.321777,0
33160,0.152344,-0.890137,0.304199,0
33180,0.135742,-0.909668,0.291992,0
33200,0.168945,-0.917969,0.296387,0
33220,0.159668,-0.913574,0.288086,0
33240,0.14209,-0.905273,0.282715,0
33260,0.166504,-0.90625,0.275391,0
33280,0.18457,-0.911133,0.258789,0
33300,0.199707,-0.88916,0.263184,0
33320,0.189941,-0.876953,0.260742,0
33340,0.210449,-0.894043,0.287109,0
33360,0.196777,-0.916016,0.258301,0
33380,0.202637,-0.924316,0.243652,0
33400,0.22998,-0.90625,0.241699,0
33420,0.243164,-0.894043,0.246094,0
33440,0.246094,-0.903809,0.249023,0
33460,0.259277,-0.904785,0.248047,0
33480,0.276855,-0.913086,0.233398,0
33500,0.285156,-0.905273,0.237305,0
33520,0.292969,-0.909668,0.241699,0
33540,0.304688,-0.910645,0.209961,0
33560,0.350586,-0.916504,0.222168,0
33580,0.361328,-0.913574,0.231934,0
33600,0.347168,-0.897949,0.225098,0
33620,0.365723,-0.897949,0.199219,0
33640,0.391113,-0.898926,0.212891,0
33660,0.380371,-0.916016,0.202148,0
33680,0.39209,-0.894531,0.198242,0
33700,0.402344,-0.87793,0.187988,0
33720,0.405273,-0.881348,0.168945,0
33740,0.421875,-0.876465,0.17627,0
33760,0.40918,-0.866211,0.165039,0
33780,0.401855,-0.857422,0.141602,0
33800,0.430176,-0.85498,0.150879,0
33820,0.410156,-0.843262,0.146973,0
33840,0.385742,-0.854492,0.128906,0
33860,0.435547,-0.842285,0.129883,0
33880,0.477051,-0.831055,0.126465,0
33900,0.484375,-0.854004,0.117188,0
33920,0.480957,-0.885742,0.103027,0
33940,0.485352,-0.862305,0.101074,0
33960,0.508789,-0.835938,0.0893555,0
33980,0.506348,-0.821777,0.0961914,0
34000,0.48877,-0.839355,0.0991211,0
34020,0.525879,-0.84668,0.0844727,0
34040,0.552734,-0.834473,0.0512695,0
34060,0.53418,-0.82959,0.065918,0
34080,0.518066,-0.822754,0.0786133,0
34100,0.530273,-0.813477,0.0864258,0
34120,0.555176,-0.803711,0.0561523,0
34140,0.553223,-0.793457,0.0424805,0
34160,0.562012,-0.790527,0.0522461,0
34180,0.573242,-0.794922,0.0415039,0
34200,0.592285,-0.795898,0.0366211,0
34220,0.568848,-0.772461,0.0473633,0
34240,0.57373,-0.768555,0.0498047,0
34260,0.589844,-0.781738,0.0517578,0
34280,0.597656,-0.769531,0.0566406,0
34300,0.605957,-0.76123,0.0610352,0
34320,0.607422,-0.744141,0.0307617,0
34340,0.619141,-0.759766,0.0395508,0
34360,0.640137,-0.749023,0.0615234,0
34380,0.640625,-0.732422,0.0527344,0
34400,0.655762,-0.71582,0.0429688,0
34420,0.658691,-0.72168,0.0371094,0
34440,0.669922,-0.714844,0.0507812,0
34460,0.679688,-0.699219,0.0625,0
34480,0.689453,-0.67627,0.0463867,0
34500,0.710938,-0.681641,0.0366211,0
34520,0.701172,-0.682617,0.0419922,0
34540,0.70752,-0.670898,0.0698242,0
34560,0.70459,-0.637207,0.0634766,0
34580,0.724121,-0.641602,0.0605469,0
34600,0.730957,-0.64502,0.0766602,0
34620,0.728027,-0.631836,0.078125,0
34640,0.720703,-0.620605,0.081543,0
34660,0.719238,-0.623047,0.0737305,0
34670,0.740723,-0.611328,0.0864258,0
34690,0.724609,-0.599609,0.0888672,0
34710,0.751465,-0.598145,0.0874023,0
34730,0.744629,-0.603027,0.0883789,0
34780,0.787109,-0.573242,0.125488,0
34800,0.796875,-0.567383,0.128906,0
34820,0.79541,-0.55127,0.137207,0
34840,0.803711,-0.552246,0.163086,0
34860,0.815918,-0.548828,0.176758,0
34880,0.809082,-0.528809,0.193359,0
34900,0.828613,-0.521484,0.1875,0
34920,0.842773,-0.537598,0.182129,0
34940,0.828125,-0.526367,0.200684,0
34960,0.797852,-0.514648,0.224609,0
34980,0.806152,-0.5,0.249023,0
35000,0.810059,-0.495605,0.246094,0
35020,0.770996,-0.487305,0.242676,0
35040,0.762695,-0.513184,0.266602,0
35060,0.757812,-0.505371,0.286133,0
35080,0.742676,-0.491699,0.288574,0
35100,0.789551,-0.501953,0.286621,0
35120,0.755859,-0.518066,0.288086,0
35140,0.688477,-0.52832,0.322754,0
35160,0.720215,-0.544922,0.307617,0
35180,0.799316,-0.527344,0.310547,0
35200,0.774414,-0.540039,0.311523,0
35220,0.654785,-0.543457,0.335938,0
35240,0.652832,-0.563477,0.366211,0
35260,0.743652,-0.557617,0.34082,0
35280,0.75,-0.576172,0.328613,0
35300,0.681641,-0.591797,0.344238,0
35320,0.625,-0.600586,0.381836,0
35340,0.667969,-0.585449,0.380371,0
35360,0.69043,-0.596191,0.351074,0
35380,0.608887,-0.60791,0.374023,0
35400,0.549316,-0.631836,0.408203,0
35420,0.580078,-0.63916,0.384277,0
35440,0.599609,-0.633789,0.372559,0
35460,0.523926,-0.649902,0.404297,0
35480,0.506836,-0.679688,0.415527,0
35500,0.577148,-0.666016,0.399414,0
35520,0.583984,-0.658691,0.382324,0
35540,0.505859,-0.679688,0.391113,0
35560,0.429688,-0.726562,0.421875,0
35580,0.480469,-0.71875,0.414551,0
35600,0.54541,-0.674805,0.373535,0
35620,0.529297,-0.685059,0.396973,0
35640,0.440918,-0.741211,0.402832,0
35660,0.436035,-0.765137,0.422852,0
35680,0.487305,-0.737793,0.393555,0
35700,0.47168,-0.73291,0.384277,0
35720,0.391113,-0.753906,0.411133,0
35740,0.394531,-0.77832,0.429199,0
35760,0.431641,-0.765625,0.405762,0
35780,0.421387,-0.777344,0.402344,0
35800,0.382812,-0.788086,0.407227,0
35820,0.366211,-0.802246,0.419922,0
35840,0.374023,-0.782227,0.405273,0
35860,0.360352,-0.772949,0.408691,0
35880,0.328125,-0.788086,0.392578,0
35900,0.319824,-0.808105,0.406738,0
35920,0.329102,-0.79541,0.394531,0
35940,0.316406,-0.804199,0.391113,0
35960,0.291504,-0.806152,0.395508,0
35980,0.293457,-0.825684,0.380371,0
36000,0.306152,-0.810547,0.354492,0
36020,0.280273,-0.812012,0.378906,0
36040,0.275879,-0.811035,0.367188,0
36060,0.289551,-0.804688,0.362793,0
36080,0.282715,-0.816895,0.36377,0
36100,0.275391,-0.844238,0.35498,0
36120,0.262207,-0.869141,0.34375,0
36140,0.300293,-0.859863,0.341797,0
36160,0.291016,-0.841309,0.334473,0
36180,0.270508,-0.839844,0.333008,0
36200,0.277344,-0.843262,0.325684,0
36220,0.306641,-0.869141,0.345215,0
36240,0.284668,-0.871582,0.335938,0
36260,0.293457,-0.869629,0.328613,0
36280,0.30957,-0.884766,0.322754,0
36300,0.290527,-0.883789,0.32666,0
36320,0.259277,-0.873535,0.320312,0
36340,0.276855,-0.86377,0.308105,0
36360,0.26709,-0.856445,0.314453,0
36380,0.262207,-0.870605,0.312988,0
36400,0.28125,-0.890625,0.30957,0
36420,0.292969,-0.890625,0.300293,0
36440,0.290527,-0.888184,0.286133,0
36460,0.291992,-0.889648,0.300293,0
36480,0.302246,-0.901367,0.274902,0
36500,0.307129,-0.893066,0.269043,0
36520,0.306152,-0.889648,0.263672,0
36540,0.275879,-0.901855,0.238281,0
36560,0.281738,-0.897949,0.243164,0
36580,0.3125,-0.884766,0.237305,0
36600,0.309082,-0.878906,0.230957,0
36620,0.30957,-0.896973,0.225098,0
36640,0.305176,-0.921875,0.225586,0
36660,0.30957,-0.905762,0.216797,0
36680,0.313477,-0.89502,0.201172,0
36700,0.319336,-0.887207,0.193848,0
36720,0.309082,-0.893555,0.189941,0
36740,0.299316,-0.901855,0.171387,0
36760,0.296875,-0.903809,0.160645,0
36780,0.285645,-0.899902,0.154297,0
36800,0.284668,-0.887207,0.158691,0
36820,0.274902,-0.874023,0.129883,0
36840,0.265137,-0.903809,0.121582,0
36860,0.312012,-0.916992,0.117676,0
36880,0.336426,-0.930664,0.101562,0
36900,0.321289,-0.919434,0.0854492,0
36920,0.307129,-0.909668,0.078125,0
36940,0.321777,-0.897949,0.0869141,0
36960,0.361328,-0.910645,0.0776367,0
36980,0.367676,-0.913086,0.0571289,0
37000,0.359863,-0.924805,0.0380859,0
37020,0.371094,-0.928711,0.0400391,0
37040,0.430664,-0.918945,0.0556641,0
37060,0.453125,-0.899902,0.0463867,0
37080,0.453125,-0.899414,0.0175781,0
37100,0.423828,-0.910645,0.0078125,0
37120,0.432617,-0.902344,0.0268555,0
37140,0.448242,-0.888184,0.00878906,0
37160,0.486328,-0.85791,-0.0107422,0
37180,0.478027,-0.84375,-0.027832,0
37200,0.464844,-0.85791,-0.0229492,0
37220,0.476074,-0.838379,0.0239258,0
37240,0.493164,-0.828125,0.0141602,0
37260,0.497559,-0.83252,-0.0239258,0
37280,0.530762,-0.8125,-0.0214844,0
37300,0.537109,-0.793457,-0.00585938,0
37320,0.537598,-0.775391,0.0200195,0
37340,0.577637,-0.783203,-0.0244141,0
37360,0.598145,-0.783203,-0.00830078,0
37380,0.589844,-0.772461,0.000488281,0
37400,0.600586,-0.789062,-0.03125,0
37420,0.700195,-0.791992,-0.0283203,0
37440,0.738281,-0.758301,-0.0185547,0
37460,0.65332,-0.745117,-0.0249023,0
37480,0.625488,-0.740723,-0.0424805,0
37500,0.687012,-0.728516,-0.0415039,0
37520,0.708008,-0.698242,-0.0268555,0
37540,0.655762,-0.693848,-0.0249023,0
37560,0.65332,-0.709961,-0.0561523,0
37580,0.693848,-0.704102,-0.0400391,0
37600,0.712891,-0.668457,-0.0410156,0
37620,0.681641,-0.677246,-0.0581055,0
37640,0.692871,-0.693848,-0.0664062,0
37660,0.740723,-0.706055,-0.0522461,0
37680,0.730469,-0.67041,-0.0405273,0
37700,0.709961,-0.647949,-0.0146484,0
37720,0.742188,-0.657227,-0.0546875,0
37740,0.76416,-0.659668,-0.0146484,0
37760,0.735352,-0.639648,-0.0161133,0
37780,0.752441,-0.635254,-0.0581055,0
37800,0.770508,-0.640137,-0.0317383,0
37820,0.768555,-0.616699,0.00585938,0
37840,0.767578,-0.608887,0.0112305,0
37860,0.79248,-0.594727,-0.00585938,0
37880,0.796875,-0.599609,0.0219727,0
37900,0.765137,-0.581543,0.0361328,0
37920,0.773438,-0.571289,0.0195312,0
37940,0.807129,-0.561523,0.0244141,0
37960,0.801758,-0.567383,0.0249023,0
37980,0.793457,-0.552734,0.027832,0
38000,0.782227,-0.542969,0.0512695,0
38020,0.78125,-0.524414,0.0473633,0
38040,0.80957,-0.51416,0.0439453,0
38060,0.832031,-0.505859,0.0507812,0
38070,0.82666,-0.51709,0.0512695,0
38090,0.828613,-0.491211,0.0688477,0
38110,0.831543,-0.46875,0.0717773,0
38130,0.82373,-0.460449,0.0756836,0
38150,0.833984,-0.462402,0.0883789,0
38170,0.838379,-0.464844,0.114746,0
38190,0.834961,-0.456055,0.124023,0
38210,0.843262,-0.434082,0.117188,0
38230,0.86377,-0.422363,0.115723,0
38250,0.862793,-0.41748,0.123535,0
38270,0.858887,-0.422852,0.137695,0
38290,0.847656,-0.408203,0.17041,0
38310,0.856934,-0.410156,0.180176,0
38330,0.852539,-0.401367,0.178223,0
38350,0.861328,-0.396973,0.193359,0
38370,0.879883,-0.404297,0.188965,0
38390,0.851562,-0.410645,0.213379,0
38410,0.835938,-0.410645,0.233887,0
38430,0.833984,-0.402832,0.234375,0
38450,0.852539,-0.407715,0.240234,0
38470,0.816406,-0.428711,0.253418,0
38490,0.806152,-0.44873,0.266113,0
38510,0.827637,-0.440918,0.272461,0
38530,0.845215,-0.438965,0.259766,0
38550,0.788086,-0.473633,0.28418,0
38570,0.776855,-0.473633,0.291992,0
38590,0.831055,-0.463867,0.285645,0
38610,0.84375,-0.494141,0.277832,0
38630,0.79541,-0.510254,0.280273,0
38650,0.713867,-0.541016,0.339844,0
38670,0.773438,-0.548828,0.337402,0
38690,0.841309,-0.563477,0.287598,0
38700,0.794434,-0.591309,0.327148,0
38720,0.699707,-0.638184,0.400391,0
38740,0.747559,-0.634277,0.405762,0
38760,0.800293,-0.600098,0.363281,0
38780,0.717773,-0.591309,0.344727,0
38800,0.589844,-0.643555,0.395508,0
38820,0.584961,-0.678223,0.438477,0
38840,0.689941,-0.659668,0.399414,0
38860,0.662598,-0.622559,0.345703,0
38880,0.525391,-0.657715,0.382324,0
38900,0.520996,-0.675293,0.426758,0
38920,0.631348,-0.656738,0.399414,0
38940,0.641602,-0.641113,0.334961,0
38960,0.475098,-0.655762,0.351074,0
38980,0.418457,-0.698242,0.408691,0
39000,0.52832,-0.682129,0.388184,0
39020,0.547852,-0.64502,0.364746,0
39040,0.452148,-0.660156,0.350098,0
39060,0.423828,-0.695801,0.366699,0
39080,0.43457,-0.685059,0.38916,0
39100,0.467773,-0.681152,0.364258,0
39120,0.456543,-0.708984,0.328613,0
39140,0.389648,-0.759277,0.328613,0
39160,0.391602,-0.777832,0.33252,0
39180,0.397461,-0.780762,0.320312,0
39200,0.389648,-0.79541,0.329102,0
39220,0.365723,-0.815918,0.308105,0
39240,0.383301,-0.851562,0.321777,0
39260,0.40332,-0.842773,0.305664,0
39280,0.391602,-0.834961,0.294922,0
39300,0.356934,-0.830078,0.297852,0
39320,0.331543,-0.819824,0.288086,0
39340,0.335449,-0.800781,0.27832,0
39360,0.311035,-0.81543,0.275391,0
39380,0.327637,-0.843262,0.255859,0
39400,0.362305,-0.828613,0.230469,0
39420,0.308105,-0.833496,0.239258,0
39440,0.288574,-0.836426,0.216309,0
39460,0.325195,-0.819824,0.209473,0
39480,0.311523,-0.842285,0.199219,0
39500,0.335938,-0.876465,0.208008,0
39520,0.337402,-0.873535,0.205078,0
39540,0.312988,-0.90332,0.192383,0
39580,0.37793,-0.929199,0.193848,0
39600,0.339355,-0.947266,0.189941,0
39620,0.326172,-0.92627,0.172852,0
39640,0.327637,-0.935059,0.152832,0
39660,0.365723,-0.931152,0.176758,0
39680,0.339844,-0.942383,0.163086,0
39700,0.327637,-0.933594,0.148438,0
39720,0.32666,-0.932129,0.144043,0
39740,0.355469,-0.926758,0.128418,0
39760,0.368652,-0.93457,0.130859,0
39780,0.344238,-0.9375,0.129395,0
39800,0.331543,-0.912598,0.12207,0
39820,0.352539,-0.899902,0.110352,0
39840,0.352051,-0.889648,0.10791,0
39860,0.334473,-0.884277,0.0791016,0
39880,0.351074,-0.898926,0.0654297,0
39900,0.352539,-0.896484,0.0712891,0
39920,0.386719,-0.893555,0.0737305,0
39940,0.391113,-0.899414,0.0620117,0
39960,0.371094,-0.910645,0.050293,0
39980,0.362305,-0.915039,0.0517578,0
40000,0.35498,-0.882812,0.027832,0
40020,0.379883,-0.876953,0.0258789,0
40040,0.411621,-0.869629,0.0146484,0
40050,0.420898,-0.866699,-0.00439453,0
40070,0.408691,-0.897461,-0.0185547,0
40090,0.418945,-0.906738,-0.0244141,0
40110,0.445312,-0.934082,-0.0141602,0
40130,0.450684,-0.897461,-0.0292969,0
40150,0.443848,-0.885254,-0.0522461,0
40170,0.46875,-0.897461,-0.0458984,0
40190,0.493652,-0.902344,-0.0566406,0
40210,0.474609,-0.884277,-0.0581055,0
40230,0.489258,-0.880859,-0.0703125,0
40250,0.531738,-0.839355,-0.103516,0
40270,0.54834,-0.833984,-0.115723,0
40290,0.518066,-0.839355,-0.105957,0
40310,0.491211,-0.833984,-0.0913086,0
40330,0.543945,-0.813477,-0.109863,0
40350,0.586426,-0.800781,-0.138184,0
40370,0.568359,-0.79541,-0.142578,0
40390,0.543457,-0.784668,-0.10791,0
40410,0.548828,-0.785156,-0.130371,0
40430,0.676758,-0.75293,-0.152832,0
40450,0.702637,-0.739746,-0.175781,0
40470,0.629395,-0.74707,-0.15918,0
40490,0.629395,-0.758301,-0.13916,0
40510,0.686035,-0.742188,-0.163574,0
40530,0.745117,-0.706055,-0.178223,0
40550,0.71875,-0.687012,-0.18457,0
40570,0.691895,-0.685059,-0.171875,0
40590,0.727051,-0.67627,-0.19043,0
40610,0.76416,-0.63623,-0.189453,0
40630,0.759277,-0.588867,-0.213867,0
40650,0.754883,-0.583984,-0.231445,0
40670,0.756348,-0.585938,-0.213867,0
40690,0.742188,-0.554688,-0.202637,0
40710,0.737305,-0.506836,-0.193359,0
40730,0.750977,-0.517578,-0.235352,0
40750,0.790527,-0.488281,-0.219238,0
40770,0.8125,-0.476562,-0.185547,1001
40790,0.773438,-0.476074,-0.145996,0
40810,0.780273,-0.471191,-0.214355,0
40830,0.851562,-0.462402,-0.160645,0
40850,0.866699,-0.441406,-0.134766,0
40870,0.856445,-0.452148,-0.193848,0
40890,0.915527,-0.467285,-0.203613,0
40910,0.944824,-0.479492,-0.187988,0
40930,0.89502,-0.510742,-0.163574,0
40950,0.849121,-0.455566,-0.148438,0
40970,0.856934,-0.442871,-0.142578,0
40990,0.86084,-0.508789,-0.132812,0
41010,0.856445,-0.552734,-0.160156,0
41030,0.833984,-0.541992,-0.156738,0
41050,0.782227,-0.520508,-0.141113,0
41070,0.76709,-0.510254,-0.162598,0
41090,0.762695,-0.561523,-0.157227,0
41110,0.745117,-0.575684,-0.115723,0
41130,0.711914,-0.560547,-0.106934,0
41150,0.680176,-0.539551,-0.110352,0
41170,0.69043,-0.579102,-0.123535,0
41190,0.650391,-0.603027,-0.102051,0
41210,0.580078,-0.601074,-0.0644531,0
41230,0.564453,-0.569336,-0.0375977,0
41250,0.565918,-0.57666,-0.0375977,0
41270,0.57959,-0.612793,-0.012207,0
41290,0.571289,-0.652832,0.00537109,0
41310,0.615234,-0.699707,0.0185547,0
41330,0.649902,-0.687988,0.0317383,0
41350,0.617188,-0.705566,0.00634766,0
41370,0.633301,-0.75,-0.0185547,0
41390,0.652832,-0.763672,0.046875,0
41410,0.543457,-0.777344,0.0522461,0
41430,0.520508,-0.767578,0.0546875,0
41450,0.519043,-0.809082,0.0361328,0
41470,0.563965,-0.825195,0.0859375,0
41490,0.533691,-0.819824,0.10791,0
41510,0.486328,-0.845703,0.0791016,0
41530,0.495117,-0.887695,0.0683594,0
41550,0.476074,-0.902832,0.116211,0
41570,0.430176,-0.877441,0.167969,0
41590,0.383789,-0.897461,0.15625,0
41610,0.395996,-0.963867,0.128906,0
41630,0.435547,-1.01514,0.136719,0
41650,0.442383,-0.985352,0.200195,0
41670,0.373047,-1.02441,0.197266,0
41690,0.394531,-1.08984,0.163086,0
41710,0.397949,-1.12207,0.199219,0
41730,0.318359,-1.10352,0.194824,0
41750,0.270508,-1.09229,0.171875,0
41770,0.27832,-1.05225,0.182617,0
41790,0.25293,-1.05029,0.169434,0
41810,0.202637,-1.05371,0.15332,0
41830,0.174316,-1.03027,0.158203,0
41850,0.154297,-0.997559,0.152832,0
41870,0.131348,-0.97998,0.121582,0
41890,0.0942383,-0.979492,0.0991211,0
41910,0.0415039,-0.966309,0.107422,0
41930,0.0625,-0.959473,0.115723,0
41950,0.111816,-0.969238,0.123047,0
41970,0.131836,-0.980957,0.12207,0
41990,0.0996094,-0.993652,0.113281,0
42010,0.0458984,-1.0127,0.0952148,0
42030,0.043457,-1.02002,0.0795898,0
42050,0.0307617,-1.01514,0.0986328,0
42070,0.0131836,-0.98877,0.114746,0
42090,0.00976562,-0.974121,0.140625,0
42110,0.015625,-0.97998,0.118164,0
42130,-0.00927734,-0.995605,0.104004,0
42150,-0.027832,-0.99707,0.0986328,0
42170,-0.0258789,-0.98877,0.0874023,0
42190,-0.00537109,-0.95166,0.0957031,0
42210,-0.0112305,-0.956543,0.119629,0
42230,-0.0141602,-0.952637,0.102051,1000
42250,-0.0253906,-0.996094,0.117676,0
42270,-0.0102539,-0.998535,0.118164,0
42290,0.00390625,-0.995117,0.139648,0
42310,0.00683594,-1.01562,0.126953,0
42330,0.0288086,-1.03271,0.142578,0
42350,0.0253906,-1.01514,0.167969,0
42370,0.0141602,-1.01758,0.179688,0
42390,-0.00244141,-0.998535,0.176758,0
42410,-0.000488281,-1.00635,0.194336,0
42430,0.00195312,-1.03955,0.185547,0
42450,0.0249023,-1.04346,0.192383,0
42470,0.0483398,-1.01025,0.20166,0
42490,0.0395508,-1.00195,0.185547,0
42510,0.0483398,-0.987793,0.182617,0
42530,0.0395508,-0.999023,0.174316,0
42550,0.034668,-0.996582,0.176758,0
42570,0.0405273,-0.979004,0.155273,0
42590,0.0244141,-0.961426,0.160156,0
42610,0.0375977,-0.95459,0.168945,0
42630,0.0405273,-0.965332,0.149414,0
42650,0.00683594,-0.972168,0.162109,0
42670,-0.0141602,-0.978027,0.155273,0
42690,-0.00634766,-0.991699,0.163086,0
42710,-0.00341797,-0.986328,0.165527,0
42730,-0.0302734,-0.967285,0.141113,0
42750,-0.0390625,-0.986328,0.136719,0
42770,-0.0146484,-0.981445,0.132324,0
42790,0.00341797,-0.980469,0.15918,0
42810,0.0136719,-0.991699,0.151367,0
42830,0.0102539,-0.982422,0.137207,0
42850,0.0175781,-0.983398,0.141113,0
42870,0.0302734,-0.990234,0.147949,0
42890,0.0151367,-0.978027,0.161621,0
42910,0.019043,-0.966797,0.160156,0
42930,0.0385742,-0.959473,0.165527,0
42950,0.0263672,-0.977051,0.172363,0
42970,0.0166016,-0.98877,0.171875,0
42990,0.00878906,-0.991211,0.157715,0
43010,0.00634766,-0.980957,0.158691,0
43030,0.00537109,-0.964844,0.151855,0
43050,-0.00830078,-0.944336,0.151367,0
43070,-0.00878906,-0.976562,0.169434,0
43090,0.00732422,-1.00537,0.163086,0
43110,0.0175781,-0.999512,0.161621,0
43130,0.00390625,-0.980957,0.145508,0
43150,-0.0229492,-0.949707,0.146484,0
43170,-0.00244141,-0.943848,0.157715,0
43190,0.00830078,-0.968262,0.158691,0
43210,0.0107422,-0.986816,0.164551,0
43230,0.00683594,-0.987793,0.164062,0
43250,0.0131836,-0.977051,0.156738,0
43270,0.0258789,-0.966797,0.164062,0
43290,0.0405273,-0.967773,0.161133,0
43310,0.0136719,-0.972168,0.158203,0
43330,0.00244141,-0.977539,0.175781,0
43350,0.0341797,-0.976562,0.196777,0
43370,0.0678711,-0.976074,0.190918,0
43390,0.0693359,-0.976562,0.172852,0
43410,0.0805664,-0.98584,0.183594,0
43430,0.0976562,-0.994629,0.193359,0
43450,0.160645,-0.995117,0.208984,0
43470,0.165527,-0.979492,0.202148,0
43490,0.148926,-0.990723,0.185547,0
43500,0.173828,-0.980957,0.19043,0
43520,0.196777,-0.974609,0.196289,0
43540,0.202148,-0.946289,0.17334,0
43560,0.189453,-0.936035,0.157715,0
43580,0.18457,-0.942383,0.163574,0
43600,0.181641,-0.951172,0.150391,0
43620,0.174805,-0.953125,0.13916,0
43640,0.169922,-0.954102,0.137695,0
43660,0.15625,-0.967285,0.138184,0
43680,0.172852,-0.961914,0.138184,0
43700,0.163574,-0.94873,0.133789,0
43720,0.155762,-0.949219,0.12793,0
43740,0.179199,-0.941406,0.143555,0
43760,0.186035,-0.946777,0.152344,0
43780,0.17334,-0.937012,0.145508,0
43800,0.187988,-0.9375,0.152344,0
43820,0.210449,-0.942871,0.156738,0
43840,0.233887,-0.952148,0.134766,0
43860,0.249023,-0.925781,0.145508,0
43880,0.250488,-0.923828,0.161133,0
43900,0.279297,-0.934082,0.152832,0
43920,0.282227,-0.92041,0.155273,0
43960,0.351074,-0.927246,0.150879,0
43980,0.361816,-0.907227,0.153809,0
44000,0.333496,-0.908691,0.141602,0
44020,0.31543,-0.929199,0.141113,0
44040,0.34375,-0.925293,0.150391,0
44060,0.35498,-0.90625,0.156738,0
44080,0.359375,-0.899902,0.152344,0
44100,0.349609,-0.893066,0.148926,0
44120,0.345703,-0.899902,0.151367,0
44140,0.36084,-0.895508,0.154785,0
44150,0.364746,-0.883789,0.176758,0
44170,0.354004,-0.877441,0.176758,0
44190,0.366211,-0.883789,0.168457,0
44210,0.370605,-0.878906,0.170898,0
44230,0.383301,-0.879395,0.180664,0
44250,0.384277,-0.871094,0.188477,0
44270,0.390137,-0.864258,0.177734,0
44290,0.41748,-0.875,0.164551,0
44310,0.449707,-0.882812,0.186523,0
44330,0.416992,-0.855957,0.194824,0
44350,0.411133,-0.862793,0.197754,0
44370,0.466309,-0.867188,0.1875,0
44390,0.481934,-0.859375,0.214355,0
44420,0.447266,-0.847656,0.210938,0
44440,0.472656,-0.841309,0.203125,0
44460,0.482422,-0.831055,0.22168,0
44480,0.461426,-0.806152,0.237793,0
44500,0.469727,-0.818359,0.23877,0
44520,0.495605,-0.799316,0.233398,0
44540,0.504883,-0.79541,0.232422,0
44560,0.486816,-0.793945,0.254395,0
44580,0.480469,-0.787109,0.266113,0
44600,0.501953,-0.776367,0.26709,0
44620,0.500977,-0.776855,0.269531,0
44640,0.498535,-0.775879,0.263672,0
44660,0.51416,-0.78125,0.267578,0
44680,0.530762,-0.777344,0.276367,0
44700,0.513672,-0.766113,0.276855,0
44720,0.53125,-0.773438,0.297852,0
44740,0.527832,-0.764648,0.298828,0
44760,0.516602,-0.757324,0.316895,0
44780,0.524902,-0.765137,0.306152,0
44800,0.52832,-0.759277,0.308105,0
44820,0.541016,-0.76123,0.31543,0
44840,0.539551,-0.756348,0.324707,0
44860,0.541016,-0.750977,0.333008,0
44880,0.546387,-0.741699,0.340332,0
44900,0.520508,-0.746094,0.333984,0
44920,0.516602,-0.75293,0.342285,0
44940,0.516113,-0.739746,0.347168,0
44960,0.520996,-0.735352,0.353516,0
44980,0.510742,-0.727051,0.354492,0
45000,0.506348,-0.724609,0.375488,0
45020,0.507812,-0.723145,0.38623,0
45040,0.497559,-0.737793,0.371094,0
45060,0.518066,-0.737793,0.384277,0
45080,0.510742,-0.743164,0.374023,0
45100,0.46875,-0.730957,0.380371,0
45120,0.451172,-0.73584,0.405273,0
45140,0.448242,-0.731934,0.415527,0
45160,0.433594,-0.75,0.416992,0
45180,0.431641,-0.742188,0.422363,0
45200,0.44873,-0.733887,0.413574,0
45220,0.422852,-0.729004,0.427246,0
45240,0.379395,-0.742676,0.428711,0
45260,0.390137,-0.760742,0.44873,0
45280,0.402344,-0.771973,0.463379,0
45300,0.412109,-0.742676,0.450684,0
45320,0.39209,-0.726074,0.414062,0
45340,0.352539,-0.730957,0.418945,0
45360,0.316895,-0.763184,0.462891,0
45380,0.331055,-0.783691,0.477539,0
45400,0.383789,-0.768066,0.45459,0
45410,0.364746,-0.746094,0.445312,0
45430,0.279785,-0.750977,0.472656,0
45450,0.285156,-0.758301,0.487793,0
45470,0.342773,-0.772949,0.48291,0
45490,0.36084,-0.774414,0.477539,0
45510,0.323242,-0.771484,0.487793,0
45530,0.300781,-0.77832,0.501465,0
45550,0.30127,-0.786621,0.510742,0
45570,0.328613,-0.780273,0.495605,0
45590,0.326172,-0.775879,0.491211,0
45610,0.306641,-0.783691,0.501953,0
45630,0.278809,-0.793457,0.508789,0
45650,0.28418,-0.792969,0.492188,0
45670,0.317383,-0.774414,0.48877,0
45690,0.289062,-0.768555,0.47168,0
45710,0.230469,-0.785645,0.496582,0
45730,0.225098,-0.803711,0.503418,0
45750,0.253906,-0.789551,0.490234,0
45770,0.250977,-0.786621,0.475098,0
45790,0.198242,-0.795898,0.475098,0
45810,0.169922,-0.805664,0.499023,0
45830,0.199707,-0.785156,0.501465,0
45850,0.231934,-0.782715,0.473145,0
45870,0.194824,-0.792969,0.463867,0
45890,0.156738,-0.822754,0.469238,0
45910,0.185059,-0.817871,0.478516,0
45930,0.201172,-0.812012,0.457031,0
45950,0.144531,-0.799316,0.444824,0
45970,0.0883789,-0.821289,0.481934,0
45990,0.11377,-0.821289,0.470703,0
46010,0.155762,-0.8125,0.462402,0
46030,0.124512,-0.819336,0.460449,0
46050,0.0922852,-0.82959,0.442383,0
46070,0.119141,-0.828125,0.45459,0
46090,0.123535,-0.82666,0.445312,0
46110,0.0961914,-0.837891,0.444824,0
46130,0.0878906,-0.853027,0.440918,0
46150,0.114258,-0.847656,0.444336,0
46170,0.115723,-0.865234,0.441406,0
46190,0.0629883,-0.862305,0.427734,0
46210,0.0439453,-0.868652,0.41748,0
46230,0.0854492,-0.84668,0.427734,0
46250,0.100586,-0.844727,0.415527,0
46270,0.0888672,-0.86377,0.421387,0
46290,0.0961914,-0.884766,0.429199,0
46310,0.0893555,-0.876953,0.430176,0
46330,0.0629883,-0.878906,0.411133,0
46350,0.0854492,-0.875488,0.40918,0
46370,0.0932617,-0.872559,0.40918,0
46390,0.0708008,-0.875977,0.407715,0
46410,0.078125,-0.877441,0.405273,0
46430,0.081543,-0.883301,0.405762,0
46450,0.0712891,-0.888672,0.39502,0
46470,0.0771484,-0.887695,0.390625,0
46490,0.0913086,-0.881836,0.385742,0
46510,0.0800781,-0.880859,0.376465,0
46530,0.0834961,-0.885742,0.382324,0
46550,0.0742188,-0.897461,0.370605,0
46570,0.0712891,-0.893066,0.359375,0
46590,0.0859375,-0.896973,0.352539,0
46610,0.078125,-0.876953,0.355469,0
46630,0.0483398,-0.883301,0.349121,0
46650,0.0576172,-0.89502,0.352539,0
46670,0.0830078,-0.883301,0.344238,0
46690,0.0585938,-0.890137,0.341309,0
46710,0.0537109,-0.908691,0.331055,0
46730,0.0849609,-0.907227,0.330078,0
46750,0.0742188,-0.915039,0.319336,0
46770,0.0756836,-0.895996,0.312988,0
46790,0.0615234,-0.906738,0.311035,0
46810,0.0644531,-0.915039,0.291992,0
46830,0.0844727,-0.910645,0.285156,0
46850,0.0820312,-0.911621,0.288086,0
46870,0.0737305,-0.918457,0.276367,0
46890,0.100586,-0.929199,0.269531,0
46910,0.0986328,-0.946289,0.243652,0
46930,0.117188,-0.952148,0.240723,0
46950,0.140625,-0.944824,0.237305,0
46970,0.123047,-0.941895,0.23584,0
46990,0.097168,-0.946777,0.219238,0
47010,0.137695,-0.957031,0.215332,0
47030,0.17627,-0.96582,0.212891,0
47050,0.188965,-0.962402,0.217773,0
47070,0.182129,-0.967773,0.205566,0
47090,0.197754,-0.980957,0.211914,0
47110,0.201172,-0.959473,0.210449,0
47130,0.162109,-0.939941,0.181152,0
47150,0.172363,-0.931641,0.17334,0
47170,0.219727,-0.917969,0.185059,0
47190,0.230469,-0.914551,0.19043,0
47210,0.219238,-0.937012,0.169434,0
47230,0.233887,-0.932617,0.169434,0
47250,0.239258,-0.934082,0.16748,0
47270,0.274414,-0.917969,0.157227,0
47290,0.279785,-0.921875,0.151367,0
47310,0.280273,-0.941406,0.138672,0
47330,0.293457,-0.94873,0.146973,0
47350,0.299805,-0.924316,0.158691,0
47370,0.270996,-0.902344,0.140137,0
47390,0.286133,-0.900879,0.14209,0
47410,0.316406,-0.920898,0.147949,0
47430,0.334473,-0.902344,0.129883,0
47450,0.322266,-0.905273,0.109375,0
47470,0.351074,-0.885742,0.145996,0
47490,0.34668,-0.899902,0.144043,0
47510,0.391113,-0.919434,0.124023,0
47530,0.40625,-0.911133,0.125488,0
47550,0.38916,-0.895996,0.120605,0
47570,0.385254,-0.898438,0.11377,0
47590,0.402344,-0.887695,0.103516,0
47610,0.413574,-0.874023,0.120605,0
47630,0.414551,-0.875488,0.119141,0
47650,0.408691,-0.903809,0.11084,0
47670,0.441406,-0.900879,0.129395,0
47690,0.458008,-0.87793,0.117188,0
47710,0.462402,-0.87793,0.114746,0
47730,0.457031,-0.884766,0.102051,0
47750,0.475586,-0.892578,0.0922852,0
47770,0.501953,-0.892578,0.103516,0
47790,0.491699,-0.874512,0.0942383,0
47810,0.495605,-0.879883,0.0874023,0
47830,0.504883,-0.868652,0.090332,0
47850,0.47168,-0.851562,0.074707,0
47870,0.469727,-0.862793,0.081543,0
47890,0.490723,-0.853027,0.0800781,0
47910,0.495605,-0.842773,0.0742188,0
47930,0.485352,-0.84082,0.0629883,0
47950,0.494141,-0.848633,0.0546875,0
47970,0.494141,-0.828613,0.0600586,0
47990,0.508789,-0.821777,0.0493164,0
48010,0.510742,-0.814453,0.0454102,0
48030,0.506348,-0.820801,0.0507812,0
48050,0.508789,-0.808105,0.0297852,0
48070,0.539062,-0.800293,0.0234375,0
48090,0.537109,-0.79834,0.03125,0
48110,0.552246,-0.807129,0.0419922,0
48130,0.577637,-0.785156,0.0322266,0
48150,0.56543,-0.775879,0.0161133,0
48170,0.542969,-0.771973,0.0366211,0
48190,0.609863,-0.779297,0.0244141,0
48210,0.638184,-0.755371,0.0317383,0
48230,0.597656,-0.743164,0.0107422,0
48250,0.612793,-0.76416,0.00292969,0
48270,0.64502,-0.776855,0.012207,0
48290,0.673828,-0.744629,0.00488281,0
48310,0.650879,-0.740234,0.000488281,0
48330,0.648438,-0.747559,-0.00488281,0
48350,0.666992,-0.75293,-0.00292969,0
48370,0.672852,-0.739258,-0.00976562,0
48390,0.669922,-0.728027,-0.0292969,0
48410,0.671387,-0.733398,-0.00830078,0
48430,0.659668,-0.724609,0.0078125,0
48450,0.680176,-0.695312,-0.00585938,0
48470,0.69043,-0.677734,0.00537109,0
48490,0.703125,-0.690918,-0.00195312,0
48510,0.683105,-0.682617,0.00585938,0
48530,0.715332,-0.665527,0.0205078,0
48540,0.733887,-0.658203,0.0249023,0
48560,0.723145,-0.648926,0.0273438,0
48580,0.735352,-0.64209,0.0380859,0
48600,0.737793,-0.650879,0.0698242,0
48620,0.736328,-0.633789,0.0810547,0
48640,0.751953,-0.618652,0.0766602,0
48660,0.766602,-0.614258,0.0786133,0
48680,0.751953,-0.615234,0.0991211,0
48700,0.724121,-0.605957,0.125488,0
48720,0.726562,-0.606445,0.122559,0
48740,0.727539,-0.601074,0.140137,0
48760,0.720703,-0.589844,0.145996,0
48780,0.73584,-0.60791,0.158203,0
48800,0.734375,-0.603516,0.174805,0
48820,0.73584,-0.605469,0.171387,0
48830,0.722168,-0.603516,0.180176,0
48850,0.713867,-0.606934,0.1875,0
48870,0.727539,-0.611816,0.189941,0
48890,0.717773,-0.610352,0.208496,0
48910,0.711426,-0.619141,0.21582,0
48930,0.690918,-0.624023,0.229492,0
48950,0.688477,-0.617676,0.243164,0
48970,0.712402,-0.632812,0.246094,0
48990,0.68457,-0.638184,0.251953,0
49010,0.66748,-0.641602,0.276367,0
49030,0.687012,-0.621582,0.263672,0
49050,0.693848,-0.616211,0.282227,0
49070,0.667969,-0.625488,0.287109,0
49090,0.657227,-0.662109,0.333008,0
49110,0.64502,-0.650879,0.335449,0
49130,0.668945,-0.62793,0.304688,0
49150,0.666504,-0.64209,0.303223,0
49170,0.631348,-0.646973,0.337402,0
49190,0.603027,-0.649414,0.338379,0
49210,0.62793,-0.647949,0.333008,0
49230,0.644043,-0.655762,0.322754,0
49250,0.631348,-0.672363,0.333984,0
49270,0.567871,-0.685059,0.362305,0
49290,0.57373,-0.671387,0.353516,0
49310,0.618652,-0.656738,0.331055,0
49320,0.598145,-0.661621,0.34082,0
49340,0.557617,-0.693359,0.382812,0
49360,0.543457,-0.704102,0.394531,0
49380,0.583008,-0.684082,0.365723,0
49400,0.586426,-0.681152,0.366211,0
49420,0.552734,-0.713867,0.390625,0
49440,0.524902,-0.724609,0.408691,0
49460,0.526367,-0.719727,0.397461,0
49480,0.553223,-0.700195,0.390625,0
49500,0.527832,-0.71875,0.393066,0
49520,0.484375,-0.746582,0.411133,0
49540,0.484863,-0.757812,0.409668,0
49560,0.518066,-0.732422,0.396484,0
49580,0.491211,-0.726562,0.371582,0
49600,0.43457,-0.76709,0.377441,0
49620,0.456543,-0.785645,0.416016,0
49640,0.470215,-0.753906,0.393066,0
49660,0.416504,-0.753906,0.363281,0
49680,0.35791,-0.771484,0.38623,0
49700,0.334473,-0.792969,0.408203,0
49720,0.393555,-0.77832,0.381836,0
49740,0.402344,-0.777344,0.371582,0
49760,0.355469,-0.790039,0.375,0
49780,0.305176,-0.825195,0.378418,0
49800,0.321289,-0.802246,0.380371,0
49820,0.336426,-0.774902,0.364746,0
49840,0.282227,-0.79834,0.347168,0
49860,0.236816,-0.839355,0.376953,0
49880,0.258789,-0.850586,0.373047,0
49900,0.282715,-0.818848,0.339844,0
49920,0.251465,-0.830078,0.322754,0
49940,0.240234,-0.835449,0.34668,0
49960,0.255371,-0.854004,0.337891,0
49980,0.253906,-0.856934,0.345215,0
50000,0.233887,-0.876465,0.325684,0
50020,0.20752,-0.893555,0.32373,0
50040,0.248535,-0.887695,0.337402,0
50060,0.245117,-0.882324,0.317383,0
50080,0.241699,-0.902344,0.297852,0
50100,0.230957,-0.88916,0.304688,0
50120,0.22998,-0.914551,0.30127,0
50140,0.231445,-0.913574,0.304688,0
50160,0.222656,-0.911133,0.294922,0
50180,0.22168,-0.91748,0.30127,0
50200,0.22998,-0.928223,0.28418,0
50220,0.241211,-0.912598,0.277832,0
50240,0.216797,-0.92334,0.268066,0
50260,0.211914,-0.910156,0.255859,0
50280,0.211426,-0.899902,0.257324,0
50300,0.214355,-0.899414,0.296387,0
50320,0.201172,-0.90332,0.287598,0
50340,0.216797,-0.912109,0.279785,0
50360,0.211914,-0.931152,0.249512,0
50380,0.232422,-0.902832,0.234375,0
50400,0.21582,-0.914551,0.22168,0
50420,0.21875,-0.921387,0.20459,0
50440,0.223145,-0.922363,0.213379,0
50460,0.230957,-0.945312,0.189453,0
50480,0.237793,-0.950195,0.1875,0
50500,0.238281,-0.950195,0.199707,0
50520,0.228027,-0.932617,0.180664,0
50540,0.217285,-0.931152,0.180176,0
50560,0.216797,-0.946777,0.165039,0
50580,0.212402,-0.944336,0.158203,0
50600,0.220703,-0.937988,0.153809,0
50620,0.213867,-0.934082,0.146484,0
50640,0.226074,-0.946289,0.148438,0
50660,0.208008,-0.952148,0.133789,0
50680,0.210449,-0.962402,0.133301,0
50700,0.215332,-0.95459,0.128418,0
50720,0.224121,-0.940918,0.117188,0
50740,0.202637,-0.956543,0.102539,0
50760,0.211914,-0.959961,0.109863,0
50780,0.21875,-0.947754,0.103027,0
50800,0.210938,-0.945801,0.0981445,0
50820,0.209961,-0.972168,0.0898438,0
50830,0.21875,-0.97168,0.0756836,0
50850,0.203125,-0.958496,0.0571289,0
50870,0.213379,-0.956055,0.0634766,0
50890,0.211426,-0.960449,0.0605469,0
50910,0.206055,-0.973633,0.0585938,0
50930,0.21875,-0.96582,0.0541992,0
50950,0.229004,-0.955566,0.0507812,0
50970,0.229492,-0.963379,0.0498047,0
50990,0.208984,-0.966797,0.0317383,0
51010,0.211914,-0.984863,0.0395508,0
51030,0.26123,-0.958008,0.0380859,0
51050,0.240234,-0.966309,0.0209961,0
51070,0.225586,-0.96582,0.0195312,0
51090,0.245117,-0.978027,0.0170898,0
51110,0.253906,-0.949707,0.0136719,0
51130,0.224121,-0.941406,-0.00195312,0
51150,0.237305,-0.948242,-0.00488281,0
51170,0.248047,-0.954102,-0.0234375,0
51190,0.260742,-0.957031,-0.012207,0
51210,0.275391,-0.929688,-0.019043,0
51230,0.27002,-0.936523,-0.0180664,0
51250,0.291504,-0.946777,-0.0166016,0
51270,0.298828,-0.950684,-0.0317383,0
51290,0.31543,-0.955078,-0.0424805,0
51310,0.329102,-0.943848,-0.0351562,0
51330,0.353027,-0.926758,-0.0380859,0
51350,0.348145,-0.927734,-0.0522461,0
51370,0.355957,-0.941895,-0.0424805,0
51390,0.402832,-0.933105,-0.0400391,0
51410,0.416992,-0.919434,-0.0664062,0
51430,0.421387,-0.92627,-0.0693359,0
51450,0.430664,-0.911621,-0.0874023,0
51470,0.492188,-0.888672,-0.0844727,0
51490,0.446289,-0.880371,-0.0717773,0
51510,0.456055,-0.861816,-0.097168,0
51530,0.493652,-0.881836,-0.121582,0
51550,0.46875,-0.887207,-0.109375,0
51570,0.458496,-0.861816,-0.120117,0
51590,0.436523,-0.862793,-0.104004,0
51610,0.469238,-0.812012,-0.121582,0
51630,0.507324,-0.819824,-0.120605,0
51650,0.509766,-0.86084,-0.112793,0
51670,0.506836,-0.867676,-0.126465,0
51690,0.504883,-0.869141,-0.160156,0
51710,0.526855,-0.828613,-0.145996,0
51730,0.577637,-0.814453,-0.132812,0
51750,0.579102,-0.812988,-0.126465,0
51770,0.532715,-0.825684,-0.140625,0
51790,0.54248,-0.820801,-0.144531,0
51810,0.588867,-0.80127,-0.123047,0
51830,0.605957,-0.796387,-0.145508,0
51850,0.632812,-0.782715,-0.15918,0
51870,0.61377,-0.794434,-0.147461,0
51890,0.603516,-0.796387,-0.130371,0
51910,0.629883,-0.765625,-0.135742,0
51930,0.635254,-0.740723,-0.154297,0
51950,0.60791,-0.743652,-0.129395,0
51970,0.596191,-0.775879,-0.119141,0
51990,0.63623,-0.759277,-0.101562,0
52010,0.678711,-0.714355,-0.114746,0
52030,0.675781,-0.70752,-0.12793,0
52050,0.668945,-0.73584,-0.120605,0
52070,0.671875,-0.733398,-0.0893555,0
52090,0.682129,-0.686035,-0.0991211,0
52110,0.682129,-0.654785,-0.105957,0
52130,0.673828,-0.67334,-0.115234,0
52150,0.673828,-0.692383,-0.0859375,0
52170,0.680176,-0.662109,-0.078125,0
52190,0.697266,-0.638672,-0.0737305,0
52210,0.721191,-0.641602,-0.0688477,0
52230,0.711914,-0.658691,-0.0566406,0
52250,0.735352,-0.658203,-0.0527344,0
52270,0.756348,-0.623535,-0.0664062,0
52290,0.780273,-0.595703,-0.0805664,0
52310,0.780762,-0.615723,-0.043457,0
52330,0.756348,-0.617188,-0.0175781,0
52350,0.775879,-0.604004,-0.0170898,0
52370,0.820801,-0.580566,-0.0419922,0
52390,0.821777,-0.585449,-0.0268555,0
52410,0.788574,-0.59375,0.00195312,0
52430,0.791016,-0.577637,0.0200195,0
52450,0.807129,-0.562988,0.0166016,0
52470,0.814941,-0.557617,0.0371094,0
52490,0.809082,-0.545898,0.0488281,0
52510,0.799316,-0.556641,0.0600586,0
52530,0.82373,-0.535645,0.0717773,0
52550,0.830078,-0.532715,0.0620117,0
52570,0.827637,-0.52832,0.0761719,0
52590,0.832031,-0.542969,0.10791,0
52610,0.848145,-0.539062,0.11084,0
52630,0.838867,-0.531738,0.110352,0
52650,0.83252,-0.524414,0.105957,0
52670,0.82959,-0.538574,0.124512,0
52690,0.800781,-0.54541,0.131348,0
52710,0.784668,-0.527832,0.168945,0
52730,0.827637,-0.51123,0.156738,0
52750,0.830078,-0.518066,0.16748,0
52770,0.734375,-0.55127,0.194336,0
52790,0.753906,-0.533691,0.20459,0
52810,0.796387,-0.5,0.189453,0
52830,0.815918,-0.494629,0.187012,0
52850,0.794922,-0.558594,0.202148,0
52870,0.779785,-0.57373,0.205078,0
52890,0.804688,-0.538086,0.182617,0
52910,0.805664,-0.518066,0.174316,0
52930,0.757812,-0.551758,0.182617,0
52950,0.693359,-0.580078,0.227539,0
52970,0.723633,-0.580078,0.22168,0
52990,0.782227,-0.530762,0.194824,0
53010,0.754883,-0.544922,0.208496,0
53020,0.716797,-0.598145,0.225098,0
53040,0.72168,-0.611816,0.242676,0
53060,0.771973,-0.580078,0.230469,0
53080,0.760742,-0.587891,0.211914,0
53100,0.703613,-0.605957,0.23291,0
53120,0.672363,-0.646973,0.280762,0
53140,0.733887,-0.625,0.248535,0
53160,0.742676,-0.604492,0.249512,0
53180,0.687012,-0.627441,0.25,0
53200,0.647949,-0.68457,0.295898,0
53220,0.681641,-0.65918,0.294434,0
53240,0.705566,-0.627441,0.262695,0
53260,0.668945,-0.63623,0.256348,0
53280,0.608398,-0.695801,0.285156,0
53300,0.589844,-0.706055,0.298828,0
53320,0.63623,-0.66748,0.285645,0
53340,0.633301,-0.654785,0.259766,0
53360,0.555176,-0.700195,0.286133,0
53380,0.534668,-0.733398,0.322266,0
53400,0.594238,-0.717285,0.308594,0
53420,0.592773,-0.689941,0.289062,0
53440,0.52832,-0.720703,0.275879,0
53460,0.491211,-0.779297,0.307129,0
53480,0.490723,-0.777344,0.316895,0
53500,0.532715,-0.742676,0.265625,0
53520,0.540039,-0.746582,0.271973,0
53540,0.519531,-0.785645,0.299805,0
53560,0.492676,-0.807617,0.344238,0
53580,0.485352,-0.795898,0.313965,0
53600,0.470703,-0.799316,0.29248,0
53620,0.427246,-0.799316,0.287109,0
53640,0.440918,-0.811523,0.296875,0
53660,0.443848,-0.814941,0.275879,0
53680,0.435547,-0.802734,0.270996,0
53700,0.408691,-0.819824,0.269043,0
53720,0.396973,-0.819336,0.279297,0
53740,0.397461,-0.82959,0.258301,0
53760,0.400391,-0.828125,0.243164,0
53780,0.365234,-0.837402,0.257324,0
53800,0.375488,-0.856445,0.278809,0
53820,0.374023,-0.858398,0.241699,0
53840,0.350098,-0.870605,0.235352,0
53860,0.344727,-0.871094,0.228027,0
53880,0.348145,-0.86377,0.208496,0
53900,0.321777,-0.846191,0.220703,0
53920,0.296387,-0.846191,0.199707,0
53940,0.302246,-0.853516,0.223145,0
53960,0.332031,-0.869629,0.195801,0
53980,0.32666,-0.881836,0.186035,0
54000,0.309082,-0.887207,0.175293,0
54020,0.321777,-0.891602,0.191406,0
54040,0.347656,-0.878418,0.188965,0
54060,0.337891,-0.896973,0.168945,0
54080,0.335938,-0.914551,0.153809,0
54100,0.337402,-0.930664,0.159668,0
54120,0.317383,-0.922363,0.173828,0
54140,0.330566,-0.92041,0.145996,0
54160,0.32666,-0.900879,0.141113,0
54180,0.320312,-0.917969,0.131836,0
54200,0.326172,-0.941406,0.132812,0
54220,0.326172,-0.910645,0.152832,0
54230,0.335449,-0.897461,0.119629,0
54250,0.352051,-0.913086,0.115234,0
54270,0.351562,-0.930176,0.135742,0
54290,0.328125,-0.916992,0.124512,0
54310,0.338379,-0.94873,0.111816,0
54330,0.362305,-0.946289,0.116699,0
54350,0.335938,-0.92041,0.103027,0
54370,0.30127,-0.914062,0.0947266,0
54390,0.316406,-0.929688,0.0942383,0
54410,0.321777,-0.925781,0.0927734,0
54430,0.3125,-0.916016,0.0869141,0
54450,0.328125,-0.914551,0.0727539,0
54470,0.329102,-0.90625,0.0683594,0
54490,0.334473,-0.922852,0.0776367,0
54510,0.337891,-0.933105,0.0595703,0
54530,0.34668,-0.933105,0.0336914,0
54550,0.356445,-0.938477,0.0351562,0
54570,0.355957,-0.910645,0.0405273,0
54590,0.352539,-0.899902,0.0390625,0
54610,0.348145,-0.896484,0.0229492,0
54630,0.35791,-0.910156,0.0161133,0
54650,0.355957,-0.908691,-0.000488281,0
54670,0.392578,-0.921875,0.0117188,0
54690,0.408203,-0.913086,0,0
54710,0.38623,-0.914062,-0.0288086,0
54730,0.398926,-0.909668,-0.050293,0
54750,0.407715,-0.911621,-0.0546875,0
54770,0.402832,-0.911133,-0.0415039,0
54790,0.418945,-0.899902,-0.0756836,0
54810,0.441406,-0.891113,-0.102539,0
54830,0.450195,-0.90332,-0.103516,0
54850,0.467773,-0.897461,-0.112793,0
54870,0.47168,-0.89209,-0.131348,0
54890,0.486328,-0.889648,-0.133301,0
54910,0.490723,-0.888184,-0.155273,0
54930,0.52002,-0.869629,-0.16748,0
54950,0.509766,-0.849609,-0.178223,0
54970,0.472656,-0.880371,-0.1875,0
54990,0.498535,-0.848633,-0.202637,0
55010,0.519531,-0.796875,-0.219238,0
55030,0.51709,-0.786133,-0.222656,0
55050,0.529785,-0.807129,-0.237305,0
55070,0.530762,-0.799316,-0.246094,0
55090,0.525391,-0.792969,-0.22998,0
55110,0.601562,-0.756348,-0.214355,0
55130,0.619141,-0.752441,-0.215332,0
55150,0.625488,-0.73291,-0.252441,0
55170,0.598145,-0.748047,-0.217285,0
55190,0.577148,-0.731934,-0.206055,0
55210,0.628418,-0.702637,-0.229492,0
55230,0.695312,-0.685059,-0.264648,0
55250,0.694824,-0.683105,-0.256836,0
55270,0.689453,-0.682617,-0.226562,0
55290,0.675293,-0.662598,-0.205078,0
55310,0.705566,-0.631348,-0.230957,0
55330,0.787598,-0.604492,-0.244141,0
55350,0.806152,-0.61377,-0.244141,0
55370,0.742188,-0.62793,-0.236816,0
55390,0.774414,-0.604492,-0.229492,0
55430,0.857422,-0.525879,-0.240234,0
55450,0.771973,-0.533691,-0.226562,1001
55470,0.77002,-0.520996,-0.220215,0
55490,0.821777,-0.496094,-0.232422,0
55510,0.810547,-0.462891,-0.244141,0
55530,0.791016,-0.452637,-0.241699,0
55550,0.783203,-0.482422,-0.242676,0
55570,0.831543,-0.489746,-0.236816,0
55590,0.853516,-0.469727,-0.231445,0
55610,0.867188,-0.45459,-0.265625,0
55630,0.882324,-0.487305,-0.249023,0
55650,0.844238,-0.489746,-0.258789,0
55670,0.833008,-0.511719,-0.265625,0
55690,0.835449,-0.506348,-0.228027,0
55710,0.811523,-0.484375,-0.218262,0
55730,0.80957,-0.506348,-0.244141,0
55750,0.783691,-0.541016,-0.239258,0
55770,0.728516,-0.562988,-0.218262,0
55790,0.696289,-0.535156,-0.231934,0
55810,0.688477,-0.522949,-0.242188,0
55830,0.628418,-0.525391,-0.209473,0
55850,0.605469,-0.527344,-0.182129,0
55870,0.626953,-0.5625,-0.177246,0
55890,0.600098,-0.565918,-0.152344,0
55910,0.563965,-0.598145,-0.158203,0
55930,0.592285,-0.604492,-0.115723,0
55950,0.614258,-0.633789,-0.105469,0
55970,0.63623,-0.654297,-0.117676,0
55990,0.658691,-0.683105,-0.125977,0
56010,0.657227,-0.71875,-0.0927734,0
56030,0.645508,-0.741211,-0.0664062,0
56070,0.644043,-0.73877,-0.0307617,0
56090,0.643555,-0.749023,-0.0371094,0
56110,0.658691,-0.81543,0.00146484,0
56130,0.63916,-0.851074,0.00830078,0
56150,0.625,-0.84668,0.0170898,0
56170,0.62207,-0.854492,0.0078125,0
56190,0.606934,-0.891602,0.027832,0
56200,0.546875,-0.911133,0.000488281,0
56220,0.53418,-0.960449,0.0283203,0
56240,0.47168,-0.967773,0.0942383,0
56260,0.444336,-0.97998,0.0493164,0
56280,0.452637,-0.97998,0.0327148,0
56300,0.382812,-0.976074,0.059082,0
56320,0.324707,-0.998535,0.0913086,0
56340,0.293945,-1.01709,0.0864258,0
56360,0.313965,-1.02148,0.0756836,0
56380,0.268555,-1.00586,0.0966797,0
56400,0.217773,-0.999023,0.112305,0
56420,0.210449,-1.02393,0.10791,0
56440,0.215332,-1.0625,0.0708008,0
56460,0.181641,-1.04688,0.0566406,0
56480,0.120605,-1.03027,0.0820312,0
56500,0.117188,-1.02344,0.0825195,0
56520,0.144531,-1.0166,0.0913086,0
56540,0.131348,-1.03613,0.0869141,0
56560,0.0800781,-1.03857,0.0849609,0
56580,0.0703125,-1.02246,0.059082,0
56600,0.0917969,-1.00684,0.0478516,0
56620,0.0698242,-1.00342,0.0551758,0
56640,0.0375977,-1.02051,0.065918,0
56660,0.0263672,-1.04492,0.0732422,0
56680,0.0463867,-1.02197,0.0483398,0
56700,0.0756836,-0.966309,0.0366211,0
56720,0.0419922,-0.968262,0.0371094,0
56740,0.0283203,-1.00342,0.0576172,0
56760,0.0537109,-1.02246,0.0576172,0
56780,0.0678711,-1.01514,0.065918,1000
56800,0.0615234,-1.01221,0.0493164,0
56820,0.0219727,-0.991211,0.0322266,0
56840,0.00683594,-0.99707,0.0415039,0
56860,-0.00292969,-0.998535,0.0463867,0
56880,0.0112305,-1.0166,0.050293,0
56900,0.0249023,-1.01367,0.0507812,0
56920,0.0166016,-1.03174,0.0458984,0
56940,0.012207,-1.01514,0.0512695,0
56960,0.00390625,-1.01855,0.0644531,0
56980,0.0180664,-1.00684,0.0776367,0
57000,0.0292969,-1.00342,0.0673828,0
57020,0.0136719,-1.00098,0.0673828,0
57040,0.0395508,-1.00391,0.0791016,0
57060,0.0458984,-1.00977,0.0751953,0
57080,0.0458984,-1.02441,0.0712891,0
57100,0.0551758,-1.00635,0.0756836,0
57120,0.0522461,-0.991699,0.0644531,0
57140,0.0517578,-0.991699,0.0737305,0
57160,0.0610352,-0.988281,0.0761719,0
57180,0.0449219,-0.990234,0.0742188,0
57200,0.0341797,-0.986328,0.0742188,0
57220,0.0341797,-0.993652,0.0751953,0
57240,0.0390625,-0.990234,0.0688477,0
57260,0.0351562,-0.993164,0.0791016,0
57280,0.0385742,-0.997559,0.0825195,0
57300,0.0405273,-1.00537,0.0766602,0
57320,0.0327148,-0.998535,0.0864258,0
57340,0.0209961,-0.995117,0.0942383,0
57360,0.0283203,-0.998535,0.0869141,0
57380,0.0380859,-1.00098,0.0864258,0
57400,0.0200195,-0.986328,0.0805664,0
57420,0.00537109,-1.01025,0.0893555,0
57440,0.0258789,-1.01123,0.0859375,0
57460,0.0371094,-1.00439,0.074707,0
57480,0.019043,-0.973633,0.0737305,0
57500,0.00927734,-0.984375,0.0854492,0
57520,0.0205078,-0.980469,0.0922852,0
57540,0.0234375,-0.974609,0.0883789,0
57560,0.0214844,-0.988281,0.0942383,0
57580,0.0507812,-0.991211,0.0996094,0
57600,0.0576172,-0.989746,0.100098,0
57620,0.0830078,-0.994141,0.105469,0
57640,0.0957031,-0.98877,0.0952148,0
57660,0.0844727,-0.983887,0.0957031,0
57680,0.0571289,-0.984375,0.0869141,0
57700,0.0859375,-0.996094,0.0957031,0
57720,0.126953,-1.00098,0.102539,0
57740,0.124023,-0.996094,0.0952148,0
57760,0.108887,-0.992676,0.0898438,0
57780,0.130859,-0.989746,0.101074,0
57800,0.158203,-0.980469,0.125977,0
57820,0.161133,-0.976562,0.108887,0
57840,0.143555,-0.968262,0.0947266,0
57860,0.144531,-0.977539,0.125488,0
57880,0.182617,-0.977051,0.119629,0
57900,0.174805,-0.959961,0.119629,0
57920,0.163086,-0.959961,0.102051,0
57940,0.160156,-0.949707,0.106445,0
57960,0.181152,-0.945312,0.126953,0
57980,0.1875,-0.939941,0.133301,0
58000,0.188965,-0.921387,0.126953,0
58020,0.208984,-0.941895,0.128418,0
58040,0.237305,-0.95752,0.131348,0
58060,0.224609,-0.933105,0.146484,0
58080,0.205078,-0.908691,0.140625,0
58100,0.254395,-0.924316,0.128418,0
58120,0.30127,-0.943359,0.138184,0
58140,0.270508,-0.911621,0.165527,0
58160,0.271973,-0.929688,0.130371,0
58180,0.333496,-0.93457,0.135254,0
58200,0.374023,-0.934082,0.158691,0
58220,0.339355,-0.907227,0.166016,0
58240,0.347168,-0.916992,0.157715,0
58260,0.404297,-0.928223,0.143066,0
58280,0.40625,-0.918945,0.155762,0
58300,0.379883,-0.898926,0.162109,0
58320,0.387207,-0.897461,0.163086,0
58340,0.410156,-0.89502,0.143555,0
58360,0.394531,-0.891602,0.163086,0
58380,0.394043,-0.868652,0.171387,0
58400,0.401855,-0.857422,0.179688,0
58420,0.405762,-0.858398,0.175293,0
58440,0.437012,-0.854492,0.18457,0
58460,0.438477,-0.851074,0.200195,0
58480,0.447266,-0.863281,0.194336,0
58500,0.457031,-0.85791,0.189941,0
58520,0.437012,-0.850098,0.193848,0
58540,0.438477,-0.845215,0.196777,0
58560,0.470215,-0.844727,0.205078,0
58580,0.467285,-0.849609,0.21582,0
58600,0.481445,-0.842773,0.210449,0
58620,0.473145,-0.818359,0.214355,0
58640,0.479004,-0.814453,0.208984,0
58660,0.504883,-0.816895,0.200684,0
58680,0.504883,-0.806641,0.209473,0
58700,0.504883,-0.789551,0.222656,0
58720,0.507812,-0.796387,0.228516,0
58740,0.509766,-0.790527,0.220215,0
58760,0.514648,-0.78125,0.242676,0
58780,0.516602,-0.76709,0.241699,0
58800,0.523926,-0.757812,0.250977,0
58820,0.529297,-0.757324,0.254883,0
58840,0.527832,-0.766113,0.251953,0
58860,0.524902,-0.754883,0.263184,0
58880,0.541504,-0.748535,0.271484,0
58900,0.563477,-0.753906,0.268066,0
58920,0.567383,-0.749512,0.275391,0
58940,0.550781,-0.728516,0.287598,0
58960,0.537598,-0.738281,0.293457,0
58980,0.557617,-0.739258,0.302734,0
59000,0.5625,-0.736816,0.310547,0
59020,0.561523,-0.730469,0.307617,0
59040,0.58252,-0.724121,0.290527,0
59060,0.571777,-0.729004,0.305664,0
59080,0.555176,-0.710449,0.328613,0
59100,0.548828,-0.714355,0.339355,0
59120,0.583984,-0.706543,0.331055,0
59140,0.57959,-0.703613,0.329102,0
59160,0.55127,-0.697266,0.335938,0
59180,0.51123,-0.687012,0.354492,0
59200,0.550293,-0.693359,0.358887,0
59220,0.541016,-0.708496,0.35498,0
59240,0.524902,-0.686523,0.368652,0
59260,0.512695,-0.684082,0.387695,0
59280,0.521973,-0.684082,0.387207,0
59300,0.516602,-0.697754,0.388672,0
59320,0.501465,-0.700195,0.412109,0
59340,0.506836,-0.688965,0.416992,0
59360,0.508789,-0.670898,0.404785,0
59380,0.498047,-0.683594,0.407715,0
59400,0.483398,-0.714355,0.425293,0
59420,0.468262,-0.719727,0.442383,0
59440,0.48584,-0.692871,0.430664,0
59460,0.5,-0.693359,0.421387,0
59480,0.499023,-0.712402,0.424805,0
59500,0.499023,-0.748047,0.424316,0
59520,0.509766,-0.734863,0.426758,0
59540,0.523926,-0.70752,0.457031,0
59560,0.490234,-0.714355,0.470215,0
59580,0.443359,-0.746094,0.46875,0
59600,0.428223,-0.763184,0.471191,0
59620,0.445801,-0.712402,0.453125,0
59630,0.45459,-0.706055,0.436035,0
59650,0.405762,-0.717773,0.463867,0
59670,0.363281,-0.745117,0.48291,0
59670,0.393555,-0.736328,0.505859,0
59690,0.433594,-0.722656,0.46875,0
59710,0.418945,-0.731934,0.45459,0
59730,0.374512,-0.744141,0.47998,0
59750,0.346191,-0.73877,0.489746,0
59770,0.385254,-0.73584,0.455566,0
59770,0.413086,-0.742676,0.437012,0
59790,0.357422,-0.763672,0.456543,0
59810,0.307617,-0.762695,0.493164,0
59830,0.333008,-0.756836,0.480469,0
59840,0.223633,-0.788574,0.503418,0
59860,0.282715,-0.79834,0.484375,0
59870,0.374023,-0.757324,0.467773,0
59890,0.330566,-0.765137,0.470703,0
59910,0.244141,-0.807129,0.480469,0
59930,0.250977,-0.829102,0.496582,0
59950,0.318848,-0.789551,0.470703,0
59970,0.287109,-0.772461,0.45752,0
59990,0.202148,-0.78418,0.48291,0
60010,0.181152,-0.807617,0.507812,0
60030,0.234863,-0.791992,0.477539,0
60050,0.257324,-0.789551,0.469727,0
60070,0.216309,-0.791016,0.476074,0
60090,0.186035,-0.812988,0.48584,0
60110,0.220215,-0.806641,0.493652,0
60130,0.266602,-0.79834,0.48291,0
60150,0.247559,-0.802734,0.470215,0
60170,0.166504,-0.835449,0.46875,0
60190,0.146484,-0.824707,0.474609,0
60210,0.1875,-0.802734,0.468262,0
60230,0.209473,-0.790527,0.449219,0
60250,0.189453,-0.817871,0.457031,0
60270,0.11084,-0.830566,0.489746,0
60290,0.108887,-0.835449,0.482422,0
60310,0.137695,-0.824219,0.452148,0
60330,0.0708008,-0.819336,0.429199,0
60350,0.0688477,-0.832031,0.445312,0
60370,0.103027,-0.823242,0.445801,0
60390,0.106445,-0.834473,0.430176,0
60410,0.0766602,-0.852539,0.428711,0
60430,0.0708008,-0.869629,0.419922,0
60450,0.0878906,-0.867676,0.417969,0
60470,0.0952148,-0.865723,0.413086,0
60490,0.0849609,-0.858887,0.420898,0
60510,0.0693359,-0.860352,0.398438,0
60530,0.0834961,-0.878418,0.399414,0
60550,0.11084,-0.878906,0.405762,0
60570,0.074707,-0.879395,0.383301,0
60590,0.0864258,-0.887695,0.399414,0
60610,0.0888672,-0.870605,0.388672,0
60630,0.0546875,-0.873535,0.392578,0
60650,0.059082,-0.874512,0.395996,0
60670,0.0615234,-0.883789,0.379395,0
60690,0.0605469,-0.888184,0.391602,0
60710,0.0742188,-0.879395,0.380859,0
60730,0.0839844,-0.866699,0.381348,0
60750,0.0551758,-0.875488,0.376465,0
60770,0.0454102,-0.883789,0.37793,0
60790,0.0498047,-0.89209,0.373047,0
60810,0.0791016,-0.881348,0.366699,0
60830,0.0458984,-0.875977,0.365234,0
60850,0.0488281,-0.900879,0.375,0
60870,0.0751953,-0.907227,0.364746,0
60890,0.0908203,-0.895508,0.371094,0
60910,0.0629883,-0.904297,0.358887,0
60930,0.0751953,-0.916504,0.347656,0
60950,0.0839844,-0.921387,0.349121,0
60970,0.0571289,-0.882324,0.342285,0
60990,0.0112305,-0.87207,0.319824,0
61010,0.0351562,-0.87207,0.320312,0
61030,0.0566406,-0.87793,0.317383,0
61050,0.0771484,-0.895508,0.331543,0
61070,0.0751953,-0.911621,0.308594,0
61090,0.0776367,-0.931641,0.291504,0
61110,0.0996094,-0.9375,0.290527,0
61130,0.0844727,-0.917969,0.297363,0
61150,0.0869141,-0.923828,0.294922,0
61170,0.103516,-0.931641,0.286133,0
61190,0.111816,-0.944336,0.285156,0
61210,0.0996094,-0.949707,0.276367,0
61230,0.112305,-0.941406,0.263184,0
61250,0.115234,-0.932129,0.264648,0
61270,0.111328,-0.927246,0.246582,0
61290,0.133301,-0.930176,0.246582,0
61310,0.147949,-0.935547,0.237305,0
61330,0.145996,-0.95166,0.248047,0
61350,0.152344,-0.943848,0.226562,0
61370,0.152344,-0.946289,0.220703,0
61390,0.152344,-0.944824,0.211426,0
61410,0.169434,-0.954102,0.22168,0
61430,0.199219,-0.95166,0.198242,0
61450,0.213867,-0.958496,0.178711,0
61470,0.235352,-0.95752,0.193848,0
61490,0.222168,-0.961914,0.19873,0
61510,0.199707,-0.968262,0.17627,0
61530,0.217285,-0.967285,0.155273,0
61540,0.245605,-0.940918,0.145508,0
61560,0.246582,-0.933594,0.148438,0
61580,0.259277,-0.935547,0.149902,0
61600,0.271484,-0.945312,0.131348,0
61620,0.266602,-0.950195,0.105957,0
61640,0.269531,-0.936035,0.0927734,0
61660,0.31543,-0.91748,0.0966797,0
61680,0.3125,-0.920898,0.081543,0
61700,0.307129,-0.92041,0.0795898,0
61720,0.324707,-0.92334,0.0810547,0
61740,0.333984,-0.914062,0.078125,0
61760,0.326172,-0.920898,0.0551758,0
61780,0.353027,-0.925781,0.0541992,0
61800,0.364746,-0.909668,0.0600586,0
61820,0.352051,-0.909668,0.0498047,0
61840,0.347656,-0.899414,0.0483398,0
61860,0.362305,-0.899902,0.0400391,0
61880,0.390137,-0.903809,0.0380859,0
61900,0.414551,-0.907715,0.0595703,0
61920,0.430176,-0.888672,0.0664062,0
61940,0.407227,-0.879883,0.0361328,0
61960,0.390137,-0.876465,0.0234375,0
61980,0.413574,-0.895996,0.043457,0
62000,0.446777,-0.887695,0.0615234,0
62020,0.446289,-0.869629,0.0288086,0
62040,0.441406,-0.862793,0.0244141,0
62060,0.46582,-0.875977,0.0322266,0
62080,0.491699,-0.875,0.0537109,0
62100,0.504883,-0.866699,0.0288086,0
62120,0.507812,-0.856934,0.0341797,0
62140,0.520508,-0.86377,0.0146484,0
62160,0.506348,-0.851562,0.0258789,0
62180,0.52832,-0.842285,0.0214844,0
62200,0.545898,-0.837402,0.012207,0
62220,0.54541,-0.836914,0.0151367,0
62240,0.543457,-0.834473,0.0161133,0
62260,0.535156,-0.821777,0.00878906,0
62280,0.54834,-0.813965,0.00634766,0
62300,0.584473,-0.814941,0.0170898,0
62320,0.555176,-0.794922,0.0195312,0
62340,0.553711,-0.789551,0.00585938,0
62360,0.598145,-0.794922,0.0078125,0
62380,0.604004,-0.784668,0.0195312,0
62400,0.611328,-0.762207,0.012207,0
62420,0.611816,-0.756348,0.0078125,0
62440,0.616699,-0.763184,0.00634766,0
62460,0.621582,-0.755859,0.0234375,0
62480,0.635742,-0.741699,0.019043,0
62500,0.649414,-0.736328,0.0166016,0
62520,0.658691,-0.734375,0.027832,0
62540,0.666504,-0.726562,0.0366211,0
62560,0.681152,-0.717773,0.0297852,0
62580,0.681152,-0.709473,0.0327148,0
62600,0.683105,-0.712402,0.0341797,0
62620,0.688965,-0.69043,0.0541992,0
62640,0.711914,-0.681641,0.0541992,0
62660,0.712891,-0.684082,0.0444336,0
62680,0.683105,-0.665527,0.0610352,0
62700,0.711426,-0.652344,0.065918,0
62720,0.734863,-0.649902,0.0693359,0
62740,0.73291,-0.645508,0.0629883,0
62760,0.716309,-0.631836,0.0722656,0
62780,0.719238,-0.629883,0.065918,0
62800,0.732422,-0.616699,0.074707,0
62820,0.75,-0.61084,0.0673828,0
62840,0.763672,-0.610352,0.0791016,0
62860,0.772949,-0.600098,0.0830078,0
62880,0.771973,-0.599609,0.0742188,0
62900,0.77832,-0.580078,0.0849609,0
62920,0.76416,-0.581543,0.0859375,0
62940,0.780273,-0.589355,0.0839844,0
62960,0.771484,-0.574707,0.0927734,0
62980,0.790039,-0.557129,0.108398,0
63000,0.790527,-0.560547,0.11377,0
63020,0.763184,-0.554688,0.125488,0
63040,0.754395,-0.55957,0.134766,0
63060,0.770508,-0.54834,0.142578,0
63080,0.781738,-0.543457,0.146484,0
63100,0.783691,-0.532715,0.155762,0
63120,0.790527,-0.54541,0.15918,0
63140,0.744629,-0.521973,0.200684,0
63160,0.778809,-0.519531,0.199219,0
63180,0.775391,-0.526367,0.214355,0
63200,0.746582,-0.526855,0.234863,0
63220,0.737305,-0.522461,0.257324,0
63240,0.751465,-0.515137,0.256836,0
63260,0.778809,-0.514648,0.259766,0
63280,0.742188,-0.533203,0.268066,0
63300,0.702637,-0.543945,0.29541,0
63320,0.71582,-0.543945,0.304199,0
63340,0.757812,-0.530273,0.289062,0
63350,0.773438,-0.558105,0.29248,0
63370,0.692383,-0.580078,0.313965,0
63390,0.663574,-0.589844,0.344238,0
63410,0.717285,-0.567383,0.324219,0
63430,0.73877,-0.579102,0.326172,0
63450,0.692871,-0.615234,0.342773,0
63470,0.67041,-0.629395,0.362305,0
63490,0.692383,-0.601562,0.340332,0
63510,0.716309,-0.591797,0.345215,0
63530,0.667969,-0.614258,0.35498,0
63550,0.610352,-0.653809,0.383301,0
63570,0.635742,-0.64502,0.387207,0
63610,0.607422,-0.63623,0.36084,0
63630,0.579102,-0.680664,0.37207,0
63650,0.603027,-0.661133,0.365723,0
63660,0.621094,-0.654297,0.366211,0
63680,0.554688,-0.672852,0.386719,0
63700,0.480957,-0.69043,0.402832,0
63720,0.524414,-0.679688,0.404297,0
63740,0.587891,-0.671875,0.383789,0
63760,0.567871,-0.683105,0.369629,0
63780,0.491699,-0.71582,0.400879,0
63800,0.475586,-0.720215,0.412598,0
63820,0.54541,-0.693848,0.391602,0
63840,0.549316,-0.695801,0.394043,0
63860,0.489746,-0.735352,0.392578,0
63880,0.44873,-0.743164,0.414551,0
63900,0.482422,-0.726562,0.407715,0
63920,0.495605,-0.703125,0.391113,0
63940,0.421875,-0.726562,0.404297,0
63960,0.384277,-0.74707,0.411621,0
63980,0.411133,-0.750977,0.425293,0
64000,0.430664,-0.739258,0.410645,0
64020,0.383789,-0.734863,0.402344,0
64040,0.362793,-0.753906,0.42627,0
64060,0.389648,-0.762207,0.438477,0
64080,0.401855,-0.762207,0.416504,0
64100,0.403809,-0.779297,0.402344,0
64120,0.361816,-0.794434,0.402832,0
64140,0.341309,-0.79541,0.42041,0
64160,0.349121,-0.774414,0.407715,0
64180,0.348633,-0.788086,0.394043,0
64200,0.305664,-0.814453,0.394531,0
64220,0.270508,-0.849609,0.398438,0
64240,0.309082,-0.816406,0.418457,0
64260,0.304199,-0.802246,0.394531,0
64280,0.265625,-0.791992,0.395996,0
64300,0.238281,-0.843262,0.39502,0
64320,0.265625,-0.841309,0.38623,0
64340,0.289551,-0.828125,0.397461,0
64360,0.266113,-0.810547,0.378418,0
64380,0.263184,-0.841797,0.387695,0
64400,0.255371,-0.855469,0.371582,0
64420,0.255371,-0.858887,0.38916,0
64440,0.249512,-0.839355,0.372559,0
64460,0.262695,-0.836914,0.369141,0
64480,0.257324,-0.828125,0.365234,0
64500,0.233887,-0.867676,0.342285,0
64520,0.236816,-0.866211,0.354492,0
64540,0.233398,-0.851562,0.350098,0
64560,0.243652,-0.847656,0.35498,0
64580,0.230957,-0.866699,0.342773,0
64600,0.21875,-0.87793,0.326172,0
64620,0.219238,-0.899414,0.323242,0
64640,0.248535,-0.884277,0.324707,0
64660,0.239258,-0.877441,0.316406,0
64680,0.230957,-0.885254,0.290039,0
64700,0.246582,-0.901367,0.297852,0
64720,0.237305,-0.910645,0.303223,0
64740,0.228516,-0.917969,0.294434,0
64760,0.241211,-0.915527,0.299805,0
64780,0.258301,-0.929199,0.294922,0
64800,0.247559,-0.933105,0.285156,0
64820,0.233398,-0.928223,0.276367,0
64840,0.253418,-0.92041,0.28125,0
64860,0.241211,-0.911621,0.264648,0
64880,0.253418,-0.920898,0.266113,0
64900,0.242676,-0.914062,0.263184,0
64910,0.216309,-0.91748,0.252441,0
64930,0.227539,-0.894043,0.24707,0
64950,0.220215,-0.890137,0.248047,0
64970,0.23291,-0.906738,0.239258,0
64990,0.224609,-0.905273,0.225098,0
65010,0.21582,-0.88623,0.223145,0
65030,0.228027,-0.889648,0.210938,0
65050,0.243652,-0.901855,0.213867,0
65070,0.23877,-0.89209,0.19873,0
65090,0.231445,-0.884277,0.179199,0
65110,0.233398,-0.90332,0.174316,0
65130,0.25293,-0.908691,0.185547,0
65150,0.23877,-0.918457,0.17627,0
65170,0.250977,-0.918457,0.147461,0
65190,0.25,-0.918457,0.143066,0
65210,0.259277,-0.924805,0.134766,0
65230,0.285645,-0.942383,0.146973,0
65250,0.296875,-0.967285,0.14502,0
65270,0.28125,-0.975586,0.13623,0
65290,0.286133,-0.985352,0.12793,0
65310,0.297363,-0.971191,0.124512,0
65330,0.300293,-0.945312,0.105957,0
65350,0.262695,-0.9375,0.100098,0
65370,0.276855,-0.924316,0.115234,0
65390,0.261719,-0.947754,0.0864258,0
65430,0.286133,-0.935547,0.0698242,0
65450,0.280273,-0.912598,0.0683594,0
65470,0.29248,-0.907227,0.0639648,0
65490,0.302734,-0.916016,0.0522461,0
65510,0.30957,-0.923828,0.0532227,0
65530,0.289551,-0.938477,0.0410156,0
65550,0.31543,-0.94043,0.0463867,0
65570,0.36084,-0.921387,0.0410156,0
65590,0.349609,-0.914062,0.0307617,0
65610,0.359863,-0.925781,0.0170898,0
65630,0.398926,-0.949219,0.0410156,0
65650,0.385254,-0.939941,0.0166016,0
65670,0.359863,-0.934082,0.00537109,0
65690,0.389648,-0.908203,0.00683594,0
65710,0.422363,-0.890625,-0.0107422,0
65730,0.405273,-0.90332,-0.03125,0
65750,0.432129,-0.904785,-0.0219727,0
65770,0.455566,-0.875488,-0.0234375,0
65790,0.482422,-0.878418,-0.0166016,0
65810,0.513672,-0.876953,-0.0395508,0
65830,0.48584,-0.860352,-0.0556641,0
65850,0.484375,-0.862793,-0.0576172,0
65870,0.496582,-0.839844,-0.0703125,0
65890,0.53418,-0.833984,-0.0634766,0
65910,0.541504,-0.826172,-0.0610352,0
65930,0.483887,-0.84668,-0.0874023,0
65950,0.506348,-0.838867,-0.0986328,0
65970,0.562988,-0.812012,-0.0810547,0
65990,0.552734,-0.779785,-0.0639648,0
66010,0.532715,-0.796387,-0.0737305,0
66030,0.54834,-0.80957,-0.0717773,0
66050,0.562988,-0.791992,-0.0517578,0
66070,0.585449,-0.768555,-0.0620117,0
66090,0.611328,-0.762207,-0.0712891,0
66110,0.655762,-0.775879,-0.0615234,0
66130,0.644531,-0.770996,-0.0488281,0
66150,0.61084,-0.731934,-0.0576172,0
66170,0.612793,-0.736328,-0.0913086,0
66190,0.674316,-0.744629,-0.0683594,0
66210,0.697266,-0.742188,-0.0493164,0
66230,0.679199,-0.719238,-0.0419922,0
66250,0.691895,-0.723633,-0.0957031,0
66270,0.73877,-0.725586,-0.0649414,0
66290,0.730469,-0.700195,-0.0395508,0
66310,0.708496,-0.67334,-0.0483398,0
66330,0.713867,-0.670898,-0.0893555,0
66350,0.739258,-0.666504,-0.0444336,0
66370,0.73584,-0.643555,-0.0258789,0
66390,0.744141,-0.62207,-0.0429688,0
66410,0.76709,-0.612793,-0.0600586,0
66430,0.769531,-0.63623,-0.0429688,0
66450,0.762207,-0.628418,-0.0297852,0
66470,0.769531,-0.59668,-0.034668,0
66490,0.79541,-0.582031,-0.0341797,0
