Timestamp, Acceleration x, Acceleration y, Acceleration z, Marker
50,-0.594727,-0.744629,0.158691,0
70,-0.617676,-0.726562,0.165527,0
90,-0.647461,-0.733398,0.162598,0
110,-0.652344,-0.797852,0.131348,0
130,-0.614746,-0.875977,0.121582,0
140,-0.596191,-0.869629,0.126465,0
140,-0.625488,-0.808105,0.136719,0
180,-0.621094,-0.791504,0.181641,0
200,-0.591309,-0.765625,0.277344,0
220,-0.611816,-0.702637,0.300781,0
240,-0.655762,-0.680176,0.304199,0
260,-0.58252,-0.726074,0.305664,0
280,-0.532227,-0.828125,0.315918,0
300,-0.587402,-0.783691,0.299805,0
320,-0.672852,-0.710938,0.313965,0
340,-0.689941,-0.698242,0.358887,0
360,-0.626953,-0.666992,0.33252,0
380,-0.638672,-0.632324,0.314453,0
400,-0.651367,-0.584473,0.361328,0
420,-0.657227,-0.604004,0.369141,0
440,-0.643066,-0.681641,0.36377,0
460,-0.631348,-0.717285,0.372559,0
480,-0.647461,-0.699219,0.383789,0
500,-0.662598,-0.677246,0.358887,0
520,-0.641602,-0.666992,0.370605,0
540,-0.636719,-0.65625,0.392578,0
560,-0.672852,-0.646484,0.387695,0
580,-0.679199,-0.65332,0.370117,0
600,-0.664062,-0.679688,0.36084,0
620,-0.641602,-0.705078,0.337402,0
640,-0.660156,-0.6875,0.334961,0
660,-0.679688,-0.682617,0.32959,0
680,-0.669922,-0.675781,0.321289,0
700,-0.641113,-0.691406,0.325684,0
720,-0.643066,-0.69873,0.336426,0
740,-0.647949,-0.696777,0.338867,0
760,-0.632812,-0.726562,0.333008,0
780,-0.619629,-0.724609,0.335449,0
800,-0.632324,-0.728027,0.349121,0
820,-0.638184,-0.726562,0.339355,0
840,-0.618652,-0.745117,0.32959,0
860,-0.612305,-0.743652,0.345215,0
880,-0.645508,-0.729492,0.338867,0
900,-0.649414,-0.729004,0.325684,0
920,-0.615234,-0.734375,0.323242,0
940,-0.619629,-0.73291,0.334961,0
960,-0.635254,-0.73291,0.327148,0
980,-0.669922,-0.712402,0.306641,0
1000,-0.661133,-0.706543,0.302246,0
1020,-0.642578,-0.683594,0.324219,0
1040,-0.658691,-0.694336,0.322266,0
1060,-0.675781,-0.712402,0.317383,0
1080,-0.660645,-0.703125,0.33252,0
1100,-0.645508,-0.686035,0.348145,0
1120,-0.660156,-0.657227,0.367676,0
1140,-0.682129,-0.627441,0.368164,0
1160,-0.696777,-0.604004,0.374512,0
1180,-0.676758,-0.602539,0.390137,0
1200,-0.666504,-0.600586,0.414062,0
1220,-0.668945,-0.603027,0.421875,0
1240,-0.659668,-0.62207,0.425293,0
1260,-0.586914,-0.641113,0.445801,0
1280,-0.564941,-0.634277,0.473633,0
1300,-0.605957,-0.620605,0.475586,0
1320,-0.582031,-0.613281,0.466797,0
1340,-0.548828,-0.619141,0.487793,0
1360,-0.544434,-0.612793,0.489258,0
1380,-0.558105,-0.60498,0.505859,0
1400,-0.581543,-0.599121,0.50293,0
1420,-0.560547,-0.61377,0.504883,0
1440,-0.52002,-0.645996,0.521484,0
1460,-0.533691,-0.643555,0.532227,0
1480,-0.557617,-0.638184,0.527344,0
1500,-0.538086,-0.65332,0.535156,0
1520,-0.51709,-0.669922,0.540527,0
1540,-0.52002,-0.675781,0.541016,0
1560,-0.521484,-0.673828,0.53125,0
1580,-0.530273,-0.676758,0.528809,0
1600,-0.546387,-0.663086,0.523926,0
1620,-0.562988,-0.652344,0.513184,0
1640,-0.558594,-0.653809,0.514648,0
1660,-0.570312,-0.652832,0.512207,0
1680,-0.585938,-0.639648,0.510742,0
1700,-0.585938,-0.635742,0.499512,0
1720,-0.594727,-0.626953,0.492188,0
1740,-0.599609,-0.611328,0.477051,0
1760,-0.623535,-0.616211,0.466309,0
1780,-0.598145,-0.629883,0.44873,0
1800,-0.603516,-0.648926,0.452148,0
1820,-0.643555,-0.625488,0.463379,0
1840,-0.629883,-0.591797,0.452637,0
1860,-0.618164,-0.607422,0.442383,0
1880,-0.646973,-0.618164,0.446289,0
1900,-0.640137,-0.632812,0.438477,0
1920,-0.65332,-0.614746,0.441895,0
1940,-0.661133,-0.59375,0.436035,0
1960,-0.638184,-0.604004,0.439941,0
1980,-0.641602,-0.619141,0.425781,0
2000,-0.647461,-0.644531,0.410156,0
2020,-0.64502,-0.644531,0.413574,0
2040,-0.632324,-0.648926,0.416992,0
2060,-0.63623,-0.64209,0.402832,0
2080,-0.652832,-0.637207,0.396973,0
2100,-0.66748,-0.647949,0.364258,0
2120,-0.662109,-0.674805,0.328613,0
2140,-0.595215,-0.696777,0.325195,0
2160,-0.547363,-0.715332,0.336914,0
2180,-0.545898,-0.73584,0.373047,0
2200,-0.566406,-0.773438,0.39502,0
2220,-0.578613,-0.791016,0.404785,0
2240,-0.556152,-0.806152,0.389648,0
2260,-0.539551,-0.802246,0.398438,0
2280,-0.571777,-0.806152,0.386719,0
2300,-0.569824,-0.824707,0.40332,0
2320,-0.48584,-0.774902,0.454102,0
2340,-0.50293,-0.783203,0.436523,0
2360,-0.632324,-0.844727,0.358887,0
2380,-0.664062,-0.802734,0.330078,0
2400,-0.661621,-0.693359,0.357422,0
2410,-0.728516,-0.608887,0.359863,0
2430,-0.803711,-0.629883,0.341797,0
2450,-0.764648,-0.599121,0.405273,0
2470,-0.712891,-0.540039,0.462891,0
2490,-0.699707,-0.513184,0.45752,0
2510,-0.672363,-0.525391,0.461914,0
2530,-0.635254,-0.554199,0.506836,0
2550,-0.615234,-0.575195,0.518555,0
2570,-0.551758,-0.616699,0.525391,0
2590,-0.508789,-0.591309,0.591797,0
2610,-0.554688,-0.538086,0.626953,0
2630,-0.594238,-0.523438,0.59082,0
2650,-0.543945,-0.537598,0.574219,0
2670,-0.483887,-0.56543,0.598145,0
2690,-0.483398,-0.572754,0.628418,0
2710,-0.492676,-0.589844,0.631836,0
2730,-0.449707,-0.603027,0.647949,0
2750,-0.410156,-0.603027,0.664551,0
2770,-0.403809,-0.577637,0.673828,0
2790,-0.412598,-0.553711,0.676758,0
2810,-0.447266,-0.553223,0.67334,0
2830,-0.481445,-0.53125,0.651367,0
2850,-0.50293,-0.51416,0.638184,0
2870,-0.494629,-0.504883,0.663574,0
2890,-0.45752,-0.513672,0.686035,0
2910,-0.456055,-0.519043,0.680176,0
2930,-0.454102,-0.516113,0.661133,0
2950,-0.469238,-0.525879,0.67627,0
2970,-0.51416,-0.52832,0.675293,0
2990,-0.555664,-0.525391,0.66748,0
3010,-0.57959,-0.522461,0.661621,0
3030,-0.595215,-0.525879,0.632812,0
3050,-0.612793,-0.536133,0.625,0
3070,-0.631836,-0.515137,0.626465,0
3090,-0.660156,-0.521484,0.615234,0
3110,-0.666016,-0.533691,0.598145,0
3130,-0.646484,-0.527832,0.579102,0
3150,-0.661621,-0.523438,0.565918,0
3170,-0.674805,-0.534668,0.536621,0
3190,-0.677246,-0.566406,0.513184,0
3210,-0.682129,-0.591309,0.483887,0
3230,-0.683105,-0.59375,0.472168,0
3250,-0.69043,-0.601562,0.447266,0
3270,-0.69873,-0.617676,0.432129,0
3290,-0.671387,-0.625,0.433594,0
3310,-0.664551,-0.67627,0.436523,0
3330,-0.660645,-0.734375,0.423828,0
3350,-0.654297,-0.760254,0.404785,0
3370,-0.615234,-0.794922,0.382324,0
3390,-0.594727,-0.805176,0.395996,0
3410,-0.614258,-0.803223,0.398926,0
3430,-0.619629,-0.816895,0.398438,0
3450,-0.57666,-0.828613,0.387695,0
3470,-0.562988,-0.835938,0.396484,0
3490,-0.572754,-0.808594,0.414062,0
3510,-0.583984,-0.769043,0.415527,0
3530,-0.591309,-0.738281,0.412109,0
3550,-0.603027,-0.699219,0.431152,0
3570,-0.625488,-0.674805,0.44043,0
3590,-0.647461,-0.643555,0.449707,0
3610,-0.662598,-0.603027,0.462891,0
3630,-0.663574,-0.57373,0.497559,0
3650,-0.661621,-0.529297,0.524414,0
3670,-0.696777,-0.510742,0.532715,0
3690,-0.686035,-0.486816,0.527344,0
3710,-0.671875,-0.478516,0.55957,0
3730,-0.659668,-0.479004,0.570312,0
3750,-0.652344,-0.44873,0.591309,0
3770,-0.644043,-0.430176,0.611328,0
3790,-0.650391,-0.411621,0.611816,0
3810,-0.654785,-0.42334,0.612305,0
3830,-0.646973,-0.4375,0.599121,0
3850,-0.614746,-0.452148,0.614746,0
3870,-0.612305,-0.435547,0.626953,0
3890,-0.595215,-0.428711,0.637207,0
3910,-0.59082,-0.457031,0.645508,0
3930,-0.584473,-0.5,0.643066,0
3950,-0.574707,-0.554199,0.675781,0
3970,-0.518066,-0.546387,0.701172,0
3990,-0.458496,-0.571289,0.688965,0
4010,-0.407227,-0.594238,0.71875,0
4030,-0.39502,-0.598145,0.737305,0
4050,-0.4375,-0.618164,0.742676,0
4070,-0.460938,-0.606445,0.749512,0
4090,-0.468262,-0.608398,0.750488,0
4110,-0.460938,-0.601562,0.73877,0
4130,-0.459473,-0.603027,0.730957,0
4150,-0.470215,-0.594238,0.728516,0
4170,-0.484863,-0.555664,0.720215,0
4190,-0.492676,-0.536133,0.71582,0
4210,-0.5,-0.510254,0.716797,0
4230,-0.52002,-0.508301,0.707031,0
4250,-0.53418,-0.522949,0.706055,0
4270,-0.537109,-0.506836,0.70752,0
4290,-0.554688,-0.488281,0.69873,0
4310,-0.587402,-0.450195,0.693359,0
4330,-0.617676,-0.428223,0.691406,0
4350,-0.629395,-0.421875,0.694336,0
4370,-0.653809,-0.430176,0.708496,0
4390,-0.668945,-0.432617,0.688965,0
4410,-0.67627,-0.426758,0.676758,0
4430,-0.683105,-0.422363,0.669434,0
4450,-0.685059,-0.420898,0.651367,0
4470,-0.677246,-0.411621,0.640137,0
4490,-0.66748,-0.405762,0.63916,0
4510,-0.670898,-0.390137,0.625488,0
4530,-0.678223,-0.408691,0.59668,0
4570,-0.675293,-0.485352,0.525879,0
4590,-0.660156,-0.529297,0.498535,0
4610,-0.64502,-0.567871,0.486328,0
4630,-0.581055,-0.575195,0.480469,0
4650,-0.561523,-0.598145,0.483887,0
4670,-0.54541,-0.648438,0.477539,0
4690,-0.500977,-0.699219,0.458984,0
4710,-0.48291,-0.772461,0.482422,0
4730,-0.476074,-0.816406,0.482422,0
4750,-0.423828,-0.832031,0.500977,0
4770,-0.387695,-0.845215,0.545898,0
4790,-0.40918,-0.813477,0.538574,0
4810,-0.430176,-0.769043,0.529785,0
4830,-0.419434,-0.71875,0.540039,0
4850,-0.402832,-0.67334,0.563965,0
4870,-0.418945,-0.621582,0.57959,0
4890,-0.46875,-0.545898,0.573242,0
4910,-0.501953,-0.557617,0.54248,0
4930,-0.431641,-0.577637,0.561523,0
4950,-0.416992,-0.57373,0.60498,0
4970,-0.475586,-0.539062,0.612305,0
4990,-0.544922,-0.51416,0.647461,0
5000,-0.566406,-0.478516,0.653809,0
5020,-0.537598,-0.428711,0.6875,0
5040,-0.530273,-0.376953,0.708008,0
5060,-0.566406,-0.400879,0.716309,0
5080,-0.527344,-0.453125,0.759277,0
5100,-0.460449,-0.459961,0.797363,0
5120,-0.45166,-0.48291,0.812988,0
5140,-0.489258,-0.474609,0.793945,0
5160,-0.507812,-0.39502,0.772461,0
5180,-0.48291,-0.363281,0.771973,0
5200,-0.461426,-0.38623,0.773926,0
5220,-0.453125,-0.423828,0.735352,0
5240,-0.441895,-0.435059,0.729004,0
5260,-0.425781,-0.400879,0.734863,0
5280,-0.40332,-0.390625,0.738281,0
5300,-0.377441,-0.39502,0.724121,0
5320,-0.37793,-0.40918,0.735352,0
5340,-0.396973,-0.383301,0.750977,0
5360,-0.399902,-0.369141,0.75293,0
5380,-0.392578,-0.367676,0.749512,0
5400,-0.384277,-0.368652,0.759277,0
5420,-0.409668,-0.366699,0.771973,0
5440,-0.431641,-0.361328,0.769531,0
5460,-0.422363,-0.369141,0.774902,0
5480,-0.424316,-0.38916,0.787598,0
5500,-0.437012,-0.402344,0.793457,0
5520,-0.432617,-0.415527,0.786133,0
5540,-0.42334,-0.422852,0.773926,0
5560,-0.436035,-0.416016,0.770508,0
5580,-0.451172,-0.410156,0.777344,0
5600,-0.44873,-0.406738,0.76416,0
5620,-0.464355,-0.407227,0.763672,0
5640,-0.483398,-0.408691,0.758301,0
5660,-0.503906,-0.425781,0.756348,0
5680,-0.500977,-0.42334,0.739258,0
5700,-0.525391,-0.419922,0.736816,0
5720,-0.546875,-0.428711,0.720703,0
5740,-0.541504,-0.449707,0.696777,0
5760,-0.508789,-0.480957,0.712402,0
5780,-0.501465,-0.455566,0.728027,0
5800,-0.555664,-0.437988,0.70166,0
5820,-0.559082,-0.43457,0.67627,0
5840,-0.533203,-0.452637,0.679199,0
5860,-0.533691,-0.476074,0.677246,0
5880,-0.519043,-0.482422,0.640625,0
5900,-0.500977,-0.504395,0.617188,0
5920,-0.490234,-0.516602,0.631348,0
5940,-0.498047,-0.522949,0.632324,0
5960,-0.51416,-0.528809,0.618652,0
5980,-0.503906,-0.536133,0.609375,0
6000,-0.5,-0.548828,0.615234,0
6020,-0.508301,-0.538086,0.625488,0
6040,-0.521973,-0.520508,0.612793,0
6060,-0.532227,-0.526367,0.598145,0
6080,-0.536621,-0.541992,0.605469,0
6100,-0.536621,-0.549805,0.618164,0
6120,-0.534668,-0.536133,0.621094,0
6140,-0.529297,-0.529297,0.618652,0
6160,-0.513184,-0.523926,0.62793,0
6180,-0.513672,-0.508301,0.63916,0
6200,-0.521484,-0.487305,0.640625,0
6220,-0.524902,-0.505371,0.626953,0
6240,-0.512207,-0.521973,0.633301,0
6260,-0.493652,-0.498047,0.656738,0
6280,-0.49707,-0.46582,0.657715,0
6300,-0.502441,-0.450195,0.645996,0
6320,-0.52002,-0.460938,0.639648,0
6340,-0.53418,-0.491699,0.638672,0
6360,-0.522949,-0.488281,0.642578,0
6380,-0.51709,-0.476074,0.666504,0
6400,-0.525391,-0.450684,0.660156,0
6420,-0.543457,-0.447754,0.654785,0
6440,-0.532227,-0.44873,0.66748,0
6460,-0.530273,-0.433594,0.669922,0
6480,-0.52002,-0.431641,0.669922,0
6500,-0.492676,-0.424316,0.650879,0
6520,-0.479004,-0.41748,0.655762,0
6540,-0.483398,-0.431641,0.675293,0
6560,-0.492188,-0.450195,0.651367,0
6580,-0.509277,-0.461914,0.662598,0
6600,-0.52002,-0.445801,0.665527,0
6620,-0.518555,-0.42334,0.657715,0
6640,-0.511719,-0.438477,0.638672,0
6660,-0.523926,-0.461914,0.60791,0
6680,-0.541504,-0.466797,0.614746,0
6720,-0.560059,-0.496094,0.703125,0
6740,-0.541504,-0.576172,0.688965,0
6760,-0.494629,-0.625,0.656738,0
6780,-0.482422,-0.590332,0.606445,0
6800,-0.503418,-0.51123,0.581055,0
6810,-0.52002,-0.494629,0.583984,0
6830,-0.556152,-0.510254,0.603027,0
6850,-0.581055,-0.54248,0.597656,0
6880,-0.568848,-0.525879,0.600586,0
6900,-0.566406,-0.495605,0.603516,0
6920,-0.570801,-0.48291,0.584961,0
6940,-0.563477,-0.489746,0.578613,0
6960,-0.567871,-0.507324,0.583984,0
6980,-0.562988,-0.488281,0.585938,0
7000,-0.559082,-0.48584,0.577148,0
7020,-0.5625,-0.483398,0.574707,0
7040,-0.547363,-0.466797,0.59668,0
7060,-0.54541,-0.448242,0.610352,0
7080,-0.536133,-0.45752,0.585449,0
7100,-0.537598,-0.465332,0.606445,0
7120,-0.540527,-0.433594,0.648926,0
7140,-0.533691,-0.425781,0.680176,0
7160,-0.52832,-0.430664,0.679199,0
7180,-0.518555,-0.414551,0.693848,0
7200,-0.543457,-0.394531,0.768066,0
7220,-0.55127,-0.38623,0.79248,0
7240,-0.532227,-0.397949,0.766113,0
7260,-0.523438,-0.406738,0.78125,0
7280,-0.548828,-0.364746,0.82373,0
7300,-0.608887,-0.348145,0.848145,0
7320,-0.654297,-0.342773,0.836426,0
7340,-0.651367,-0.350098,0.774414,0
7360,-0.617188,-0.330566,0.730957,0
7380,-0.609375,-0.289551,0.740234,0
7400,-0.619629,-0.260254,0.782715,0
7420,-0.624023,-0.234863,0.815918,0
7440,-0.640137,-0.223145,0.79834,0
7460,-0.62793,-0.240723,0.770996,0
7480,-0.622559,-0.262207,0.777344,0
7500,-0.611816,-0.253418,0.788574,0
7520,-0.610352,-0.23291,0.82373,0
7540,-0.644531,-0.229004,0.808594,0
7550,-0.650879,-0.240234,0.760742,0
7570,-0.611816,-0.28125,0.73877,0
7590,-0.560547,-0.296875,0.706055,0
7610,-0.549805,-0.296387,0.737793,0
7630,-0.586426,-0.27832,0.744141,0
7650,-0.578125,-0.29541,0.717773,0
7670,-0.557129,-0.331055,0.707031,0
7690,-0.527344,-0.320312,0.696289,0
7710,-0.501465,-0.300293,0.707031,0
7730,-0.475586,-0.275879,0.736328,0
7750,-0.464844,-0.246094,0.747559,0
7770,-0.458496,-0.262207,0.730957,0
7790,-0.459473,-0.28418,0.716797,0
7810,-0.444336,-0.294434,0.689941,0
7830,-0.383301,-0.305176,0.705566,0
7850,-0.327637,-0.309082,0.748047,0
7870,-0.330078,-0.318848,0.774414,0
7890,-0.326172,-0.33252,0.769531,0
7910,-0.293457,-0.346191,0.780273,0
7930,-0.256836,-0.353027,0.808105,0
7950,-0.217285,-0.384277,0.823242,0
7970,-0.171387,-0.413574,0.815918,0
7990,-0.136719,-0.428711,0.862305,0
8010,-0.118164,-0.438965,0.914062,0
8030,-0.102539,-0.480957,0.933594,0
8050,-0.0800781,-0.532715,0.910156,0
8070,-0.0541992,-0.560547,0.90332,0
8090,-0.0405273,-0.540527,0.837402,0
8110,-0.00927734,-0.524414,0.757324,0
8130,0.0380859,-0.504395,0.727051,0
8150,0.0537109,-0.463379,0.70166,0
8170,0.0429688,-0.471191,0.651367,0
8190,0.034668,-0.484863,0.638184,0
8210,0.065918,-0.476562,0.651367,0
8230,0.100098,-0.492188,0.637695,0
8250,0.101074,-0.521973,0.621582,0
8270,0.12207,-0.537598,0.627441,0
8290,0.148438,-0.546387,0.675781,0
8310,0.185547,-0.577148,0.659668,0
8330,0.248535,-0.619629,0.631836,0
8350,0.305664,-0.657715,0.61377,0
8370,0.342773,-0.619629,0.617188,0
8390,0.368652,-0.589844,0.643555,0
8400,0.401855,-0.597168,0.692871,0
8420,0.390137,-0.619629,0.691895,0
8440,0.349121,-0.652344,0.692871,0
8460,0.493652,-0.706543,0.712891,0
8480,0.533203,-0.71875,0.852051,0
8500,0.212891,-0.644531,0.680664,0
8520,0.410645,-0.635742,0.907715,0
8540,0.725586,-0.602051,0.634766,0
8560,0.811035,-0.539551,0.548828,0
8580,0.80957,-0.538574,0.63916,0
8610,0.635254,-0.594727,0.867188,0
8630,0.0170898,-0.634766,0.944336,0
8650,-0.41748,-0.456543,0.443848,0
8670,0.896973,-0.484375,0.472656,0
8690,-0.0327148,-0.668457,0.81543,0
8700,0.57666,-0.398926,0.390137,0
8730,-0.0605469,-0.740723,0.713867,0
8750,1.09961,-0.59375,0.727539,0
8770,-0.0888672,-0.469727,0.243164,0
8780,-0.231934,-0.681152,0.517578,0
8800,0.558594,-0.661621,0.882812,0
8820,0.966309,-0.526367,0.984863,0
8840,1.03809,-0.416504,0.951172,0
8860,1.01562,-0.404297,0.979492,0
8890,0.994141,-0.455078,1.05811,0
8910,0.834473,-0.59668,1.0957,0
8930,0.899414,-0.571289,0.701172,0
8950,0.415039,-0.617676,0.649902,0
8970,0.350098,-0.640137,0.662598,0
8990,0.377441,-0.672852,0.6875,0
9010,0.362305,-0.712891,0.700195,0
9030,0.294434,-0.637695,0.696289,0
9050,0.253418,-0.610352,0.677734,0
9070,0.27002,-0.62207,0.684082,0
9090,0.294434,-0.628906,0.658691,0
9110,0.311523,-0.636719,0.63623,0
9130,0.314941,-0.638184,0.638672,0
9150,0.308105,-0.615723,0.632812,0
9170,0.300293,-0.617676,0.625,0
9190,0.304688,-0.631836,0.60498,0
9210,0.310059,-0.63623,0.585938,0
9230,0.319336,-0.632812,0.578125,0
9250,0.343262,-0.627441,0.55127,0
9270,0.400879,-0.605469,0.598145,0
9290,0.435059,-0.547363,0.65918,0
9310,0.427734,-0.566895,0.668945,0
9330,0.439941,-0.587402,0.660156,0
9350,0.458496,-0.60498,0.665527,0
9370,0.48291,-0.597168,0.663574,0
9390,0.508301,-0.603027,0.643066,0
9410,0.516113,-0.574707,0.602539,0
9430,0.510742,-0.58252,0.604004,0
9450,0.491699,-0.568359,0.588867,0
9470,0.506348,-0.589355,0.570801,0
9490,0.516602,-0.563477,0.559082,0
9510,0.54834,-0.506836,0.536621,0
9530,0.555664,-0.507324,0.548828,0
9550,0.589355,-0.498535,0.526367,0
9570,0.61377,-0.498535,0.510254,0
9590,0.642578,-0.501465,0.475098,0
9610,0.686523,-0.467773,0.430664,0
9630,0.696777,-0.464355,0.412598,0
9650,0.704102,-0.459961,0.410156,0
9670,0.727539,-0.418945,0.394043,0
9690,0.737793,-0.453125,0.348145,0
9710,0.741699,-0.446289,0.262207,0
9730,0.75,-0.409668,0.21582,0
9750,0.78125,-0.428223,0.233887,0
9770,0.84375,-0.427734,0.193848,0
9790,0.840332,-0.473145,0.150879,0
9810,0.79248,-0.442871,0.109863,0
9830,0.796387,-0.401855,0.108398,0
9850,0.818359,-0.397949,0.103027,0
9870,0.844727,-0.377441,0.0703125,0
9890,0.861816,-0.340332,0.0395508,0
9910,0.87207,-0.3125,0.0463867,0
9930,0.864746,-0.295898,0.0493164,0
9950,0.841309,-0.276367,0.0786133,0
9970,0.916992,-0.325195,-0.00341797,0
9990,0.912598,-0.31543,-0.0439453,0
10010,0.885742,-0.319824,-0.0219727,0
10030,1.03369,-0.300781,0.0209961,0
10050,0.991699,-0.316406,0.00390625,0
10070,0.943359,-0.357422,-0.0146484,0
10090,0.944336,-0.306152,-0.0170898,0
10110,0.928223,-0.294434,-0.0209961,0
10130,0.963379,-0.314453,-0.0493164,0
10140,0.87207,-0.350098,-0.0473633,0
10160,0.773926,-0.354492,-0.0322266,0
10180,0.763184,-0.259766,-0.0571289,0
10200,0.788574,-0.265625,-0.132812,0
10220,0.77832,-0.303711,-0.182617,0
10240,0.788086,-0.28418,-0.0996094,0
10260,0.892578,-0.337402,-0.107422,0
10280,0.923828,-0.418457,-0.0839844,0
10300,0.904297,-0.331055,-0.0439453,0
10320,0.888184,-0.183594,-0.0493164,0
10340,0.969238,-0.200684,-0.10791,0
10360,0.96875,-0.220703,-0.14502,0
10380,0.95459,-0.27832,-0.160156,0
10400,0.88916,-0.437988,-0.117188,0
10420,0.873535,-0.469727,-0.151367,0
10440,0.92041,-0.407715,-0.125488,0
10460,0.996094,-0.356445,-0.034668,0
10480,0.916992,-0.393555,-0.0522461,0
10500,0.934082,-0.303711,-0.0961914,0
10520,0.981445,-0.217285,-0.103027,0
10540,0.954102,-0.220215,-0.0913086,0
10560,0.938965,-0.314453,-0.128906,0
10580,0.933594,-0.318848,-0.174805,0
10600,0.853516,-0.296875,-0.167969,0
10620,0.894531,-0.267578,-0.143066,0
10640,0.902832,-0.26123,-0.136719,0
10660,0.922852,-0.307617,-0.090332,0
10680,0.887695,-0.332031,-0.111816,0
10700,0.876953,-0.326172,-0.14209,0
10720,0.985352,-0.347168,-0.119629,0
10740,0.942871,-0.318359,-0.0678711,0
10760,0.79248,-0.364746,-0.102051,0
10780,0.866699,-0.347168,-0.059082,0
10800,0.858398,-0.29541,-0.065918,0
10820,0.913086,-0.269043,-0.112793,0
10840,0.989746,-0.317383,-0.101562,0
10860,0.915039,-0.339844,-0.0864258,0
10880,0.845215,-0.326172,-0.100098,0
10900,0.884277,-0.353027,-0.0473633,0
10920,0.874023,-0.375488,-0.0185547,0
10940,0.836426,-0.387207,-0.0161133,0
10960,0.852051,-0.382812,-0.00683594,0
10980,0.904785,-0.398438,-0.00195312,0
11000,0.936035,-0.391602,-0.0131836,0
11020,0.925293,-0.382324,-0.0107422,0
11040,0.922363,-0.390625,0.00146484,0
11060,0.902832,-0.345215,0.0556641,0
11080,0.876465,-0.342285,0.0507812,0
11100,0.864258,-0.349121,0.0537109,0
11120,0.871582,-0.329102,0.0541992,0
11140,0.879883,-0.345215,0.0654297,0
11160,0.878418,-0.367676,0.0410156,0
11180,0.895508,-0.375,0.0522461,0
11200,0.893066,-0.334473,0.0698242,0
11220,0.873535,-0.349121,0.0791016,0
11240,0.871094,-0.367188,0.0668945,0
11260,0.915527,-0.378418,0.065918,0
11280,0.941895,-0.356934,0.0517578,0
11300,0.944336,-0.343262,0.0615234,0
11320,0.969238,-0.316406,0.0620117,0
11340,0.983398,-0.302246,0.0820312,0
11360,0.910645,-0.326172,0.0913086,0
11380,0.894531,-0.344727,0.0756836,0
11400,0.89209,-0.354004,0.0522461,0
11420,0.874512,-0.348633,0.0947266,0
11440,0.897461,-0.344727,0.0878906,0
11460,0.881836,-0.341309,0.0600586,0
11480,0.889648,-0.331543,0.0693359,0
11500,0.902344,-0.329102,0.116211,0
11520,0.905273,-0.337891,0.112305,0
11540,0.883789,-0.340332,0.105469,0
11560,0.879883,-0.321289,0.0737305,0
11580,0.89502,-0.348145,0.137695,0
11600,0.888184,-0.372559,0.134766,0
11620,0.881836,-0.37793,0.11084,0
11640,0.850586,-0.356445,0.109375,0
11660,0.836426,-0.370605,0.137207,0
11680,0.835449,-0.393066,0.146484,0
11700,0.84082,-0.368652,0.117188,0
11720,0.837402,-0.367676,0.130859,0
11740,0.831543,-0.370605,0.0932617,0
11760,0.855469,-0.379883,0.0927734,0
11780,0.911621,-0.410156,0.115723,0
11800,0.919922,-0.408203,0.119629,0
11820,0.904297,-0.352539,0.0805664,0
11840,0.901855,-0.348633,0.0854492,0
11860,0.92041,-0.34668,0.103027,0
11880,0.924316,-0.371094,0.106445,0
11900,0.879395,-0.402832,0.116211,0
11920,0.841309,-0.342773,0.0864258,0
11940,0.833984,-0.37207,0.123535,0
11960,0.868652,-0.38916,0.184082,0
11980,0.874512,-0.37207,0.220703,0
12000,0.872559,-0.363281,0.162598,0
12020,0.800781,-0.34375,0.21582,0
12040,0.751465,-0.287598,0.219727,0
12060,0.759766,-0.338379,0.294922,0
12080,0.841797,-0.337891,0.265137,0
12100,0.861328,-0.445801,0.253906,0
12120,0.722168,-0.326172,0.381836,0
12140,0.733398,-0.229004,0.37793,0
12160,0.838379,-0.390137,0.307617,0
12180,0.880371,-0.447754,0.311523,0
12200,0.793945,-0.422852,0.294434,0
12220,0.773926,-0.376465,0.305664,0
12240,0.783203,-0.390137,0.339844,0
12260,0.780762,-0.453125,0.338867,0
12280,0.811035,-0.442383,0.273438,0
12300,0.784668,-0.387207,0.374512,0
12320,0.764648,-0.294922,0.435059,0
12340,0.751465,-0.300781,0.445801,0
12360,0.772949,-0.324219,0.429199,0
12380,0.759277,-0.404785,0.325195,0
12400,0.729492,-0.401855,0.286621,0
12420,0.701172,-0.324219,0.310547,0
12440,0.74707,-0.35498,0.32373,0
12460,0.763672,-0.372559,0.387695,0
12480,0.842285,-0.358887,0.365234,0
12500,0.859375,-0.314453,0.337402,0
12520,0.859863,-0.282715,0.408691,0
12540,0.855469,-0.33252,0.40625,0
12560,0.816406,-0.38916,0.356934,0
12580,0.821289,-0.387695,0.391602,0
12600,0.820801,-0.384766,0.396973,0
12620,0.753906,-0.385742,0.378418,0
12640,0.753418,-0.381836,0.375,0
12660,0.775879,-0.375488,0.384277,0
12680,0.755371,-0.378906,0.387695,0
12700,0.762207,-0.364258,0.385742,0
12720,0.800781,-0.37793,0.368164,0
12730,0.809082,-0.362793,0.376953,0
12750,0.790039,-0.338379,0.38623,0
12770,0.783203,-0.340332,0.394531,0
12790,0.762207,-0.335449,0.369141,0
12810,0.766113,-0.344727,0.373535,0
12830,0.767578,-0.339844,0.352539,0
12850,0.777344,-0.328613,0.370117,0
12870,0.78418,-0.321777,0.343262,0
12890,0.793457,-0.329102,0.363281,0
12910,0.789062,-0.324219,0.376465,0
12930,0.788574,-0.339844,0.383789,0
12950,0.815918,-0.321777,0.390137,0
12970,0.810059,-0.338867,0.377441,0
12990,0.820801,-0.351074,0.393555,0
13010,0.782227,-0.357422,0.415039,0
13030,0.768066,-0.34375,0.414062,0
13050,0.777344,-0.388672,0.412109,0
13070,0.798828,-0.382324,0.391113,0
13090,0.763672,-0.345215,0.484863,0
13110,0.831055,-0.311523,0.497559,0
13130,0.796387,-0.323242,0.423828,0
13150,0.749512,-0.333008,0.374512,0
13170,0.729492,-0.356934,0.391602,0
13190,0.708496,-0.322266,0.417969,0
13210,0.696777,-0.273926,0.396973,0
13230,0.6875,-0.240723,0.390137,0
13250,0.67627,-0.257324,0.387207,0
13270,0.711426,-0.231445,0.372559,0
13290,0.800293,-0.251953,0.34375,0
13310,0.817383,-0.235352,0.381348,0
13330,0.822754,-0.228516,0.38623,0
13350,0.860352,-0.244141,0.379395,0
13370,0.836426,-0.225098,0.375,0
13390,0.813477,-0.233398,0.380371,0
13410,0.788086,-0.257812,0.381836,0
13430,0.781738,-0.290527,0.382324,0
13450,0.768066,-0.286621,0.373535,0
13470,0.743652,-0.297363,0.387207,0
13490,0.77002,-0.305176,0.378906,0
13510,0.800293,-0.317871,0.351562,0
13530,0.853516,-0.301758,0.348145,0
13550,0.865723,-0.300781,0.338867,0
13570,0.875488,-0.308105,0.353027,0
13590,0.90918,-0.286133,0.348633,0
13610,0.910645,-0.260254,0.338379,0
13630,0.929688,-0.258789,0.3125,0
13650,0.940918,-0.248535,0.310547,0
13670,0.913086,-0.224121,0.311523,0
13690,0.902832,-0.195801,0.307129,0
13710,0.895996,-0.200684,0.291992,0
13730,0.89502,-0.200195,0.26709,0
13750,0.863281,-0.166504,0.312988,0
13770,0.83252,-0.152832,0.34668,0
13790,0.819824,-0.177734,0.33252,0
13810,0.789551,-0.189453,0.347168,0
13830,0.800293,-0.193848,0.348145,0
13850,0.817383,-0.223145,0.303711,0
13870,0.810059,-0.203125,0.318848,0
13890,0.810547,-0.155273,0.387207,0
13910,0.78125,-0.181152,0.404297,0
13930,0.742188,-0.225098,0.396973,0
13950,0.726562,-0.273438,0.382324,0
13970,0.733398,-0.293457,0.352051,0
13990,0.743652,-0.289551,0.330078,0
14010,0.774414,-0.274902,0.314453,0
14030,0.792969,-0.270996,0.29248,0
14050,0.814453,-0.293457,0.296387,0
14070,0.844238,-0.270508,0.31543,0
14090,0.857422,-0.293457,0.352051,0
14110,0.866211,-0.314453,0.35791,0
14130,0.861328,-0.32959,0.317383,0
14150,0.887207,-0.333496,0.291504,0
14170,0.905762,-0.329102,0.299805,0
14190,0.895996,-0.328125,0.305664,0
14210,0.868164,-0.33252,0.316895,0
14230,0.858887,-0.322266,0.327148,0
14250,0.851562,-0.300293,0.32959,0
14270,0.82959,-0.305176,0.311523,0
14290,0.829102,-0.29248,0.333984,0
14310,0.831543,-0.297363,0.327637,0
14330,0.830566,-0.299805,0.329102,0
14350,0.833984,-0.294434,0.347168,0
14370,0.833008,-0.317871,0.307617,0
14390,0.833496,-0.337891,0.290039,0
14410,0.84375,-0.34082,0.302734,0
14430,0.862305,-0.333496,0.291016,0
14450,0.851562,-0.34082,0.285156,0
14470,0.839844,-0.341309,0.25293,0
14490,0.858887,-0.317871,0.245117,0
14510,0.912598,-0.295898,0.227539,0
14530,0.946289,-0.283203,0.234863,0
14550,0.844238,-0.265625,0.24707,0
14570,0.82666,-0.296875,0.203125,0
14590,0.804688,-0.281738,0.19873,0
14610,0.806641,-0.270508,0.240723,0
14630,0.812988,-0.310059,0.23877,0
14650,0.808105,-0.30957,0.211914,0
14670,0.798828,-0.311523,0.180176,0
14690,0.791016,-0.310059,0.194824,0
14710,0.808105,-0.312988,0.239746,0
14730,0.831543,-0.311035,0.263672,0
14750,0.861816,-0.318359,0.253906,0
14770,0.879395,-0.344238,0.252441,0
14790,0.892578,-0.344727,0.262207,0
14810,0.874023,-0.32666,0.275879,0
14830,0.812012,-0.269043,0.263672,0
14850,0.817871,-0.316895,0.213867,0
14870,0.850586,-0.354004,0.210938,0
14890,0.854492,-0.352539,0.216309,0
14910,0.825195,-0.32959,0.254395,0
14930,0.818848,-0.314941,0.23291,0
14950,0.819336,-0.333984,0.249512,0
14970,0.848633,-0.339844,0.239746,0
14990,0.913086,-0.295898,0.25293,0
15010,0.902832,-0.286133,0.232422,0
15030,0.914062,-0.273926,0.230469,0
15050,0.910645,-0.262207,0.237793,0
15070,0.898438,-0.272461,0.201172,0
15090,0.905273,-0.29541,0.198242,0
15110,0.929688,-0.303711,0.180176,0
15130,0.875,-0.300293,0.208496,0
15150,0.869141,-0.289062,0.213867,0
15170,0.871582,-0.236816,0.239258,0
15190,0.904785,-0.23877,0.232422,0
15210,0.897461,-0.274414,0.168457,0
15230,0.887695,-0.27002,0.199219,0
15250,0.814941,-0.275391,0.194336,0
15270,0.852539,-0.28125,0.21582,0
15290,0.845703,-0.306641,0.143066,0
15310,0.855469,-0.28125,0.106445,0
15330,0.922852,-0.258789,0.155273,0
15340,0.907227,-0.276367,0.206543,0
15360,0.907715,-0.276367,0.143555,0
15380,0.930176,-0.256348,0.130859,0
15400,0.90625,-0.285645,0.15332,0
15420,0.889648,-0.289062,0.184082,0
15440,0.884766,-0.276855,0.208008,0
15460,0.887695,-0.240723,0.196289,0
15480,1.03271,-0.343262,0.180664,0
15500,0.883789,-0.336914,0.160156,0
15520,0.850098,-0.294922,0.168945,0
15540,0.848145,-0.217773,0.248535,0
15560,0.807129,-0.229004,0.227051,0
15580,0.817871,-0.305176,0.20459,0
15600,0.907227,-0.356445,0.188965,0
15620,0.85498,-0.297363,0.226074,0
15640,0.779785,-0.228516,0.20459,0
15660,0.812012,-0.21875,0.188965,0
15680,0.909668,-0.225098,0.228027,0
15700,0.91748,-0.196289,0.230469,0
15720,0.90332,-0.203613,0.20166,0
15740,0.963867,-0.23584,0.183594,0
15760,1.00293,-0.266113,0.203125,0
15780,0.942383,-0.243164,0.189453,0
15800,0.963867,-0.157227,0.140137,0
15820,0.966797,-0.145996,0.15332,0
15840,0.958008,-0.162109,0.138672,0
15860,0.931641,-0.201172,0.182129,0
15880,0.90625,-0.231934,0.224121,0
15900,0.813477,-0.228516,0.223145,0
15920,0.824219,-0.263184,0.162109,0
15940,0.919922,-0.229492,0.194824,0
15960,0.972656,-0.227539,0.286133,0
15980,0.939453,-0.244629,0.301758,0
16000,0.848633,-0.252441,0.255371,0
16020,0.787598,-0.23291,0.170898,0
16040,0.907227,-0.197266,0.240723,0
16060,0.796875,-0.120605,0.303711,0
16080,0.832031,-0.124512,0.271973,0
16100,0.89209,-0.214355,0.224609,0
16120,0.913086,-0.237305,0.195312,0
16140,0.913086,-0.227539,0.17627,0
16160,0.911621,-0.22168,0.201172,0
16180,0.929199,-0.215332,0.236328,0
16200,0.941406,-0.208496,0.235352,0
16220,0.922852,-0.244141,0.262207,0
16240,0.943359,-0.279297,0.242188,0
16260,0.899902,-0.232422,0.205078,0
16280,0.888184,-0.179199,0.26123,0
16300,0.888672,-0.214844,0.283203,0
16320,0.877441,-0.214355,0.284668,0
16340,0.866699,-0.233887,0.263672,0
16360,0.853516,-0.27002,0.244141,0
16380,0.85498,-0.267578,0.257812,0
16400,0.82666,-0.279785,0.238281,0
16420,0.833496,-0.29541,0.230469,0
16440,0.836426,-0.285156,0.221191,0
16460,0.867188,-0.268555,0.209961,0
16480,0.859863,-0.27002,0.209961,0
16500,0.819336,-0.250488,0.20166,0
16520,0.824219,-0.228027,0.212891,0
16540,0.849609,-0.245117,0.22168,0
16560,0.837891,-0.248535,0.226074,0
16580,0.801758,-0.263184,0.225586,0
16600,0.816406,-0.286133,0.222168,0
16620,0.836914,-0.29248,0.22998,0
16640,0.856934,-0.304688,0.236816,0
16660,0.854004,-0.31543,0.253418,0
16680,0.847168,-0.309082,0.261719,0
16700,0.861816,-0.316406,0.276855,0
16720,0.889648,-0.325195,0.284668,0
16740,0.862305,-0.324707,0.282715,0
16760,0.819336,-0.334473,0.27832,0
16780,0.827637,-0.331543,0.278809,0
16800,0.841309,-0.325684,0.274902,0
16820,0.858398,-0.30127,0.292969,0
16840,0.868652,-0.30127,0.297852,0
16860,0.841797,-0.316895,0.296875,0
16880,0.824219,-0.327148,0.283203,0
16900,0.82666,-0.335938,0.287598,0
16920,0.78125,-0.319824,0.30127,0
16940,0.754883,-0.286621,0.308594,0
16960,0.763672,-0.292969,0.297363,0
16980,0.777344,-0.287109,0.291504,0
17000,0.774414,-0.26709,0.297852,0
17020,0.788574,-0.257324,0.290527,0
17040,0.794434,-0.259277,0.307129,0
17060,0.78125,-0.261719,0.303711,0
17080,0.820312,-0.259766,0.322266,0
17100,0.901367,-0.275391,0.353027,0
17120,0.848145,-0.259277,0.381348,0
17140,0.779297,-0.227051,0.380371,0
17160,0.743652,-0.223145,0.389648,0
17180,0.791504,-0.227539,0.421387,0
17200,0.845215,-0.234863,0.460449,0
17220,0.869141,-0.259766,0.489746,0
17240,0.803711,-0.259766,0.510254,0
17260,0.699707,-0.258789,0.516602,0
17280,0.599121,-0.258789,0.533203,0
17300,0.575195,-0.265625,0.559082,0
17320,0.603027,-0.26416,0.591797,0
17340,0.580078,-0.265625,0.620605,0
17360,0.499023,-0.228027,0.651855,0
17380,0.431152,-0.250977,0.685059,0
17400,0.416992,-0.319336,0.71875,0
17420,0.378418,-0.385254,0.73584,0
17440,0.302734,-0.380859,0.753906,0
17460,0.243652,-0.359863,0.816406,0
17480,0.203125,-0.370117,0.779785,0
17500,0.160645,-0.439453,0.751465,0
17520,0.138184,-0.514648,0.772949,0
17540,0.0932617,-0.508789,0.790039,0
17560,-0.0268555,-0.481934,0.800781,0
17580,-0.132324,-0.456055,0.755371,0
17600,-0.155273,-0.50293,0.72168,0
17620,-0.0898438,-0.562012,0.755859,0
17640,-0.0634766,-0.580566,0.770996,0
17660,-0.137695,-0.555664,0.75,0
17680,-0.230469,-0.51123,0.657715,0
17700,-0.28418,-0.492676,0.620117,0
17720,-0.283691,-0.512695,0.662109,0
17740,-0.29248,-0.570801,0.686035,0
17760,-0.333984,-0.625977,0.658691,0
17780,-0.378418,-0.657227,0.567871,0
17800,-0.447266,-0.593262,0.523926,0
17820,-0.47998,-0.510742,0.546875,0
17840,-0.533203,-0.427246,0.545898,0
17860,-0.6875,-0.323242,0.388184,0
17880,-0.853516,-0.410156,0.387207,0
17900,-1.21582,-0.67041,0.43457,0
17920,-1.09863,-1.04248,0.631836,0
17930,-0.635254,-1.44092,0.635254,0
17950,-0.390137,-1.49756,0.333008,0
17970,-0.405273,-0.893066,0.266602,0
17990,-0.532715,-0.344727,0.396973,0
18010,-0.708984,-0.230469,0.503418,0
18030,-0.675781,-0.404785,0.461426,0
18050,-0.608887,-0.604004,0.428711,0
18070,-0.557129,-0.705078,0.453613,0
18090,-0.556152,-0.719727,0.447754,0
18110,-0.578613,-0.66748,0.447266,0
18130,-0.581055,-0.623047,0.495117,0
18150,-0.589844,-0.617676,0.509766,0
18170,-0.585938,-0.63916,0.540039,0
18190,-0.587891,-0.653809,0.543945,0
18210,-0.584473,-0.625977,0.511719,0
18230,-0.594238,-0.55957,0.489746,0
18250,-0.607422,-0.519531,0.492188,0
18270,-0.606934,-0.533691,0.497559,0
18290,-0.597168,-0.583008,0.492676,0
18310,-0.57666,-0.620117,0.514648,0
18330,-0.56543,-0.634766,0.538574,0
18350,-0.575195,-0.634277,0.524414,0
18370,-0.566895,-0.625488,0.509277,0
18390,-0.564453,-0.622559,0.509766,0
18410,-0.582031,-0.619629,0.489258,0
18430,-0.581543,-0.606445,0.481934,0
18450,-0.601074,-0.598633,0.480469,0
18470,-0.613281,-0.596191,0.483887,0
18490,-0.617676,-0.602051,0.467773,0
18510,-0.608887,-0.604004,0.47998,0
18530,-0.611816,-0.597168,0.483398,0
18550,-0.598633,-0.596191,0.48584,0
18570,-0.587402,-0.598633,0.50293,0
18590,-0.580566,-0.607422,0.515625,0
18610,-0.572266,-0.608887,0.510742,0
18630,-0.583496,-0.609863,0.51709,0
18650,-0.583008,-0.605469,0.510742,0
18670,-0.588867,-0.597168,0.504883,0
18690,-0.596191,-0.589844,0.503906,0
18710,-0.598633,-0.586914,0.491211,0
18730,-0.593262,-0.592285,0.499512,0
18750,-0.584961,-0.599121,0.498535,0
18770,-0.587402,-0.600098,0.491699,0
18790,-0.589355,-0.595215,0.493164,0
18810,-0.602051,-0.598145,0.492188,0
18830,-0.598633,-0.599121,0.494141,0
18850,-0.596191,-0.602051,0.49707,0
18870,-0.597656,-0.596191,0.487305,0
18890,-0.587891,-0.594727,0.489258,0
18910,-0.588379,-0.604492,0.492676,0
18930,-0.59375,-0.593262,0.499023,0
18950,-0.591309,-0.598633,0.502441,0
18970,-0.591309,-0.597656,0.505859,0
18990,-0.598145,-0.597168,0.495117,0
19010,-0.589844,-0.602539,0.500488,0
19030,-0.588867,-0.589355,0.501465,0
19050,-0.593262,-0.591309,0.501465,0
19070,-0.594238,-0.589844,0.498535,0
19090,-0.591797,-0.593262,0.503906,0
19110,-0.59668,-0.596191,0.496582,0
19130,-0.588379,-0.591309,0.505859,0
19150,-0.586426,-0.594238,0.508301,0
19170,-0.599609,-0.59082,0.502441,0
19190,-0.595703,-0.593262,0.499512,0
19210,-0.594238,-0.596191,0.499023,0
19230,-0.595215,-0.591309,0.497559,0
19250,-0.592773,-0.592285,0.495117,0
19270,-0.59668,-0.587891,0.498047,0
19290,-0.594238,-0.592285,0.509766,0
19310,-0.594727,-0.595215,0.498047,0
19330,-0.59082,-0.592285,0.500977,0
19350,-0.592773,-0.592285,0.507324,0
19370,-0.59668,-0.587891,0.499023,0
19390,-0.599121,-0.592773,0.498047,0
19410,-0.588867,-0.598633,0.502441,0
19430,-0.59082,-0.59375,0.49707,0
19450,-0.59375,-0.590332,0.500488,0
19470,-0.592285,-0.585449,0.501465,0
19490,-0.600586,-0.587891,0.500488,0
19510,-0.59668,-0.584473,0.495605,0
19530,-0.590332,-0.596191,0.500488,0
19550,-0.592773,-0.597168,0.504395,0
19570,-0.59375,-0.590332,0.5,0
19590,-0.584961,-0.598633,0.505859,0
19610,-0.586914,-0.592285,0.505859,0
19630,-0.591797,-0.586914,0.510254,0
19650,-0.592773,-0.585938,0.507812,0
19670,-0.595215,-0.59082,0.512207,0
19690,-0.59375,-0.596191,0.510254,0
19710,-0.591309,-0.596191,0.504395,0
19730,-0.590332,-0.588867,0.491211,0
19750,-0.586914,-0.580078,0.501953,0
19770,-0.588379,-0.587402,0.513672,0
19790,-0.596191,-0.597656,0.505371,0
19810,-0.59082,-0.599121,0.51123,0
19830,-0.599609,-0.590332,0.511719,0
19850,-0.59668,-0.589844,0.504883,0
19870,-0.59375,-0.59082,0.504395,0
19890,-0.59082,-0.59082,0.49707,0
19910,-0.59375,-0.598145,0.503906,0
19930,-0.592285,-0.585449,0.507812,0
19950,-0.584473,-0.584473,0.520508,0
19970,-0.594727,-0.586914,0.51709,0
19990,-0.588867,-0.582031,0.517578,0
20010,-0.583496,-0.59082,0.501953,0
20030,-0.581055,-0.579102,0.504395,0
20050,-0.589355,-0.574707,0.513184,0
20070,-0.591309,-0.58252,0.508301,0
20090,-0.581543,-0.59668,0.515137,0
20110,-0.585938,-0.604492,0.516602,0
20130,-0.582031,-0.600098,0.508789,0
20150,-0.580566,-0.589844,0.505859,0
20170,-0.58252,-0.584473,0.505371,0
20190,-0.587402,-0.583984,0.512207,0
20210,-0.595215,-0.594238,0.507812,0
20230,-0.595703,-0.597168,0.51416,0
20250,-0.592773,-0.599121,0.507812,0
20270,-0.584473,-0.589844,0.507324,0
20290,-0.579102,-0.588379,0.51123,0
20310,-0.586426,-0.585449,0.506836,0
20330,-0.586914,-0.581543,0.510742,0
20350,-0.592285,-0.59082,0.516602,0
20370,-0.584473,-0.595703,0.511719,0
20390,-0.585938,-0.594238,0.515625,0
20410,-0.584473,-0.581543,0.520996,0
20430,-0.586426,-0.575684,0.51709,0
20450,-0.59082,-0.580566,0.520996,0
20470,-0.583496,-0.584473,0.522949,0
20490,-0.584961,-0.591797,0.519531,0
20510,-0.588379,-0.585938,0.519531,0
20530,-0.582031,-0.584961,0.51416,0
20540,-0.584961,-0.583008,0.51416,0
20560,-0.594727,-0.581543,0.51123,0
20580,-0.584473,-0.588379,0.512695,0
20600,-0.585449,-0.585938,0.516602,0
20620,-0.584961,-0.589844,0.513672,0
20640,-0.586914,-0.588867,0.515137,0
20660,-0.583984,-0.583984,0.513184,0
20680,-0.59082,-0.59082,0.521484,0
20700,-0.585938,-0.586426,0.515137,0
20720,-0.587891,-0.585938,0.505371,0
20740,-0.589355,-0.580078,0.506348,0
20760,-0.586426,-0.585449,0.518066,0
20780,-0.59082,-0.585449,0.515625,0
20800,-0.591797,-0.585938,0.503418,0
20820,-0.59375,-0.585938,0.505859,0
20840,-0.583984,-0.581543,0.507812,0
20860,-0.579102,-0.574219,0.510742,0
20880,-0.593262,-0.587891,0.511719,0
20900,-0.602539,-0.596191,0.506836,0
20920,-0.589844,-0.607422,0.520996,0
20940,-0.594238,-0.581543,0.530762,0
20960,-0.59668,-0.562988,0.505859,0
20980,-0.586914,-0.556152,0.507812,0
21000,-0.555664,-0.570801,0.54541,0
21020,-0.564453,-0.598145,0.568359,0
21040,-0.572266,-0.602539,0.5625,0
21060,-0.583984,-0.603027,0.549316,0
21080,-0.582031,-0.577637,0.521973,0
21100,-0.579102,-0.566406,0.508789,0
21120,-0.585938,-0.556152,0.496094,0
21140,-0.591797,-0.546875,0.498535,0
21160,-0.590332,-0.565918,0.511719,0
21180,-0.584961,-0.596191,0.521973,0
21200,-0.583496,-0.606445,0.533691,0
21220,-0.584473,-0.59375,0.524414,0
21240,-0.580566,-0.569336,0.525879,0
21260,-0.586426,-0.575195,0.514648,0
21280,-0.589844,-0.57373,0.519043,0
21300,-0.589355,-0.583008,0.513672,0
21320,-0.586914,-0.581543,0.516602,0
21340,-0.587402,-0.591797,0.523926,0
21360,-0.588867,-0.583496,0.522461,0
21380,-0.581055,-0.57666,0.519531,0
21400,-0.59082,-0.570312,0.505371,0
21420,-0.586914,-0.568359,0.514648,0
21440,-0.583496,-0.583496,0.52832,0
21460,-0.59082,-0.581055,0.525879,0
21480,-0.586426,-0.579102,0.514648,0
21500,-0.579102,-0.57666,0.514648,0
21520,-0.58252,-0.574219,0.520996,0
21540,-0.590332,-0.573242,0.524414,0
21560,-0.583984,-0.577148,0.528809,0
21580,-0.58252,-0.591309,0.524414,0
21600,-0.587891,-0.590332,0.523926,0
21620,-0.592285,-0.584961,0.520508,0
21640,-0.589844,-0.580566,0.523438,0
21660,-0.583496,-0.577148,0.525879,0
21680,-0.581543,-0.580566,0.517578,0
21700,-0.584473,-0.581543,0.522461,0
21720,-0.586914,-0.582031,0.516113,0
21740,-0.587891,-0.578125,0.513184,0
21760,-0.588379,-0.578125,0.521484,0
21780,-0.592285,-0.582031,0.521973,0
21800,-0.586914,-0.580078,0.51416,0
21820,-0.574707,-0.577148,0.508789,0
21840,-0.584473,-0.569824,0.513184,0
21860,-0.587402,-0.57373,0.520508,0
21880,-0.594727,-0.577148,0.523438,0
21900,-0.58252,-0.580078,0.532227,0
21920,-0.583008,-0.587402,0.528809,0
21940,-0.57959,-0.580566,0.523438,0
21960,-0.578613,-0.57373,0.536133,0
21980,-0.586426,-0.567871,0.524902,0
22000,-0.591309,-0.569336,0.537598,0
22020,-0.591309,-0.581543,0.542969,0
22040,-0.591797,-0.582031,0.537598,0
22060,-0.583984,-0.576172,0.527832,0
22080,-0.589844,-0.573242,0.523926,0
22100,-0.586914,-0.567871,0.521973,0
22120,-0.58252,-0.574219,0.527344,0
22140,-0.581543,-0.576172,0.524414,0
22160,-0.583984,-0.577637,0.524902,0
22180,-0.583496,-0.569824,0.520996,0
22200,-0.586426,-0.565918,0.525879,0
22220,-0.583984,-0.566406,0.524902,0
22240,-0.589355,-0.568359,0.522461,0
22260,-0.582031,-0.568848,0.525879,0
22280,-0.579102,-0.572266,0.527832,0
22300,-0.577637,-0.583496,0.532715,0
22320,-0.577148,-0.584473,0.530273,0
22340,-0.578613,-0.584473,0.532715,0
22360,-0.578613,-0.581543,0.532715,0
22380,-0.586914,-0.571777,0.519531,0
22400,-0.585449,-0.570312,0.523438,0
22420,-0.589844,-0.570312,0.528809,0
22440,-0.587891,-0.577637,0.519531,0
22460,-0.588867,-0.579102,0.520996,0
22480,-0.57959,-0.574707,0.52832,0
22500,-0.586914,-0.57666,0.526855,0
22520,-0.585938,-0.572754,0.528809,0
22540,-0.584473,-0.577637,0.533691,0
22560,-0.588379,-0.577148,0.526855,0
22580,-0.587891,-0.572266,0.528809,0
22600,-0.591309,-0.568848,0.524414,0
22620,-0.579102,-0.564941,0.528809,0
22640,-0.578613,-0.571289,0.523926,0
22660,-0.584961,-0.568848,0.523438,0
22680,-0.584473,-0.571777,0.529297,0
22700,-0.586426,-0.574219,0.534668,0
22720,-0.585449,-0.578125,0.527344,0
22740,-0.57959,-0.576172,0.527344,0
22760,-0.584961,-0.568359,0.52002,0
22780,-0.584961,-0.572754,0.526367,0
22800,-0.586426,-0.569336,0.530762,0
22820,-0.589844,-0.576172,0.526855,0
22840,-0.585449,-0.578613,0.526367,0
22860,-0.578125,-0.571777,0.528809,0
22880,-0.58252,-0.571289,0.52832,0
22900,-0.585449,-0.572754,0.529785,0
22920,-0.586914,-0.574707,0.528809,0
22940,-0.578613,-0.577148,0.530762,0
22960,-0.578125,-0.572266,0.530273,0
22980,-0.583984,-0.572754,0.528809,0
23000,-0.583984,-0.563477,0.530762,0
23020,-0.584961,-0.569824,0.534668,0
23040,-0.584473,-0.578613,0.535156,0
23060,-0.581055,-0.575684,0.532227,0
23080,-0.583008,-0.568848,0.533691,0
23100,-0.584473,-0.567871,0.530273,0
23120,-0.584961,-0.570801,0.527344,0
23130,-0.586426,-0.568359,0.53418,0
23150,-0.58252,-0.568359,0.528809,0
23170,-0.583496,-0.570801,0.52832,0
23190,-0.583008,-0.569336,0.539062,0
23210,-0.590332,-0.574707,0.539062,0
23230,-0.584961,-0.574219,0.53418,0
23250,-0.583984,-0.57959,0.534668,0
23270,-0.57959,-0.577637,0.530273,0
23290,-0.578613,-0.570312,0.527344,0
23310,-0.580078,-0.566406,0.525391,0
23330,-0.584961,-0.570312,0.53125,0
23350,-0.588867,-0.57373,0.534668,0
23370,-0.588379,-0.566895,0.527344,0
23390,-0.580078,-0.566406,0.527344,0
23410,-0.577637,-0.568359,0.526855,0
23430,-0.580566,-0.565918,0.529297,0
23450,-0.585938,-0.569336,0.530762,0
23470,-0.585449,-0.570312,0.529297,0
23490,-0.577148,-0.582031,0.535156,0
23510,-0.574707,-0.576172,0.543457,0
23530,-0.582031,-0.566406,0.539551,0
23550,-0.584961,-0.564453,0.532715,0
23570,-0.580078,-0.568359,0.535156,0
23590,-0.584961,-0.567871,0.531738,0
23610,-0.583008,-0.568848,0.538086,0
23630,-0.58252,-0.572266,0.537109,0
23650,-0.580078,-0.574219,0.53418,0
23670,-0.578613,-0.572266,0.529297,0
23690,-0.58252,-0.577148,0.53125,0
23710,-0.583496,-0.570801,0.532715,0
23730,-0.585449,-0.569336,0.526367,0
23750,-0.582031,-0.567871,0.527832,0
23770,-0.586914,-0.562988,0.532715,0
23790,-0.589355,-0.56543,0.528809,0
23810,-0.586914,-0.566895,0.521484,0
23830,-0.583496,-0.575195,0.53125,0
23850,-0.575195,-0.571777,0.542969,0
23870,-0.583984,-0.57666,0.540039,0
23890,-0.580078,-0.568848,0.541992,0
23910,-0.58252,-0.567383,0.530273,0
23930,-0.576172,-0.577637,0.541016,0
23950,-0.576172,-0.57373,0.546387,0
23970,-0.580078,-0.57666,0.532227,0
23990,-0.572754,-0.577148,0.530273,0
24010,-0.57373,-0.568848,0.53125,0
24030,-0.585449,-0.563477,0.532715,0
24050,-0.583008,-0.565918,0.540039,0
24070,-0.584473,-0.571289,0.533691,0
24090,-0.586426,-0.570312,0.530762,0
24110,-0.57666,-0.573242,0.532227,0
24130,-0.582031,-0.568848,0.52832,0
24150,-0.587402,-0.571289,0.530273,0
24170,-0.585938,-0.569336,0.52832,0
24190,-0.586426,-0.568359,0.530273,0
24210,-0.584961,-0.57373,0.535156,0
24230,-0.577148,-0.564941,0.530273,0
24250,-0.58252,-0.564453,0.520508,0
24270,-0.581543,-0.564453,0.535645,0
24290,-0.581543,-0.573242,0.536133,0
24310,-0.581543,-0.574707,0.53418,0
24330,-0.581543,-0.565918,0.538086,0
24350,-0.581543,-0.567871,0.529785,0
24370,-0.57959,-0.568359,0.533203,0
24390,-0.581055,-0.569824,0.533691,0
24410,-0.586426,-0.574219,0.530762,0
24430,-0.580566,-0.565918,0.534668,0
24450,-0.583008,-0.57666,0.538574,0
24470,-0.583496,-0.573242,0.536621,0
24490,-0.582031,-0.576172,0.535645,0
24510,-0.586426,-0.569336,0.539062,0
24530,-0.583496,-0.567871,0.530762,0
24550,-0.581543,-0.566406,0.529297,0
24570,-0.58252,-0.560547,0.537109,0
24590,-0.583496,-0.564941,0.536133,0
24610,-0.584961,-0.567871,0.540039,0
24630,-0.582031,-0.569824,0.53418,0
24650,-0.589844,-0.56543,0.522461,0
24670,-0.588867,-0.560547,0.526367,0
24690,-0.591309,-0.566406,0.518555,0
24710,-0.59375,-0.563965,0.519531,0
24730,-0.584961,-0.551758,0.516602,0
24750,-0.597168,-0.545898,0.513672,0
24770,-0.605469,-0.594238,0.503418,0
24790,-0.592773,-0.64502,0.502441,0
24810,-0.613281,-0.620605,0.503906,0
24830,-0.675781,-0.687988,0.474609,0
24850,-0.693848,-0.719238,0.516113,0
24870,-0.628418,-0.512695,0.677246,0
24890,-0.640137,-0.404297,0.688965,0
24910,-0.69043,-0.43457,0.67334,0
24930,-0.697266,-0.40625,0.77002,0
24950,-0.633789,-0.43457,0.850098,0
24970,-0.478027,-0.454102,0.884277,0
24990,-0.340332,-0.501953,0.884277,0
25010,-0.279785,-0.596191,0.901367,0
25030,-0.209473,-0.555176,0.937988,0
25050,-0.146973,-0.480469,0.948242,0
25070,-0.043457,-0.457031,0.898926,0
25090,-0.0942383,-0.411621,0.868652,0
25110,-0.101562,-0.342285,0.836914,0
25130,-0.0161133,-0.347656,0.850586,0
25150,0.143066,-0.319336,0.802246,0
25170,0.18457,-0.376953,0.807129,0
25180,0.0756836,-0.251465,0.748535,0
25180,0.13623,-0.214844,0.729004,0
25200,0.307129,-0.3125,0.753906,0
25200,0.446777,-0.357422,0.777344,0
25220,0.315918,-0.254395,0.673828,0
25240,0.370117,-0.241211,0.656738,0
25240,0.544922,-0.291016,0.704102,0
25260,0.617188,-0.296387,0.648926,0
25300,0.642578,-0.280762,0.566406,0
25360,0.588867,-0.273926,0.57959,0
25390,0.646484,-0.281738,0.568359,0
25410,0.713379,-0.282715,0.524414,0
25430,0.70752,-0.255371,0.435547,0
25450,0.8125,-0.288086,0.447266,0
25470,0.870605,-0.25293,0.453613,0
25490,0.69043,-0.243652,0.38916,0
25510,0.777344,-0.275391,0.312012,0
25530,0.868164,-0.266602,0.296387,0
25550,0.81543,-0.268066,0.286621,0
25570,0.806152,-0.241211,0.274414,0
25590,0.793945,-0.210449,0.234863,0
25610,0.81543,-0.264648,0.210938,0
25630,0.834961,-0.249023,0.187012,0
25650,0.825684,-0.243652,0.161133,0
25670,0.76416,-0.233398,0.126465,0
25690,0.848145,-0.220703,0.121582,0
25710,0.879883,-0.221191,0.120605,0
25730,0.858398,-0.233398,0.0512695,0
25740,0.900391,-0.254883,0.0439453,0
25760,0.831543,-0.253418,0.0537109,0
25780,0.855957,-0.283691,0.0507812,0
25800,0.962891,-0.33252,0.10791,0
25820,0.881348,-0.224121,0.0771484,0
25840,0.854492,-0.270508,0.0537109,0
25860,0.856934,-0.282227,0.0639648,0
25880,0.937988,-0.294434,0.0693359,0
25900,0.94873,-0.295898,0.0615234,0
25920,0.969238,-0.30127,0.0332031,0
25940,0.93457,-0.304688,0.115234,0
25960,0.925781,-0.239746,0.0942383,0
25980,0.888672,-0.227051,0.0605469,0
26000,0.853027,-0.20166,0.0390625,0
26020,0.831543,-0.167969,0.0595703,0
26040,0.90332,-0.164062,0.0522461,0
26060,0.895996,-0.179199,0.0639648,0
26080,0.887207,-0.154785,0.0878906,0
26100,0.90918,-0.179199,0.0727539,0
26120,0.937988,-0.203125,0.0673828,0
26140,1.00195,-0.212402,0.0151367,0
26160,0.989746,-0.26709,0.034668,0
26180,0.946289,-0.254883,0.0307617,0
26200,0.937988,-0.254883,0.019043,0
26220,0.972656,-0.285156,0.0273438,0
26240,0.929199,-0.284668,0.0258789,0
26260,0.933105,-0.279785,0.0351562,0
26280,0.902832,-0.25,0.0527344,0
26300,0.906738,-0.214355,0.0600586,0
26320,0.912598,-0.211914,0.043457,0
26340,0.938477,-0.176758,0.0561523,0
26360,0.908691,-0.153809,0.0727539,0
26380,0.949219,-0.14502,0.0429688,0
26400,0.979004,-0.163086,0.0341797,0
26420,0.954102,-0.150391,0.0541992,0
26440,0.950684,-0.157227,0.0297852,0
26460,0.956055,-0.209961,0.0112305,0
26480,0.932129,-0.185059,0.0102539,0
26500,0.929199,-0.184082,0.000976562,0
26520,0.950195,-0.13623,0.0268555,0
26540,0.955566,-0.161621,0.0151367,0
26560,0.965332,-0.164551,0.0078125,0
26580,0.995117,-0.135254,0.0424805,0
26600,1.0127,-0.181152,0.0683594,0
26620,0.978027,-0.172852,0.0488281,0
26640,0.984863,-0.192871,0.0786133,0
26660,0.986328,-0.227539,0.0981445,0
26680,0.943359,-0.239258,0.0664062,0
26700,0.900879,-0.265137,0.0253906,0
26720,0.929199,-0.27002,0.0581055,0
26740,0.898926,-0.246582,0.0361328,0
26760,0.899902,-0.241699,0.0234375,0
26780,0.915527,-0.249023,0.0200195,0
26800,0.916504,-0.23584,0,0
26820,0.924805,-0.245117,-0.00830078,0
26840,0.919922,-0.23291,-0.0273438,0
26860,0.943848,-0.223145,-0.0258789,0
26880,0.973633,-0.231445,-0.0239258,0
26900,0.959473,-0.225586,-0.0390625,0
26920,0.966797,-0.230957,-0.0498047,0
26940,0.983398,-0.230957,-0.0224609,0
26960,0.967285,-0.193359,-0.0209961,0
26980,0.947754,-0.199707,-0.0517578,0
27000,0.941895,-0.225098,-0.0610352,0
27020,0.924805,-0.204102,-0.0522461,0
27040,0.935547,-0.21875,-0.0463867,0
27060,0.929688,-0.186523,-0.0400391,0
27080,0.939941,-0.207031,-0.0498047,0
27100,0.932617,-0.208008,-0.0400391,0
27120,0.960449,-0.210938,-0.0361328,0
27140,0.926758,-0.195312,-0.0585938,0
27160,0.918457,-0.188477,-0.0478516,0
27180,0.91748,-0.185547,-0.0576172,0
27200,0.929199,-0.184082,-0.0869141,0
27220,0.927246,-0.1875,-0.0908203,0
27240,0.910645,-0.174316,-0.0961914,0
27260,0.918457,-0.176758,-0.0791016,0
27280,0.950684,-0.154297,-0.0742188,0
27300,0.957031,-0.172852,-0.0708008,0
27320,0.934082,-0.165527,-0.0908203,0
27340,0.916992,-0.155273,-0.101074,0
27360,0.947266,-0.17334,-0.0991211,0
27380,0.960938,-0.169922,-0.0761719,0
27400,0.95752,-0.172852,-0.0766602,0
27420,0.95166,-0.17627,-0.0810547,0
27440,0.959473,-0.175293,-0.0908203,0
27460,0.965332,-0.182617,-0.0849609,0
27480,0.965332,-0.177734,-0.119629,0
27500,0.977539,-0.189941,-0.104004,0
27520,0.965332,-0.163574,-0.101562,0
27540,0.992676,-0.123535,-0.0883789,0
27560,0.991211,-0.143555,-0.0800781,0
27580,0.956055,-0.158691,-0.0996094,0
27600,0.90918,-0.15332,-0.101074,0
27620,0.850586,-0.155762,-0.120605,0
27640,0.831543,-0.161133,-0.120117,0
27660,0.842773,-0.188477,-0.0976562,0
27680,0.862793,-0.17627,-0.0766602,0
27700,0.86377,-0.185059,-0.0649414,0
27720,0.85498,-0.179199,-0.0581055,0
27740,0.800293,-0.165527,-0.0727539,0
27760,0.740723,-0.19043,-0.0600586,0
27780,0.763672,-0.1875,-0.00537109,0
27800,0.818848,-0.154297,0.0488281,0
27820,0.816895,-0.143555,0.0439453,0
27840,0.773926,-0.143066,0.0517578,0
27860,0.775879,-0.142578,0.0722656,0
27880,0.884766,-0.163574,0.11377,0
27900,1.00537,-0.191406,0.19043,0
27920,1.02881,-0.203613,0.23291,0
27940,1.01709,-0.229004,0.264648,0
27960,0.995605,-0.287109,0.290039,0
27980,0.970703,-0.345215,0.323242,0
28000,0.842773,-0.356934,0.413574,0
28020,0.718262,-0.331543,0.473145,0
28040,0.617188,-0.339844,0.522949,0
28060,0.441406,-0.278809,0.532715,0
28080,0.280762,-0.244141,0.541504,0
28100,0.135254,-0.291992,0.570312,0
28120,0.108398,-0.323242,0.604492,0
28140,0.0576172,-0.336914,0.642578,0
28160,-0.0654297,-0.230957,0.719727,0
28180,-0.245605,-0.21582,0.804199,0
28200,-0.503906,-0.195312,0.802246,0
28220,-0.736816,-0.496582,0.671875,0
28240,-0.777344,-0.77002,0.736816,0
28260,-0.718262,-0.688965,0.70166,0
28280,-0.682129,-0.380859,0.466309,0
28300,-1.04297,-0.590332,1.11572,0
28320,-1.68311,-0.160156,1.44775,0
28340,-0.654297,-0.655762,0.740723,0
28350,-0.188965,-1.50537,0.562012,0
28370,-0.200684,-1.22363,0.508789,0
28390,-0.28418,-0.835449,0.422363,0
28410,-0.419434,-0.649414,0.34375,0
28430,-0.577148,-0.554199,0.449219,0
28450,-0.636719,-0.535645,0.615234,0
28470,-0.624023,-0.525879,0.635742,0
28490,-0.637695,-0.53125,0.652832,0
28510,-0.639648,-0.509277,0.690918,0
28530,-0.560547,-0.473145,0.677734,0
28550,-0.530273,-0.421387,0.620605,0
28570,-0.553711,-0.348633,0.608887,0
28590,-0.578613,-0.30957,0.630859,0
28610,-0.58252,-0.405273,0.621582,0
28630,-0.576172,-0.52832,0.587891,0
28650,-0.563477,-0.562988,0.575684,0
28670,-0.556152,-0.532715,0.592773,0
28690,-0.53418,-0.492188,0.64209,0
28710,-0.53125,-0.564941,0.601562,0
28730,-0.527344,-0.627441,0.599609,0
28750,-0.499023,-0.675293,0.603027,0
28770,-0.481934,-0.662598,0.601562,0
28790,-0.481445,-0.59668,0.610352,0
28810,-0.543945,-0.560547,0.62207,0
28830,-0.555664,-0.541016,0.611816,0
28850,-0.535156,-0.547363,0.636719,0
28870,-0.535156,-0.529785,0.640137,0
28890,-0.523926,-0.497559,0.633789,0
28910,-0.518066,-0.456543,0.632324,0
28930,-0.524902,-0.416504,0.624023,0
28950,-0.544922,-0.404297,0.621582,0
28970,-0.555176,-0.42334,0.621094,0
28990,-0.555664,-0.436523,0.617676,0
29010,-0.541992,-0.467285,0.617188,0
29030,-0.53125,-0.478027,0.613281,0
29050,-0.517578,-0.486816,0.616699,0
29070,-0.523438,-0.51416,0.617188,0
29090,-0.524902,-0.553223,0.610352,0
29110,-0.522461,-0.576172,0.614746,0
29130,-0.515137,-0.583008,0.605469,0
29150,-0.518066,-0.567383,0.604492,0
29170,-0.533203,-0.552246,0.602539,0
29190,-0.536621,-0.541016,0.598633,0
29210,-0.536133,-0.536621,0.595215,0
29230,-0.531738,-0.532227,0.603027,0
29250,-0.533691,-0.517578,0.598633,0
29270,-0.533203,-0.518066,0.599609,0
29290,-0.528809,-0.521484,0.61084,0
29310,-0.529297,-0.530762,0.60498,0
29330,-0.526855,-0.537109,0.60791,0
29350,-0.529297,-0.537598,0.609863,0
29370,-0.530762,-0.546875,0.605957,0
29390,-0.53125,-0.541504,0.613281,0
29410,-0.538574,-0.540039,0.606445,0
29430,-0.537598,-0.525391,0.608887,0
29450,-0.534668,-0.51709,0.60498,0
29470,-0.536133,-0.514648,0.602539,0
29490,-0.534668,-0.518066,0.606934,0
29510,-0.533203,-0.524414,0.608398,0
29530,-0.534668,-0.524414,0.603027,0
29550,-0.530762,-0.53418,0.609375,0
29570,-0.536621,-0.530762,0.606445,0
29590,-0.528809,-0.530762,0.616211,0
29610,-0.535645,-0.536133,0.609375,0
29630,-0.530273,-0.532715,0.61377,0
29650,-0.525879,-0.535156,0.612793,0
29670,-0.526855,-0.534668,0.615723,0
29690,-0.535156,-0.536621,0.620605,0
29710,-0.535645,-0.537109,0.612305,0
29730,-0.534668,-0.53418,0.617188,0
29750,-0.534668,-0.53125,0.607422,0
29770,-0.525879,-0.533203,0.607422,0
29790,-0.526855,-0.545898,0.615723,0
29810,-0.527832,-0.552734,0.615234,0
29830,-0.532715,-0.526367,0.597656,0
29850,-0.533203,-0.515137,0.591309,0
29870,-0.532715,-0.526367,0.591797,0
29890,-0.539062,-0.546387,0.593262,0
29910,-0.541504,-0.540527,0.592773,0
29930,-0.535645,-0.543945,0.590332,0
29950,-0.538574,-0.543457,0.59375,0
29970,-0.535645,-0.549316,0.591309,0
29990,-0.530273,-0.554199,0.591797,0
30010,-0.530273,-0.543457,0.581543,0
30030,-0.529785,-0.539062,0.584961,0
30050,-0.535645,-0.544434,0.582031,0
30070,-0.537109,-0.548828,0.584473,0
30090,-0.534668,-0.543945,0.589844,0
30110,-0.528809,-0.548828,0.590332,0
30130,-0.532715,-0.544434,0.591309,0
30150,-0.526855,-0.547852,0.592285,0
30170,-0.527344,-0.55127,0.592773,0
30190,-0.530273,-0.548828,0.602051,0
30210,-0.523438,-0.543457,0.609863,0
30230,-0.528809,-0.541016,0.60498,0
30250,-0.535645,-0.536621,0.603516,0
30270,-0.536133,-0.537109,0.592285,0
30290,-0.535645,-0.54248,0.588867,0
30310,-0.531738,-0.535156,0.592285,0
30330,-0.530273,-0.536621,0.601562,0
30350,-0.533203,-0.542969,0.606445,0
30370,-0.536621,-0.555664,0.606445,0
30390,-0.535156,-0.54541,0.595703,0
30410,-0.53125,-0.543945,0.585449,0
30430,-0.519531,-0.545898,0.589844,0
30450,-0.521484,-0.547363,0.601074,0
30470,-0.530273,-0.549316,0.59668,0
30490,-0.53418,-0.544922,0.599121,0
30510,-0.537109,-0.53125,0.597168,0
30530,-0.538574,-0.543457,0.59082,0
30550,-0.532715,-0.539062,0.588379,0
30570,-0.52832,-0.544434,0.588379,0
30590,-0.525391,-0.546387,0.57959,0
30610,-0.521484,-0.546875,0.59082,0
30630,-0.525879,-0.556152,0.611816,0
30650,-0.527344,-0.552734,0.606934,0
30670,-0.532715,-0.549316,0.593262,0
30690,-0.53125,-0.536621,0.594238,0
30710,-0.532227,-0.533691,0.592773,0
30730,-0.530762,-0.541016,0.602539,0
30750,-0.531738,-0.549805,0.600098,0
30770,-0.53125,-0.550781,0.59668,0
30790,-0.524414,-0.544434,0.595215,0
30810,-0.530273,-0.544434,0.599121,0
30830,-0.529297,-0.539551,0.603516,0
30850,-0.521973,-0.54541,0.60498,0
30870,-0.518066,-0.543945,0.604004,0
30890,-0.521973,-0.547363,0.602539,0
30910,-0.525879,-0.545898,0.602539,0
30930,-0.528809,-0.547363,0.592285,0
30940,-0.525879,-0.546387,0.598145,0
30960,-0.527344,-0.550293,0.595215,0
30980,-0.535645,-0.549805,0.59082,0
31000,-0.535156,-0.531738,0.59082,0
31020,-0.53418,-0.53418,0.600098,0
31040,-0.532715,-0.552246,0.603516,0
31060,-0.529785,-0.544922,0.601074,0
31080,-0.520996,-0.542969,0.594238,0
31100,-0.515137,-0.541016,0.596191,0
31120,-0.530762,-0.539551,0.605957,0
31140,-0.539062,-0.53418,0.608398,0
31160,-0.532715,-0.536621,0.599121,0
31180,-0.52832,-0.549805,0.600098,0
31200,-0.530762,-0.561523,0.595215,0
31220,-0.537598,-0.544922,0.599609,0
31240,-0.537598,-0.534668,0.592773,0
31260,-0.539062,-0.541016,0.588379,0
31280,-0.543945,-0.571289,0.588867,0
31300,-0.547363,-0.544922,0.604492,0
31320,-0.526367,-0.553711,0.589844,0
31340,-0.520996,-0.585938,0.601562,0
31360,-0.513184,-0.588379,0.628906,0
31380,-0.507324,-0.559082,0.632812,0
31400,-0.518066,-0.516113,0.625488,0
31420,-0.540039,-0.497559,0.620605,0
31440,-0.539551,-0.484863,0.61084,0
31460,-0.530762,-0.48877,0.616211,0
31480,-0.510742,-0.475098,0.618652,0
31500,-0.512207,-0.47998,0.619141,0
31520,-0.515137,-0.48877,0.624512,0
31540,-0.51709,-0.498535,0.626953,0
31560,-0.519043,-0.51123,0.624512,0
31580,-0.52002,-0.501465,0.626465,0
31600,-0.522461,-0.507812,0.634766,0
31620,-0.523926,-0.516113,0.640625,0
31640,-0.520996,-0.552734,0.632324,0
31660,-0.523438,-0.57373,0.626953,0
31680,-0.526367,-0.578613,0.606445,0
31700,-0.530273,-0.562988,0.617676,0
31720,-0.53125,-0.519531,0.614746,0
31740,-0.540039,-0.499023,0.615723,0
31760,-0.530762,-0.511719,0.623047,0
31780,-0.529785,-0.541016,0.641113,0
31800,-0.522949,-0.563965,0.645996,0
31820,-0.557617,-0.585938,0.640137,0
31840,-0.562012,-0.591309,0.679199,0
31860,-0.543457,-0.518066,0.738281,0
31880,-0.576172,-0.506348,0.67627,0
31900,-0.607422,-0.479492,0.685547,0
31920,-0.578613,-0.402344,0.785645,0
31940,-0.523438,-0.367188,0.828613,0
31960,-0.428711,-0.414062,0.824219,0
31980,-0.351074,-0.449219,0.806152,0
32000,-0.308594,-0.519043,0.813965,0
32020,-0.332031,-0.507324,0.858398,0
32040,-0.286621,-0.495117,0.858887,0
32060,-0.20752,-0.482422,0.847656,0
32080,-0.168945,-0.450684,0.877441,0
32100,-0.154785,-0.469727,0.86084,0
32120,-0.0883789,-0.570312,0.879883,0
32140,-0.03125,-0.630371,0.946289,0
32160,-0.0351562,-0.414551,0.905762,0
32180,-0.0336914,-0.412598,0.849121,0
32200,-0.0576172,-0.42041,0.924316,0
32220,-0.0688477,-0.384766,0.898926,0
32240,0.0175781,-0.423828,0.848633,0
32260,0.0537109,-0.45166,0.859375,0
32280,0.0297852,-0.46875,0.839355,0
32300,0.00585938,-0.380371,0.759277,0
32320,-0.0395508,-0.363281,0.764648,0
32340,-0.0439453,-0.349121,0.749023,0
32360,0.0249023,-0.356445,0.675781,0
32380,0.0708008,-0.381348,0.655762,0
32400,0.00683594,-0.344238,0.689941,0
32420,-0.0219727,-0.347656,0.671387,0
32440,-0.0395508,-0.423828,0.661621,0
32460,-0.034668,-0.425293,0.663086,0
32480,0.00634766,-0.39209,0.702637,0
32500,0.0444336,-0.396973,0.643555,0
32520,0.0400391,-0.378418,0.649902,0
32540,0.0532227,-0.373047,0.69043,0
32560,0.0390625,-0.443848,0.665527,0
32580,-0.00927734,-0.475098,0.619141,0
32600,0.0214844,-0.478516,0.633789,0
32620,0.0297852,-0.503906,0.665527,0
32640,0.0288086,-0.457031,0.693848,0
32660,0.0136719,-0.407227,0.683105,0
32680,0.0571289,-0.45459,0.725098,0
32700,0.11084,-0.489746,0.808594,0
32720,0.157227,-0.341309,0.937012,0
32740,0.17041,-0.353516,0.904297,0
32760,0.187012,-0.442383,0.841309,0
32780,0.248047,-0.446777,0.84375,0
32800,0.304199,-0.402344,0.848633,0
32820,0.287598,-0.382324,0.791504,0
32840,0.251953,-0.389648,0.753906,0
32860,0.222656,-0.39502,0.773438,0
32880,0.258301,-0.412109,0.816895,0
32900,0.300293,-0.480957,0.774902,0
32920,0.335449,-0.521484,0.744141,0
32940,0.274414,-0.492188,0.747559,0
32960,0.268066,-0.449707,0.775879,0
32980,0.314941,-0.424805,0.814941,0
33000,0.32373,-0.458984,0.786621,0
33020,0.256348,-0.458496,0.750977,0
33040,0.205566,-0.445312,0.765137,0
33060,0.210449,-0.445312,0.803223,0
33080,0.246582,-0.450195,0.803711,0
33100,0.249512,-0.453125,0.788574,0
33120,0.228516,-0.433105,0.796387,0
33140,0.226074,-0.422852,0.8125,0
33160,0.240723,-0.433105,0.810059,0
33180,0.229492,-0.445312,0.796387,0
33200,0.213867,-0.437012,0.809082,0
33220,0.216309,-0.415039,0.817383,0
33240,0.228516,-0.416992,0.810547,0
33260,0.213379,-0.425293,0.79834,0
33280,0.180664,-0.419434,0.794922,0
33300,0.188477,-0.411133,0.804199,0
33320,0.199219,-0.40918,0.80127,0
33340,0.195312,-0.412109,0.793457,0
33360,0.182617,-0.40918,0.787598,0
33380,0.184082,-0.416016,0.787598,0
33400,0.186523,-0.421875,0.790527,0
33420,0.187988,-0.416504,0.800781,0
33440,0.189941,-0.407227,0.800293,0
33460,0.18457,-0.405762,0.790039,0
33480,0.178223,-0.39502,0.807617,0
33500,0.162598,-0.402832,0.796875,0
33510,0.162598,-0.425293,0.797852,0
33530,0.164551,-0.376953,0.784668,0
33550,0.175293,-0.428711,0.777344,0
33570,0.199219,-0.436035,0.806641,0
33590,0.219727,-0.394531,0.791016,0
33610,0.218262,-0.406738,0.761719,0
33630,0.183594,-0.427246,0.77832,0
33650,0.151367,-0.416504,0.808594,0
33670,0.146973,-0.401367,0.836914,0
33690,0.174316,-0.396973,0.827148,0
33710,0.203125,-0.386719,0.819824,0
33730,0.201172,-0.376465,0.817871,0
33750,0.196289,-0.362305,0.836914,0
33770,0.186523,-0.356934,0.821777,0
33790,0.19043,-0.417969,0.813965,0
33810,0.213867,-0.432129,0.812988,0
33830,0.19873,-0.375977,0.808105,0
33850,0.182129,-0.34375,0.78418,0
33870,0.182617,-0.358398,0.810547,0
33880,0.180176,-0.389648,0.814941,0
33900,0.1875,-0.402344,0.796387,0
33920,0.187988,-0.37793,0.811523,0
33940,0.184082,-0.350098,0.833496,0
33970,0.189453,-0.363281,0.830566,0
33990,0.19873,-0.393555,0.810059,0
34010,0.222168,-0.387695,0.797363,0
34030,0.19873,-0.36377,0.81543,0
34050,0.179199,-0.322754,0.830566,0
34070,0.172852,-0.342285,0.855469,0
34090,0.162598,-0.398438,0.821777,0
34110,0.173828,-0.375,0.803711,0
34130,0.165527,-0.368164,0.776367,0
34150,0.153809,-0.336914,0.805176,0
34170,0.161621,-0.362305,0.824219,0
34190,0.161621,-0.397949,0.811523,0
34210,0.156738,-0.396973,0.797363,0
34230,0.174805,-0.380859,0.814453,0
34250,0.177246,-0.371582,0.822266,0
34270,0.163574,-0.372559,0.806152,0
34290,0.17627,-0.398438,0.815918,0
34310,0.16748,-0.401367,0.822754,0
34330,0.170898,-0.381348,0.827637,0
34340,0.162109,-0.375977,0.827637,0
34360,0.15918,-0.37207,0.816895,0
34380,0.158691,-0.374023,0.822754,0
34400,0.163086,-0.385742,0.824219,0
34400,0.165039,-0.388184,0.825684,0
34420,0.154785,-0.357422,0.824219,0
34440,0.163574,-0.364746,0.830078,0
34460,0.16748,-0.376953,0.820801,0
34500,0.17041,-0.371582,0.820312,0
34530,0.171387,-0.357422,0.825195,0
34550,0.179199,-0.367676,0.815918,0
34570,0.175781,-0.370605,0.816895,0
34590,0.180176,-0.35498,0.816406,0
34610,0.183105,-0.349609,0.815918,0
34630,0.175293,-0.367188,0.816406,0
34650,0.173828,-0.367188,0.815918,0
34670,0.16748,-0.364746,0.820312,0
34690,0.173828,-0.355957,0.823242,0
34710,0.187012,-0.371094,0.818848,0
34730,0.180176,-0.362305,0.814453,0
34750,0.170898,-0.339844,0.828125,0
34770,0.169922,-0.359375,0.829102,0
34790,0.180664,-0.383301,0.82959,0
34810,0.180664,-0.373535,0.843262,0
34830,0.189941,-0.34082,0.873535,0
34850,0.240234,-0.358398,0.837891,0
34870,0.263184,-0.460449,0.862305,0
34890,0.305176,-0.432617,0.88916,0
34910,0.394043,-0.383301,0.893555,0
34930,0.397461,-0.379395,0.962891,0
34950,0.408691,-0.467285,0.927246,0
34970,0.439453,-0.476074,0.882812,0
34990,0.416016,-0.383789,0.883789,0
35010,0.338867,-0.350586,0.872559,0
35030,0.283691,-0.390137,0.859375,0
35050,0.277344,-0.422852,0.842773,0
35070,0.254395,-0.274414,0.907715,0
35090,0.214355,-0.256836,0.900391,0
35110,0.201172,-0.303711,0.806152,0
35120,0.157227,-0.3125,0.811035,0
35140,0.131348,-0.352051,0.73877,0
35160,0.119629,-0.410645,0.679199,0
35160,0.0942383,-0.202148,0.875,0
35180,0.174316,-0.0629883,0.878418,0
35200,0.165039,-0.181641,0.758789,0
35200,0.100586,-0.337402,0.72168,0
35220,0.0610352,-0.35498,0.709961,0
35260,0.0620117,-0.357422,0.673828,0
35310,0.0703125,-0.351074,0.628906,0
35330,0.0966797,-0.392578,0.554688,0
35350,0.118164,-0.268066,0.697754,0
35370,0.135254,-0.334961,0.699219,0
35390,0.144043,-0.372559,0.73291,0
35410,0.289551,-0.476562,0.662598,0
35430,0.443848,-0.67041,0.705566,0
35450,0.430664,-0.483887,0.775879,0
35470,0.273438,-0.31543,0.79834,0
35490,0.258789,-0.467285,0.743164,0
35510,0.366211,-0.572266,0.800293,0
35530,0.381836,-0.581543,0.786621,0
35550,0.209961,-0.542969,0.82959,0
35570,0.212891,-0.51123,0.700195,0
35590,0.116211,-0.419434,0.643555,0
35610,0.174316,-0.42334,0.655273,0
35630,0.190918,-0.340332,0.601074,0
35650,0.090332,-0.314453,0.598633,0
35670,0.081543,-0.385254,0.616699,0
35690,0.364746,-0.448242,0.557617,0
35710,0.337402,-0.398926,0.585938,0
35730,0.26709,-0.427246,0.663086,0
35750,0.329102,-0.40918,0.748535,0
35770,0.394043,-0.446777,0.799805,0
35790,0.496582,-0.445801,0.746582,0
35810,0.444824,-0.38916,0.756348,0
35830,0.387695,-0.351562,0.789062,0
35850,0.40625,-0.306152,0.821777,0
35870,0.365723,-0.356445,0.819824,0
35890,0.369629,-0.38623,0.825684,0
35910,0.490234,-0.435547,0.838379,0
35930,0.51709,-0.466797,0.783203,0
35950,0.432129,-0.425293,0.753906,0
35970,0.369141,-0.390625,0.73291,0
35990,0.376953,-0.377441,0.75,0
36010,0.336914,-0.354492,0.770996,0
36030,0.216797,-0.334473,0.782715,0
36050,0.193848,-0.350586,0.801758,0
36070,0.243652,-0.393555,0.837891,0
36090,0.315918,-0.533691,0.776855,0
36110,0.256348,-0.437012,0.71875,0
36120,0.154297,-0.42334,0.722168,0
36140,0.123047,-0.410156,0.780273,0
36160,0.191406,-0.400879,0.853516,0
36180,0.136719,-0.347168,0.796387,0
36200,0.00683594,-0.297852,0.883789,0
36220,0.00341797,-0.288574,0.929688,0
36240,0.065918,-0.365234,0.917969,0
36260,0.0942383,-0.374023,0.896484,0
36280,0.0478516,-0.365234,0.907715,0
36300,0.0239258,-0.394043,0.950195,0
36320,0.090332,-0.467285,0.844238,0
36340,0.0761719,-0.445312,0.854004,0
36360,0.019043,-0.387695,0.902832,0
36380,-0.0209961,-0.367188,0.890137,0
36380,-0.000976562,-0.365234,0.864746,0
36400,-0.00732422,-0.333008,0.876953,0
36420,-0.0219727,-0.293945,0.867676,0
36430,0.0141602,-0.294922,0.850586,0
36480,-0.00244141,-0.310059,0.825195,0
36500,-0.0673828,-0.303223,0.872559,0
36520,-0.0722656,-0.376953,0.908203,0
36540,-0.0600586,-0.330566,0.916992,0
36560,-0.034668,-0.357422,0.859375,0
36580,-0.00195312,-0.427246,0.824707,0
36600,0.0175781,-0.384766,0.880859,0
36620,-0.00195312,-0.400879,0.82959,0
36640,-0.0444336,-0.422852,0.838379,0
36660,-0.0249023,-0.385254,0.857422,0
36680,-0.000488281,-0.35498,0.871582,0
36700,0.0444336,-0.424805,0.830566,0
36720,0.0419922,-0.365234,0.830078,0
36740,0.0170898,-0.328125,0.791992,0
36760,-0.0410156,-0.380371,0.800293,0
36780,-0.0307617,-0.365234,0.831055,0
36800,-0.0112305,-0.385254,0.797852,0
36820,-0.0996094,-0.333496,0.871094,0
36840,-0.100586,-0.271484,0.904297,0
36860,0.00732422,-0.380859,0.820801,0
36880,0.0483398,-0.410156,0.780762,0
36900,0.0126953,-0.472656,0.793457,0
36920,-0.0766602,-0.453613,0.791504,0
36940,-0.081543,-0.417969,0.774414,0
36960,-0.0107422,-0.41748,0.818359,0
36980,0.019043,-0.43457,0.848145,0
37000,-0.0400391,-0.464355,0.867188,0
37020,-0.0800781,-0.453613,0.837402,0
37040,-0.0419922,-0.471191,0.852051,0
37060,-0.00341797,-0.490234,0.854492,0
37080,0.00488281,-0.437988,0.859863,0
37100,-0.00244141,-0.42041,0.847656,0
37120,-0.0161133,-0.420898,0.82959,0
37140,-0.0395508,-0.420898,0.859375,0
37160,-0.0327148,-0.437988,0.824219,0
37180,-0.0200195,-0.396973,0.754883,0
37200,0.000976562,-0.388184,0.779785,0
37220,0.0507812,-0.380859,0.768066,0
37240,0.0664062,-0.355957,0.812988,0
37260,0.101074,-0.395508,0.790039,0
37280,0.0654297,-0.39502,0.765625,0
37300,0.0449219,-0.367676,0.762695,0
37320,0.0844727,-0.356445,0.803711,0
37340,0.135254,-0.403809,0.794922,0
37360,0.0717773,-0.400391,0.800293,0
37380,0.0532227,-0.406738,0.824219,0
37400,0.0283203,-0.401367,0.82666,0
37420,0.050293,-0.433594,0.817383,0
37440,0.050293,-0.400879,0.832031,0
37460,0.0224609,-0.375488,0.84082,0
37480,0.0180664,-0.399902,0.842285,0
37500,0.0317383,-0.442871,0.857422,0
37520,0.0146484,-0.42041,0.868652,0
37540,0.0078125,-0.39502,0.86377,0
37560,0.019043,-0.38623,0.868652,0
37580,0.00878906,-0.402832,0.855957,0
37600,0.0161133,-0.380859,0.859863,0
37620,0.0112305,-0.367676,0.861328,0
37640,0.0229492,-0.377441,0.86084,0
37660,0.00341797,-0.380859,0.849121,0
37680,-0.0117188,-0.37793,0.854492,0
37700,-0.00537109,-0.373047,0.850098,0
37720,-0.00292969,-0.366211,0.838867,0
37740,-0.0112305,-0.352051,0.844238,0
37760,-0.0112305,-0.348633,0.84375,0
37780,0.00830078,-0.365234,0.85498,0
37800,-0.00927734,-0.355469,0.849609,0
37820,-0.0107422,-0.350586,0.855957,0
37840,-0.0161133,-0.362305,0.849609,0
37860,-0.0126953,-0.375,0.834961,0
37860,-0.0175781,-0.360352,0.845703,0
37880,-0.0292969,-0.350586,0.84668,0
37900,-0.0463867,-0.352051,0.838867,0
37900,-0.0410156,-0.370117,0.839355,0
37960,-0.0419922,-0.364258,0.844727,0
37960,-0.0581055,-0.344238,0.84375,0
37980,-0.0751953,-0.341309,0.849609,0
38000,-0.0654297,-0.349609,0.856934,0
38020,-0.0478516,-0.359863,0.843262,0
38020,-0.0375977,-0.355469,0.851074,0
38040,-0.0424805,-0.34082,0.88916,0
38060,-0.0307617,-0.337402,0.891602,0
38060,-0.027832,-0.353516,0.846191,0
38120,-0.00927734,-0.374023,0.839844,0
38160,0.00292969,-0.351074,0.897461,0
38180,0.0117188,-0.354492,0.88623,0
38200,-0.0200195,-0.355469,0.827637,0
38220,-0.00927734,-0.346191,0.821289,0
38240,0.0170898,-0.330078,0.851074,0
38260,0.00878906,-0.321777,0.846191,0
38280,-0.00537109,-0.325684,0.82959,0
38300,-0.000976562,-0.32959,0.839844,0
38320,0.0107422,-0.305664,0.869141,0
38340,0.0112305,-0.310059,0.873047,0
38360,-0.0078125,-0.317383,0.856934,0
38380,-0.0161133,-0.312988,0.857422,0
38400,-0.0170898,-0.317871,0.874512,0
38420,0.00585938,-0.307129,0.890137,0
38440,0.0273438,-0.312988,0.869141,0
38460,0.0234375,-0.313477,0.869141,0
38480,0.00683594,-0.306152,0.861816,0
38500,-0.000488281,-0.325684,0.861816,0
38520,0.00683594,-0.336426,0.856445,0
38540,0.00195312,-0.338867,0.866699,0
38560,-0.00244141,-0.339844,0.844727,0
38580,-0.0078125,-0.337402,0.845703,0
38600,0.0107422,-0.329102,0.875488,0
38620,0.0292969,-0.306641,0.899414,0
38640,0.0380859,-0.301758,0.890137,0
38660,0.0634766,-0.305176,0.861816,0
38680,0.046875,-0.297363,0.847168,0
38700,0.0175781,-0.275391,0.835938,0
38720,0.00683594,-0.294434,0.822266,0
38720,0.0273438,-0.32959,0.828125,0
38740,0.0297852,-0.332031,0.840332,0
38760,0.0322266,-0.324219,0.851074,0
38780,0.0512695,-0.314453,0.852539,0
38780,0.065918,-0.317383,0.857422,0
38800,0.0649414,-0.308594,0.852539,0
38820,0.0644531,-0.307617,0.853027,0
38840,0.0683594,-0.304688,0.851562,0
38840,0.0771484,-0.303223,0.856934,0
38900,0.0727539,-0.302246,0.873047,0
38930,0.0595703,-0.301758,0.855469,0
38950,0.0649414,-0.299316,0.838867,0
38970,0.09375,-0.29248,0.873047,0
38990,0.105469,-0.291992,0.89209,0
39010,0.119141,-0.321777,0.847656,0
39030,0.135742,-0.318848,0.880371,0
39050,0.137207,-0.283691,0.907227,0
39070,0.121094,-0.268555,0.88623,0
39090,0.124023,-0.275879,0.860352,0
39110,0.146973,-0.266113,0.880859,0
39130,0.149902,-0.24707,0.86377,0
39150,0.150879,-0.242676,0.830078,0
39170,0.145996,-0.224121,0.828125,0
39190,0.132812,-0.20459,0.869629,0
39210,0.102539,-0.208008,0.874512,0
39230,0.0820312,-0.23584,0.855469,0
39250,0.0771484,-0.229492,0.869629,0
39270,0.0732422,-0.215332,0.890137,0
39290,0.0854492,-0.230957,0.874512,0
39310,0.105469,-0.261719,0.862305,0
39330,0.118652,-0.256348,0.873535,0
39350,0.135254,-0.256836,0.853027,0
39370,0.150879,-0.26123,0.858887,0
39390,0.146973,-0.265625,0.867676,0
39410,0.153809,-0.272461,0.850098,0
39430,0.181152,-0.263672,0.860352,0
39450,0.189453,-0.235352,0.873535,0
39470,0.188477,-0.244141,0.859375,0
39490,0.204102,-0.248047,0.844238,0
39510,0.211914,-0.234863,0.841797,0
39530,0.211426,-0.205566,0.856934,0
39550,0.211914,-0.198242,0.871582,0
39570,0.20166,-0.217773,0.873047,0
39590,0.196289,-0.217773,0.86377,0
39610,0.181152,-0.19873,0.859863,0
39630,0.169434,-0.179199,0.863281,0
39650,0.176758,-0.179688,0.866211,0
39670,0.180664,-0.182617,0.862793,0
39690,0.17334,-0.205078,0.852051,0
39710,0.175293,-0.206055,0.853027,0
39730,0.171875,-0.197754,0.867676,0
39750,0.186523,-0.187988,0.875,0
39770,0.20752,-0.194336,0.858887,0
39790,0.206055,-0.19873,0.86084,0
39810,0.208984,-0.190918,0.869629,0
39830,0.227051,-0.201172,0.871582,0
39850,0.235352,-0.196777,0.880371,0
39870,0.219238,-0.1875,0.870117,0
39890,0.205566,-0.17334,0.87207,0
39910,0.200195,-0.174316,0.875977,0
39930,0.19043,-0.175293,0.876465,0
39950,0.176758,-0.175293,0.870605,0
39970,0.171387,-0.178223,0.874023,0
39990,0.160156,-0.173828,0.87207,0
40010,0.174316,-0.18457,0.878906,0
40030,0.19043,-0.200684,0.885742,0
40050,0.194824,-0.202148,0.862793,0
40070,0.200684,-0.19043,0.868164,0
40090,0.206543,-0.187012,0.881348,0
40110,0.197754,-0.166504,0.894043,0
40130,0.208008,-0.187988,0.875977,0
40150,0.193848,-0.191895,0.875,0
40170,0.182129,-0.183105,0.866211,0
40190,0.180664,-0.19043,0.875977,0
40210,0.168457,-0.19043,0.873047,0
40230,0.171387,-0.185547,0.870605,0
40250,0.187988,-0.187012,0.874023,0
40270,0.193359,-0.204102,0.85498,0
40280,0.20752,-0.214844,0.831543,0
40300,0.251465,-0.226074,0.838867,0
40320,0.281738,-0.224121,0.873047,0
40320,0.279785,-0.234375,0.893066,0
40340,0.294434,-0.249023,0.910645,0
40360,0.311523,-0.250488,0.919434,0
40380,0.293945,-0.225098,0.910156,0
40380,0.272461,-0.23877,0.916504,0
40400,0.239258,-0.23291,0.902832,0
40420,0.211914,-0.206543,0.898438,0
40440,0.228027,-0.220703,0.881348,0
40480,0.211914,-0.25293,0.878906,0
40530,0.213867,-0.254395,0.853516,0
40550,0.229492,-0.287598,0.822266,0
40570,0.240723,-0.28418,0.82959,0
40590,0.248047,-0.288086,0.843262,0
40610,0.26709,-0.29248,0.817871,0
40630,0.281738,-0.324219,0.799805,0
40650,0.299316,-0.327637,0.802246,0
40670,0.284668,-0.339355,0.814941,0
40690,0.285645,-0.356445,0.770996,0
40710,0.290527,-0.32666,0.775391,0
40730,0.295898,-0.336426,0.769043,0
40750,0.292969,-0.334473,0.785156,0
40770,0.311035,-0.368652,0.762207,0
40790,0.300293,-0.319336,0.794922,0
40810,0.270508,-0.320801,0.775879,0
40830,0.253906,-0.313965,0.719238,0
40850,0.253906,-0.310059,0.706543,0
40870,0.245605,-0.3125,0.733398,0
40890,0.246094,-0.356934,0.741699,0
40910,0.259277,-0.355469,0.750488,0
40930,0.229492,-0.328613,0.757812,0
40950,0.226562,-0.352051,0.761719,0
40970,0.252441,-0.367676,0.790039,0
40990,0.21582,-0.33252,0.789062,0
41010,0.195312,-0.339844,0.794434,0
41030,0.240723,-0.36084,0.78125,0
41050,0.259277,-0.39502,0.814941,0
41070,0.272461,-0.418945,0.762207,0
41090,0.286621,-0.386719,0.776855,0
41110,0.309082,-0.333496,0.809082,0
41130,0.324707,-0.318848,0.791016,0
41150,0.333008,-0.302246,0.815918,0
41170,0.337891,-0.277832,0.780762,0
41190,0.339355,-0.295898,0.78418,0
41210,0.315918,-0.293457,0.790039,0
41230,0.31543,-0.352051,0.805664,0
41250,0.328125,-0.364258,0.777344,0
41270,0.32666,-0.300781,0.751465,0
41290,0.32373,-0.288086,0.814941,0
41310,0.327148,-0.303223,0.776367,0
41320,0.34082,-0.32666,0.757324,0
41340,0.350098,-0.370605,0.774414,0
41360,0.298828,-0.392578,0.810059,0
41380,0.291016,-0.389648,0.838379,0
41400,0.314453,-0.389648,0.824707,0
41420,0.317383,-0.341309,0.812988,0
41440,0.325684,-0.356934,0.820801,0
41460,0.307129,-0.382812,0.802734,0
41480,0.321777,-0.396973,0.802246,0
41500,0.339844,-0.39502,0.78418,0
41520,0.319336,-0.367188,0.776367,0
41540,0.271973,-0.365723,0.782227,0
41560,0.234863,-0.347656,0.797363,0
41580,0.266113,-0.380371,0.774902,0
41600,0.299316,-0.373047,0.786133,0
41620,0.269043,-0.343262,0.751465,0
41640,0.230957,-0.356934,0.746582,0
41660,0.26123,-0.370605,0.771973,0
41680,0.269043,-0.358398,0.771973,0
41700,0.256836,-0.386719,0.775391,0
41720,0.272461,-0.37207,0.770996,0
41740,0.281738,-0.383789,0.776855,0
41760,0.269043,-0.394043,0.771484,0
41780,0.269043,-0.410156,0.77002,0
41800,0.274902,-0.412109,0.783203,0
41820,0.268066,-0.418457,0.778809,0
41840,0.281738,-0.416992,0.785156,0
41860,0.278809,-0.430664,0.754883,0
41860,0.269043,-0.412109,0.768066,0
41880,0.279785,-0.410645,0.786621,0
41900,0.276855,-0.399414,0.78418,0
41920,0.278809,-0.410645,0.783691,0
41920,0.296875,-0.416504,0.774414,0
41980,0.286621,-0.42041,0.75,0
42000,0.282227,-0.400879,0.765625,0
42020,0.289551,-0.404785,0.780273,0
42040,0.286621,-0.401367,0.786133,0
42060,0.279785,-0.397949,0.783203,0
42080,0.289551,-0.39502,0.770996,0
42100,0.287109,-0.38916,0.78125,0
42120,0.277832,-0.387695,0.803223,0
42140,0.270996,-0.379883,0.780762,0
42160,0.292969,-0.408691,0.749512,0
42180,0.315918,-0.416504,0.752441,0
42200,0.329102,-0.398438,0.758301,0
42220,0.338867,-0.383789,0.774902,0
42240,0.315918,-0.390625,0.789551,0
42260,0.300293,-0.412109,0.794434,0
42280,0.29541,-0.418457,0.785156,0
42300,0.28125,-0.392578,0.791016,0
42320,0.277344,-0.382812,0.811035,0
42340,0.270996,-0.370117,0.829102,0
42360,0.256348,-0.387207,0.817383,0
42380,0.231445,-0.396973,0.807129,0
42400,0.208496,-0.396973,0.821777,0
42420,0.169434,-0.400391,0.833496,0
42440,0.143555,-0.413574,0.833496,0
42460,0.143555,-0.441406,0.868164,0
42480,0.117676,-0.432617,0.86377,0
42490,0.0947266,-0.455078,0.817383,0
42520,0.126953,-0.47168,0.789551,0
42540,0.13916,-0.443359,0.812988,0
42560,0.134766,-0.419922,0.874512,0
42580,0.097168,-0.445312,0.849609,0
42600,0.0966797,-0.490723,0.749512,0
42620,0.123047,-0.455078,0.72168,0
42640,0.131836,-0.410645,0.739258,0
42660,0.116211,-0.408203,0.760742,0
42680,0.122559,-0.435547,0.712891,0
42700,0.129883,-0.461914,0.618164,0
42720,0.161133,-0.429199,0.61084,0
42740,0.203125,-0.379395,0.689941,0
42760,0.197754,-0.379395,0.771484,0
42780,0.197266,-0.434082,0.806152,0
42800,0.179199,-0.460449,0.841797,0
42820,0.154297,-0.453613,0.837402,0
42840,0.171387,-0.486816,0.785645,0
42860,0.187988,-0.495605,0.749512,0
42880,0.194336,-0.489746,0.756348,0
42900,0.17627,-0.501953,0.756348,0
42920,0.1875,-0.48877,0.777832,0
42940,0.201172,-0.493652,0.793457,0
42960,0.216797,-0.47168,0.817383,0
42980,0.211914,-0.416992,0.819336,0
43000,0.218262,-0.396484,0.785156,0
43020,0.211914,-0.379395,0.754883,0
43040,0.196777,-0.348633,0.723145,0
43060,0.206055,-0.333984,0.720703,0
43080,0.219727,-0.339844,0.725098,0
43100,0.20752,-0.336426,0.706543,0
43120,0.220215,-0.322266,0.701172,0
43140,0.258301,-0.322754,0.700684,0
43160,0.276367,-0.322754,0.709473,0
43180,0.268066,-0.337891,0.745117,0
43200,0.275391,-0.339844,0.805176,0
43220,0.302734,-0.344727,0.891113,0
43240,0.311523,-0.379395,0.884277,0
43260,0.339355,-0.44043,0.831543,0
43280,0.388184,-0.437988,0.789551,0
43300,0.401367,-0.402344,0.742188,0
43320,0.388184,-0.376953,0.717773,0
43340,0.373047,-0.359375,0.720215,0
43360,0.365723,-0.355469,0.710938,0
43380,0.353516,-0.362305,0.736816,0
43400,0.366699,-0.35791,0.750977,0
43420,0.386719,-0.349609,0.756348,0
43440,0.397949,-0.370117,0.741211,0
43460,0.407715,-0.381348,0.753906,0
43480,0.396973,-0.365723,0.763672,0
43500,0.355469,-0.368164,0.764648,0
43520,0.346191,-0.387695,0.776367,0
43540,0.378906,-0.405762,0.817871,0
43560,0.374512,-0.400879,0.839844,0
43580,0.358887,-0.362305,0.94873,0
43580,0.283203,-0.320312,0.999023,0
43600,0.19043,-0.36377,0.930664,0
43620,0.104004,-0.34668,0.854492,0
43640,0.0629883,-0.325195,0.82373,0
43640,0.11084,-0.339355,0.808105,0
43660,0.149414,-0.340332,0.779297,0
43680,0.132324,-0.328613,0.762695,0
43700,0.112793,-0.34082,0.766113,0
43700,0.153809,-0.355957,0.783691,0
43750,0.205078,-0.389648,0.765137,0
43800,0.26123,-0.40918,0.791016,0
43820,0.302734,-0.400879,0.841309,0
43840,0.328613,-0.389648,0.835449,0
43860,0.395508,-0.413086,0.772461,0
43880,0.465332,-0.428711,0.743164,0
43900,0.484375,-0.411133,0.739746,0
43920,0.419434,-0.393066,0.713379,0
43930,0.375488,-0.381836,0.697754,0
43950,0.373535,-0.389648,0.712402,0
43970,0.364258,-0.383789,0.715332,0
43990,0.356445,-0.391602,0.724609,0
44010,0.359375,-0.385742,0.751953,0
44030,0.355469,-0.397949,0.757324,0
44050,0.345215,-0.393066,0.776367,0
44070,0.332031,-0.382812,0.74707,0
44090,0.328125,-0.382812,0.736816,0
44110,0.321289,-0.358887,0.755371,0
44130,0.312012,-0.350098,0.773926,0
44150,0.293457,-0.349121,0.771973,0
44170,0.299316,-0.369629,0.753418,0
44190,0.327148,-0.365234,0.756836,0
44210,0.36084,-0.355469,0.759277,0
44230,0.36377,-0.365723,0.745605,0
44250,0.377441,-0.36084,0.749023,0
44270,0.409668,-0.348633,0.739258,0
44290,0.418945,-0.352539,0.735352,0
44310,0.432617,-0.35498,0.755859,0
44330,0.417969,-0.359375,0.738281,0
44350,0.422363,-0.366211,0.727051,0
44370,0.416992,-0.363281,0.749023,0
44390,0.399902,-0.353516,0.756348,0
44410,0.387695,-0.361816,0.762207,0
44430,0.378418,-0.374023,0.768555,0
44450,0.367188,-0.373047,0.783691,0
44470,0.355469,-0.376953,0.775391,0
44490,0.339355,-0.389648,0.761719,0
44510,0.339844,-0.390137,0.764648,0
44530,0.349121,-0.39209,0.759277,0
44550,0.342773,-0.394043,0.760254,0
44570,0.344238,-0.405273,0.743164,0
44590,0.351074,-0.388184,0.73877,0
44610,0.358887,-0.376465,0.740723,0
44630,0.370605,-0.37793,0.750977,0
44650,0.375488,-0.378906,0.750977,0
44670,0.379883,-0.374512,0.754395,0
44690,0.402344,-0.383301,0.747559,0
44710,0.401855,-0.393555,0.73584,0
44730,0.396484,-0.395508,0.734375,0
44750,0.409668,-0.401367,0.734375,0
44770,0.397949,-0.408203,0.714355,0
44790,0.383301,-0.409668,0.711914,0
44810,0.395996,-0.409668,0.725586,0
44830,0.401855,-0.397461,0.729492,0
44850,0.390625,-0.408203,0.715332,0
44870,0.405273,-0.407715,0.70459,0
44890,0.430664,-0.406738,0.708984,0
44910,0.427734,-0.39502,0.707031,0
44930,0.396973,-0.385254,0.717285,0
44950,0.400391,-0.396973,0.707031,0
44970,0.399902,-0.398438,0.714844,0
44990,0.404297,-0.391113,0.703613,0
45010,0.40625,-0.377441,0.706543,0
45030,0.408691,-0.374023,0.713379,0
45050,0.409668,-0.378906,0.715332,0
45070,0.412598,-0.384766,0.713379,0
45090,0.398926,-0.380371,0.713379,0
45110,0.404297,-0.389648,0.705078,0
45130,0.404785,-0.391113,0.686523,0
45150,0.384277,-0.392578,0.685059,0
45170,0.388184,-0.395996,0.693848,0
45190,0.39502,-0.40625,0.706055,0
45210,0.390137,-0.405273,0.712891,0
45230,0.369141,-0.408203,0.708008,0
45250,0.373047,-0.408203,0.712402,0
45270,0.385742,-0.396973,0.720703,0
45290,0.384766,-0.41748,0.712402,0
45310,0.410156,-0.429199,0.711914,0
45330,0.429688,-0.419434,0.70459,0
45350,0.425293,-0.411621,0.709961,0
45370,0.411133,-0.400879,0.70166,0
45390,0.404297,-0.399902,0.714355,0
45410,0.404297,-0.397949,0.709473,0
45430,0.392578,-0.397949,0.70752,0
45450,0.373047,-0.39502,0.698242,0
45470,0.393066,-0.398438,0.692871,0
45490,0.408691,-0.40918,0.694824,0
45510,0.42334,-0.390137,0.696289,0
45530,0.430176,-0.402832,0.696777,0
45550,0.447754,-0.408203,0.705566,0
45570,0.452637,-0.397461,0.709473,0
45590,0.443359,-0.38916,0.716797,0
45610,0.432617,-0.395508,0.714355,0
45630,0.428223,-0.391113,0.711426,0
45650,0.429688,-0.375488,0.722656,0
45670,0.410645,-0.379883,0.725098,0
45690,0.390625,-0.375488,0.723633,0
45710,0.397949,-0.378418,0.725586,0
45730,0.401367,-0.392578,0.717285,0
45750,0.396484,-0.397461,0.718262,0
45770,0.395508,-0.394043,0.708496,0
45790,0.380371,-0.379883,0.705566,0
45810,0.363281,-0.385742,0.703125,0
45830,0.354004,-0.392578,0.685059,0
45850,0.358887,-0.394043,0.687012,0
45870,0.354004,-0.398438,0.661133,0
45890,0.320312,-0.438965,0.669922,0
45910,0.270996,-0.433594,0.723145,0
45930,0.219238,-0.389648,0.720215,0
45950,0.226074,-0.395508,0.740723,0
45970,0.275879,-0.405273,0.743164,0
45990,0.299316,-0.422852,0.768555,0
46010,0.301758,-0.4375,0.795898,0
46030,0.277344,-0.431641,0.825684,0
46050,0.258789,-0.428223,0.808594,0
46070,0.27002,-0.441895,0.827148,0
46090,0.282227,-0.45166,0.825684,0
46110,0.274902,-0.455078,0.830078,0
46120,0.264648,-0.430664,0.814453,0
46140,0.240723,-0.42627,0.808105,0
46140,0.239258,-0.420898,0.814453,0
46160,0.255371,-0.426758,0.8125,0
46200,0.245117,-0.445801,0.799805,0
46230,0.237305,-0.441406,0.799805,0
46250,0.23584,-0.42334,0.800781,0
46270,0.241699,-0.416016,0.791992,0
46290,0.248047,-0.424316,0.793457,0
46310,0.251953,-0.430176,0.794922,0
46330,0.25,-0.421875,0.805176,0
46350,0.245117,-0.426758,0.791992,0
46370,0.256348,-0.410156,0.787598,0
46390,0.269043,-0.403809,0.794922,0
46400,0.275879,-0.408203,0.78418,0
46420,0.280762,-0.419434,0.78418,0
46430,0.271484,-0.416504,0.788086,0
46440,0.28125,-0.418945,0.783203,0
46460,0.276367,-0.425781,0.793945,0
46480,0.265625,-0.394043,0.794922,0
46500,0.293945,-0.416992,0.776367,0
46500,0.289551,-0.429199,0.769531,0
46520,0.27002,-0.409668,0.783691,0
46540,0.270508,-0.394043,0.742188,0
46540,0.279297,-0.421387,0.730957,0
46600,0.290527,-0.436035,0.736328,0
46640,0.27002,-0.428223,0.754883,0
46660,0.295898,-0.401367,0.719238,0
46680,0.313477,-0.479004,0.71875,0
46700,0.311035,-0.407227,0.740234,0
46720,0.302246,-0.440918,0.729492,0
46740,0.30957,-0.443848,0.728027,0
46760,0.32373,-0.407715,0.744629,0
46780,0.330078,-0.45459,0.740234,0
46800,0.321777,-0.387695,0.726562,0
46820,0.329102,-0.439941,0.739746,0
46840,0.335938,-0.45752,0.727051,0
46860,0.36377,-0.445801,0.733398,0
46880,0.358887,-0.454102,0.72168,0
46900,0.359863,-0.468262,0.70459,0
46920,0.376465,-0.470215,0.687988,0
46940,0.373535,-0.445312,0.720215,0
46960,0.353516,-0.447266,0.720215,0
46980,0.365234,-0.450195,0.724121,0
47000,0.374512,-0.441895,0.703613,0
47020,0.365723,-0.451172,0.712891,0
47040,0.344727,-0.450195,0.728516,0
47060,0.330078,-0.412109,0.738281,0
47080,0.352539,-0.413086,0.730469,0
47100,0.358398,-0.414062,0.72998,0
47120,0.356934,-0.42627,0.740234,0
47140,0.356445,-0.410645,0.719238,0
47160,0.355957,-0.427734,0.708984,0
47180,0.369141,-0.449707,0.706055,0
47200,0.347168,-0.456543,0.709473,0
47220,0.35791,-0.442871,0.70752,0
47240,0.350098,-0.42334,0.716797,0
47260,0.361816,-0.443848,0.717285,0
47280,0.362793,-0.438477,0.695312,0
47300,0.354492,-0.459961,0.709961,0
47320,0.344727,-0.447754,0.719727,0
47340,0.346191,-0.431641,0.720215,0
47360,0.360352,-0.438477,0.716797,0
47380,0.360352,-0.440918,0.714355,0
47400,0.35791,-0.444824,0.721191,0
47420,0.365234,-0.44873,0.71582,0
47440,0.364258,-0.458008,0.711914,0
47460,0.343262,-0.441895,0.725098,0
47480,0.355469,-0.43457,0.720703,0
47500,0.355957,-0.447266,0.725586,0
47520,0.362793,-0.445801,0.714844,0
47540,0.364258,-0.458984,0.709961,0
47560,0.362793,-0.444336,0.708496,0
47580,0.365723,-0.437012,0.705078,0
47600,0.380859,-0.447754,0.709961,0
47620,0.369141,-0.466797,0.716797,0
47640,0.36377,-0.45752,0.702148,0
47660,0.36377,-0.439941,0.723145,0
47680,0.372559,-0.431641,0.702637,0
47700,0.374512,-0.44043,0.701172,0
47720,0.379395,-0.460449,0.703125,0
47740,0.373047,-0.494629,0.710449,0
47760,0.348145,-0.475098,0.691406,0
47780,0.350098,-0.459961,0.654785,0
47800,0.330566,-0.438477,0.691406,0
47820,0.318359,-0.381348,0.698242,0
47840,0.322266,-0.418457,0.692383,0
47860,0.323242,-0.412109,0.698242,0
47880,0.322266,-0.44873,0.714844,0
47900,0.327637,-0.516602,0.705078,0
47920,0.302734,-0.541992,0.666504,0
47940,0.310547,-0.53125,0.644043,0
47960,0.311035,-0.472656,0.652344,0
47980,0.306641,-0.464355,0.629395,0
48000,0.306641,-0.495117,0.666504,0
48020,0.294434,-0.562988,0.65625,0
48040,0.268066,-0.568359,0.75,0
48060,0.18457,-0.441406,0.769043,0
48080,0.0576172,-0.356934,0.709473,0
48100,0.0507812,-0.363281,0.714844,0
48120,0.0908203,-0.408691,0.787109,0
48140,0.129395,-0.446289,0.77832,0
48160,0.117188,-0.476074,0.782715,0
48180,0.0751953,-0.530273,0.766602,0
48200,0.0170898,-0.509766,0.768066,0
48220,0.0117188,-0.55127,0.814941,0
48240,0.0751953,-0.577148,0.831055,0
48260,0.0664062,-0.518066,0.8125,0
48280,0.00537109,-0.535645,0.856934,0
48300,-0.0161133,-0.529297,0.831543,0
48320,0.0102539,-0.520996,0.820312,0
48340,0.0195312,-0.473633,0.833984,0
48360,-0.00390625,-0.463867,0.864258,0
48380,-0.0117188,-0.519531,0.856934,0
48400,-0.0175781,-0.557617,0.838867,0
48420,-0.0209961,-0.552734,0.783203,0
48440,-0.0263672,-0.556152,0.823242,0
48460,-0.0117188,-0.527832,0.8125,0
48480,-0.0253906,-0.570312,0.76123,0
48500,-0.0341797,-0.591797,0.815918,0
48520,-0.0371094,-0.487305,0.845703,0
48540,-0.0522461,-0.422363,0.786133,0
48560,-0.0864258,-0.475586,0.825195,0
48580,-0.0795898,-0.506836,0.839844,0
48600,-0.0463867,-0.491699,0.795898,0
48620,-0.0522461,-0.446777,0.845703,0
48640,-0.0732422,-0.443848,0.89209,0
48660,-0.0600586,-0.48877,0.803223,0
48680,-0.0742188,-0.495117,0.832031,0
48700,-0.0390625,-0.435547,0.798828,0
48720,-0.0581055,-0.413086,0.835938,0
48740,-0.0571289,-0.44873,0.776367,0
48760,-0.0395508,-0.433594,0.737793,0
48780,-0.0131836,-0.44873,0.76416,0
48800,-0.0629883,-0.472656,0.81543,0
48820,-0.101562,-0.466797,0.782715,0
48840,-0.0634766,-0.442871,0.762207,0
48860,-0.0136719,-0.458984,0.775391,0
48880,-0.0112305,-0.446289,0.79248,0
48900,0.0239258,-0.431641,0.733887,0
48920,0.0444336,-0.540527,0.691406,0
48940,0.0136719,-0.611328,0.752441,0
48960,0.034668,-0.593262,0.74707,0
48980,0.0341797,-0.52002,0.779785,0
49000,0.0576172,-0.479004,0.77002,0
49020,0.0947266,-0.47998,0.827637,0
49040,0.0908203,-0.524414,0.838867,0
49060,0.0961914,-0.535156,0.828125,0
49080,0.135742,-0.533691,0.787598,0
49100,0.148926,-0.547852,0.791992,0
49120,0.136719,-0.554688,0.790527,0
49140,0.115723,-0.563477,0.75293,0
49150,0.161621,-0.545898,0.756348,0
49170,0.157227,-0.518555,0.771484,0
49190,0.13623,-0.511719,0.748047,0
49210,0.153809,-0.478027,0.740234,0
49230,0.193359,-0.478516,0.759766,0
49250,0.214355,-0.498047,0.742188,0
49270,0.236816,-0.51709,0.724121,0
49290,0.244629,-0.479492,0.730957,0
49310,0.267578,-0.480957,0.720215,0
49330,0.285645,-0.499023,0.729004,0
49350,0.321777,-0.508301,0.725586,0
49370,0.342773,-0.518066,0.69043,0
49390,0.339355,-0.50293,0.698242,0
49410,0.348145,-0.486816,0.721191,0
49420,0.37793,-0.477539,0.72998,0
49440,0.391602,-0.483887,0.706543,0
49460,0.342285,-0.452637,0.703613,0
49470,0.338379,-0.431152,0.707031,0
49480,0.364258,-0.448242,0.705566,0
49500,0.378906,-0.472168,0.699707,0
49520,0.385254,-0.491699,0.680664,0
49570,0.371582,-0.493652,0.708984,0
49590,0.34082,-0.48291,0.692383,0
49610,0.316406,-0.467773,0.683105,0
49630,0.337891,-0.435547,0.679199,0
49650,0.337891,-0.447754,0.688965,0
49670,0.290527,-0.487305,0.677734,0
49690,0.296387,-0.505859,0.689453,0
49710,0.340332,-0.50293,0.680176,0
49730,0.34082,-0.512695,0.682617,0
49750,0.318848,-0.496094,0.700195,0
49770,0.321289,-0.48291,0.727051,0
49790,0.338379,-0.508301,0.70459,0
49810,0.356934,-0.529297,0.666992,0
49830,0.333008,-0.508789,0.657227,0
49850,0.277344,-0.497559,0.69043,0
49860,0.266602,-0.51709,0.706055,0
49880,0.291016,-0.522461,0.692383,0
49900,0.317871,-0.505371,0.678223,0
49920,0.343262,-0.510742,0.674316,0
49920,0.327637,-0.527344,0.666992,0
49940,0.32373,-0.518555,0.685059,0
49960,0.337402,-0.518555,0.694336,0
49980,0.378418,-0.565918,0.661133,0
49980,0.37793,-0.539551,0.669922,0
50000,0.331543,-0.493164,0.695312,0
50020,0.291992,-0.484863,0.702148,0
50040,0.361816,-0.542969,0.675781,0
50040,0.393555,-0.560059,0.680664,0
50060,0.338379,-0.527344,0.677734,0
50080,0.301758,-0.537109,0.673828,0
50100,0.30127,-0.535156,0.648438,0
50100,0.317871,-0.519043,0.659668,0
50120,0.295898,-0.499023,0.674316,0
50140,0.252441,-0.484375,0.673828,0
50160,0.294434,-0.509766,0.669922,0
50160,0.297852,-0.532715,0.671387,0
50180,0.265137,-0.562012,0.667969,0
50200,0.26709,-0.544434,0.677734,0
50220,0.312988,-0.52002,0.696289,0
50230,0.319824,-0.540039,0.679688,0
50320,0.331543,-0.555664,0.694824,0
50350,0.365723,-0.567383,0.678223,0
50380,0.355469,-0.551758,0.677734,0
50400,0.320312,-0.533691,0.692383,0
50420,0.268555,-0.543457,0.686523,0
50440,0.277344,-0.553223,0.685547,0
50460,0.328613,-0.545898,0.689453,0
50480,0.349121,-0.51709,0.697266,0
50500,0.281738,-0.475098,0.70166,0
50520,0.212891,-0.498535,0.668945,0
50540,0.187012,-0.493652,0.65332,0
50560,0.19873,-0.475098,0.653809,0
50580,0.196289,-0.5625,0.625,0
50600,0.197266,-0.645508,0.588379,0
50620,0.183105,-0.636719,0.616211,0
50640,0.21875,-0.546875,0.625488,0
50660,0.247559,-0.510254,0.640137,0
50680,0.279297,-0.476074,0.704102,0
50700,0.230957,-0.513672,0.735352,0
50720,0.165527,-0.532715,0.710449,0
50740,0.0922852,-0.528809,0.710938,0
50760,0.168457,-0.552246,0.702148,0
50780,0.209961,-0.539062,0.69873,0
50800,0.151855,-0.512207,0.6875,0
50820,0.0849609,-0.517578,0.654785,0
50840,0.116699,-0.516113,0.685059,0
50860,0.266602,-0.535645,0.733398,0
50880,0.335938,-0.504883,0.740234,0
50900,0.265625,-0.511719,0.770508,0
50920,0.266113,-0.546387,0.775879,0
50940,0.394043,-0.522461,0.795898,0
50960,0.402344,-0.483887,0.772949,0
50980,0.303711,-0.435059,0.771484,0
51000,0.308105,-0.42041,0.800293,0
51020,0.366211,-0.470215,0.793945,0
51040,0.370117,-0.476562,0.765137,0
51060,0.324707,-0.438477,0.751465,0
51080,0.328613,-0.416992,0.787109,0
51100,0.355469,-0.433594,0.762207,0
51120,0.354004,-0.453125,0.743652,0
51140,0.330078,-0.441406,0.751465,0
51160,0.342285,-0.41748,0.750488,0
51180,0.362305,-0.436035,0.75,0
51200,0.362793,-0.436035,0.734375,0
51220,0.356445,-0.441406,0.728516,0
51240,0.382324,-0.43457,0.754395,0
51260,0.388672,-0.41748,0.766113,0
51270,0.367188,-0.42627,0.757324,0
51300,0.350098,-0.42334,0.739746,0
51310,0.356445,-0.408691,0.744629,0
51330,0.37793,-0.409668,0.743164,0
51340,0.360352,-0.405273,0.73291,0
51350,0.335938,-0.394043,0.730469,0
51370,0.344727,-0.391113,0.741211,0
51390,0.351074,-0.400391,0.735352,0
51410,0.361816,-0.404785,0.734863,0
51410,0.355469,-0.399902,0.73291,0
51430,0.359375,-0.411621,0.748535,0
51450,0.365723,-0.415527,0.745117,0
51470,0.381836,-0.419922,0.73877,0
51530,0.37207,-0.412109,0.728027,0
51560,0.373535,-0.413574,0.743652,0
51580,0.365723,-0.401367,0.737793,0
51600,0.360352,-0.401855,0.746582,0
51620,0.361816,-0.405273,0.737793,0
51640,0.356445,-0.403809,0.733887,0
51660,0.342773,-0.393555,0.73584,0
51680,0.325195,-0.394043,0.720703,0
51700,0.338867,-0.391602,0.736328,0
51710,0.351074,-0.394531,0.751465,0
51730,0.348145,-0.400391,0.742676,0
51750,0.356445,-0.402832,0.749512,0
51770,0.365234,-0.400391,0.749023,0
51790,0.37793,-0.407715,0.748535,0
51810,0.385254,-0.404785,0.741699,0
51830,0.405762,-0.416992,0.760254,0
51850,0.390625,-0.400879,0.738281,0
51870,0.389648,-0.38623,0.73877,0
51890,0.408203,-0.390137,0.731445,0
51910,0.404785,-0.408203,0.724121,0
51930,0.387695,-0.433105,0.725586,0
51950,0.37207,-0.42627,0.739746,0
51970,0.356445,-0.404785,0.73877,0
51990,0.385254,-0.401855,0.734375,0
52010,0.40332,-0.421387,0.721191,0
52030,0.380859,-0.430664,0.727051,0
52030,0.365234,-0.439941,0.733398,0
52050,0.39209,-0.445312,0.736328,0
52070,0.385742,-0.438965,0.73877,0
52090,0.358398,-0.42041,0.754883,0
52090,0.351562,-0.419922,0.76416,0
52110,0.351562,-0.452637,0.746582,0
52130,0.330078,-0.45166,0.736816,0
52150,0.304199,-0.444824,0.734375,0
52150,0.29541,-0.436035,0.743164,0
52170,0.296875,-0.436035,0.731934,0
52190,0.303711,-0.443848,0.721191,0
52200,0.306152,-0.447266,0.726562,0
52210,0.285645,-0.458496,0.721191,0
52230,0.291504,-0.481934,0.716797,0
52250,0.321289,-0.484375,0.719727,0
52290,0.314941,-0.476074,0.712891,0
52350,0.317383,-0.480469,0.714844,0
52390,0.310059,-0.486328,0.714355,0
52410,0.283691,-0.487793,0.715332,0
52430,0.281738,-0.49707,0.699219,0
52450,0.315918,-0.498047,0.685547,0
52470,0.304688,-0.503906,0.682129,0
52490,0.300293,-0.50293,0.680176,0
52510,0.307617,-0.494141,0.678711,0
52530,0.266602,-0.484863,0.692871,0
52550,0.247559,-0.480957,0.700684,0
52570,0.272949,-0.492676,0.703125,0
52590,0.271484,-0.480957,0.702637,0
52610,0.288086,-0.480957,0.697266,0
52630,0.324707,-0.491211,0.696777,0
52650,0.333496,-0.481934,0.696289,0
52650,0.321777,-0.479492,0.692383,0
52690,0.359375,-0.478027,0.714355,0
52710,0.369141,-0.491211,0.711914,0
52730,0.34082,-0.481445,0.707031,0
52750,0.338379,-0.488281,0.70459,0
52770,0.374023,-0.48877,0.714844,0
52790,0.361816,-0.473145,0.705566,0
52810,0.345215,-0.478516,0.706055,0
52830,0.370117,-0.491699,0.710938,0
52850,0.351562,-0.47998,0.718262,0
52870,0.333496,-0.47998,0.713867,0
52890,0.378906,-0.507324,0.720215,0
52910,0.381836,-0.489258,0.70752,0
52930,0.344238,-0.459473,0.704102,0
52950,0.322266,-0.463867,0.695801,0
52970,0.324707,-0.493652,0.699219,0
52990,0.3125,-0.485352,0.707031,0
53010,0.313477,-0.490234,0.692871,0
53030,0.333984,-0.48291,0.689941,0
53050,0.335938,-0.473633,0.687988,0
53070,0.326172,-0.480957,0.685547,0
53090,0.335449,-0.496582,0.697266,0
53110,0.330566,-0.487793,0.69043,0
53130,0.311523,-0.489746,0.679199,0
53150,0.322266,-0.487305,0.686035,0
53170,0.347168,-0.48584,0.699219,0
53170,0.350586,-0.489258,0.705078,0
53190,0.344238,-0.496582,0.70166,0
53210,0.356445,-0.483887,0.718262,0
53230,0.491699,-0.530762,0.737793,0
53270,0.426758,-0.574707,0.970215,0
53290,0.360352,-0.42334,0.405273,0
53290,0.249023,-0.458496,0.647461,0
53330,0.37207,-0.499023,0.693359,0
53350,0.35498,-0.481445,0.725098,0
53370,0.345703,-0.481934,0.70166,0
53390,0.350586,-0.505371,0.693359,0
53410,0.35498,-0.493164,0.695801,0
53430,0.339844,-0.484375,0.684082,0
53450,0.335449,-0.487305,0.675781,0
53470,0.338379,-0.494141,0.675293,0
53490,0.337402,-0.493164,0.695801,2000
53510,0.34082,-0.499512,0.694336,0
53530,0.333984,-0.496094,0.687988,0
53550,0.335938,-0.480469,0.687988,0
53570,0.338379,-0.498047,0.705078,0
53590,0.348145,-0.519043,0.678223,0
53610,0.351074,-0.494629,0.688965,0
53630,0.352051,-0.498047,0.697266,0
53650,0.349609,-0.501953,0.693359,0
53670,0.345215,-0.502441,0.684082,0
53690,0.370605,-0.503418,0.681152,0
53710,0.365234,-0.497559,0.678711,0
53730,0.346191,-0.493164,0.680664,0
53750,0.358398,-0.484375,0.690918,0
53770,0.365234,-0.500488,0.684082,0
53790,0.36084,-0.498535,0.68457,0
53810,0.351562,-0.484375,0.68457,0
53830,0.346191,-0.494629,0.694336,0
53850,0.351074,-0.5,0.692871,0
53870,0.354492,-0.51709,0.685547,0
53890,0.358398,-0.497559,0.692871,0
53910,0.336426,-0.479004,0.679199,0
53930,0.34082,-0.48877,0.691406,0
53950,0.360352,-0.499512,0.694336,0
53970,0.356934,-0.504883,0.687988,0
53990,0.351074,-0.494629,0.677734,0
54010,0.354004,-0.493164,0.695312,0
54030,0.350586,-0.492676,0.69873,0
54050,0.34668,-0.494629,0.693848,0
54070,0.370117,-0.504883,0.689941,0
54090,0.373535,-0.489746,0.690918,0
54110,0.358887,-0.492676,0.694824,0
54130,0.354492,-0.494629,0.692871,0
54150,0.352539,-0.489746,0.694336,0
54170,0.349121,-0.485352,0.688965,0
54190,0.347168,-0.483887,0.696289,0
54210,0.34668,-0.492188,0.692383,0
54230,0.346191,-0.498535,0.694336,0
54250,0.338379,-0.489746,0.687988,0
54270,0.353027,-0.48584,0.696289,0
54290,0.371582,-0.495117,0.699219,0
54310,0.361328,-0.485352,0.694824,0
54320,0.350098,-0.470215,0.697266,0
54340,0.364746,-0.484863,0.700195,0
54360,0.387207,-0.496582,0.689941,0
54380,0.375,-0.483887,0.690918,0
54400,0.36084,-0.492188,0.692383,0
54420,0.384766,-0.496582,0.693359,0
54440,0.380371,-0.496582,0.692871,0
54460,0.359375,-0.477539,0.687988,0
54480,0.35498,-0.492676,0.681152,0
54500,0.376953,-0.501465,0.690918,0
54520,0.355469,-0.489258,0.683594,0
54540,0.32959,-0.48291,0.679199,0
54560,0.344238,-0.489746,0.681152,0
54580,0.369629,-0.496582,0.688477,0
54600,0.355957,-0.491699,0.685059,0
54620,0.34082,-0.487305,0.683105,0
54640,0.36377,-0.494141,0.686523,0
54660,0.364258,-0.496094,0.693848,0
54680,0.348633,-0.49707,0.687012,0
54700,0.362305,-0.495117,0.686035,0
54720,0.393066,-0.498047,0.68457,0
54740,0.386719,-0.493164,0.683594,0
54760,0.364746,-0.487793,0.680664,0
54780,0.359863,-0.497559,0.679199,0
54800,0.377441,-0.507812,0.684082,0
54820,0.393555,-0.510742,0.682617,0
54840,0.372559,-0.489258,0.685059,0
54860,0.358887,-0.494629,0.683594,0
54880,0.363281,-0.505371,0.687012,0
54900,0.374512,-0.500488,0.685059,0
54920,0.37207,-0.496094,0.675781,0
54940,0.35498,-0.48584,0.675781,0
54960,0.353027,-0.484375,0.676758,0
54980,0.35791,-0.49707,0.680664,0
55000,0.363281,-0.490723,0.683594,0
55020,0.370605,-0.491211,0.675293,0
55040,0.375488,-0.496582,0.680176,0
55060,0.380371,-0.504883,0.678711,0
55080,0.366211,-0.501953,0.680664,0
55100,0.365234,-0.499023,0.680664,0
55120,0.37793,-0.500488,0.680664,0
55140,0.374512,-0.500488,0.678711,0
55160,0.366211,-0.48584,0.678223,0
55180,0.369141,-0.482422,0.672852,0
55200,0.376465,-0.484375,0.679199,0
55220,0.376465,-0.501465,0.671875,0
55240,0.385254,-0.492188,0.67334,0
55260,0.382812,-0.494141,0.679688,0
55280,0.37793,-0.485352,0.690918,0
55300,0.378906,-0.487793,0.680176,0
55320,0.395508,-0.495605,0.67334,0
55340,0.393066,-0.48877,0.666504,0
55360,0.375977,-0.483887,0.677246,0
55380,0.380859,-0.470215,0.686035,0
55400,0.400879,-0.489746,0.673828,0
55420,0.393555,-0.487305,0.678223,0
55440,0.377441,-0.473633,0.671875,0
55460,0.374023,-0.476562,0.66748,0
55480,0.37793,-0.48584,0.666992,0
55500,0.39502,-0.504883,0.666504,0
55520,0.397949,-0.500977,0.67627,0
55540,0.385742,-0.489258,0.679688,0
55560,0.377441,-0.479492,0.684082,0
55580,0.396973,-0.492188,0.678223,0
55600,0.407715,-0.495117,0.679688,0
55620,0.382812,-0.48291,0.680664,0
55640,0.37207,-0.479492,0.679688,0
55660,0.401855,-0.490723,0.669922,0
55680,0.419434,-0.487305,0.666016,0
55700,0.396484,-0.471191,0.678223,0
55720,0.381836,-0.477051,0.670898,0
55740,0.393066,-0.47998,0.669922,0
55760,0.420898,-0.480469,0.669922,0
55780,0.414551,-0.468262,0.666504,0
55800,0.406738,-0.46875,0.669922,0
55820,0.412598,-0.479492,0.666016,0
55840,0.411621,-0.487305,0.672852,0
55860,0.397461,-0.46582,0.666504,0
55880,0.411133,-0.472656,0.65918,0
55900,0.425293,-0.481445,0.662598,0
55920,0.404785,-0.471191,0.681641,0
55940,0.394043,-0.474609,0.678711,0
55960,0.38916,-0.464844,0.680176,0
55980,0.404785,-0.46875,0.672852,0
56000,0.422363,-0.46875,0.6875,0
56020,0.402832,-0.462402,0.69043,0
56040,0.373047,-0.461914,0.678223,0
56060,0.391113,-0.462402,0.682617,0
56080,0.406738,-0.462891,0.680664,0
56100,0.394531,-0.452637,0.681641,0
56120,0.38623,-0.452148,0.676758,0
56140,0.400879,-0.461914,0.678711,0
56160,0.427734,-0.455566,0.687012,0
56180,0.418457,-0.452637,0.681641,0
56200,0.400879,-0.454102,0.68457,0
56220,0.413574,-0.463379,0.677734,0
56240,0.435547,-0.46582,0.685547,0
56260,0.429688,-0.459961,0.681641,0
56280,0.400391,-0.446289,0.688965,0
56300,0.396484,-0.445312,0.692871,0
56320,0.426758,-0.443359,0.686523,0
56340,0.438965,-0.437988,0.690918,0
56360,0.429199,-0.431641,0.682129,0
56380,0.414551,-0.439941,0.67334,0
56400,0.429199,-0.446289,0.682129,0
56420,0.422852,-0.433105,0.692383,0
56440,0.425781,-0.425781,0.690918,0
56460,0.434082,-0.434082,0.672363,0
56480,0.430176,-0.439941,0.683594,0
56500,0.41748,-0.428711,0.690918,0
56520,0.433105,-0.426758,0.678711,0
56540,0.461914,-0.424805,0.681641,0
56560,0.44043,-0.418457,0.677246,0
56580,0.436523,-0.42041,0.6875,0
56600,0.438965,-0.424805,0.679688,0
56620,0.428711,-0.406738,0.686523,0
56640,0.437988,-0.405762,0.689941,0
56660,0.456543,-0.44043,0.69043,0
56680,0.461426,-0.434082,0.694824,0
56700,0.445312,-0.418457,0.692871,0
56720,0.448242,-0.418945,0.689453,0
56740,0.453613,-0.416016,0.692383,0
56760,0.441406,-0.408691,0.690918,0
56780,0.439941,-0.401367,0.691406,0
56800,0.44043,-0.396973,0.691895,0
56820,0.416016,-0.388184,0.685059,0
56840,0.439941,-0.392578,0.69043,0
56860,0.45752,-0.402344,0.686523,0
56880,0.436523,-0.397461,0.700195,0
56900,0.411621,-0.38916,0.6875,0
56910,0.461426,-0.400391,0.684082,0
56930,0.498535,-0.418457,0.678711,0
56950,0.491211,-0.424316,0.689941,0
56970,0.459961,-0.405762,0.686523,0
56990,0.466309,-0.407227,0.687012,0
57010,0.487305,-0.396973,0.686523,0
57030,0.494141,-0.399902,0.684082,0
57050,0.488281,-0.38916,0.687988,0
57070,0.465332,-0.383789,0.678223,0
57090,0.480957,-0.381836,0.680664,0
57110,0.493164,-0.380371,0.672363,0
57130,0.497559,-0.377441,0.665039,0
57150,0.480957,-0.375488,0.670898,0
57170,0.461914,-0.370605,0.671387,0
57190,0.465332,-0.373047,0.67627,0
57210,0.472168,-0.365234,0.659668,0
57230,0.496094,-0.381348,0.668457,0
57250,0.493652,-0.369629,0.682129,0
57270,0.478027,-0.371094,0.685547,0
57290,0.483887,-0.375488,0.675781,0
57310,0.492188,-0.362305,0.678223,0
57330,0.487305,-0.360352,0.683105,0
57350,0.489258,-0.36377,0.683594,0
57370,0.486328,-0.358887,0.67627,0
57390,0.497559,-0.356934,0.675293,0
57410,0.506836,-0.360352,0.669922,0
57430,0.520508,-0.353516,0.672852,0
57450,0.520996,-0.351074,0.67041,0
57470,0.529785,-0.355957,0.67041,0
57490,0.520508,-0.352051,0.669434,0
57510,0.516113,-0.353516,0.664551,0
57530,0.522461,-0.344238,0.663086,0
57550,0.541992,-0.347656,0.662598,0
57570,0.530273,-0.353516,0.666504,0
57590,0.527344,-0.337891,0.657227,0
57610,0.540527,-0.346191,0.662109,0
57630,0.536133,-0.34375,0.666992,0
57650,0.535645,-0.327637,0.665527,0
57670,0.537109,-0.32959,0.662598,0
57690,0.51709,-0.326172,0.660156,0
57710,0.514648,-0.327637,0.671387,0
57730,0.531738,-0.32373,0.666992,0
57750,0.532715,-0.330566,0.654297,0
57770,0.526855,-0.321777,0.658203,0
57790,0.54248,-0.313965,0.667969,0
57810,0.54541,-0.322266,0.660645,0
57830,0.542969,-0.32959,0.664551,0
57850,0.54248,-0.319824,0.662109,0
57870,0.552734,-0.320312,0.661621,0
57890,0.564941,-0.317871,0.654297,0
57910,0.57666,-0.318848,0.661133,0
57930,0.567383,-0.311523,0.666504,0
57950,0.569336,-0.321777,0.643555,0
57970,0.572754,-0.312988,0.647949,0
57990,0.592773,-0.313965,0.65332,0
58010,0.576172,-0.3125,0.649414,0
58030,0.579102,-0.306152,0.653809,0
58050,0.580078,-0.306641,0.646484,0
58070,0.583496,-0.303223,0.648926,0
58090,0.570801,-0.300781,0.643555,0
58110,0.554199,-0.288574,0.647949,0
58130,0.557617,-0.282227,0.646484,0
58150,0.577637,-0.274414,0.648438,0
58170,0.57373,-0.274414,0.643555,0
58190,0.56543,-0.277832,0.643555,0
58210,0.555176,-0.275879,0.65918,0
58230,0.556152,-0.283203,0.65625,0
58250,0.591309,-0.282227,0.665039,0
58270,0.62207,-0.269531,0.663574,0
58290,0.608398,-0.270508,0.662598,0
58310,0.579102,-0.265137,0.654297,0
58330,0.555664,-0.28125,0.635742,0
58350,0.578613,-0.27832,0.654297,0
58370,0.629883,-0.236816,0.673828,0
58390,0.580078,-0.241699,0.660645,0
58410,0.544434,-0.241211,0.645996,0
58430,0.525879,-0.259277,0.648438,0
58450,0.515137,-0.266602,0.650391,0
58470,0.542969,-0.28418,0.65625,0
58490,0.563965,-0.277344,0.678711,0
58510,0.549805,-0.275391,0.686035,0
58530,0.540039,-0.269043,0.692383,0
58550,0.559082,-0.262695,0.682617,0
58570,0.54834,-0.269043,0.67334,0
58580,0.5625,-0.259277,0.69043,0
58600,0.574707,-0.25,0.705566,0
58620,0.547363,-0.248535,0.686523,0
58640,0.539551,-0.251953,0.680176,0
58660,0.555176,-0.243652,0.706543,0
58700,0.557129,-0.241211,0.686035,0
58720,0.548828,-0.248535,0.676758,0
58740,0.532715,-0.233887,0.69043,0
58760,0.518066,-0.22998,0.686523,0
58780,0.534668,-0.220703,0.691895,0
58800,0.54248,-0.228027,0.681641,0
58820,0.550293,-0.213379,0.687012,0
58840,0.536133,-0.212891,0.689453,0
58860,0.53418,-0.227051,0.691406,0
58880,0.537598,-0.226562,0.698242,0
58900,0.532227,-0.238281,0.705078,0
58920,0.543457,-0.242676,0.716309,0
58940,0.554688,-0.240723,0.706543,0
58960,0.558105,-0.247559,0.700195,0
58980,0.552246,-0.23584,0.70752,0
59000,0.56543,-0.228516,0.695312,0
59020,0.564453,-0.230469,0.691406,0
59040,0.539062,-0.221191,0.691406,0
59060,0.524902,-0.222168,0.681641,0
59080,0.539551,-0.227051,0.696289,0
59100,0.534668,-0.223633,0.69873,0
59120,0.519043,-0.212891,0.693359,0
59140,0.534668,-0.201172,0.70459,0
59160,0.539551,-0.20459,0.706055,0
59180,0.533691,-0.196777,0.700195,0
59200,0.516602,-0.199707,0.704102,0
59220,0.526855,-0.214355,0.712402,0
59240,0.519531,-0.225586,0.716309,0
59260,0.508789,-0.223145,0.710449,0
59280,0.521973,-0.209473,0.716309,0
59300,0.532227,-0.214355,0.727051,0
59320,0.535645,-0.216797,0.723145,0
59340,0.526367,-0.223633,0.71875,0
59360,0.522949,-0.229004,0.719238,0
59380,0.520996,-0.225586,0.714355,0
59400,0.512695,-0.210449,0.72998,0
59420,0.507812,-0.206543,0.723633,0
59440,0.508301,-0.228027,0.72168,0
59460,0.510254,-0.220703,0.721191,0
59480,0.511719,-0.22168,0.723145,0
59500,0.500977,-0.21582,0.717773,0
59510,0.503418,-0.216309,0.716309,0
59530,0.501953,-0.214844,0.71875,0
59550,0.510254,-0.21582,0.726562,0
59570,0.508789,-0.216797,0.726074,0
59590,0.505371,-0.20459,0.727539,0
59610,0.505371,-0.208008,0.720215,0
59630,0.509766,-0.236816,0.70752,0
59650,0.50293,-0.226074,0.716309,0
59670,0.481445,-0.210938,0.712891,0
59670,0.486328,-0.212891,0.728027,0
59690,0.498535,-0.219727,0.728027,0
59710,0.499023,-0.223633,0.734375,0
59730,0.479492,-0.227539,0.726074,0
59750,0.47998,-0.224121,0.727539,0
59770,0.499023,-0.217285,0.730957,0
59790,0.495117,-0.23291,0.736328,0
59810,0.481445,-0.231934,0.731934,0
59830,0.485352,-0.249023,0.733398,0
59850,0.502441,-0.241699,0.727051,0
59870,0.493652,-0.230469,0.740723,0
59890,0.485352,-0.231445,0.741699,0
59910,0.492676,-0.236816,0.741211,0
59930,0.501953,-0.247559,0.729004,0
59950,0.508301,-0.254883,0.729492,0
59970,0.487305,-0.239746,0.733887,0
59990,0.478516,-0.242676,0.717285,0
60010,0.479004,-0.234375,0.716797,0
60030,0.487793,-0.242676,0.721191,0
60050,0.486816,-0.256836,0.71582,0
60070,0.464355,-0.250977,0.719727,0
60090,0.46875,-0.245605,0.727051,0
60110,0.494629,-0.251465,0.72168,0
60130,0.478027,-0.245117,0.733887,0
60150,0.454102,-0.245605,0.73584,0
60170,0.472656,-0.259277,0.736328,0
60190,0.47998,-0.260742,0.727051,0
60210,0.482422,-0.260742,0.736328,0
60230,0.466797,-0.268555,0.724121,0
60250,0.460938,-0.26709,0.729004,0
60270,0.469238,-0.250488,0.752441,0
60290,0.465332,-0.250977,0.730957,0
60310,0.45459,-0.259277,0.724121,0
60330,0.443848,-0.253418,0.741699,0
60350,0.421875,-0.253906,0.727051,0
60370,0.430176,-0.268066,0.716309,0
60390,0.46875,-0.289551,0.730957,0
60410,0.477539,-0.286621,0.744141,0
60430,0.452148,-0.288574,0.740723,0
60450,0.466797,-0.28418,0.753906,0
60470,0.467285,-0.279785,0.753418,0
60490,0.453125,-0.290527,0.74707,0
60510,0.4375,-0.285645,0.750977,0
60530,0.42627,-0.287109,0.749023,0
60550,0.436523,-0.278809,0.746582,0
60570,0.450684,-0.288086,0.732422,0
60590,0.44043,-0.28418,0.73584,0
60610,0.425781,-0.273926,0.748535,0
60630,0.451172,-0.268066,0.743164,0
60650,0.450195,-0.281738,0.74707,0
60670,0.432617,-0.28418,0.748535,0
60690,0.435547,-0.277832,0.750488,0
60710,0.452637,-0.287598,0.757324,0
60730,0.444336,-0.284668,0.75293,0
60750,0.432129,-0.274902,0.749512,0
60770,0.433594,-0.290527,0.75293,0
60790,0.447754,-0.307129,0.741699,0
60810,0.441406,-0.304199,0.739746,0
60830,0.430176,-0.286621,0.747559,0
60850,0.418457,-0.292969,0.737793,0
60870,0.416992,-0.288086,0.760742,0
60890,0.416992,-0.282715,0.751953,0
60910,0.408691,-0.293945,0.748047,0
60930,0.413574,-0.285156,0.752441,0
60950,0.40625,-0.281738,0.747559,0
60970,0.40625,-0.285156,0.748047,0
60990,0.40332,-0.294434,0.755371,0
61010,0.404785,-0.300781,0.757812,0
61030,0.395996,-0.292969,0.766113,0
61050,0.39209,-0.291992,0.765625,0
61070,0.396973,-0.290527,0.769531,0
61090,0.39502,-0.304199,0.760254,0
61110,0.390625,-0.302246,0.762695,0
61130,0.391113,-0.303223,0.765137,0
61150,0.409668,-0.305664,0.768555,0
61170,0.403809,-0.313477,0.757812,0
61190,0.39502,-0.303711,0.769531,0
61210,0.401855,-0.291992,0.773438,0
61230,0.40332,-0.300293,0.757812,0
61250,0.40332,-0.312988,0.757324,0
61270,0.404297,-0.311035,0.758789,0
61290,0.410156,-0.306152,0.758789,0
61310,0.411621,-0.287109,0.770996,0
61330,0.391113,-0.296875,0.765137,0
61350,0.383789,-0.313965,0.747559,0
61370,0.408691,-0.311523,0.757324,0
61390,0.419434,-0.309082,0.767578,0
61410,0.39502,-0.312012,0.759277,0
61430,0.369141,-0.322266,0.751465,0
61450,0.384277,-0.318359,0.770996,0
61470,0.396484,-0.325195,0.76416,0
61490,0.388672,-0.328125,0.763672,0
61510,0.374023,-0.328613,0.763184,0
61530,0.369141,-0.313477,0.772949,0
61550,0.365234,-0.315918,0.751953,0
61570,0.370117,-0.338379,0.747559,0
61590,0.379883,-0.331055,0.768555,0
61610,0.379883,-0.314941,0.771973,0
61630,0.348145,-0.327148,0.755371,0
61650,0.369629,-0.34082,0.745605,0
61670,0.398926,-0.347656,0.760742,0
61690,0.379883,-0.338867,0.76123,0
61710,0.366699,-0.341309,0.749512,0
61730,0.369141,-0.34375,0.760742,0
61750,0.373047,-0.342285,0.748047,0
61770,0.362305,-0.333008,0.746094,0
61790,0.360352,-0.327148,0.764648,0
61810,0.367676,-0.323242,0.772461,0
61830,0.372559,-0.334473,0.759277,0
61850,0.370117,-0.348145,0.750488,0
61870,0.394531,-0.345703,0.76123,0
61890,0.394043,-0.331543,0.76709,0
61910,0.367676,-0.349609,0.747559,0
61930,0.370605,-0.367188,0.742676,0
61950,0.412109,-0.357422,0.758789,0
61970,0.385742,-0.35498,0.759277,0
61990,0.346191,-0.352539,0.751465,0
62010,0.364746,-0.343262,0.757324,0
62030,0.379883,-0.343262,0.760742,0
62050,0.379395,-0.356445,0.757324,0
62070,0.362305,-0.36377,0.753906,0
62090,0.367188,-0.358887,0.768066,0
62100,0.374512,-0.364746,0.767578,0
62120,0.368652,-0.362305,0.762207,0
62140,0.350098,-0.375,0.739746,0
62160,0.352539,-0.366211,0.74707,0
62180,0.348633,-0.374023,0.759277,0
62200,0.336914,-0.36377,0.762207,0
62220,0.316895,-0.367188,0.74707,0
62240,0.32666,-0.370117,0.747559,0
62260,0.351562,-0.377441,0.73877,0
62280,0.343262,-0.383789,0.745117,0
62300,0.368164,-0.39209,0.742188,0
62320,0.386719,-0.38916,0.742188,0
62340,0.361328,-0.379883,0.746582,0
62360,0.352051,-0.364258,0.744141,0
62380,0.367676,-0.373535,0.742188,0
62400,0.369141,-0.373047,0.749512,0
62420,0.349121,-0.367188,0.736328,0
62440,0.361328,-0.374023,0.74707,0
62460,0.396973,-0.380859,0.762207,0
62480,0.382812,-0.385254,0.751465,0
62500,0.344727,-0.39502,0.727539,0
62520,0.354492,-0.381836,0.740723,0
62540,0.359863,-0.374512,0.753906,0
62560,0.347168,-0.366211,0.747559,0
62580,0.338379,-0.382812,0.732422,0
62600,0.328613,-0.38916,0.733887,0
62620,0.34082,-0.393066,0.749023,0
62640,0.356445,-0.419434,0.725098,0
62660,0.403809,-0.416992,0.753418,0
62680,0.38916,-0.404785,0.750488,0
62700,0.34375,-0.400391,0.736328,0
62720,0.338867,-0.392578,0.75,0
62740,0.371582,-0.38916,0.744629,0
62760,0.372559,-0.386719,0.740234,0
62780,0.350098,-0.396484,0.729492,0
62800,0.355957,-0.403809,0.739258,0
62820,0.37207,-0.422363,0.731934,0
62840,0.355957,-0.414551,0.726562,0
62860,0.351074,-0.399414,0.733887,0
62880,0.38623,-0.390625,0.756836,0
62900,0.391602,-0.406738,0.746094,0
62920,0.354492,-0.405273,0.728027,0
62940,0.353027,-0.397949,0.722168,0
62960,0.373535,-0.391602,0.728027,0
62980,0.356934,-0.404297,0.728027,0
63000,0.322266,-0.396973,0.72998,0
63020,0.341797,-0.400391,0.725586,0
63040,0.391602,-0.408203,0.734375,0
63060,0.370605,-0.410156,0.733398,0
63080,0.320801,-0.407227,0.724609,0
63100,0.333008,-0.40918,0.739258,0
63120,0.370605,-0.417969,0.739258,0
63140,0.371094,-0.404785,0.744141,0
63160,0.354492,-0.401855,0.741211,0
63180,0.35791,-0.402344,0.743652,0
63200,0.369629,-0.416016,0.743652,0
63220,0.370117,-0.429199,0.729492,0
63240,0.370117,-0.416504,0.742188,0
63260,0.376465,-0.40918,0.741699,0
63280,0.381836,-0.414551,0.731934,0
63300,0.361328,-0.419434,0.714355,0
63320,0.365723,-0.425781,0.713867,0
63340,0.400391,-0.422852,0.748535,0
63360,0.40332,-0.427734,0.739258,0
63380,0.370605,-0.409668,0.717285,0
63400,0.358398,-0.414062,0.710938,0
63420,0.370117,-0.419922,0.729004,0
63440,0.336426,-0.426758,0.711426,0
63450,0.314453,-0.42334,0.711426,0
63470,0.360352,-0.429688,0.713379,0
63490,0.399902,-0.433105,0.713379,0
63510,0.361816,-0.428711,0.713867,0
63530,0.333496,-0.432617,0.714355,0
63550,0.359375,-0.437012,0.723633,0
63570,0.392578,-0.449219,0.716797,0
63590,0.376953,-0.437988,0.718262,0
63610,0.365723,-0.43457,0.722168,0
63630,0.373047,-0.441406,0.719238,0
63650,0.37207,-0.458008,0.718262,0
63670,0.36377,-0.450195,0.722656,0
63690,0.353027,-0.441895,0.714355,0
63710,0.354004,-0.434082,0.708496,0
63730,0.364746,-0.449707,0.710938,0
63750,0.362305,-0.444336,0.709961,0
63770,0.345703,-0.449219,0.697754,0
63790,0.351562,-0.44873,0.708984,0
63810,0.364746,-0.442383,0.717285,0
63830,0.348633,-0.452637,0.692871,0
63850,0.360352,-0.462402,0.69873,0
63870,0.388672,-0.469238,0.708008,0
63890,0.386719,-0.469727,0.705078,0
63910,0.362793,-0.461426,0.691406,0
63930,0.355469,-0.458496,0.694824,0
63950,0.354492,-0.459473,0.703125,0
63970,0.36377,-0.470215,0.699219,0
63990,0.384277,-0.458008,0.699219,0
64010,0.364746,-0.467285,0.687988,0
64030,0.355469,-0.456543,0.697266,0
64050,0.375488,-0.458008,0.705566,0
64070,0.391602,-0.468262,0.703613,0
64090,0.379883,-0.467285,0.695801,0
64110,0.363281,-0.472168,0.688965,0
64130,0.379395,-0.469238,0.697754,0
64150,0.374023,-0.462891,0.710449,0
64170,0.368164,-0.462891,0.700195,0
64190,0.369629,-0.461426,0.694336,0
64210,0.364746,-0.46875,0.695801,0
64230,0.374512,-0.476562,0.686523,0
64250,0.382812,-0.478027,0.69043,0
64270,0.366211,-0.478027,0.688477,0
64290,0.375488,-0.469238,0.695312,0
64310,0.392578,-0.470215,0.694824,0
64330,0.39502,-0.465332,0.683594,0
64350,0.375977,-0.478027,0.674316,0
64370,0.373047,-0.462402,0.694824,0
64390,0.38623,-0.467773,0.687988,0
64410,0.387207,-0.476562,0.68457,0
64430,0.375,-0.46582,0.67627,0
64450,0.371094,-0.469238,0.678711,0
64470,0.375977,-0.485352,0.668457,0
64490,0.39209,-0.48291,0.69043,0
64510,0.387207,-0.482422,0.686035,0
64530,0.389648,-0.47998,0.684082,0
64550,0.382324,-0.478516,0.693359,0
64570,0.378906,-0.485352,0.68457,0
64590,0.383789,-0.489746,0.688477,0
64610,0.387695,-0.48584,0.687012,0
64630,0.379883,-0.470215,0.676758,0
64650,0.38623,-0.475586,0.689941,0
64670,0.397949,-0.483398,0.680664,0
64690,0.388184,-0.488281,0.678223,0
64700,0.385742,-0.487793,0.678223,0
64720,0.398926,-0.48877,0.688477,0
64740,0.394531,-0.496094,0.680664,0
64760,0.370117,-0.476562,0.670898,0
64780,0.376465,-0.478516,0.669922,0
64800,0.390137,-0.479492,0.671387,0
64820,0.396484,-0.483398,0.681641,0
64840,0.384277,-0.477539,0.67041,0
64860,0.396973,-0.48291,0.671875,0
64880,0.415527,-0.48877,0.678223,0
64900,0.397949,-0.483398,0.675781,0
64920,0.384277,-0.486816,0.666016,0
64940,0.394043,-0.492676,0.668945,0
64960,0.403809,-0.490234,0.671875,0
64980,0.394043,-0.495605,0.67627,0
65000,0.393066,-0.481934,0.664062,0
65020,0.408203,-0.482422,0.66748,0
65040,0.414062,-0.486328,0.664551,0
65060,0.410156,-0.497559,0.670898,0
65080,0.417969,-0.486816,0.678711,0
65100,0.426758,-0.475586,0.668457,0
65120,0.408691,-0.48291,0.657715,0
65140,0.394043,-0.474121,0.652832,0
65160,0.412109,-0.483398,0.662598,0
65180,0.441406,-0.494629,0.657227,0
65200,0.441406,-0.48877,0.654297,0
65220,0.430664,-0.490234,0.655273,0
65240,0.448242,-0.480469,0.663574,0
65260,0.448242,-0.489746,0.661621,0
65280,0.436523,-0.483887,0.651855,0
65300,0.446289,-0.479004,0.656738,0
65320,0.454102,-0.470703,0.659668,0
65340,0.429688,-0.475098,0.64502,0
65360,0.431152,-0.483398,0.638672,0
65380,0.447266,-0.487793,0.651855,0
65400,0.449707,-0.47168,0.653809,0
65420,0.432129,-0.474609,0.638672,0
65440,0.433105,-0.471191,0.634277,0
65460,0.446777,-0.48584,0.640625,0
65480,0.442383,-0.48584,0.64209,0
65500,0.427734,-0.48877,0.623047,0
65520,0.424805,-0.48291,0.627441,0
65540,0.425293,-0.475098,0.632812,0
65560,0.4375,-0.493652,0.641113,0
65580,0.45752,-0.498047,0.636719,0
65600,0.44873,-0.482422,0.63916,0
65620,0.4375,-0.481934,0.632812,0
65640,0.448242,-0.496094,0.629883,0
65660,0.451172,-0.491699,0.637207,0
65680,0.450684,-0.487793,0.633301,0
65700,0.450684,-0.489258,0.626953,0
65720,0.447266,-0.484863,0.625977,0
65740,0.465332,-0.492676,0.628418,0
65760,0.470215,-0.489258,0.633789,0
65780,0.462402,-0.48584,0.625488,0
65800,0.453613,-0.484375,0.618164,0
65820,0.458984,-0.495605,0.639648,0
65840,0.481934,-0.490723,0.641113,0
65860,0.483887,-0.477051,0.632324,0
65880,0.481445,-0.47168,0.624512,0
65900,0.462891,-0.484863,0.607422,0
65920,0.458008,-0.505859,0.626465,0
65940,0.462402,-0.504883,0.625488,0
65960,0.461914,-0.481934,0.625488,0
65980,0.458496,-0.476074,0.625488,0
66000,0.462891,-0.48291,0.62793,0
66020,0.466797,-0.490234,0.625977,0
66040,0.470703,-0.492188,0.627441,0
66060,0.483887,-0.478516,0.633301,0
66080,0.486328,-0.478027,0.619629,0
66100,0.484863,-0.492676,0.621094,0
66120,0.483887,-0.486816,0.620117,0
66140,0.471191,-0.490723,0.620605,0
66160,0.487305,-0.48877,0.608887,0
66180,0.496582,-0.490234,0.618164,0
66200,0.496094,-0.481445,0.624512,0
66220,0.496582,-0.494629,0.618652,0
66240,0.48291,-0.483887,0.609375,0
66260,0.483887,-0.479492,0.607422,0
66280,0.486816,-0.488281,0.616699,0
66300,0.494141,-0.489746,0.614746,0
66320,0.489258,-0.48877,0.610352,0
66340,0.492188,-0.491211,0.606445,0
66360,0.493164,-0.485352,0.611328,0
66380,0.493164,-0.495605,0.606934,0
66400,0.491699,-0.496582,0.597168,0
66420,0.47998,-0.504395,0.594727,0
66440,0.486328,-0.497559,0.612305,0
66460,0.498535,-0.493652,0.619141,0
