Timestamp, Acceleration x, Acceleration y, Acceleration z, Marker
40,0.55127,0.762695,0.160645,0
60,0.547852,0.76123,0.166016,0
80,0.545898,0.767578,0.16748,0
100,0.551758,0.769531,0.166504,0
120,0.552734,0.773926,0.172363,0
140,0.55127,0.769531,0.172852,0
160,0.547363,0.76709,0.167969,0
170,0.545898,0.765137,0.165527,0
170,0.544434,0.766113,0.16748,0
220,0.538086,0.763672,0.157227,0
240,0.54541,0.771973,0.165527,0
260,0.536133,0.755371,0.147949,0
280,0.522461,0.755859,0.149414,0
300,0.538574,0.76709,0.150391,0
320,0.546387,0.775879,0.152832,0
340,0.538574,0.781738,0.15332,0
360,0.540527,0.79834,0.164551,0
380,0.551758,0.827148,0.15918,0
400,0.559082,0.816895,0.140625,0
420,0.570801,0.805664,0.124512,0
440,0.592773,0.804199,0.104492,0
460,0.593262,0.806152,0.081543,0
480,0.612793,0.799316,0.0556641,0
500,0.627441,0.799316,0.0512695,0
520,0.607422,0.725098,0.0703125,0
540,0.607422,0.70459,-0.00341797,0
560,0.58252,0.811523,-0.0942383,0
580,0.554688,0.832031,-0.106445,0
600,0.47168,0.76709,-0.0424805,0
620,0.584961,0.88623,-0.169922,0
640,0.552734,0.807617,-0.248047,0
660,0.59375,0.628906,-0.338867,0
680,0.771484,0.446289,-0.42334,0
700,0.453125,0.536621,-0.47998,0
720,0.595215,0.680664,-0.31543,0
730,0.719727,0.829102,-0.196777,0
750,0.751465,0.87793,-0.174316,0
770,0.61084,0.986816,-0.212402,0
790,0.588379,0.755371,-0.268555,0
810,0.336426,0.712402,-0.276855,0
830,0.432617,0.77002,-0.296875,0
850,0.520996,0.775391,-0.254883,0
870,0.515625,0.771484,-0.237793,0
890,0.538574,0.748535,-0.205566,0
910,0.563965,0.693848,-0.216797,0
930,0.578125,0.677246,-0.244141,0
950,0.609375,0.655273,-0.281738,0
970,0.658203,0.669922,-0.297852,0
990,0.623047,0.72168,-0.331055,0
1010,0.520508,0.854492,-0.401367,0
1030,0.491699,0.949707,-0.30127,0
1040,0.939941,1.03418,-0.314941,0
1060,0.786133,0.623535,-0.30957,0
1080,0.649902,0.714355,-0.278809,0
1100,0.476074,0.595703,-0.309082,0
1120,0.573242,0.740234,-0.269531,0
1140,0.639648,0.792969,-0.279297,0
1160,0.60791,0.797363,-0.271484,0
1180,0.693359,0.764648,-0.206543,0
1200,0.652344,0.678223,-0.272949,0
1220,0.555176,0.636719,-0.324707,0
1240,0.554688,0.670898,-0.320312,0
1260,0.570312,0.721191,-0.296387,0
1280,0.555176,0.766113,-0.338867,0
1300,0.621094,0.703613,-0.309082,0
1320,0.709473,0.614258,-0.159668,0
1340,0.503418,0.625488,-0.166992,0
1360,0.478516,0.791504,-0.180664,0
1380,0.50293,0.890625,-0.260742,0
1400,0.487793,0.768066,-0.187988,0
1420,0.563477,0.753906,-0.213379,0
1440,0.71582,0.914062,-0.353027,0
1460,0.834961,1.08594,-0.380371,0
1480,0.791992,1.0459,-0.258789,0
1500,0.683105,0.876465,-0.0869141,0
1520,0.593262,0.759766,0.193359,0
1540,0.604004,0.661621,0.439941,0
1560,0.541992,0.700684,0.476562,0
1580,0.402344,0.834473,0.523926,0
1600,0.460938,0.863281,0.504883,0
1620,0.478516,0.87207,0.460449,0
1640,0.450684,0.913086,0.454102,0
1660,0.417969,0.945801,0.531738,0
1680,0.442871,0.931152,0.563477,0
1700,0.377441,0.990723,0.44043,0
1720,0.276855,1.09424,0.342773,0
1740,0.192871,1.07422,0.319336,0
1760,0.151855,0.972168,0.327637,0
1780,0.149414,0.902344,0.274902,0
1800,0.144531,0.870605,0.233398,0
1820,0.136719,0.853027,0.133301,0
1840,0.0957031,0.851562,0.097168,0
1860,0.0410156,0.861816,0.0761719,0
1880,-0.0078125,0.875977,-0.0791016,0
1900,-0.0375977,0.911133,-0.125977,0
1920,-0.000488281,0.874512,-0.0849609,0
1940,-0.0170898,0.811035,-0.117188,0
1960,-0.00488281,0.755859,-0.130859,0
1980,0.00439453,0.724121,-0.150879,0
2000,0.0336914,0.793945,-0.20166,0
2020,0.12207,0.875488,-0.306641,0
2040,0.267578,0.947266,-0.397461,0
2060,0.341797,0.971191,-0.292969,0
2080,0.293945,0.921387,-0.150879,0
2100,0.196289,0.935547,-0.0688477,0
2120,0.110352,1.0415,0.0356445,0
2140,0.0166016,1.00488,0.00634766,0
2160,-0.00585938,1.07471,-0.00683594,0
2180,0.00878906,1.05273,-0.0498047,0
2200,0.0424805,1.10596,-0.074707,0
2220,0.0400391,0.978516,-0.277832,0
2240,0.0771484,0.941895,-0.445801,0
2260,0.0898438,1.00537,-0.352539,0
2280,0.127441,0.95166,-0.193359,0
2300,0.169922,0.970215,-0.100098,0
2320,0.074707,1.02734,-0.101562,0
2340,-0.0307617,0.979492,-0.0952148,0
2360,-0.0805664,0.961914,-0.121094,0
2380,-0.0981445,0.969238,-0.180176,0
2400,-0.0410156,0.903809,-0.195312,0
2420,-0.000488281,0.927734,-0.192383,0
2440,-0.00195312,0.920898,-0.193359,0
2460,0.00244141,0.893066,-0.153809,0
2480,0.00244141,0.866211,-0.152832,0
2500,-0.00976562,0.862305,-0.147949,0
2520,0.0078125,0.834961,-0.15625,0
2540,0.0512695,0.797852,-0.135742,0
2560,0.0893555,0.812988,-0.180176,0
2580,0.0410156,0.806152,-0.237305,0
2600,0.0820312,0.794434,-0.25,0
2620,0.115234,0.742676,-0.15332,0
2640,0.151367,0.771484,-0.0991211,0
2660,0.15918,0.821777,-0.0800781,0
2680,0.144531,0.882812,-0.0551758,0
2700,0.106934,0.933105,-0.0244141,0
2720,0.109863,0.928711,-0.03125,0
2740,0.144043,0.92041,-0.0327148,0
2760,0.174805,0.953613,0.00341797,0
2780,0.179199,1.03027,0.0678711,0
2800,0.165039,1.08154,0.125,0
2820,0.120117,1.08398,0.130859,0
2840,0.114746,1.04688,0.192871,0
2860,0.131836,1.02393,0.257324,0
2880,0.121582,1.0918,0.288086,0
2900,-0.00244141,1.00439,0.310547,0
2920,0.0258789,0.963379,0.331543,0
2940,0.287109,0.868164,0.27002,0
2960,0.490234,0.931641,0.138184,0
2980,0.361816,0.839844,0.254883,0
3000,0.342285,0.852051,0.412598,0
3020,0.488281,0.885742,0.347168,0
3040,0.561523,0.935547,0.186035,0
3060,0.807129,1.09717,0.71582,0
3080,1.11719,1.15039,1.32568,0
3100,-0.0834961,1.09521,0.349609,0
3110,-0.0800781,0.63623,-0.034668,0
3120,0.335938,0.605957,0.299805,0
3140,0.438477,0.769043,0.37207,0
3160,0.403809,0.69873,0.194336,0
3180,0.474609,0.749023,0.152344,0
3200,0.601074,0.950684,0.141113,0
3220,0.59082,0.969727,0.145508,0
3240,0.524902,0.884766,0.139648,0
3260,0.493652,0.833496,0.169434,0
3280,0.510742,0.843262,0.168945,0
3300,0.524414,0.853516,0.183105,0
3320,0.495605,0.853027,0.228027,0
3340,0.44873,0.854492,0.25293,0
3360,0.391602,0.839355,0.279785,0
3380,0.368164,0.818359,0.310547,0
3400,0.375,0.834961,0.302734,0
3420,0.38916,0.848633,0.319824,0
3440,0.394043,0.830078,0.297363,0
3460,0.405762,0.814941,0.296387,0
3480,0.453125,0.770996,0.272461,0
3500,0.532227,0.703613,0.266602,0
3520,0.60498,0.680176,0.259766,0
3540,0.592285,0.722168,0.211914,0
3560,0.516113,0.756348,0.20752,0
3580,0.481934,0.771973,0.240723,0
3600,0.472656,0.762207,0.298828,0
3620,0.452148,0.753418,0.328125,0
3640,0.416016,0.75,0.320801,0
3660,0.398926,0.754395,0.317871,0
3680,0.41748,0.77002,0.3125,0
3700,0.456055,0.775391,0.29541,0
3720,0.474609,0.785645,0.281738,0
3730,0.488281,0.825195,0.274902,0
3750,0.491699,0.847656,0.264648,0
3770,0.479004,0.822266,0.250488,0
3790,0.478516,0.800293,0.255859,0
3810,0.483887,0.781738,0.272461,0
3830,0.469727,0.785156,0.262695,0
3850,0.456055,0.777344,0.258301,0
3870,0.46875,0.768066,0.263184,0
3890,0.480957,0.760742,0.259277,0
3910,0.475098,0.75293,0.26123,0
3930,0.470215,0.748535,0.270996,0
3950,0.465332,0.737793,0.274414,0
3970,0.468262,0.752441,0.287109,0
3990,0.487305,0.770996,0.304199,0
4010,0.48584,0.790039,0.288086,0
4030,0.47168,0.801758,0.268066,0
4050,0.489746,0.793945,0.258301,0
4070,0.495117,0.783203,0.257812,0
4090,0.482422,0.780273,0.25293,0
4110,0.477051,0.788574,0.244629,0
4130,0.472656,0.786621,0.257812,0
4150,0.487305,0.786133,0.253906,0
4170,0.498047,0.772461,0.241699,0
4190,0.490723,0.76416,0.240234,0
4210,0.486816,0.756348,0.244141,0
4230,0.487793,0.750977,0.248047,0
4250,0.496582,0.772461,0.261719,0
4270,0.488281,0.773926,0.243164,0
4290,0.484375,0.76709,0.237305,0
4310,0.484863,0.773926,0.237305,0
4330,0.501953,0.774414,0.230469,0
4350,0.498047,0.782227,0.236328,0
4370,0.49707,0.786621,0.245605,0
4390,0.500977,0.774902,0.238281,0
4410,0.489258,0.77002,0.237305,0
4430,0.481934,0.779785,0.239258,0
4450,0.48291,0.77832,0.241699,0
4470,0.492188,0.762695,0.248535,0
4490,0.487305,0.756836,0.251953,0
4510,0.494141,0.769531,0.248535,0
4530,0.494141,0.778809,0.257324,0
4550,0.489746,0.792969,0.265137,0
4570,0.478516,0.794922,0.258301,0
4590,0.476074,0.777344,0.250977,0
4610,0.47998,0.765625,0.254395,0
4630,0.490234,0.766113,0.25293,0
4650,0.488281,0.777832,0.259277,0
4670,0.48291,0.792969,0.263672,0
4690,0.474609,0.796387,0.266602,0
4710,0.466309,0.793457,0.274414,0
4730,0.464844,0.780762,0.273926,0
4750,0.454102,0.774414,0.26123,0
4770,0.467285,0.771973,0.261719,0
4790,0.477539,0.768066,0.258301,0
4810,0.481934,0.780273,0.26416,0
4830,0.485352,0.776367,0.259277,0
4850,0.472168,0.782715,0.26416,0
4870,0.47168,0.80127,0.27002,0
4890,0.470215,0.811523,0.263184,0
4910,0.460449,0.801758,0.255859,0
4930,0.461426,0.810059,0.255371,0
4950,0.464355,0.821777,0.267578,0
4970,0.460449,0.81543,0.266113,0
4990,0.456543,0.800293,0.268555,0
5010,0.453125,0.797363,0.268555,0
5030,0.461914,0.788086,0.272461,0
5050,0.472168,0.775391,0.279297,0
5070,0.482422,0.77002,0.274902,0
5090,0.483887,0.768066,0.265625,0
5110,0.490234,0.757812,0.257812,0
5130,0.490234,0.74707,0.252441,0
5150,0.482422,0.751465,0.250977,0
5170,0.479004,0.766113,0.248535,0
5190,0.468262,0.761719,0.250488,0
5210,0.466309,0.764648,0.25,0
5230,0.479004,0.774414,0.252441,0
5250,0.48584,0.783691,0.287598,0
5270,0.484375,0.805176,0.293945,0
5290,0.478516,0.8125,0.290527,0
5310,0.480957,0.793945,0.295898,0
5330,0.487305,0.781738,0.29248,0
5350,0.486328,0.761719,0.276855,0
5370,0.488281,0.77002,0.279785,0
5390,0.480957,0.772949,0.274902,0
5410,0.487305,0.777832,0.294922,0
5430,0.478027,0.79248,0.304688,0
5450,0.472168,0.787109,0.289062,0
5470,0.461914,0.791504,0.275391,0
5490,0.480957,0.794434,0.253906,0
5510,0.505859,0.773926,0.23584,0
5530,0.499023,0.771973,0.234375,0
5550,0.487793,0.770508,0.221191,0
5570,0.508789,0.781738,0.237793,0
5590,0.505859,0.788574,0.231934,0
5610,0.470703,0.773438,0.226562,0
5630,0.458984,0.776367,0.234375,0
5650,0.458496,0.772461,0.222656,0
5670,0.434082,0.76123,0.22168,0
5690,0.423828,0.768555,0.246094,0
5710,0.432617,0.776367,0.263672,0
5720,0.451172,0.775879,0.264648,0
5740,0.463867,0.779297,0.255371,0
5760,0.469238,0.785645,0.257812,0
5780,0.472168,0.793457,0.249512,0
5800,0.481445,0.814453,0.25,0
5820,0.483887,0.807617,0.251465,0
5840,0.48584,0.786621,0.242188,0
5860,0.50293,0.761719,0.243164,0
5880,0.510742,0.760742,0.245605,0
5900,0.517578,0.765137,0.230957,0
5920,0.505371,0.783203,0.226074,0
5940,0.481934,0.796387,0.212891,0
5960,0.473145,0.79248,0.217773,0
5980,0.46582,0.798828,0.223633,0
6000,0.465332,0.806152,0.237305,0
6020,0.487793,0.812988,0.249023,0
6040,0.490723,0.8125,0.249023,0
6060,0.477051,0.808105,0.23584,0
6080,0.481934,0.804199,0.233398,0
6100,0.478027,0.812012,0.246094,0
6120,0.482422,0.81543,0.251953,0
6140,0.470703,0.820801,0.259766,0
6160,0.454102,0.819824,0.255859,0
6180,0.460449,0.812988,0.236328,0
6200,0.460938,0.780762,0.211426,0
6220,0.45752,0.769531,0.203613,0
6240,0.46875,0.775879,0.224121,0
6260,0.481445,0.796875,0.239258,0
6280,0.469238,0.81543,0.242676,0
6300,0.461914,0.817871,0.237305,0
6320,0.455566,0.817383,0.235352,0
6340,0.467285,0.788086,0.219727,0
6360,0.47998,0.77002,0.208008,0
6380,0.472656,0.77002,0.196777,0
6400,0.478027,0.775391,0.205078,0
6420,0.473145,0.785645,0.21582,0
6440,0.46582,0.798828,0.23291,0
6460,0.466797,0.807129,0.245117,0
6480,0.46582,0.813965,0.245117,0
6500,0.456543,0.807617,0.226074,0
6520,0.464355,0.799316,0.23291,0
6540,0.47998,0.800781,0.229004,0
6560,0.470703,0.79541,0.237305,0
6580,0.462402,0.789551,0.242676,0
6600,0.479492,0.791992,0.23877,0
6620,0.476562,0.797852,0.230957,0
6640,0.483887,0.802246,0.224121,0
6660,0.483887,0.802246,0.229004,0
6680,0.483398,0.798828,0.227539,0
6700,0.469727,0.797852,0.220703,0
6720,0.47168,0.802734,0.224121,0
6740,0.477539,0.803711,0.234863,0
6760,0.461426,0.809082,0.222168,0
6780,0.459961,0.801758,0.230469,0
6800,0.449219,0.814941,0.233887,0
6820,0.452637,0.818359,0.239746,0
6840,0.459473,0.805664,0.241211,0
6860,0.452637,0.790039,0.233398,0
6880,0.45459,0.796387,0.235352,0
6900,0.467773,0.803711,0.246582,0
6920,0.470703,0.802246,0.234375,0
6940,0.482422,0.801758,0.234863,0
6960,0.491211,0.796387,0.23291,0
6980,0.486328,0.787109,0.228516,0
7000,0.483887,0.787109,0.224121,0
7020,0.469238,0.794434,0.219238,0
7040,0.462402,0.801758,0.208984,0
7060,0.467285,0.799316,0.225098,0
7080,0.476074,0.791016,0.237793,0
7100,0.473633,0.805176,0.240234,0
7120,0.464844,0.812988,0.240234,0
7140,0.450195,0.813477,0.236328,0
7160,0.456055,0.814941,0.246582,0
7180,0.457031,0.797363,0.249512,0
7200,0.45752,0.776367,0.235352,0
7220,0.462891,0.788086,0.227539,0
7240,0.475098,0.803223,0.225098,0
7260,0.478516,0.803711,0.228027,0
7280,0.478516,0.804199,0.240234,0
7300,0.480469,0.804688,0.231934,0
7320,0.469727,0.787598,0.223633,0
7340,0.472168,0.785645,0.217285,0
7360,0.476074,0.799316,0.219238,0
7380,0.467285,0.813965,0.214355,0
7400,0.464355,0.816895,0.227051,0
7420,0.458008,0.811035,0.230957,0
7440,0.446777,0.814941,0.234375,0
7460,0.456055,0.815918,0.243652,0
7480,0.462402,0.807617,0.241699,0
7500,0.463867,0.81543,0.257324,0
7520,0.467773,0.812012,0.253906,0
7540,0.473633,0.799805,0.25,0
7560,0.481934,0.779297,0.240234,0
7580,0.486328,0.764648,0.22168,0
7600,0.496094,0.76416,0.219238,0
7620,0.491211,0.769043,0.21582,0
7640,0.478516,0.78418,0.223145,0
7660,0.474121,0.788574,0.222656,0
7680,0.47168,0.785645,0.21582,0
7700,0.463379,0.785645,0.213867,0
7720,0.46582,0.799316,0.205078,0
7740,0.450195,0.793945,0.19873,0
7760,0.441895,0.784668,0.197266,0
7780,0.440918,0.783203,0.210938,0
7800,0.461914,0.804688,0.24707,0
7820,0.472168,0.827148,0.265625,0
7840,0.459961,0.834961,0.271484,0
7860,0.463379,0.828613,0.263184,0
7880,0.469238,0.80127,0.253906,0
7900,0.46582,0.770996,0.241211,0
7920,0.456543,0.76416,0.217285,0
7940,0.455078,0.771484,0.217773,0
7960,0.467285,0.791992,0.237305,0
7980,0.467285,0.803711,0.24707,0
8000,0.450684,0.813965,0.266602,0
8020,0.443848,0.818848,0.281738,0
8040,0.444824,0.82373,0.28418,0
8060,0.427734,0.825195,0.29834,0
8080,0.42334,0.811523,0.280273,0
8100,0.416016,0.788086,0.266113,0
8120,0.410156,0.78418,0.26416,0
8140,0.431641,0.787598,0.258789,0
8160,0.444336,0.797363,0.282715,0
8180,0.44873,0.806152,0.286621,0
8200,0.445312,0.808105,0.276367,0
8220,0.437988,0.811523,0.272949,0
8240,0.445801,0.812988,0.271484,0
8260,0.452148,0.811035,0.272949,0
8280,0.439941,0.808594,0.264648,0
8300,0.441895,0.802734,0.265625,0
8320,0.445801,0.804688,0.272949,0
8340,0.446777,0.800293,0.274414,0
8350,0.433594,0.80127,0.271484,0
8370,0.430664,0.79541,0.284668,0
8390,0.435059,0.800781,0.290527,0
8410,0.436523,0.802246,0.28418,0
8430,0.433594,0.798828,0.282227,0
8450,0.437012,0.79834,0.277832,0
8470,0.439453,0.800293,0.275879,0
8490,0.44043,0.818359,0.275391,0
8510,0.432617,0.818848,0.275879,0
8530,0.431641,0.810547,0.274414,0
8540,0.4375,0.804199,0.26416,0
8560,0.452637,0.792969,0.266602,0
8580,0.453613,0.782227,0.249023,0
8600,0.442871,0.782715,0.253418,0
8620,0.436035,0.791504,0.255859,0
8640,0.435547,0.783203,0.260742,0
8660,0.424316,0.790039,0.275879,0
8680,0.423828,0.809082,0.280273,0
8700,0.435547,0.825684,0.291992,0
8720,0.415527,0.824707,0.296387,0
8740,0.421387,0.803711,0.289062,0
8760,0.421875,0.793945,0.286621,0
8780,0.437988,0.798828,0.28418,0
8800,0.436523,0.79541,0.27832,0
8820,0.429688,0.798828,0.275391,0
8840,0.431641,0.799316,0.277832,0
8860,0.429199,0.79541,0.280273,0
8880,0.439453,0.79834,0.282715,0
8900,0.445801,0.803711,0.282227,0
8920,0.442871,0.797852,0.275879,0
8940,0.43457,0.792969,0.278809,0
8960,0.434082,0.802246,0.281738,0
8980,0.431641,0.8125,0.276855,0
9000,0.433594,0.812988,0.280273,0
9020,0.425293,0.809082,0.27832,0
9040,0.406738,0.812012,0.274414,0
9060,0.424805,0.819824,0.268555,0
9080,0.435547,0.81543,0.271973,0
9100,0.41748,0.804688,0.254395,0
9120,0.428711,0.80127,0.271973,0
9130,0.440918,0.79834,0.288086,0
9150,0.448242,0.805176,0.291992,0
9170,0.431641,0.80127,0.281738,0
9190,0.433105,0.793945,0.282715,0
9210,0.44043,0.797363,0.279297,0
9230,0.439941,0.810059,0.274902,0
9250,0.433105,0.810547,0.267578,0
9270,0.4375,0.808594,0.273926,0
9290,0.425293,0.820312,0.266602,0
9310,0.436523,0.820312,0.254883,0
9330,0.424805,0.82666,0.239258,0
9350,0.436523,0.809082,0.242676,0
9370,0.443359,0.830078,0.257812,0
9390,0.431152,0.812988,0.270996,0
9410,0.411621,0.791016,0.267578,0
9430,0.404785,0.79248,0.273438,0
9450,0.422852,0.81543,0.289551,0
9470,0.441406,0.801758,0.273926,0
9490,0.442871,0.788574,0.254395,0
9510,0.439453,0.791992,0.255371,0
9530,0.430664,0.82373,0.250488,0
9550,0.427246,0.835449,0.230469,0
9570,0.442871,0.823242,0.223145,0
9590,0.441406,0.816895,0.228027,0
9610,0.443848,0.809082,0.217773,0
9630,0.447754,0.811523,0.227051,0
9650,0.441406,0.82373,0.228027,0
9670,0.433594,0.824219,0.238281,0
9690,0.429688,0.807129,0.241699,0
9710,0.428223,0.792969,0.244629,0
9730,0.431641,0.786133,0.243652,0
9750,0.450195,0.773926,0.243652,0
9770,0.465332,0.775391,0.247559,0
9790,0.47168,0.792969,0.226074,0
9810,0.458496,0.798828,0.216309,0
9830,0.444824,0.794434,0.207031,0
9850,0.448242,0.79834,0.210449,0
9870,0.46875,0.808594,0.227051,0
9890,0.453613,0.848633,0.229492,0
9910,0.4375,0.859863,0.230957,0
9930,0.44873,0.819336,0.235352,0
9950,0.459961,0.791992,0.243164,0
9970,0.454102,0.804688,0.240234,0
9990,0.447754,0.820312,0.237793,0
10010,0.447754,0.81543,0.237793,0
10030,0.445312,0.805664,0.242676,0
10050,0.438477,0.79834,0.227539,0
10070,0.445801,0.812988,0.225586,0
10090,0.452637,0.818848,0.227051,0
10110,0.45459,0.815918,0.223145,0
10130,0.453613,0.807129,0.224121,0
10150,0.462402,0.819824,0.23877,0
10170,0.458496,0.813477,0.246094,0
10190,0.451172,0.805176,0.251953,0
10210,0.447754,0.808105,0.253418,0
10230,0.447266,0.82373,0.249023,0
10250,0.439453,0.824707,0.250977,0
10270,0.441406,0.811523,0.247559,0
10290,0.448242,0.820801,0.253418,0
10310,0.443848,0.825684,0.245605,0
10330,0.445801,0.828125,0.247559,0
10350,0.449219,0.82959,0.244629,0
10370,0.453613,0.821289,0.253418,0
10390,0.453125,0.810059,0.239746,0
10410,0.453613,0.805176,0.234863,0
10430,0.460938,0.802734,0.231445,0
10450,0.458496,0.793945,0.22168,0
10470,0.455078,0.787109,0.213379,0
10490,0.463379,0.780762,0.20752,0
10510,0.464844,0.788086,0.211426,0
10530,0.464355,0.787109,0.20752,0
10550,0.462402,0.80127,0.210938,0
10570,0.459961,0.813965,0.213867,0
10590,0.459473,0.812988,0.206055,0
10610,0.45459,0.806641,0.20752,0
10630,0.458496,0.820801,0.207031,0
10650,0.463867,0.821289,0.202637,0
10670,0.453125,0.814941,0.206055,0
10690,0.45166,0.807617,0.211426,0
10710,0.455078,0.827148,0.211426,0
10730,0.445312,0.832031,0.220215,0
10750,0.45166,0.827637,0.210938,0
10770,0.462891,0.817383,0.210938,0
10790,0.458008,0.811523,0.212891,0
10810,0.456055,0.802246,0.214355,0
10830,0.454102,0.788086,0.207031,0
10850,0.453125,0.790527,0.21875,0
10870,0.458984,0.800293,0.217773,0
10890,0.453125,0.805664,0.216309,0
10910,0.45459,0.811523,0.220703,0
10930,0.456055,0.820312,0.230957,0
10950,0.452148,0.813477,0.229492,0
10970,0.442383,0.799805,0.225586,0
10990,0.442871,0.783203,0.211426,0
11010,0.441895,0.770508,0.210449,0
11030,0.452148,0.772461,0.218262,0
11050,0.449707,0.795898,0.226562,0
11070,0.443848,0.823242,0.239746,0
11090,0.433105,0.839355,0.250977,0
11110,0.4375,0.851562,0.263184,0
11130,0.439941,0.840332,0.260742,0
11140,0.443359,0.822754,0.261719,0
11160,0.452148,0.805176,0.254883,0
11180,0.452637,0.799316,0.252441,0
11200,0.447266,0.800293,0.24707,0
11220,0.44873,0.796875,0.248535,0
11240,0.436523,0.798828,0.25,0
11260,0.437012,0.807129,0.259766,0
11280,0.42627,0.81543,0.259277,0
11300,0.424805,0.813965,0.276855,0
11320,0.426758,0.823242,0.270508,0
11340,0.434082,0.819824,0.262695,0
11360,0.433594,0.8125,0.265625,0
11380,0.434082,0.79541,0.263184,0
11400,0.441406,0.799316,0.259766,0
11420,0.443359,0.80127,0.258789,0
11440,0.445801,0.804199,0.252441,0
11460,0.446289,0.804199,0.250977,0
11480,0.445312,0.805176,0.250977,0
11500,0.440918,0.810547,0.251953,0
11520,0.441406,0.813477,0.256348,0
11540,0.44043,0.82373,0.262695,0
11560,0.442871,0.812012,0.264648,0
11580,0.439453,0.797363,0.26416,0
11600,0.433105,0.803711,0.257812,0
11620,0.436035,0.799805,0.249512,0
11640,0.447266,0.808105,0.255371,0
11660,0.441406,0.822754,0.250977,0
11680,0.439941,0.80957,0.247559,0
11700,0.440918,0.802246,0.257324,0
11720,0.448242,0.803223,0.252441,0
11740,0.447266,0.81543,0.245605,0
11760,0.434082,0.817871,0.249512,0
11780,0.430176,0.804688,0.257812,0
11800,0.44043,0.794922,0.257812,0
11820,0.441406,0.808594,0.253906,0
11840,0.437012,0.817383,0.256348,0
11860,0.438477,0.804688,0.260254,0
11880,0.44873,0.800293,0.257812,0
11900,0.449707,0.796387,0.258301,0
11920,0.443848,0.799316,0.261719,0
11940,0.443848,0.80127,0.258789,0
11960,0.443848,0.802734,0.259277,0
11980,0.439941,0.792969,0.260254,0
12000,0.442871,0.79248,0.254883,0
12020,0.448242,0.80127,0.257324,0
12040,0.433594,0.815918,0.257812,0
12060,0.435547,0.806152,0.266602,0
12080,0.436035,0.79248,0.266602,0
12100,0.439941,0.794922,0.265137,0
12120,0.442871,0.803223,0.268555,0
12140,0.439453,0.799805,0.263184,0
12160,0.441406,0.806641,0.26416,0
12180,0.436035,0.796875,0.262207,0
12200,0.443848,0.797852,0.268555,0
12220,0.438965,0.80127,0.279297,0
12240,0.437988,0.804688,0.271973,0
12260,0.435059,0.80127,0.266602,0
12280,0.43457,0.790039,0.271484,0
12300,0.44043,0.79541,0.271973,0
12320,0.438965,0.801758,0.266113,0
12340,0.441895,0.803223,0.269043,0
12360,0.441895,0.801758,0.275879,0
12380,0.445801,0.809082,0.28418,0
12400,0.444824,0.821289,0.29248,0
12420,0.44043,0.819824,0.297363,0
12440,0.429199,0.801758,0.290039,0
12460,0.436523,0.778809,0.285156,0
12480,0.447754,0.77002,0.282715,0
12500,0.455078,0.776855,0.281738,0
12520,0.454102,0.787598,0.277344,0
12540,0.445312,0.784668,0.271973,0
12560,0.443359,0.78125,0.273926,0
12580,0.425781,0.775391,0.273926,0
12600,0.425293,0.78125,0.276855,0
12620,0.42627,0.794434,0.277832,0
12640,0.432129,0.815918,0.289062,0
12660,0.43457,0.820801,0.285645,0
12680,0.441895,0.811035,0.28418,0
12700,0.447266,0.794922,0.276367,0
12720,0.443359,0.792969,0.262695,0
12740,0.447266,0.789551,0.271484,0
12760,0.449219,0.788574,0.27002,0
12780,0.438965,0.790527,0.276367,0
12800,0.437988,0.796387,0.281738,0
12820,0.439941,0.801758,0.283203,0
12840,0.43457,0.795898,0.290039,0
12860,0.438477,0.80127,0.283203,0
12880,0.44043,0.810547,0.282227,0
12900,0.433105,0.805176,0.281738,0
12920,0.430176,0.800781,0.279785,0
12940,0.436035,0.803711,0.285645,0
12960,0.437988,0.803711,0.282715,0
12980,0.4375,0.797852,0.286133,0
13000,0.432129,0.794434,0.282715,0
13020,0.437012,0.797363,0.287109,0
13040,0.43457,0.801758,0.29541,0
13060,0.432617,0.796875,0.291016,0
13080,0.43457,0.802246,0.29541,0
13100,0.435059,0.811523,0.295898,0
13120,0.4375,0.808594,0.28418,0
13140,0.433594,0.804688,0.283203,0
13160,0.438965,0.801758,0.278809,0
13180,0.445801,0.802734,0.287109,0
13200,0.449219,0.793945,0.277344,0
13220,0.45166,0.797363,0.275879,0
13240,0.447754,0.793945,0.262695,0
13260,0.450684,0.78418,0.244141,0
13280,0.440918,0.776855,0.242188,0
13300,0.434082,0.784668,0.248047,0
13320,0.437012,0.782227,0.243164,0
13340,0.435059,0.777832,0.25,0
13360,0.445312,0.775391,0.256836,0
13380,0.464355,0.762695,0.259277,0
13400,0.472656,0.796387,0.287109,0
13420,0.463379,0.84082,0.272949,0
13440,0.446777,0.836426,0.234863,0
13460,0.438477,0.784668,0.227539,0
13480,0.427246,0.768066,0.249512,0
13500,0.427734,0.791504,0.29248,0
13520,0.431641,0.833984,0.317871,0
13540,0.397461,0.856934,0.335938,0
13560,0.386719,0.842773,0.356445,0
13580,0.388184,0.837402,0.376465,0
13600,0.396484,0.824219,0.375488,0
13620,0.421875,0.80127,0.359863,0
13640,0.436035,0.777832,0.333008,0
13660,0.450195,0.755371,0.302734,0
13680,0.469238,0.737305,0.29541,0
13700,0.472168,0.748535,0.279297,0
13720,0.469238,0.762207,0.270508,0
13740,0.466309,0.768066,0.271973,0
13760,0.470703,0.779785,0.273438,0
13780,0.469238,0.774902,0.275391,0
13800,0.461426,0.786133,0.270508,0
13820,0.479492,0.786621,0.254395,0
13840,0.477051,0.786621,0.248047,0
13860,0.47168,0.784668,0.216309,0
13880,0.469238,0.769531,0.22168,0
13900,0.455566,0.779297,0.225586,0
13920,0.456055,0.783203,0.226562,0
13940,0.443359,0.788086,0.232422,0
13960,0.452148,0.797852,0.244629,0
13980,0.451172,0.802246,0.251465,0
14000,0.442871,0.808594,0.23877,0
14020,0.437988,0.805176,0.243164,0
14040,0.437988,0.804688,0.241211,0
14060,0.438965,0.811523,0.246094,0
14080,0.438477,0.814941,0.257324,0
14100,0.433594,0.812012,0.271484,0
14120,0.447266,0.807129,0.283203,0
14140,0.457031,0.816895,0.297852,0
14160,0.462891,0.820312,0.283203,0
14180,0.459961,0.8125,0.294434,0
14200,0.463379,0.811035,0.296387,0
14220,0.467285,0.796875,0.305664,0
14240,0.468262,0.791016,0.304688,0
14260,0.474121,0.787598,0.304688,0
14280,0.480957,0.791504,0.305664,0
14300,0.494141,0.787598,0.299316,0
14320,0.498047,0.782227,0.272461,0
14340,0.516113,0.773926,0.237793,0
14360,0.547852,0.789551,0.204102,0
14380,0.562012,0.779297,0.164551,0
14400,0.54541,0.76123,0.128906,0
14420,0.564941,0.763672,0.14209,0
14440,0.57959,0.755371,0.104492,0
14460,0.571289,0.78418,0.11377,0
14480,0.595215,0.825195,0.132324,0
14500,0.576172,0.850586,0.103516,0
14520,0.559082,0.834473,0.205566,0
14540,0.567383,0.829102,0.252441,0
14560,0.541992,0.829102,0.264648,0
14570,0.549805,0.857422,0.309082,0
14590,0.549316,0.870117,0.378906,0
14610,0.478516,0.921387,0.404785,0
14630,0.396484,0.893066,0.401367,0
14650,0.355957,0.811035,0.381348,0
14670,0.320801,0.806641,0.366699,0
14690,0.212891,0.897461,0.390625,0
14710,0.123535,0.87207,0.466797,0
14730,0.0595703,0.816895,0.462891,0
14750,-0.0258789,0.804688,0.486816,0
14770,-0.115234,0.830566,0.53418,0
14790,-0.174805,0.850586,0.547852,0
14810,-0.229004,0.859375,0.539551,0
14830,-0.254883,0.77002,0.495117,0
14850,-0.279785,0.708496,0.479004,0
14870,-0.329102,0.688477,0.453613,0
14890,-0.297852,0.672363,0.510254,0
14910,-0.290039,0.662109,0.482422,0
14930,-0.336914,0.701172,0.450195,0
14950,-0.351562,0.724609,0.418945,0
14970,-0.327148,0.781738,0.353516,0
14990,-0.29834,0.785156,0.40625,0
15010,-0.39502,0.848145,0.377441,0
15030,-0.380371,0.820312,0.335938,0
15050,-0.349121,0.810547,0.306152,0
15070,-0.281738,0.8125,0.328613,0
15090,-0.205078,0.791992,0.384277,0
15110,-0.190918,0.755859,0.375977,0
15130,-0.223145,0.757324,0.364746,0
15150,-0.202148,0.761719,0.393066,0
15170,-0.207031,0.820801,0.38623,0
15190,-0.251953,0.837891,0.364746,0
15210,-0.226074,0.835938,0.346191,0
15230,-0.18457,0.822266,0.349609,0
15250,-0.212402,0.857422,0.308594,0
15270,-0.244629,0.894043,0.253906,0
15290,-0.218262,0.854004,0.269531,0
15310,-0.26709,0.831543,0.329102,0
15330,-0.285645,0.853027,0.34082,0
15350,-0.231445,0.956543,0.366211,0
15370,-0.14209,0.90625,0.363281,0
15390,-0.239258,0.867188,0.347656,0
15410,-0.29541,0.850098,0.386719,0
15430,-0.333496,0.77002,0.436035,0
15450,-0.40625,0.791504,0.386719,0
15470,-0.365234,0.779297,0.322266,0
15490,-0.307617,0.877441,0.396484,0
15510,-0.348145,1.03369,0.439941,0
15530,-0.371582,1.07666,0.22998,0
15550,-0.330566,0.92334,0.155273,0
15570,-0.266602,0.925781,0.255859,0
15590,-0.314453,1.05908,0.25,0
15610,-0.334473,1.01758,0.265625,0
15630,-0.31543,0.900391,0.321777,0
15650,-0.360352,0.851562,0.270508,0
15670,-0.302246,0.856934,0.233887,0
15690,-0.227051,0.825684,0.242676,0
15710,-0.174805,0.901855,0.29541,0
15730,-0.169922,0.943359,0.290039,0
15750,-0.154785,0.873535,0.280273,0
15770,-0.182617,0.840332,0.246582,0
15790,-0.17627,0.900879,0.237793,0
15810,-0.146973,0.944824,0.289062,0
15830,-0.133301,0.917969,0.290527,0
15850,-0.150879,0.94043,0.289551,0
15870,-0.149902,0.922852,0.304199,0
15890,-0.186523,0.893066,0.303223,0
15910,-0.241699,0.893555,0.26416,0
15930,-0.256348,0.915039,0.267578,0
15950,-0.28418,0.893066,0.26709,0
15970,-0.271973,0.871094,0.286621,0
15990,-0.32373,0.881348,0.275391,0
16010,-0.34668,0.884277,0.390625,0
16030,-0.393066,0.827148,0.34375,0
16050,-0.396484,0.818359,0.334961,0
16070,-0.408691,0.842773,0.314941,0
16090,-0.390137,0.822754,0.312988,0
16110,-0.393066,0.834473,0.337891,0
16130,-0.410156,0.831055,0.393066,0
16150,-0.397461,0.812988,0.399902,0
16170,-0.433105,0.791016,0.331543,0
16190,-0.447266,0.787598,0.318848,0
16210,-0.390625,0.823242,0.356934,0
16230,-0.381348,0.854004,0.380859,0
16250,-0.421387,0.845215,0.377441,0
16270,-0.434082,0.820801,0.335938,0
16290,-0.439941,0.803711,0.302246,0
16310,-0.40918,0.825195,0.317383,0
16330,-0.379883,0.816406,0.362793,0
16350,-0.382812,0.827148,0.369141,0
16370,-0.383301,0.830078,0.343262,0
16390,-0.352051,0.82959,0.341309,0
16410,-0.334961,0.833008,0.367188,0
16430,-0.333984,0.849121,0.359863,0
16450,-0.348633,0.84375,0.370605,0
16470,-0.349609,0.848633,0.354004,0
16490,-0.331543,0.848633,0.355469,0
16510,-0.338867,0.864258,0.352051,0
16530,-0.334961,0.862305,0.351074,0
16540,-0.359863,0.851562,0.369629,0
16560,-0.370117,0.84668,0.368164,0
16580,-0.383301,0.833496,0.344727,0
16600,-0.364746,0.827637,0.36377,0
16620,-0.363281,0.835938,0.372559,0
16640,-0.377441,0.835449,0.376953,0
16660,-0.376953,0.819336,0.379883,0
16680,-0.37207,0.810059,0.384766,0
16700,-0.369141,0.823242,0.381836,0
16720,-0.365234,0.825684,0.387207,0
16740,-0.358398,0.818359,0.40332,0
16760,-0.355469,0.817383,0.388184,0
16780,-0.348145,0.813965,0.374512,0
16800,-0.341797,0.80957,0.365723,0
16820,-0.34375,0.830566,0.341309,0
16840,-0.333496,0.844238,0.355957,0
16860,-0.32666,0.853516,0.348633,0
16880,-0.34375,0.847168,0.346191,0
16900,-0.334473,0.854004,0.355957,0
16920,-0.319336,0.861816,0.35791,0
16940,-0.333984,0.869141,0.353027,0
16960,-0.333008,0.848145,0.331055,0
16980,-0.32959,0.835938,0.343262,0
17000,-0.328125,0.84375,0.384766,0
17020,-0.3125,0.84082,0.382324,0
17040,-0.343262,0.833496,0.384277,0
17060,-0.341309,0.804199,0.373535,0
17080,-0.330078,0.811035,0.353027,0
17100,-0.339844,0.825195,0.369141,0
17120,-0.337402,0.834473,0.361816,0
17140,-0.313477,0.830078,0.345703,0
17160,-0.316406,0.87207,0.354492,0
17180,-0.240234,0.862305,0.356934,0
17200,-0.238281,0.868164,0.335938,0
17220,-0.215332,0.844238,0.358398,0
17240,-0.228516,0.803711,0.369141,0
17260,-0.274414,0.799316,0.374512,0
17280,-0.260742,0.836426,0.388672,0
17300,-0.265137,0.855469,0.37793,0
17320,-0.274414,0.839844,0.406738,0
17340,-0.276855,0.825195,0.411621,0
17360,-0.276855,0.826172,0.459961,0
17380,-0.293945,0.835449,0.458008,0
17400,-0.277344,0.822754,0.4375,0
17420,-0.28418,0.79248,0.48584,0
17440,-0.320801,0.788574,0.513184,0
17460,-0.281738,0.815918,0.474609,0
17480,-0.27832,0.831543,0.486816,0
17500,-0.263184,0.791992,0.514648,0
17520,-0.274902,0.772949,0.537109,0
17540,-0.274414,0.799316,0.539551,0
17560,-0.29541,0.789062,0.500977,0
17580,-0.28125,0.790527,0.480469,0
17600,-0.214844,0.780762,0.518555,0
17620,-0.226074,0.811035,0.533203,0
17640,-0.247559,0.801758,0.511719,0
17660,-0.256348,0.771484,0.497559,0
17680,-0.23877,0.764648,0.483398,0
17700,-0.227051,0.808105,0.469727,0
17720,-0.218262,0.824707,0.487793,0
17740,-0.217285,0.82373,0.479004,0
17760,-0.213867,0.787598,0.477539,0
17780,-0.217773,0.775391,0.455078,0
17800,-0.181152,0.793457,0.450684,0
17820,-0.188965,0.826172,0.492676,0
17840,-0.180664,0.824707,0.524902,0
17860,-0.184082,0.762207,0.505859,0
17880,-0.199219,0.750488,0.516602,0
17900,-0.20752,0.767578,0.494629,0
17920,-0.19043,0.758301,0.50293,0
17940,-0.203125,0.768066,0.519531,0
17960,-0.186035,0.779297,0.54248,0
17980,-0.17041,0.734863,0.570801,0
18000,-0.208008,0.703613,0.578125,0
18020,-0.174316,0.719727,0.576172,0
18040,-0.163574,0.779297,0.641113,0
18060,-0.217773,0.867676,0.594238,0
18080,-0.221191,0.856934,0.556641,0
18100,-0.171875,0.782715,0.583984,0
18120,-0.167969,0.741211,0.643066,0
18140,-0.175781,0.807129,0.567383,0
18160,-0.134766,0.901367,0.487793,0
18180,-0.081543,0.819336,0.513672,0
18200,-0.100586,0.72998,0.580566,0
18220,-0.121094,0.737793,0.579102,0
18240,-0.109375,0.739258,0.555176,0
18260,-0.106445,0.700684,0.547852,0
18280,-0.118652,0.647461,0.5625,0
18300,-0.11084,0.653809,0.563477,0
18320,-0.108398,0.702148,0.551758,0
18340,-0.120605,0.727539,0.559082,0
18360,-0.113281,0.693848,0.540527,0
18380,-0.121094,0.683594,0.585938,0
18400,-0.132324,0.730957,0.580566,0
18420,-0.0708008,0.687988,0.602051,0
18440,0.00927734,0.700684,0.648926,0
18460,0.00537109,0.791016,0.631836,0
18480,-0.0541992,0.714355,0.611816,0
18500,-0.164551,0.628418,0.627441,0
18520,-0.202637,0.658691,0.659668,0
18540,-0.214844,0.703613,0.67041,0
18560,-0.230469,0.855957,0.544922,0
18580,-0.128418,0.967285,0.505371,0
18600,-0.090332,0.909668,0.572266,0
18620,-0.0400391,0.885742,0.579102,0
18640,0.0209961,0.922363,0.59082,0
18660,-0.0268555,0.990723,0.57666,0
18680,-0.218262,1.11475,0.38916,0
18700,-0.186523,1.1001,0.223633,0
18720,0.0703125,0.952148,0.469238,0
18740,0.0527344,0.884277,0.526367,0
18760,-0.192383,0.82666,0.224609,0
18780,-0.195312,0.772461,0.140625,0
18800,-0.125,0.749512,0.166504,0
18820,-0.194824,0.71875,0.270508,0
18840,-0.279297,0.768555,0.257324,0
18860,-0.309082,0.838379,0.238281,0
18880,-0.15625,0.893555,0.163086,0
18900,-0.114746,1.03564,0.231445,0
18920,-0.132812,1.12354,0.271973,0
18940,-0.214355,1.0542,0.243164,0
18960,-0.259766,0.947754,0.280762,0
18980,-0.32666,0.898438,0.256836,0
19000,-0.391113,0.896973,0.237305,0
19020,-0.327148,0.900879,0.250977,0
19040,-0.286621,0.849121,0.271484,0
19060,-0.313477,0.856445,0.30127,0
19080,-0.338379,0.864746,0.28418,0
19100,-0.320312,0.864746,0.252441,0
19120,-0.300293,0.85791,0.239258,0
19140,-0.311523,0.868164,0.228027,0
19160,-0.347168,0.868164,0.228027,0
19180,-0.376953,0.849609,0.224609,0
19200,-0.425781,0.807617,0.194824,0
19220,-0.438965,0.805664,0.187012,0
19240,-0.452148,0.799316,0.304199,0
19260,-0.452148,0.762695,0.349121,0
19280,-0.498047,0.749512,0.312012,0
19300,-0.526855,0.770996,0.260742,0
19320,-0.498047,0.774414,0.294922,0
19340,-0.501953,0.780273,0.307617,0
19360,-0.526855,0.785645,0.307129,0
19380,-0.511719,0.821289,0.290527,0
19400,-0.50293,0.843262,0.268066,0
19420,-0.47168,0.82959,0.287109,0
19440,-0.489746,0.827148,0.294434,0
19460,-0.498047,0.817871,0.272949,0
19480,-0.46582,0.833496,0.276367,0
19500,-0.458984,0.844238,0.297852,0
19520,-0.471191,0.836426,0.279297,0
19540,-0.495605,0.846191,0.305176,0
19560,-0.436035,0.82373,0.31543,0
19580,-0.427246,0.800781,0.344727,0
19600,-0.463379,0.801758,0.336914,0
19620,-0.48291,0.775879,0.277344,0
19640,-0.5,0.784668,0.260742,0
19650,-0.491211,0.804199,0.253906,0
19670,-0.464355,0.806152,0.257812,0
19690,-0.465332,0.790527,0.275879,0
19710,-0.477539,0.807129,0.277344,0
19730,-0.508301,0.794922,0.274902,0
19750,-0.509766,0.795898,0.263672,0
19770,-0.495605,0.79248,0.245117,0
19790,-0.487305,0.808594,0.245117,0
19810,-0.503906,0.809082,0.274414,0
19830,-0.513184,0.814453,0.252441,0
19850,-0.481445,0.811035,0.234863,0
19870,-0.439453,0.809082,0.244629,0
19890,-0.443359,0.81543,0.279785,0
19910,-0.45752,0.853027,0.283691,0
19930,-0.475098,0.86377,0.242188,0
19950,-0.456055,0.82959,0.20752,0
19970,-0.419434,0.821777,0.237793,0
19980,-0.393066,0.846191,0.262207,0
20000,-0.402344,0.85791,0.255859,0
20020,-0.439941,0.875,0.252441,0
20040,-0.416504,0.866211,0.254395,0
20060,-0.405762,0.84082,0.264648,0
20080,-0.387207,0.835449,0.306641,0
20100,-0.376953,0.832031,0.319336,0
20120,-0.371582,0.829102,0.342773,0
20140,-0.348145,0.841309,0.356934,0
20160,-0.349609,0.84082,0.347168,0
20180,-0.335449,0.81543,0.341309,0
20190,-0.321289,0.805664,0.360352,0
20210,-0.324219,0.813965,0.35498,0
20230,-0.319824,0.812012,0.351562,0
20250,-0.309082,0.811523,0.387695,0
20270,-0.283203,0.811523,0.384277,0
20290,-0.273438,0.819336,0.378418,0
20310,-0.269043,0.821777,0.379395,0
20330,-0.280273,0.820801,0.37793,0
20350,-0.289551,0.815918,0.396973,0
20370,-0.298828,0.788574,0.392578,0
20390,-0.267578,0.767578,0.410645,0
20410,-0.216309,0.734863,0.429688,0
20430,-0.174805,0.734375,0.439941,0
20450,-0.16748,0.771484,0.443848,0
20470,-0.120605,0.753906,0.445312,0
20490,-0.0239258,0.778809,0.518066,0
20510,0.0532227,0.79834,0.47998,0
20530,0.0629883,0.825684,0.499512,0
20550,0.0712891,0.806641,0.497559,0
20570,0.145508,0.805664,0.506348,0
20590,0.195801,0.786133,0.508789,0
20610,0.212402,0.817383,0.500488,0
20630,0.240723,0.827148,0.496094,0
20650,0.254395,0.82959,0.500977,0
20670,0.287598,0.833984,0.494141,0
20690,0.287598,0.864258,0.429688,0
20710,0.324707,0.824219,0.429199,0
20730,0.378906,0.774414,0.483887,0
20750,0.393555,0.754883,0.460449,0
20770,0.42627,0.751953,0.431641,0
20780,0.499512,0.782715,0.425293,0
20800,0.541504,0.813965,0.434082,0
20820,0.537109,0.862305,0.428223,0
20840,0.551758,0.861328,0.440918,0
20860,0.454102,0.776367,0.430664,0
20880,0.425293,0.649902,0.429688,0
20900,0.446777,0.608398,0.430176,0
20920,0.476074,0.62207,0.414062,0
20940,0.499512,0.606934,0.407227,0
20960,0.501465,0.580078,0.401855,0
20980,0.504395,0.575684,0.418457,0
21000,0.523926,0.599609,0.406738,0
21020,0.574219,0.657227,0.425781,0
21040,0.612305,0.728027,0.459961,0
21060,0.603516,0.776855,0.460449,0
21080,0.536621,0.78125,0.430176,0
21100,0.467285,0.741699,0.404297,0
21120,0.456543,0.695801,0.404785,0
21140,0.464844,0.6875,0.436035,0
21160,0.459961,0.706543,0.464844,0
21180,0.463867,0.708008,0.48291,0
21200,0.458008,0.689941,0.484863,0
21220,0.459473,0.655762,0.475586,0
21240,0.467285,0.623047,0.476562,0
21260,0.48584,0.601074,0.473633,0
21280,0.495605,0.616211,0.468262,0
21300,0.505859,0.641602,0.44873,0
21320,0.508301,0.649902,0.439453,0
21340,0.513184,0.649902,0.429688,0
21360,0.506836,0.661621,0.414062,0
21380,0.487793,0.673828,0.41748,0
21400,0.484375,0.681641,0.422363,0
21420,0.481445,0.680176,0.443848,0
21440,0.481445,0.681152,0.441895,0
21460,0.463379,0.672852,0.445801,0
21480,0.452637,0.662109,0.45166,0
21500,0.467773,0.652832,0.462891,0
21520,0.469238,0.661621,0.468262,0
21540,0.470215,0.662109,0.464844,0
21560,0.469727,0.667969,0.458008,0
21580,0.46875,0.677734,0.457031,0
21600,0.46875,0.679199,0.443848,0
21620,0.466797,0.682617,0.443359,0
21640,0.45752,0.692871,0.445312,0
21660,0.45752,0.695312,0.452148,0
21680,0.450195,0.69043,0.461426,0
21700,0.448242,0.694336,0.466797,0
21720,0.443359,0.699707,0.478027,0
21740,0.430176,0.694824,0.472656,0
21760,0.425781,0.695312,0.474121,0
21780,0.421387,0.688965,0.480469,0
21800,0.424805,0.685059,0.483887,0
21820,0.432617,0.683105,0.48584,0
21840,0.441895,0.676758,0.488281,0
21860,0.448242,0.68457,0.475586,0
21880,0.449707,0.675781,0.474121,0
21900,0.45166,0.674316,0.463379,0
21920,0.450684,0.680664,0.459473,0
21930,0.446289,0.679688,0.457031,0
21950,0.442383,0.673828,0.452148,0
21970,0.444336,0.672852,0.45166,0
21990,0.445312,0.674316,0.444336,0
22010,0.458008,0.67334,0.442871,0
22030,0.471191,0.675781,0.439941,0
22050,0.477539,0.684082,0.424805,0
22060,0.481934,0.697266,0.413086,0
22080,0.480469,0.700684,0.415527,0
22100,0.482422,0.712402,0.418457,0
22120,0.476074,0.712402,0.428711,0
22140,0.475586,0.703125,0.438477,0
22160,0.462891,0.696777,0.443359,0
22180,0.454102,0.689453,0.435059,0
22200,0.458008,0.693848,0.435059,0
22220,0.458008,0.687988,0.424805,0
22240,0.45459,0.688965,0.425781,0
22260,0.45752,0.688965,0.421387,0
22280,0.45166,0.69043,0.431152,0
22300,0.455078,0.687012,0.434082,0
22320,0.455078,0.686035,0.429199,0
22340,0.462891,0.687012,0.42334,0
22360,0.464844,0.683105,0.417969,0
22380,0.471191,0.685547,0.408691,0
22400,0.475586,0.689941,0.410156,0
22420,0.479004,0.698242,0.40625,0
22440,0.479492,0.700195,0.405273,0
22460,0.481934,0.702148,0.411621,0
22480,0.476074,0.709473,0.416504,0
22500,0.46875,0.70752,0.413086,0
22520,0.463379,0.702637,0.410645,0
22540,0.458984,0.700684,0.407227,0
22560,0.460938,0.705078,0.414551,0
22580,0.462891,0.696777,0.410645,0
22600,0.458984,0.697266,0.422363,0
22620,0.464844,0.702637,0.425781,0
22640,0.465332,0.699707,0.424805,0
22660,0.463379,0.697754,0.421875,0
22680,0.460449,0.699219,0.417969,0
22700,0.466797,0.694824,0.42627,0
22720,0.46582,0.696777,0.42627,0
22740,0.459473,0.697754,0.410645,0
22760,0.470703,0.689941,0.422852,0
22780,0.472168,0.700684,0.42334,0
22800,0.464844,0.708496,0.412109,0
22820,0.461426,0.702148,0.416504,0
22840,0.466309,0.700195,0.413086,0
22860,0.464844,0.691895,0.42334,0
22880,0.468262,0.689453,0.425293,0
22900,0.467285,0.699707,0.430176,0
22920,0.461426,0.695801,0.42627,0
22940,0.459473,0.69043,0.429199,0
22950,0.45752,0.705078,0.428223,0
22970,0.457031,0.702148,0.430664,0
22990,0.45459,0.699707,0.430176,0
23010,0.461426,0.702148,0.428711,0
23030,0.461426,0.699219,0.427246,0
23050,0.458496,0.696777,0.431152,0
23070,0.462402,0.694336,0.4375,0
23090,0.460938,0.699707,0.431152,0
23110,0.459473,0.698242,0.428711,0
23130,0.457031,0.694824,0.428711,0
23150,0.461426,0.692871,0.434082,0
23170,0.459473,0.689941,0.43457,0
23190,0.459473,0.695801,0.435547,0
23210,0.466797,0.699219,0.44043,0
23230,0.464355,0.696289,0.446777,0
23250,0.458008,0.693359,0.436523,0
23270,0.458008,0.694824,0.430664,0
23290,0.459473,0.700684,0.435059,0
23310,0.456543,0.698242,0.431152,0
23330,0.457031,0.690918,0.428223,0
23350,0.459961,0.696777,0.435059,0
23370,0.461426,0.698242,0.432129,0
23390,0.46582,0.700195,0.428711,0
23410,0.458496,0.69873,0.431152,0
23430,0.453613,0.702148,0.425293,0
23450,0.458984,0.706543,0.425781,0
23470,0.45752,0.695312,0.433105,0
23490,0.460938,0.695801,0.436035,0
23510,0.458496,0.695801,0.434082,0
23530,0.460938,0.693848,0.432129,0
23550,0.457031,0.696777,0.426758,0
23570,0.458984,0.696777,0.419434,0
23590,0.459961,0.702637,0.425293,0
23610,0.455078,0.702637,0.42334,0
23630,0.44873,0.69043,0.418945,0
23650,0.450195,0.705566,0.40625,0
23670,0.460938,0.703613,0.425293,0
23690,0.458008,0.692383,0.444824,0
23710,0.454102,0.69043,0.430664,0
23730,0.456543,0.703125,0.44873,0
23750,0.461426,0.701172,0.45459,0
23770,0.456543,0.695312,0.443848,0
23790,0.458008,0.709473,0.425293,0
23810,0.45459,0.713867,0.427734,0
23830,0.462402,0.710449,0.422363,0
23850,0.456055,0.706055,0.432617,0
23870,0.446777,0.699707,0.432617,0
23890,0.444336,0.689941,0.421387,0
23910,0.448242,0.693848,0.421875,0
23930,0.455566,0.710938,0.409668,0
23950,0.441406,0.709473,0.416016,0
23970,0.435059,0.699707,0.418945,0
23990,0.438477,0.696777,0.412598,0
24010,0.432617,0.711914,0.415527,0
24030,0.433105,0.712402,0.425781,0
24050,0.44043,0.719727,0.419434,0
24070,0.443359,0.730957,0.416504,0
24090,0.441895,0.726074,0.42041,0
24110,0.441895,0.719727,0.422852,0
24130,0.447266,0.71875,0.408203,0
24150,0.449219,0.733887,0.427246,0
24170,0.444824,0.719727,0.429688,0
24190,0.447266,0.696777,0.426758,0
24210,0.442871,0.700684,0.427246,0
24230,0.441895,0.708984,0.435059,0
24250,0.443848,0.716309,0.439941,0
24270,0.433105,0.70752,0.438477,0
24290,0.438477,0.708496,0.4375,0
24310,0.427734,0.709961,0.439453,0
24330,0.425293,0.707031,0.440918,0
24350,0.431641,0.716309,0.438477,0
24370,0.431152,0.715332,0.442871,0
24390,0.422363,0.710938,0.427734,0
24410,0.433105,0.710449,0.426758,0
24430,0.436523,0.715332,0.430176,0
24450,0.430176,0.714844,0.426758,0
24470,0.431641,0.712891,0.424316,0
24490,0.439453,0.717285,0.420898,0
24510,0.44043,0.722656,0.418457,0
24530,0.4375,0.723145,0.419922,0
24550,0.438477,0.720215,0.424805,0
24570,0.42627,0.720703,0.429199,0
24590,0.428711,0.71875,0.416504,0
24610,0.432129,0.716309,0.423828,0
24630,0.436523,0.717773,0.416016,0
24650,0.430176,0.721191,0.411621,0
24670,0.428711,0.715332,0.415527,0
24690,0.42627,0.713867,0.418457,0
24710,0.433594,0.722168,0.428223,0
24730,0.435547,0.722168,0.427734,0
24750,0.435059,0.722168,0.429688,0
24770,0.428223,0.729004,0.427246,0
24790,0.428223,0.71582,0.425293,0
24810,0.433594,0.714844,0.428223,0
24820,0.437012,0.723145,0.425293,0
24840,0.437012,0.719238,0.433594,0
24860,0.432129,0.719238,0.430664,0
24880,0.435059,0.714355,0.427246,0
24900,0.435059,0.71582,0.424805,0
24920,0.438477,0.713379,0.428223,0
24940,0.439453,0.711426,0.431152,0
24960,0.432129,0.713867,0.42334,0
24980,0.429199,0.71875,0.421875,0
25000,0.421875,0.720215,0.42041,0
25020,0.432617,0.727051,0.425293,0
25040,0.431641,0.732422,0.425781,0
25060,0.439941,0.726562,0.424805,0
25080,0.436035,0.720215,0.415527,0
25100,0.443359,0.716309,0.424805,0
25120,0.447754,0.71875,0.419922,0
25140,0.443359,0.713867,0.414062,0
25160,0.436035,0.713867,0.403809,0
25180,0.439453,0.72168,0.411621,0
25200,0.441895,0.722168,0.416504,0
25220,0.43457,0.715332,0.419434,0
25240,0.436035,0.724121,0.420898,0
25250,0.436035,0.722656,0.416016,0
25270,0.435059,0.714355,0.413086,0
25290,0.434082,0.720703,0.413086,0
25300,0.437988,0.720215,0.415039,0
25320,0.439941,0.72168,0.413086,0
25340,0.444336,0.721191,0.411133,0
25360,0.436035,0.721191,0.409668,0
25380,0.433105,0.723633,0.40918,0
25400,0.433594,0.723145,0.414062,0
25420,0.4375,0.725586,0.420898,0
25440,0.4375,0.723633,0.414062,0
25460,0.430176,0.724121,0.412598,0
25480,0.435547,0.722656,0.411621,0
25500,0.442383,0.724609,0.413086,0
25520,0.441895,0.716309,0.415527,0
25540,0.438965,0.719727,0.40918,0
25560,0.438477,0.71875,0.413574,0
25580,0.440918,0.719238,0.41748,0
25600,0.43457,0.717773,0.413574,0
25620,0.436523,0.713867,0.421387,0
25640,0.438477,0.722168,0.42627,0
25660,0.4375,0.721191,0.421387,0
25680,0.432617,0.720703,0.42334,0
25700,0.434082,0.721191,0.420898,0
25730,0.436523,0.71875,0.423828,0
25750,0.431152,0.718262,0.414062,0
25780,0.429199,0.718262,0.419434,0
25800,0.431152,0.71875,0.420898,0
25820,0.439453,0.720703,0.423828,0
25840,0.433594,0.728516,0.423828,0
25850,0.431641,0.715332,0.421875,0
25860,0.433105,0.717285,0.416016,0
25880,0.4375,0.725098,0.412598,0
25900,0.437988,0.722656,0.408203,0
25900,0.44043,0.712891,0.411621,0
25920,0.437012,0.719727,0.414062,0
25940,0.441406,0.724121,0.416504,0
25960,0.439941,0.724609,0.416016,0
25980,0.432129,0.720703,0.419434,0
26000,0.430176,0.730957,0.407715,0
26020,0.436523,0.724121,0.417969,0
26040,0.442383,0.72168,0.419434,0
26060,0.434082,0.720215,0.424316,0
26080,0.441895,0.725098,0.414062,0
26100,0.439453,0.725098,0.42041,0
26120,0.441895,0.727051,0.419922,0
26140,0.441406,0.733398,0.422363,0
26160,0.444336,0.728516,0.416992,0
26180,0.445801,0.735352,0.425293,0
26200,0.450195,0.739258,0.433105,0
26220,0.456543,0.740723,0.424316,0
26240,0.464355,0.750488,0.42627,0
26260,0.469238,0.748047,0.425781,0
26280,0.475098,0.766602,0.414551,0
26300,0.491211,0.756836,0.406738,0
26320,0.481934,0.757812,0.364746,0
26360,0.489258,0.695312,0.38916,0
26380,0.513184,0.664551,0.394531,0
26400,0.560059,0.689453,0.398438,0
26420,0.583984,0.753418,0.386719,0
26440,0.550293,0.77832,0.388184,0
26460,0.53418,0.791992,0.432617,0
26480,0.48877,0.803711,0.466797,0
26500,0.402832,0.850586,0.499023,0
26520,0.306641,0.90918,0.521973,0
26540,0.240723,0.911621,0.541016,0
26560,0.175293,0.895996,0.531738,0
26580,0.059082,0.90625,0.512695,0
26600,0.0195312,0.916504,0.523438,0
26620,-0.0166016,0.897949,0.508301,0
26640,-0.0610352,0.900879,0.48877,0
26660,-0.0942383,0.839355,0.472656,0
26680,-0.118652,0.804688,0.45752,0
26700,-0.152832,0.811035,0.43457,0
26720,-0.185059,0.80127,0.416992,0
26740,-0.213867,0.772949,0.399902,0
26760,-0.230957,0.763184,0.393066,0
26780,-0.269043,0.756836,0.377441,0
26800,-0.30127,0.731445,0.37207,0
26820,-0.300781,0.733398,0.388184,0
26840,-0.33252,0.742188,0.374512,0
26860,-0.355957,0.756836,0.361816,0
26880,-0.356934,0.748535,0.343262,0
26900,-0.360352,0.750977,0.334473,0
26920,-0.359375,0.753906,0.328613,0
26940,-0.35791,0.776855,0.318359,0
26960,-0.363281,0.781738,0.298828,0
26980,-0.348145,0.785156,0.297363,0
27000,-0.337891,0.80127,0.299316,0
27020,-0.311523,0.802734,0.293457,0
27040,-0.300781,0.808594,0.293457,0
27060,-0.303223,0.818359,0.27832,0
27080,-0.307617,0.82959,0.277344,0
27100,-0.307129,0.861816,0.260254,0
27120,-0.302246,0.881348,0.260254,0
27140,-0.291992,0.883789,0.290527,0
27160,-0.302734,0.895508,0.290039,0
27180,-0.316895,0.891602,0.304688,0
27200,-0.304688,0.869629,0.318848,0
27220,-0.305664,0.861328,0.309082,0
27230,-0.314453,0.875488,0.300293,0
27250,-0.319336,0.881836,0.304199,0
27270,-0.318359,0.882324,0.291992,0
27290,-0.328125,0.896973,0.288574,0
27310,-0.337891,0.899414,0.297852,0
27330,-0.339355,0.888184,0.299805,0
27350,-0.334473,0.875488,0.29248,0
27370,-0.336426,0.878906,0.283203,0
27390,-0.333008,0.876465,0.284668,0
27410,-0.334961,0.864258,0.290039,0
27430,-0.334473,0.853516,0.294434,0
27450,-0.329102,0.863281,0.29541,0
27470,-0.330566,0.85498,0.299316,0
27490,-0.327637,0.850098,0.291504,0
27510,-0.326172,0.859375,0.300293,0
27530,-0.322266,0.858887,0.285645,0
27550,-0.331055,0.863281,0.306152,0
27570,-0.336426,0.858398,0.313477,0
27590,-0.338867,0.854492,0.30127,0
27610,-0.351074,0.870605,0.307129,0
27630,-0.34668,0.868164,0.310547,0
27650,-0.339844,0.874023,0.302246,0
27670,-0.347656,0.873535,0.288086,0
27690,-0.355957,0.876465,0.295898,0
27710,-0.351562,0.875488,0.295898,0
27730,-0.348633,0.872559,0.297363,0
27750,-0.352051,0.880859,0.287598,0
27770,-0.347656,0.870605,0.292969,0
27790,-0.341309,0.876953,0.302734,0
27810,-0.348633,0.871094,0.304199,0
27830,-0.353516,0.862793,0.293457,0
27850,-0.345215,0.861816,0.30127,0
27870,-0.34668,0.864746,0.309082,0
27890,-0.342285,0.865234,0.312012,0
27910,-0.35498,0.857422,0.306641,0
27930,-0.357422,0.860352,0.303711,0
27950,-0.348145,0.864746,0.307129,0
27970,-0.351562,0.865234,0.300293,0
27990,-0.354492,0.865234,0.311523,0
28010,-0.354492,0.866699,0.307617,0
28030,-0.355957,0.868164,0.303711,0
28050,-0.35498,0.860352,0.304688,0
28070,-0.359375,0.862793,0.309082,0
28090,-0.359863,0.866211,0.306641,0
28110,-0.367188,0.862793,0.303223,0
28130,-0.367676,0.861816,0.302734,0
28150,-0.362793,0.860352,0.29834,0
28170,-0.35791,0.862305,0.317871,0
28190,-0.372559,0.859375,0.305664,0
28210,-0.375488,0.85498,0.294434,0
28230,-0.364258,0.854004,0.293945,0
28250,-0.36377,0.862305,0.29541,0
28270,-0.368164,0.866211,0.293945,0
28290,-0.366699,0.86377,0.294434,0
28310,-0.373047,0.852539,0.305664,0
28330,-0.367188,0.856445,0.310547,0
28350,-0.365234,0.856445,0.313477,0
28370,-0.372559,0.862305,0.322754,0
28390,-0.379883,0.850586,0.312988,0
28410,-0.381348,0.842285,0.311523,0
28430,-0.377441,0.845215,0.313965,0
28450,-0.382812,0.850586,0.309082,0
28470,-0.386719,0.856445,0.319336,0
28490,-0.387695,0.854492,0.311523,0
28510,-0.383789,0.854492,0.306641,0
28530,-0.384766,0.848633,0.304199,0
28550,-0.37207,0.846191,0.305176,0
28570,-0.351562,0.851562,0.3125,0
28590,-0.343262,0.858887,0.312988,0
28610,-0.344727,0.857422,0.305664,0
28630,-0.334473,0.849121,0.30957,0
28650,-0.324707,0.855469,0.308105,0
28670,-0.320801,0.863281,0.320801,0
28690,-0.318359,0.865234,0.325195,0
28710,-0.326172,0.876953,0.307129,0
28730,-0.330566,0.874023,0.299316,0
28750,-0.32373,0.873535,0.296875,0
28770,-0.310059,0.862793,0.297852,0
28790,-0.301758,0.868652,0.293945,0
28810,-0.317871,0.881348,0.301758,0
28830,-0.337891,0.868164,0.305176,0
28850,-0.348145,0.866211,0.303223,0
28870,-0.375488,0.880371,0.30127,0
28890,-0.39209,0.888672,0.29248,0
28910,-0.389648,0.881348,0.281738,0
28930,-0.391113,0.882812,0.289062,0
28950,-0.392578,0.870117,0.293945,0
28970,-0.38623,0.861816,0.299316,0
28990,-0.381836,0.851562,0.317383,0
29010,-0.381348,0.845703,0.316895,0
29030,-0.382324,0.83252,0.334961,0
29050,-0.37793,0.821777,0.345703,0
29070,-0.379395,0.814453,0.336914,0
29090,-0.390137,0.818848,0.34082,0
29110,-0.391113,0.818359,0.34668,0
29130,-0.383301,0.825684,0.352539,0
29150,-0.396484,0.832031,0.340332,0
29170,-0.393066,0.83252,0.341309,0
29190,-0.396484,0.82959,0.335449,0
29210,-0.383301,0.837402,0.334961,0
29230,-0.375977,0.839355,0.335449,0
29250,-0.380859,0.843262,0.343262,0
29270,-0.378418,0.841797,0.33252,0
29290,-0.372559,0.836426,0.330566,0
29310,-0.371582,0.833496,0.33252,0
29330,-0.375,0.837891,0.336914,0
29350,-0.374512,0.847656,0.342285,0
29370,-0.367676,0.852539,0.337891,0
29390,-0.37207,0.836426,0.338867,0
29410,-0.369141,0.828613,0.338379,0
29430,-0.378906,0.833984,0.334473,0
29450,-0.37793,0.844238,0.339844,0
29470,-0.385742,0.841309,0.337402,0
29490,-0.387695,0.834961,0.331055,0
29510,-0.388184,0.831055,0.32373,0
29530,-0.390137,0.827148,0.333008,0
29550,-0.391602,0.837891,0.322266,0
29570,-0.392578,0.856934,0.311523,0
29590,-0.383789,0.855957,0.297363,0
29610,-0.379883,0.857422,0.298828,0
29630,-0.36084,0.871582,0.297363,0
29650,-0.348145,0.871094,0.28418,0
29670,-0.326172,0.888672,0.276855,0
29690,-0.312988,0.896973,0.282715,0
29710,-0.301758,0.883301,0.298828,0
29730,-0.296875,0.874023,0.299316,0
29750,-0.299316,0.871582,0.293457,0
29770,-0.299316,0.881836,0.30127,0
29790,-0.306152,0.890137,0.299805,0
29810,-0.314453,0.88623,0.295898,0
29830,-0.331055,0.877441,0.292969,0
29850,-0.338867,0.873047,0.306641,0
29870,-0.340332,0.870117,0.300781,0
29890,-0.353027,0.863281,0.304688,0
29910,-0.36377,0.868164,0.30957,0
29930,-0.367188,0.864746,0.313477,0
29950,-0.363281,0.849121,0.313477,0
29970,-0.366211,0.837402,0.319336,0
29990,-0.375977,0.85791,0.312012,0
30010,-0.381348,0.867188,0.305664,0
30030,-0.367676,0.86377,0.310059,0
30050,-0.362793,0.862305,0.314941,0
30070,-0.357422,0.856934,0.312988,0
30090,-0.359863,0.85791,0.316895,0
30110,-0.352051,0.858887,0.314453,0
30130,-0.349609,0.85498,0.310059,0
30150,-0.350098,0.862305,0.311035,0
30170,-0.357422,0.858887,0.317383,0
30190,-0.359375,0.870605,0.323242,0
30210,-0.35791,0.878418,0.312988,0
30230,-0.355957,0.85791,0.305176,0
30250,-0.339844,0.852539,0.313477,0
30270,-0.361816,0.871094,0.296875,2000
30290,-0.358887,0.854492,0.305176,0
30310,-0.342773,0.875,0.307129,0
30330,-0.347656,0.859375,0.305664,0
30350,-0.348633,0.875,0.308594,0
30370,-0.351562,0.865234,0.292969,0
30390,-0.351074,0.868164,0.294434,0
30410,-0.348633,0.862793,0.300781,0
30430,-0.355957,0.86377,0.285645,0
30450,-0.350098,0.865723,0.300293,0
30470,-0.348145,0.86084,0.295898,0
30490,-0.34668,0.862793,0.305176,0
30510,-0.349121,0.85498,0.317383,0
30530,-0.348145,0.854492,0.307129,0
30550,-0.364258,0.869141,0.299805,0
30570,-0.362305,0.867676,0.296387,0
30590,-0.357422,0.85498,0.297852,0
30610,-0.36084,0.866211,0.311035,0
30630,-0.361328,0.866211,0.307129,0
30650,-0.357422,0.855469,0.300781,0
30670,-0.357422,0.857422,0.299316,0
30680,-0.361816,0.869629,0.305176,0
30700,-0.361328,0.863281,0.307129,0
30720,-0.367188,0.852539,0.308594,0
30740,-0.362793,0.859375,0.304199,0
30760,-0.35498,0.865723,0.305664,0
30780,-0.353516,0.860352,0.311523,0
30800,-0.350586,0.865723,0.306152,0
30820,-0.342285,0.865234,0.307129,0
30840,-0.345703,0.862305,0.294434,0
30860,-0.333984,0.854004,0.302246,0
30880,-0.325195,0.849121,0.299805,0
30900,-0.312988,0.851074,0.291016,0
30920,-0.308594,0.850586,0.289551,0
30940,-0.317383,0.850586,0.307129,0
30960,-0.340332,0.861816,0.310547,0
30980,-0.34082,0.864746,0.306152,0
31000,-0.338379,0.86084,0.311035,0
31020,-0.347168,0.874512,0.307617,0
31040,-0.345703,0.879883,0.294434,0
31060,-0.336914,0.884766,0.304199,0
31080,-0.344727,0.891602,0.305176,0
31100,-0.34668,0.885254,0.310059,0
31120,-0.351562,0.885254,0.303223,0
31140,-0.357422,0.875488,0.297363,0
31160,-0.351562,0.870117,0.302734,0
31180,-0.35498,0.872559,0.312988,0
31200,-0.358398,0.864746,0.320312,0
31220,-0.368652,0.855469,0.309082,0
31240,-0.375488,0.854492,0.297363,0
31260,-0.407227,0.847656,0.295898,0
31280,-0.414551,0.84375,0.288086,0
31300,-0.407227,0.839844,0.29248,0
31320,-0.393066,0.841797,0.290039,0
31340,-0.375977,0.837402,0.279785,0
31360,-0.37793,0.836914,0.283691,0
31380,-0.398438,0.84668,0.289062,0
31400,-0.400879,0.845703,0.297852,0
31420,-0.394531,0.841797,0.283203,0
31440,-0.413574,0.852051,0.271973,0
31460,-0.430664,0.859375,0.275879,0
31480,-0.425781,0.850586,0.281738,0
31500,-0.42334,0.837402,0.283691,0
31520,-0.423828,0.845215,0.272461,0
31540,-0.432617,0.852539,0.278809,0
31560,-0.446289,0.850098,0.277832,0
31580,-0.435059,0.835449,0.27002,0
31600,-0.419922,0.856934,0.23877,0
31620,-0.458984,0.858887,0.241699,0
31640,-0.474609,0.858887,0.275391,0
31660,-0.458496,0.839355,0.274414,0
31680,-0.4375,0.836914,0.261719,0
31700,-0.431641,0.845215,0.255371,0
31720,-0.45166,0.845215,0.273438,0
31740,-0.467773,0.844238,0.279297,0
31760,-0.461426,0.834473,0.246582,0
31780,-0.447754,0.834473,0.233887,0
31800,-0.456543,0.836914,0.24707,0
31820,-0.468262,0.839844,0.249023,0
31840,-0.467285,0.825195,0.239258,0
31860,-0.474609,0.820312,0.236328,0
31880,-0.486816,0.833008,0.234863,0
31900,-0.481934,0.823242,0.232422,0
31920,-0.48584,0.82373,0.236816,0
31940,-0.486328,0.813477,0.219727,0
31960,-0.504395,0.815918,0.239746,0
31980,-0.509277,0.817383,0.241211,0
32000,-0.504395,0.806641,0.233887,0
32020,-0.506836,0.8125,0.217773,0
32040,-0.50293,0.815918,0.230957,0
32060,-0.523438,0.813965,0.230469,0
32080,-0.530762,0.805664,0.226562,0
32100,-0.526367,0.797363,0.222168,0
32120,-0.53418,0.809082,0.221191,0
32140,-0.549805,0.812012,0.231934,0
32160,-0.563477,0.802246,0.241211,0
32180,-0.553711,0.788574,0.234375,0
32200,-0.554199,0.779297,0.237793,0
32220,-0.559082,0.785156,0.229492,0
32240,-0.550781,0.79248,0.219727,0
32260,-0.563477,0.789062,0.232422,0
32280,-0.569824,0.777344,0.231445,0
32300,-0.576172,0.770996,0.221191,0
32320,-0.583984,0.77832,0.240723,0
32340,-0.591309,0.770508,0.234863,0
32360,-0.598633,0.772461,0.23291,0
32380,-0.602539,0.76709,0.245117,0
32400,-0.599121,0.752441,0.243652,0
32420,-0.604004,0.750977,0.248047,0
32440,-0.596191,0.746582,0.249512,0
32460,-0.617188,0.745117,0.251465,0
32480,-0.617188,0.733398,0.254395,0
32500,-0.625,0.736328,0.26416,0
32520,-0.643066,0.732422,0.267578,0
32540,-0.654297,0.723145,0.275879,0
32560,-0.646484,0.72168,0.28418,0
32580,-0.642578,0.726562,0.269531,0
32600,-0.653809,0.72168,0.272461,0
32620,-0.651367,0.719238,0.28125,0
32640,-0.647461,0.713379,0.293945,0
32660,-0.641602,0.720215,0.306641,0
32670,-0.650879,0.717285,0.300293,0
32690,-0.641113,0.718262,0.289551,0
32710,-0.644043,0.707031,0.304199,0
32730,-0.633789,0.717773,0.311523,0
32750,-0.618652,0.714844,0.303711,0
32770,-0.621094,0.72168,0.310059,0
32790,-0.61377,0.71582,0.308105,0
32810,-0.60791,0.71875,0.322754,0
32830,-0.611816,0.708984,0.334473,0
32850,-0.628906,0.711914,0.321289,0
32870,-0.624023,0.708496,0.3125,0
32890,-0.605957,0.70752,0.323242,0
32910,-0.585938,0.722168,0.335938,0
32930,-0.595215,0.716797,0.341309,0
32950,-0.608887,0.711914,0.335938,0
32970,-0.630371,0.695312,0.345703,0
32990,-0.616211,0.698242,0.349609,0
33010,-0.615723,0.716309,0.350586,0
33030,-0.606934,0.71582,0.355469,0
33050,-0.597168,0.716309,0.369629,0
33070,-0.605957,0.713379,0.366699,0
33090,-0.615234,0.714844,0.352539,0
33110,-0.598145,0.712891,0.35791,0
33130,-0.587891,0.731445,0.351562,0
33150,-0.563477,0.741699,0.372559,0
33170,-0.562988,0.73584,0.396973,0
33190,-0.579102,0.73584,0.380371,0
33210,-0.576172,0.731934,0.369141,0
33230,-0.552246,0.751465,0.354492,0
33250,-0.518066,0.741211,0.374512,0
33270,-0.509277,0.749023,0.393555,0
33290,-0.528809,0.748535,0.387207,0
33310,-0.540039,0.750977,0.373047,0
33330,-0.529785,0.757812,0.366211,0
33350,-0.510254,0.755371,0.374023,0
33370,-0.501953,0.770508,0.382324,0
33390,-0.510742,0.768555,0.400879,0
33410,-0.52832,0.752441,0.365234,0
33430,-0.516113,0.742676,0.363281,0
33450,-0.501465,0.742676,0.389648,0
33470,-0.512695,0.755371,0.380371,0
33490,-0.524414,0.763184,0.373047,0
33510,-0.518066,0.759277,0.365723,0
33530,-0.506836,0.750488,0.342773,0
33550,-0.491699,0.758789,0.358887,0
33570,-0.495605,0.766602,0.372559,0
33590,-0.509766,0.760254,0.361816,0
33610,-0.51709,0.749512,0.369629,0
33630,-0.513672,0.771484,0.34668,0
33650,-0.503906,0.769531,0.346191,0
33670,-0.500977,0.783691,0.345703,0
33690,-0.507324,0.774902,0.343262,0
33710,-0.5,0.763184,0.341309,0
33730,-0.491211,0.766602,0.324707,0
33750,-0.494629,0.77832,0.32666,0
33770,-0.513184,0.803223,0.334473,0
33790,-0.52832,0.78125,0.317383,0
33810,-0.522461,0.766113,0.299805,0
33840,-0.484375,0.787109,0.330078,0
33860,-0.481934,0.789551,0.32959,0
33880,-0.48877,0.783691,0.307129,0
33900,-0.483398,0.784668,0.311035,0
33920,-0.466309,0.799316,0.311523,0
33940,-0.462402,0.802734,0.314941,0
33960,-0.479492,0.801758,0.308594,0
33980,-0.477539,0.787598,0.313477,0
34000,-0.471191,0.794434,0.310547,0
34020,-0.458984,0.808105,0.318359,0
34040,-0.459961,0.82373,0.302246,0
34060,-0.46582,0.814941,0.308105,0
34080,-0.462402,0.803711,0.307617,0
34100,-0.458008,0.793457,0.305176,0
34120,-0.44873,0.821289,0.289062,0
34140,-0.458984,0.82959,0.306641,0
34160,-0.46875,0.804688,0.305176,0
34180,-0.474609,0.807617,0.295898,0
34200,-0.467773,0.819336,0.290039,0
34220,-0.458496,0.823242,0.274902,0
34240,-0.460449,0.821289,0.261719,0
34260,-0.467285,0.82959,0.263672,0
34280,-0.463867,0.824707,0.255371,0
34300,-0.464355,0.834961,0.23584,0
34320,-0.475098,0.85498,0.241211,0
34340,-0.480957,0.858887,0.245605,0
34360,-0.478027,0.847656,0.213379,0
34380,-0.473633,0.856934,0.192871,0
34400,-0.455078,0.863281,0.196777,0
34420,-0.445801,0.847656,0.201172,0
34440,-0.448242,0.831543,0.183594,0
34460,-0.454102,0.839355,0.183594,0
34480,-0.459961,0.841797,0.180664,0
34500,-0.450684,0.841797,0.166504,0
34520,-0.453125,0.849121,0.155273,0
34540,-0.468262,0.852051,0.160156,0
34560,-0.45459,0.843262,0.154785,0
34580,-0.441406,0.836914,0.154785,0
34600,-0.452637,0.84668,0.137207,0
34620,-0.470215,0.852051,0.128418,0
34640,-0.470703,0.851074,0.132812,0
34660,-0.475098,0.846191,0.133301,0
34680,-0.484863,0.849121,0.129395,0
34700,-0.481934,0.855957,0.12793,0
34720,-0.486816,0.847168,0.120117,0
34740,-0.481445,0.839844,0.126953,0
34760,-0.492188,0.82959,0.126953,0
34780,-0.528809,0.851562,0.0976562,0
34800,-0.543457,0.85791,0.0893555,0
34820,-0.528809,0.846191,0.104004,0
34840,-0.54541,0.84375,0.108398,0
34860,-0.565918,0.855957,0.103027,0
34880,-0.569336,0.849121,0.10791,0
34900,-0.557617,0.841309,0.101562,0
34920,-0.570312,0.828125,0.106445,0
34940,-0.587402,0.825195,0.0830078,0
34960,-0.584473,0.822266,0.0976562,0
34980,-0.574707,0.814453,0.0888672,0
35000,-0.590332,0.804688,0.0888672,0
35020,-0.599121,0.804688,0.081543,0
35040,-0.594727,0.813965,0.0771484,0
35060,-0.582031,0.802734,0.0751953,0
35080,-0.602539,0.797363,0.0688477,0
35100,-0.616699,0.800781,0.0678711,0
35120,-0.606934,0.780273,0.0546875,0
35140,-0.605469,0.765625,0.0712891,0
35160,-0.624512,0.772461,0.0605469,0
35180,-0.648438,0.779297,0.0458984,0
35200,-0.635254,0.760254,0.046875,0
35220,-0.646484,0.762695,0.0620117,0
35240,-0.668457,0.759277,0.0620117,0
35260,-0.687012,0.755371,0.0400391,0
35280,-0.67627,0.750488,0.0439453,0
35300,-0.696289,0.726074,0.0688477,0
35320,-0.724121,0.731445,0.074707,0
35340,-0.733398,0.729492,0.0620117,0
35360,-0.743164,0.731934,0.0473633,0
35380,-0.738281,0.739746,0.0473633,0
35400,-0.723633,0.742188,0.0493164,0
35420,-0.70752,0.736816,0.0419922,0
35440,-0.712891,0.72168,0.0561523,0
35460,-0.73877,0.706543,0.0717773,0
35480,-0.728027,0.68457,0.0512695,0
35500,-0.720703,0.683594,0.0532227,0
35520,-0.729492,0.686035,0.0673828,0
35540,-0.761719,0.680664,0.0820312,0
35560,-0.768066,0.649902,0.0751953,0
35580,-0.76123,0.646973,0.0537109,0
35600,-0.772461,0.662598,0.0629883,0
35620,-0.76709,0.660645,0.0727539,0
35640,-0.763184,0.652344,0.0795898,0
35660,-0.79248,0.640625,0.0864258,0
35680,-0.794922,0.630371,0.0898438,0
35700,-0.801758,0.620117,0.0839844,0
35720,-0.801758,0.625488,0.0786133,0
35740,-0.79248,0.623535,0.0874023,0
35760,-0.818848,0.621094,0.0927734,0
35780,-0.837402,0.600586,0.124512,0
35800,-0.825195,0.594238,0.125977,0
35820,-0.832031,0.593262,0.124023,0
35840,-0.824219,0.598633,0.115723,0
35860,-0.8125,0.592773,0.126953,0
35880,-0.79834,0.591797,0.138184,0
35900,-0.805176,0.598633,0.141602,0
35920,-0.831055,0.598145,0.150391,0
35940,-0.829102,0.598145,0.146973,0
35960,-0.794434,0.603516,0.176758,0
35980,-0.789062,0.600586,0.18457,0
36000,-0.799805,0.597656,0.179199,0
36020,-0.806152,0.590332,0.199707,0
36040,-0.823242,0.595215,0.211426,0
36060,-0.811035,0.594238,0.215332,0
36080,-0.786133,0.596191,0.22998,0
36100,-0.797363,0.595703,0.238281,0
36110,-0.803223,0.593262,0.228027,0
36130,-0.815918,0.602539,0.237305,0
36150,-0.817871,0.620605,0.237793,0
36170,-0.793945,0.621094,0.231934,0
36190,-0.811035,0.613281,0.254883,0
36210,-0.82373,0.597168,0.242676,0
36230,-0.82959,0.586426,0.260742,0
36250,-0.844238,0.606934,0.246094,0
36270,-0.806152,0.62793,0.254395,0
36290,-0.787598,0.62793,0.271973,0
36310,-0.787109,0.612305,0.259277,0
36330,-0.800293,0.587891,0.265625,0
36350,-0.776855,0.592285,0.26709,0
36370,-0.75,0.615723,0.280273,0
36390,-0.730469,0.623535,0.286133,0
36410,-0.75,0.617188,0.268066,0
36430,-0.747559,0.609863,0.25293,0
36450,-0.711914,0.606445,0.265137,0
36470,-0.706543,0.62793,0.284668,0
36490,-0.710449,0.633789,0.274902,0
36510,-0.726074,0.64209,0.265137,0
36530,-0.740723,0.655273,0.255371,0
36550,-0.742188,0.668945,0.282227,0
36570,-0.729492,0.681641,0.299316,0
36590,-0.725586,0.665527,0.275391,0
36610,-0.696777,0.664551,0.277344,0
36630,-0.681152,0.691406,0.276855,0
36650,-0.694336,0.719238,0.25,0
36670,-0.682617,0.716797,0.236816,0
36690,-0.65625,0.706055,0.222168,0
36710,-0.645508,0.732422,0.22998,0
36730,-0.659668,0.723145,0.239258,0
36750,-0.658203,0.702148,0.230469,0
36770,-0.633789,0.717773,0.208008,0
36790,-0.617676,0.75,0.209961,0
36810,-0.600586,0.748535,0.223633,0
36830,-0.59668,0.731445,0.20752,0
36850,-0.606445,0.725586,0.202637,0
36870,-0.595703,0.734863,0.200195,0
36890,-0.583984,0.740723,0.206055,0
36910,-0.589355,0.737793,0.216309,0
36930,-0.600586,0.714844,0.206055,0
36950,-0.606445,0.723633,0.180664,0
36970,-0.598633,0.75,0.195801,0
36990,-0.589844,0.776367,0.179688,0
37010,-0.57959,0.783691,0.173828,0
37030,-0.587402,0.786133,0.166016,0
37050,-0.583496,0.785156,0.161133,0
37070,-0.566895,0.797852,0.154297,0
37090,-0.558105,0.807129,0.164551,0
37110,-0.561035,0.812012,0.149902,0
37130,-0.562012,0.796875,0.14209,0
37150,-0.550293,0.794922,0.137695,0
37170,-0.538574,0.802734,0.13916,0
37190,-0.540039,0.825684,0.132324,0
37210,-0.522949,0.821289,0.114746,0
37230,-0.548828,0.812012,0.116699,0
37250,-0.564453,0.821289,0.148926,0
37270,-0.562012,0.830078,0.118652,0
37290,-0.560547,0.84668,0.0922852,0
37310,-0.561035,0.852051,0.11377,0
37330,-0.55127,0.834961,0.101074,0
37350,-0.536133,0.836914,0.0844727,0
37370,-0.529785,0.848633,0.0732422,0
37390,-0.507812,0.847656,0.0708008,0
37410,-0.5,0.830078,0.0415039,0
37430,-0.510742,0.834473,0.0488281,0
37450,-0.537598,0.832031,0.0620117,0
37470,-0.534668,0.824707,0.0488281,0
37490,-0.521973,0.835449,0.0356445,0
37510,-0.523926,0.824707,0.0332031,0
37530,-0.515137,0.797363,0.0429688,0
37550,-0.516113,0.803223,0.0200195,0
37570,-0.522461,0.818848,0.0112305,0
37590,-0.530273,0.806641,0.019043,0
37610,-0.532715,0.796875,0.0234375,0
37630,-0.578125,0.79541,-0.00341797,0
37650,-0.606934,0.792969,0.019043,0
37670,-0.589844,0.793945,0.0263672,0
37690,-0.600098,0.791992,-0.00830078,0
37710,-0.631348,0.798828,-0.00292969,0
37730,-0.618164,0.766602,0.00878906,0
37750,-0.621582,0.755859,0.00146484,0
37770,-0.66748,0.779297,-0.0283203,0
37790,-0.69043,0.765137,-0.0200195,0
37810,-0.690918,0.744141,-0.0136719,0
37830,-0.698242,0.737793,-0.0170898,0
37850,-0.723633,0.749512,-0.0239258,0
37870,-0.729004,0.737305,-0.0351562,0
37890,-0.720703,0.717285,-0.0351562,0
37910,-0.727539,0.720215,-0.0229492,0
37930,-0.757324,0.714844,-0.0170898,0
37950,-0.769531,0.688477,-0.0336914,0
37970,-0.749512,0.687988,-0.0405273,0
37990,-0.757812,0.702148,-0.0424805,0
38010,-0.767578,0.685547,-0.0219727,0
38030,-0.762207,0.67041,-0.0366211,0
38050,-0.743164,0.666504,-0.034668,0
38070,-0.766602,0.678223,-0.0410156,0
38090,-0.784668,0.671387,-0.0556641,0
38110,-0.794922,0.67041,-0.0429688,0
38120,-0.786621,0.641602,0.00927734,0
38140,-0.806152,0.631348,-0.0117188,0
38160,-0.833496,0.632812,-0.0610352,0
38180,-0.824707,0.641602,-0.0581055,0
38200,-0.820312,0.614258,-0.00683594,0
38220,-0.839844,0.613281,-0.00292969,0
38240,-0.829102,0.613281,-0.0395508,0
38260,-0.859375,0.618652,-0.0302734,0
38280,-0.862305,0.60498,-0.00976562,0
38300,-0.874023,0.587402,-0.0166016,0
38320,-0.890137,0.589355,-0.0253906,0
38340,-0.879883,0.571289,-0.0126953,0
38360,-0.892578,0.562988,-0.00732422,0
38380,-0.894531,0.557129,-0.0253906,0
38400,-0.908691,0.553711,-0.0239258,0
38420,-0.915039,0.521484,0.012207,0
38440,-0.910645,0.507324,0.00439453,0
38460,-0.904297,0.507324,-0.0136719,0
38480,-0.903809,0.505371,0,0
38500,-0.92334,0.487793,0.00292969,0
38520,-0.928223,0.466309,0.00390625,0
38540,-0.925293,0.463867,-0.000488281,0
38560,-0.92041,0.460938,0.0112305,0
38580,-0.911621,0.443848,0.0244141,0
38600,-0.931152,0.433105,0.027832,0
38620,-0.934082,0.420898,0.0151367,0
38640,-0.927734,0.418457,0.019043,0
38660,-0.929199,0.407715,0.0478516,0
38680,-0.933105,0.413086,0.0483398,0
38700,-0.947266,0.406738,0.0415039,0
38720,-0.945801,0.39209,0.0449219,0
38740,-0.952637,0.389648,0.0698242,0
38760,-0.961914,0.396973,0.0751953,0
38780,-0.952148,0.395996,0.0727539,0
38800,-0.95166,0.387207,0.0786133,0
38820,-0.944336,0.395996,0.0927734,0
38840,-0.962891,0.395996,0.0986328,0
38860,-0.963867,0.38916,0.108887,0
38880,-0.971191,0.385742,0.134277,0
38900,-0.952637,0.39502,0.152832,0
38920,-0.94873,0.393066,0.154785,0
38940,-0.951172,0.390625,0.152832,0
38960,-0.953125,0.398438,0.163574,0
38980,-0.958008,0.397461,0.171387,0
39000,-0.978027,0.413574,0.184082,0
39020,-0.963867,0.418457,0.193848,0
39040,-0.931641,0.414062,0.199219,0
39060,-0.933594,0.435547,0.214355,0
39080,-0.945312,0.429688,0.218262,0
39100,-0.930176,0.441895,0.223145,0
39120,-0.913086,0.443848,0.236328,0
39140,-0.89502,0.45166,0.23291,0
39160,-0.896484,0.462891,0.240723,0
39180,-0.880859,0.45459,0.246582,0
39200,-0.882324,0.483398,0.252441,0
39220,-0.881348,0.491211,0.257812,0
39240,-0.842773,0.500977,0.267578,0
39260,-0.818848,0.51416,0.267578,0
39280,-0.829102,0.52002,0.26709,0
39300,-0.833496,0.517578,0.275879,0
39320,-0.822754,0.538574,0.266602,0
39340,-0.805664,0.546387,0.27832,0
39360,-0.797363,0.559082,0.293945,0
39380,-0.808105,0.558594,0.291992,0
39400,-0.78418,0.567383,0.275391,0
39420,-0.751465,0.578125,0.295898,0
39440,-0.750488,0.579102,0.302246,0
39460,-0.765625,0.570801,0.298828,0
39480,-0.756836,0.574219,0.287598,0
39500,-0.72168,0.585938,0.296387,0
39520,-0.717773,0.608398,0.303711,0
39540,-0.727051,0.583496,0.289551,0
39560,-0.708984,0.578613,0.285645,0
39580,-0.688965,0.600586,0.26416,0
39600,-0.689941,0.628418,0.256836,0
39620,-0.719727,0.624023,0.251465,0
39640,-0.751953,0.615234,0.23584,0
39660,-0.747559,0.628418,0.208984,0
39680,-0.714844,0.656738,0.209473,0
39700,-0.698242,0.664551,0.223145,0
39720,-0.709961,0.634277,0.199219,0
39740,-0.72168,0.67041,0.187012,0
39760,-0.714355,0.687012,0.197754,0
39780,-0.708008,0.68457,0.197754,0
39800,-0.711914,0.67334,0.220215,0
39820,-0.700684,0.678223,0.196777,0
39840,-0.692871,0.698242,0.180176,0
39860,-0.668457,0.705566,0.164551,0
39880,-0.678711,0.698242,0.186523,0
39900,-0.697266,0.701172,0.174316,0
39920,-0.69043,0.687012,0.169922,0
39940,-0.666016,0.708496,0.15918,0
39960,-0.660645,0.711914,0.15332,0
39980,-0.660156,0.693359,0.133789,0
40000,-0.654785,0.702148,0.130859,0
40020,-0.653809,0.71875,0.128418,0
40040,-0.659668,0.715332,0.106934,0
40060,-0.66748,0.717773,0.102051,0
40080,-0.660156,0.725098,0.0991211,0
40100,-0.677246,0.728516,0.0874023,0
40120,-0.699219,0.742188,0.0844727,0
40140,-0.677246,0.74707,0.0732422,0
40160,-0.651855,0.741699,0.0527344,0
40180,-0.665527,0.742188,0.0371094,0
40200,-0.65918,0.748535,0.019043,0
40220,-0.648926,0.746582,0.0170898,0
40240,-0.647461,0.754395,0.0273438,0
40260,-0.65332,0.750488,0.00195312,0
40280,-0.656738,0.75293,-0.00146484,0
40300,-0.674316,0.742188,0.00732422,0
40320,-0.72998,0.734863,0.00537109,0
40340,-0.692871,0.732422,-0.0273438,0
40360,-0.688477,0.731934,-0.0366211,0
40380,-0.69043,0.733398,-0.0400391,0
40400,-0.712402,0.720215,-0.043457,0
40420,-0.723145,0.710938,-0.0512695,0
40440,-0.734375,0.698242,-0.0698242,0
40460,-0.727051,0.699707,-0.0527344,0
40480,-0.750977,0.692871,-0.0551758,0
40500,-0.759766,0.677246,-0.0776367,0
40520,-0.745605,0.67627,-0.0883789,0
40540,-0.755371,0.68457,-0.0888672,0
40560,-0.764648,0.673828,-0.0839844,0
40580,-0.767578,0.654297,-0.0976562,0
40600,-0.771973,0.643066,-0.0869141,0
40620,-0.794434,0.647461,-0.104492,0
40640,-0.802734,0.645996,-0.121094,0
40660,-0.779297,0.623047,-0.0986328,0
40680,-0.799316,0.623535,-0.11084,0
40700,-0.805664,0.614258,-0.111328,0
40720,-0.803223,0.602539,-0.123535,0
40740,-0.811523,0.581055,-0.117188,0
40760,-0.824219,0.575195,-0.128418,0
40780,-0.827637,0.573242,-0.129883,0
40800,-0.815918,0.568848,-0.11377,0
40820,-0.82666,0.566406,-0.121582,0
40840,-0.849121,0.552734,-0.117188,0
40860,-0.854492,0.548828,-0.125488,0
40880,-0.873047,0.547852,-0.139648,0
40900,-0.915527,0.558105,-0.133789,0
40920,-0.904785,0.552246,-0.121582,0
40940,-0.884277,0.542969,-0.102539,0
40960,-0.913574,0.54248,-0.113281,0
40980,-0.935059,0.521973,-0.117676,0
41000,-0.925781,0.503906,-0.117188,0
41020,-0.929688,0.488281,-0.112305,0
41040,-0.929688,0.485352,-0.109863,0
41060,-0.921387,0.471191,-0.113281,2001
41080,-0.928223,0.458008,-0.11084,0
41100,-0.958496,0.438477,-0.11084,0
41120,-0.943848,0.428711,-0.128418,0
41140,-0.934082,0.420898,-0.125,0
41160,-0.937988,0.416992,-0.113281,0
41180,-0.94873,0.401855,-0.130859,0
41200,-0.965332,0.399902,-0.128418,0
41220,-0.981934,0.408203,-0.134766,0
41240,-0.973145,0.403809,-0.143555,0
41260,-0.977051,0.398438,-0.143066,0
41280,-0.976074,0.395508,-0.144043,0
41300,-0.968262,0.405762,-0.145508,0
41320,-0.976562,0.411133,-0.141113,0
41340,-0.957031,0.411133,-0.126465,0
41360,-0.935547,0.414062,-0.128418,0
41380,-0.919434,0.410645,-0.116699,0
41400,-0.888672,0.410645,-0.125,0
41420,-0.875488,0.428223,-0.116699,0
41440,-0.878418,0.438477,-0.118652,0
41460,-0.846191,0.420898,-0.105957,0
41480,-0.833008,0.431641,-0.114258,0
41500,-0.818848,0.446289,-0.121582,0
41520,-0.822266,0.45459,-0.125977,0
41540,-0.80957,0.451172,-0.0893555,0
41550,-0.789551,0.436523,-0.0649414,0
41570,-0.749023,0.459473,-0.0947266,0
41590,-0.728027,0.474121,-0.130859,0
41610,-0.743164,0.47168,-0.0786133,0
41630,-0.743164,0.476074,-0.0356445,0
41650,-0.743652,0.476562,-0.0200195,0
41670,-0.790039,0.490234,-0.0610352,0
41690,-0.817383,0.526855,-0.0742188,0
41710,-0.833984,0.529785,-0.0571289,0
41730,-0.836426,0.526367,-0.015625,0
41750,-0.86377,0.55957,-0.0234375,0
41770,-0.851074,0.595215,-0.0229492,0
41790,-0.798828,0.624512,0.00439453,0
41810,-0.784668,0.653809,0.0141602,0
41830,-0.816406,0.697266,0.00195312,0
41850,-0.833496,0.722656,0.0141602,0
41870,-0.818359,0.720703,0.0292969,0
41890,-0.795898,0.743652,0.0517578,0
41910,-0.771973,0.802246,0.0639648,0
41930,-0.744141,0.829102,0.0830078,0
41950,-0.730957,0.857422,0.0795898,0
41970,-0.716309,0.890137,0.0883789,0
41990,-0.706543,0.915039,0.106445,0
42010,-0.655762,0.918457,0.130371,0
42030,-0.620117,0.925781,0.133301,0
42050,-0.576172,0.941895,0.144043,0
42070,-0.550781,0.955566,0.146973,0
42090,-0.521973,0.944824,0.167969,0
42110,-0.520996,0.9375,0.17041,0
42130,-0.49707,0.934082,0.156738,0
42150,-0.458984,0.929199,0.163574,0
42170,-0.427734,0.943359,0.163574,0
42190,-0.42041,0.940918,0.162598,0
42210,-0.425781,0.935547,0.152832,0
42230,-0.424805,0.911133,0.150391,0
42250,-0.411133,0.897949,0.148438,0
42270,-0.419434,0.890625,0.148926,0
42290,-0.424805,0.889648,0.154297,0
42310,-0.426758,0.873047,0.137695,0
42330,-0.422363,0.878906,0.131836,0
42350,-0.42627,0.878906,0.134766,0
42370,-0.431641,0.868164,0.143555,0
42390,-0.441406,0.872559,0.146973,0
42410,-0.443359,0.88623,0.14209,0
42430,-0.442871,0.873535,0.137695,0
42450,-0.44873,0.873047,0.132812,0
42470,-0.448242,0.881836,0.13623,0
42490,-0.4375,0.897461,0.134766,0
42510,-0.46875,0.897949,0.14502,0
42530,-0.455078,0.867188,0.135742,0
42550,-0.451172,0.87793,0.153809,2000
42570,-0.452637,0.874512,0.13623,0
42590,-0.439941,0.882324,0.123535,0
42610,-0.446777,0.902832,0.126465,0
42630,-0.446777,0.895996,0.121094,0
42650,-0.45752,0.875,0.133301,0
42670,-0.455566,0.872559,0.140625,0
42690,-0.441406,0.879395,0.143555,0
42710,-0.453125,0.872559,0.147461,0
42730,-0.450195,0.870117,0.139648,0
42750,-0.454102,0.872559,0.128906,0
42770,-0.455566,0.879883,0.137695,0
42790,-0.461426,0.862793,0.15332,0
42810,-0.462891,0.856934,0.154785,0
42830,-0.456543,0.865723,0.155762,0
42850,-0.453125,0.877441,0.147461,0
42870,-0.454102,0.874023,0.147461,0
42890,-0.453613,0.875,0.147461,0
42910,-0.442871,0.875977,0.154785,0
42930,-0.428711,0.868164,0.154297,0
42950,-0.432129,0.864258,0.158203,0
42970,-0.427246,0.876953,0.170898,0
42990,-0.444824,0.879883,0.172363,0
43010,-0.446289,0.874023,0.147461,0
43030,-0.438965,0.869629,0.143066,0
43050,-0.437988,0.887207,0.157715,0
43070,-0.439941,0.88916,0.150879,0
43090,-0.447754,0.884277,0.157715,0
43110,-0.455566,0.878906,0.151855,0
43130,-0.459473,0.866699,0.140625,0
43150,-0.455566,0.865723,0.130371,0
43170,-0.455566,0.873535,0.141602,0
43190,-0.461914,0.878906,0.144531,0
43210,-0.481445,0.869629,0.130859,0
43230,-0.491699,0.861328,0.137695,0
43250,-0.476074,0.85791,0.140137,0
43270,-0.486328,0.86084,0.133301,0
43290,-0.50293,0.85791,0.134766,0
43310,-0.507812,0.86084,0.134766,0
43330,-0.495605,0.862305,0.12207,0
43350,-0.495605,0.858887,0.117676,0
43370,-0.503906,0.851562,0.131348,0
43390,-0.509277,0.844727,0.131348,0
43410,-0.518555,0.851074,0.134277,0
43430,-0.532715,0.837891,0.109375,0
43450,-0.528809,0.83252,0.118164,0
43470,-0.533203,0.822266,0.124023,0
43490,-0.535156,0.84082,0.117676,0
43510,-0.537598,0.838867,0.103027,0
43530,-0.54541,0.82959,0.108398,0
43540,-0.560547,0.815918,0.114258,0
43560,-0.583984,0.822754,0.106934,0
43580,-0.561523,0.825195,0.118652,0
43600,-0.549805,0.824219,0.118652,0
43620,-0.569824,0.821777,0.10498,0
43640,-0.587402,0.817383,0.111328,0
43660,-0.602539,0.804688,0.118652,0
43680,-0.620117,0.805176,0.118652,0
43700,-0.607422,0.788574,0.123047,0
43720,-0.60791,0.783203,0.129395,0
43740,-0.59375,0.779785,0.125,0
43760,-0.604004,0.782715,0.115723,0
43780,-0.631348,0.770996,0.125,0
43800,-0.634766,0.760254,0.128906,0
43820,-0.599121,0.760742,0.119141,0
43840,-0.611328,0.767578,0.148926,0
43860,-0.64502,0.762207,0.139648,0
43880,-0.654297,0.736328,0.14209,0
43900,-0.642578,0.748535,0.116699,0
43920,-0.623047,0.76416,0.123047,0
43940,-0.638672,0.759277,0.147949,0
43960,-0.656738,0.743164,0.157715,0
43980,-0.66748,0.724121,0.145508,0
44000,-0.663574,0.741211,0.146484,0
44020,-0.666016,0.740234,0.168457,0
44040,-0.65918,0.720703,0.165039,0
44060,-0.655762,0.720215,0.152832,0
44080,-0.683105,0.72168,0.166992,0
44100,-0.708496,0.712402,0.187988,0
44120,-0.716309,0.708008,0.177246,0
44140,-0.692383,0.702637,0.182129,0
44160,-0.702637,0.697754,0.180176,0
44180,-0.71582,0.678223,0.202148,0
44200,-0.724121,0.681641,0.195312,0
44220,-0.721191,0.688965,0.197754,0
44240,-0.732422,0.686035,0.215332,0
44260,-0.747559,0.660645,0.23877,0
44280,-0.756836,0.655762,0.233398,0
44300,-0.745605,0.653809,0.226562,0
44320,-0.725586,0.656738,0.237305,0
44340,-0.727051,0.661133,0.262207,0
44360,-0.734375,0.657715,0.25293,0
44380,-0.749512,0.643555,0.269043,0
44400,-0.73877,0.646973,0.264648,0
44420,-0.754883,0.650391,0.271973,0
44440,-0.731934,0.647949,0.311523,0
44460,-0.75,0.631836,0.319336,0
44480,-0.777344,0.620605,0.318359,0
44500,-0.780762,0.618164,0.319336,0
44520,-0.739746,0.62793,0.33252,0
44540,-0.715332,0.624023,0.333008,0
44560,-0.712891,0.615234,0.34668,0
44580,-0.751953,0.618652,0.350586,0
44600,-0.733398,0.616211,0.316406,0
44620,-0.688477,0.637207,0.348633,0
44640,-0.693359,0.640625,0.370605,0
44660,-0.709961,0.625488,0.358887,0
44680,-0.717285,0.606934,0.365234,0
44700,-0.695801,0.621582,0.363281,0
44720,-0.674316,0.648926,0.362793,0
44740,-0.658691,0.639648,0.381348,0
44760,-0.662109,0.624023,0.373535,0
44780,-0.675293,0.623535,0.374023,0
44800,-0.660156,0.634277,0.381348,0
44820,-0.625977,0.672363,0.397461,0
44840,-0.646484,0.687012,0.38916,0
44860,-0.68457,0.659668,0.351562,0
44880,-0.662598,0.651855,0.340332,0
44900,-0.605957,0.673828,0.385742,0
44920,-0.609375,0.733398,0.385742,0
44940,-0.65625,0.719727,0.346191,0
44960,-0.668457,0.676758,0.342773,0
44980,-0.627441,0.685547,0.343262,0
45000,-0.583496,0.727051,0.367676,0
45020,-0.600586,0.748047,0.35498,0
45040,-0.634766,0.722656,0.318359,0
45060,-0.616699,0.709961,0.32666,0
45080,-0.587891,0.726562,0.334961,0
45100,-0.564453,0.747559,0.346191,0
45120,-0.586914,0.749023,0.319824,0
45140,-0.57959,0.723145,0.321289,0
45160,-0.566895,0.734863,0.314453,0
45180,-0.552246,0.760742,0.303223,0
45200,-0.547363,0.774902,0.290039,0
45220,-0.553223,0.757324,0.283691,0
45240,-0.552734,0.741211,0.26709,0
45260,-0.523438,0.755859,0.27832,0
45280,-0.522461,0.758789,0.277344,0
45310,-0.550293,0.765625,0.274414,0
45330,-0.546875,0.76709,0.245605,0
45350,-0.550781,0.790527,0.246582,0
45370,-0.55127,0.773926,0.243164,0
45390,-0.565918,0.765625,0.241699,0
45410,-0.556641,0.769531,0.22998,0
45430,-0.542969,0.776855,0.243652,0
45450,-0.552734,0.791504,0.245605,0
45470,-0.56543,0.78125,0.224121,0
45490,-0.547363,0.790039,0.216309,0
45510,-0.54248,0.799316,0.21875,0
45530,-0.552734,0.797363,0.214355,0
45550,-0.544434,0.79834,0.215332,0
45570,-0.548828,0.80127,0.217285,0
45590,-0.541016,0.80127,0.195312,0
45610,-0.529297,0.818848,0.175781,0
45630,-0.525879,0.832031,0.180176,0
45650,-0.532715,0.823242,0.178711,0
45670,-0.519043,0.805664,0.174316,0
45690,-0.526855,0.812988,0.17041,0
45710,-0.530273,0.825684,0.172852,0
45730,-0.52002,0.833496,0.173828,0
45750,-0.520508,0.826172,0.161621,0
45770,-0.529785,0.821289,0.147461,0
45790,-0.520996,0.822266,0.15918,0
45810,-0.516602,0.828125,0.150391,0
45830,-0.511719,0.838867,0.125,0
45850,-0.52002,0.834473,0.13623,0
45870,-0.526855,0.838379,0.143555,0
45890,-0.524902,0.838379,0.123535,0
45910,-0.534668,0.850098,0.120117,0
45930,-0.521973,0.842773,0.09375,0
45950,-0.498047,0.83252,0.09375,0
45970,-0.489258,0.83252,0.10498,0
45990,-0.492188,0.853516,0.0976562,0
46010,-0.504395,0.856445,0.0664062,0
46030,-0.505859,0.853516,0.0791016,0
46050,-0.511719,0.82959,0.0869141,0
46070,-0.518066,0.831055,0.0703125,0
46090,-0.515625,0.839844,0.0654297,0
46110,-0.51123,0.855957,0.065918,0
46130,-0.526367,0.848633,0.0664062,0
46150,-0.533203,0.828613,0.0576172,0
46170,-0.535645,0.839844,0.03125,0
46190,-0.529297,0.852051,0.0493164,0
46210,-0.532227,0.84375,0.0644531,0
46230,-0.563965,0.812012,0.0605469,0
46250,-0.578125,0.812012,0.0419922,0
46270,-0.566406,0.822266,0.0341797,0
46290,-0.572754,0.831543,0.0605469,0
46310,-0.597168,0.810547,0.0688477,0
46330,-0.595215,0.79834,0.0405273,0
46350,-0.596191,0.776855,0.0292969,0
46370,-0.627441,0.791504,0.0478516,0
46390,-0.666504,0.79541,0.0493164,0
46410,-0.647461,0.775879,0.0366211,0
46430,-0.616699,0.778809,0.0307617,0
46450,-0.644531,0.780273,0.00830078,0
46470,-0.674316,0.770996,0.00634766,0
46490,-0.65332,0.740723,0.0170898,0
46520,-0.731934,0.733398,0.0117188,0
46540,-0.691895,0.713867,0.00683594,0
46560,-0.671875,0.711426,0.0107422,0
46580,-0.717773,0.730469,-0.0146484,0
46600,-0.730469,0.699219,0.0283203,0
46620,-0.751953,0.67041,0.0727539,0
46640,-0.772949,0.660156,0.0366211,0
46660,-0.746094,0.665527,0.0170898,0
46680,-0.73877,0.684082,0.0317383,0
46700,-0.75,0.681641,0.03125,0
46720,-0.782715,0.669922,0.0336914,0
46740,-0.804688,0.652344,0.0283203,0
46760,-0.80957,0.649902,0.0214844,0
46780,-0.80957,0.64209,0.0327148,0
46800,-0.818848,0.625488,0.0678711,0
46820,-0.833496,0.598145,0.0517578,0
46840,-0.833008,0.584961,0.0483398,0
46860,-0.826172,0.598145,0.0625,0
46880,-0.829102,0.589844,0.0805664,0
46900,-0.865234,0.555176,0.0913086,0
46920,-0.866699,0.543457,0.090332,0
46940,-0.84082,0.556152,0.0947266,0
46950,-0.847656,0.560059,0.110352,0
46970,-0.878906,0.532227,0.121094,0
46990,-0.881836,0.51416,0.131348,0
47010,-0.858887,0.524902,0.127441,0
47030,-0.85498,0.526855,0.132812,0
47050,-0.872559,0.524902,0.156738,0
47070,-0.880371,0.510254,0.171875,0
47090,-0.888672,0.500977,0.176758,0
47110,-0.898926,0.503418,0.178223,0
47130,-0.900391,0.502441,0.187012,0
47150,-0.87207,0.495117,0.205078,0
47170,-0.879883,0.491211,0.205566,0
47190,-0.865234,0.486816,0.208984,0
47210,-0.851562,0.489258,0.223145,0
47230,-0.855957,0.490234,0.241211,0
47250,-0.867188,0.47998,0.240723,0
47270,-0.854492,0.480469,0.250488,0
47290,-0.878418,0.481934,0.258301,0
47310,-0.891113,0.476074,0.274414,0
47330,-0.875,0.477539,0.27832,0
47350,-0.907715,0.476074,0.279785,0
47370,-0.870605,0.496582,0.287598,0
47390,-0.855957,0.506836,0.305176,0
47410,-0.851562,0.481934,0.316895,0
47430,-0.850586,0.457031,0.306152,0
47450,-0.864258,0.473633,0.324707,0
47470,-0.827148,0.487793,0.347168,0
47490,-0.813477,0.520996,0.353027,0
47510,-0.819824,0.489258,0.339355,0
47530,-0.825684,0.473145,0.355957,0
47550,-0.812012,0.47998,0.370605,0
47570,-0.800781,0.52002,0.376953,0
47590,-0.794922,0.517578,0.364258,0
47610,-0.811035,0.518555,0.345215,0
47630,-0.803223,0.521484,0.390137,0
47650,-0.772461,0.540039,0.40625,0
47670,-0.76709,0.545898,0.382812,0
47690,-0.748535,0.553223,0.385254,0
47710,-0.727051,0.558594,0.388184,0
47730,-0.727051,0.543945,0.381836,0
47750,-0.732422,0.542969,0.383301,0
47770,-0.732422,0.568848,0.382324,0
47790,-0.741699,0.592285,0.366211,0
47810,-0.720215,0.61084,0.361816,0
47830,-0.704102,0.612793,0.355469,0
47850,-0.701172,0.608398,0.336426,0
47870,-0.725098,0.605957,0.327637,0
47890,-0.704102,0.608887,0.319336,0
47910,-0.679688,0.647461,0.3125,0
47930,-0.674316,0.650879,0.300293,0
47950,-0.669922,0.654297,0.291504,0
47970,-0.673828,0.652832,0.292969,0
47990,-0.670898,0.663574,0.296387,0
48010,-0.675781,0.67627,0.272949,0
48030,-0.680176,0.67627,0.261719,0
48050,-0.661133,0.695312,0.269531,0
48070,-0.648926,0.67334,0.251465,0
48090,-0.657227,0.681152,0.25293,0
48110,-0.658203,0.682617,0.260254,0
48130,-0.653809,0.672363,0.236328,0
48150,-0.641602,0.692383,0.21875,0
48170,-0.63623,0.709961,0.232422,0
48190,-0.628418,0.697266,0.239746,0
48210,-0.633301,0.657227,0.258301,0
48230,-0.648438,0.671387,0.223633,0
48250,-0.640625,0.708984,0.215332,0
48270,-0.635742,0.732422,0.202148,0
48290,-0.64209,0.720215,0.197754,0
48310,-0.651367,0.725098,0.197754,0
48330,-0.648438,0.745605,0.198242,0
48350,-0.645508,0.75293,0.1875,0
48370,-0.641602,0.734863,0.18457,0
48390,-0.637207,0.734863,0.205566,0
48410,-0.634766,0.759277,0.176758,0
48430,-0.632324,0.757812,0.175293,0
48450,-0.633301,0.746094,0.188477,0
48470,-0.634277,0.750488,0.163574,0
48490,-0.632324,0.768066,0.148438,0
48510,-0.637695,0.769043,0.170898,0
48530,-0.643555,0.768555,0.169922,0
48550,-0.627441,0.766602,0.155273,0
48570,-0.624023,0.775879,0.141602,0
48590,-0.631348,0.783691,0.142578,0
48610,-0.615234,0.783691,0.125488,0
48630,-0.604004,0.797852,0.116211,0
48650,-0.617188,0.793457,0.117188,0
48670,-0.603027,0.784668,0.116211,0
48690,-0.59375,0.793457,0.0952148,0
48710,-0.588867,0.795898,0.0698242,0
48730,-0.583984,0.794434,0.0654297,0
48750,-0.57666,0.780273,0.090332,0
48770,-0.588867,0.747559,0.074707,0
48790,-0.577637,0.751953,0.0512695,0
48810,-0.577148,0.780762,0.0444336,0
48830,-0.607422,0.772461,0.0629883,0
48850,-0.625488,0.734863,0.065918,0
48870,-0.647461,0.71582,0.0517578,0
48890,-0.645508,0.725098,0.0498047,0
48910,-0.66748,0.73291,0.043457,0
48930,-0.685547,0.69043,0.0395508,0
48940,-0.711426,0.673828,0.0625,0
48960,-0.752441,0.689941,0.0410156,0
48980,-0.747559,0.681152,0.0371094,0
49000,-0.726074,0.680664,0.027832,0
49020,-0.736328,0.679199,0.0185547,0
49040,-0.782715,0.660645,0.0297852,0
49060,-0.791504,0.658691,0.0361328,0
49080,-0.800293,0.668457,0.00878906,0
49100,-0.791016,0.657715,-0.0126953,0
49120,-0.797363,0.64502,0.0170898,0
49140,-0.819824,0.628906,0.012207,0
49160,-0.79834,0.608887,0.0117188,0
49180,-0.84082,0.605957,0.0327148,0
49200,-0.873047,0.609863,0.012207,0
49220,-0.846191,0.600098,0.00146484,0
49240,-0.834961,0.578613,0.00634766,0
49260,-0.862305,0.567383,0,0
49280,-0.877441,0.554688,-0.00292969,0
49300,-0.866699,0.541016,0.0107422,0
49320,-0.879883,0.540039,-0.00634766,0
49340,-0.920898,0.530273,0.00488281,0
49360,-0.929199,0.51123,0.0219727,0
49380,-0.894043,0.504883,0.000488281,0
49400,-0.903809,0.50293,-0.0195312,0
49420,-0.938477,0.494629,-0.00683594,0
49440,-0.937012,0.475098,0.000488281,0
49460,-0.903809,0.461426,0.00439453,0
49480,-0.930176,0.452148,0.0112305,0
49500,-0.944824,0.4375,-0.00634766,0
49520,-0.937012,0.4375,-0.0180664,0
49540,-0.944824,0.414062,0.0288086,0
49560,-0.950684,0.400391,0.0185547,0
49580,-0.949219,0.392578,-0.0170898,0
49600,-0.961426,0.404297,-0.00634766,0
49620,-0.983398,0.390137,0.0239258,0
49640,-0.978516,0.377441,0.0410156,0
49660,-0.975586,0.362793,0.00830078,0
49680,-0.990234,0.36084,0.0292969,0
49700,-0.993164,0.34375,0.0703125,0
49720,-0.975098,0.339355,0.0683594,0
49740,-0.964355,0.34375,0.0610352,0
49760,-0.974609,0.331055,0.0859375,0
49780,-0.971191,0.315918,0.113281,0
49800,-0.970215,0.313965,0.115234,0
49820,-0.995117,0.3125,0.137695,0
49840,-0.996094,0.312988,0.134277,0
49860,-0.974121,0.307617,0.154297,0
49880,-0.962891,0.308594,0.172852,0
49900,-0.995605,0.291992,0.182617,0
49920,-1.02051,0.291016,0.207031,0
49940,-1.00244,0.317871,0.217773,0
49960,-0.97168,0.320801,0.187012,0
49980,-0.993164,0.305176,0.215332,0
50000,-0.971191,0.299316,0.263184,0
50020,-0.937988,0.310547,0.272949,0
50040,-0.972656,0.324219,0.247559,0
50060,-0.981934,0.328125,0.274902,0
50080,-0.952637,0.332031,0.303223,0
50100,-0.928711,0.347656,0.300293,0
50120,-0.942871,0.35498,0.306641,0
50140,-0.931641,0.338379,0.300781,0
50160,-0.912109,0.330078,0.32666,0
50180,-0.888672,0.355469,0.336914,0
50200,-0.903809,0.39209,0.326172,0
50220,-0.916016,0.410645,0.32373,0
50240,-0.873047,0.398438,0.350586,0
50260,-0.864746,0.421387,0.342773,0
50280,-0.883789,0.439453,0.336914,0
50300,-0.871582,0.45752,0.32666,0
50320,-0.82373,0.464355,0.351562,0
50340,-0.797363,0.489258,0.358887,0
50360,-0.799805,0.483887,0.359863,0
50380,-0.782715,0.462402,0.353516,0
50400,-0.755371,0.476074,0.352051,0
50420,-0.744141,0.490723,0.347168,0
50440,-0.725586,0.532715,0.341797,0
50460,-0.705078,0.520996,0.341797,0
50480,-0.70459,0.510254,0.325684,0
50500,-0.699707,0.529785,0.334961,0
50520,-0.695801,0.545898,0.342773,0
50540,-0.69873,0.583984,0.322754,0
50560,-0.714844,0.583008,0.319824,0
50580,-0.721191,0.581543,0.332031,0
50600,-0.715332,0.577637,0.312012,0
50620,-0.712891,0.591309,0.310059,0
50640,-0.710449,0.606445,0.324219,0
50660,-0.699707,0.594238,0.328125,0
50680,-0.6875,0.605957,0.311035,0
50700,-0.704102,0.621582,0.293945,0
50720,-0.70459,0.628906,0.295898,0
50740,-0.679688,0.633789,0.299805,0
50760,-0.680664,0.648438,0.28418,0
50780,-0.692871,0.652344,0.257324,0
50800,-0.680176,0.642578,0.270508,0
50820,-0.659668,0.658691,0.260742,0
50840,-0.654297,0.669922,0.255859,0
50860,-0.658691,0.691895,0.23291,0
50880,-0.675781,0.696777,0.227539,0
50900,-0.677734,0.682617,0.232422,0
50920,-0.686035,0.680664,0.219727,0
50940,-0.687012,0.70166,0.20752,0
50960,-0.685059,0.709961,0.197754,0
50980,-0.703613,0.710449,0.173828,0
51000,-0.692383,0.713379,0.169434,0
51020,-0.679199,0.722656,0.175293,0
51040,-0.694824,0.712402,0.162109,0
51060,-0.705566,0.705566,0.150879,0
51080,-0.685547,0.733398,0.142578,0
51100,-0.691895,0.746094,0.146973,0
51120,-0.697266,0.735352,0.130859,0
51140,-0.674805,0.73877,0.0976562,0
51160,-0.681641,0.725098,0.0854492,0
51180,-0.694336,0.733887,0.121094,0
51200,-0.703125,0.744629,0.102539,0
51220,-0.713867,0.749512,0.0678711,0
51240,-0.683594,0.72998,0.0527344,0
51260,-0.685547,0.746582,0.0356445,0
51280,-0.675293,0.742676,0.0244141,0
51300,-0.664551,0.714844,0.0356445,0
51320,-0.654785,0.70752,0.0249023,0
51340,-0.638184,0.69873,0.00830078,0
51360,-0.652344,0.719238,0.015625,0
51380,-0.671387,0.700684,0,0
51400,-0.696289,0.672852,-0.00634766,0
51420,-0.714844,0.679688,-0.0229492,0
51440,-0.744141,0.700195,-0.0195312,0
51460,-0.743164,0.703613,-0.0322266,0
51480,-0.730957,0.6875,-0.0561523,0
51500,-0.73877,0.670898,-0.0673828,0
51520,-0.777832,0.648926,-0.0488281,0
51540,-0.819336,0.635742,-0.0493164,0
51560,-0.832031,0.647949,-0.065918,0
51580,-0.825684,0.65332,-0.0703125,0
51600,-0.835938,0.623535,-0.0634766,0
51620,-0.821289,0.595215,-0.0664062,0
51640,-0.813965,0.557617,-0.10498,0
51660,-0.799316,0.560059,-0.103027,0
51680,-0.811523,0.584961,-0.108887,0
51700,-0.829102,0.57373,-0.0976562,0
51720,-0.867188,0.523926,-0.0996094,0
51740,-0.87793,0.5,-0.111328,0
51760,-0.872559,0.518555,-0.106445,0
51780,-0.885742,0.540039,-0.100586,0
51800,-0.928711,0.503418,-0.111328,0
51820,-0.932129,0.479492,-0.100586,0
51840,-0.917969,0.477539,-0.0864258,0
51860,-0.911621,0.490234,-0.102539,0
51880,-0.924316,0.484375,-0.112305,0
51900,-0.922363,0.466797,-0.113281,0
51920,-0.935547,0.439941,-0.105957,2001
51940,-0.914551,0.411133,-0.11084,0
51960,-0.92041,0.429199,-0.108398,0
51980,-0.951172,0.444336,-0.113281,0
52000,-0.959961,0.416992,-0.106934,0
52020,-0.967285,0.391602,-0.119629,0
52040,-1.01025,0.398438,-0.106445,0
52060,-1.03174,0.414551,-0.0932617,0
52080,-1.02344,0.418945,-0.0961914,0
52100,-1.00342,0.404297,-0.118652,0
52120,-0.981934,0.398926,-0.102539,0
52140,-0.95166,0.40918,-0.101074,0
52160,-0.941895,0.401855,-0.0898438,0
52180,-0.907227,0.398926,-0.0756836,0
52200,-0.894043,0.40332,-0.0942383,0
52220,-0.874023,0.414062,-0.0927734,0
52240,-0.858398,0.429688,-0.0932617,0
52260,-0.841309,0.448242,-0.100586,0
52280,-0.841309,0.455566,-0.0854492,0
52300,-0.846191,0.445312,-0.0791016,0
52320,-0.834473,0.449219,-0.102539,0
52340,-0.813965,0.467773,-0.125488,0
52360,-0.800781,0.490723,-0.111816,0
52370,-0.797852,0.491211,-0.0893555,0
52390,-0.775391,0.490234,-0.0712891,0
52410,-0.747559,0.500977,-0.0776367,0
52430,-0.743652,0.504395,-0.0717773,0
52450,-0.761719,0.515137,-0.027832,0
52470,-0.76416,0.522461,0.0302734,0
52490,-0.758789,0.519531,-0.00244141,0
52510,-0.76416,0.515625,-0.043457,0
52530,-0.829102,0.577148,-0.0161133,0
52550,-0.862305,0.57959,0.0571289,0
52570,-0.844727,0.548828,0.0947266,0
52590,-0.805664,0.545898,0.0664062,0
52610,-0.759766,0.560547,0.0576172,0
52630,-0.763184,0.625977,0.134766,0
52650,-0.739746,0.649414,0.230957,0
52670,-0.727539,0.67627,0.188477,0
52690,-0.691406,0.693848,0.157715,0
52710,-0.703613,0.728027,0.169922,0
52730,-0.705566,0.762207,0.228516,0
52750,-0.691406,0.796387,0.271973,0
52770,-0.638184,0.786133,0.269531,0
52790,-0.675293,0.804199,0.236816,0
52810,-0.69043,0.812988,0.241211,0
52830,-0.65918,0.80127,0.268555,0
52850,-0.63623,0.822754,0.241699,0
52870,-0.632324,0.884277,0.22168,0
52890,-0.618164,0.911621,0.228516,0
52910,-0.601562,0.910645,0.250488,0
52930,-0.570801,0.880371,0.257324,0
52950,-0.555664,0.882324,0.259277,0
52970,-0.533691,0.910645,0.217285,0
52990,-0.544922,0.90625,0.19873,0
53010,-0.54541,0.882812,0.195312,0
53030,-0.52832,0.869141,0.227539,0
53050,-0.496582,0.896484,0.216309,0
53070,-0.493652,0.920898,0.224121,0
53090,-0.481445,0.904297,0.228516,0
53110,-0.496582,0.890137,0.249023,0
53130,-0.489258,0.852051,0.25293,0
53150,-0.458984,0.833008,0.261719,0
53170,-0.43457,0.84375,0.280273,0
53190,-0.434082,0.858398,0.275391,0
53210,-0.444336,0.860352,0.299805,0
53230,-0.45752,0.842285,0.296387,0
53250,-0.450195,0.82666,0.276855,0
53270,-0.427734,0.848145,0.289062,0
53290,-0.410645,0.861816,0.276855,0
53310,-0.416016,0.865234,0.271484,0
53330,-0.42041,0.844727,0.281738,0
53350,-0.412109,0.841797,0.306641,0
53370,-0.414062,0.851074,0.303711,0
53390,-0.428711,0.862793,0.274902,0
53410,-0.426758,0.848145,0.27832,0
53430,-0.416016,0.849121,0.270996,0
53450,-0.414551,0.848633,0.280273,0
53470,-0.407715,0.859375,0.275879,0
53490,-0.411133,0.84375,0.282227,0
53510,-0.414062,0.834473,0.273438,0
53530,-0.396973,0.840332,0.263184,0
53550,-0.383789,0.841309,0.263184,0
53570,-0.365723,0.842773,0.283203,0
53590,-0.347168,0.83252,0.263672,0
53610,-0.314941,0.848145,0.234863,0
53630,-0.294922,0.824707,0.216309,0
53650,-0.272949,0.810547,0.244629,0
53670,-0.258789,0.842773,0.229492,0
53690,-0.259277,0.839844,0.280762,0
53710,-0.24707,0.813965,0.277832,0
53730,-0.255371,0.837402,0.263672,0
53750,-0.311035,0.894043,0.300781,0
53770,-0.344727,0.902344,0.38623,0
53790,-0.347656,0.845703,0.348633,0
53810,-0.34082,0.855469,0.333496,0
53830,-0.361328,0.878906,0.361816,0
53850,-0.356934,0.883789,0.351562,0
53870,-0.303711,0.893066,0.342285,0
53890,-0.317871,0.904297,0.369141,0
53910,-0.344727,0.997559,0.447266,0
53930,-0.365234,0.963379,0.437988,0
53950,-0.345215,0.87793,0.408203,0
53970,-0.312012,0.889648,0.438477,0
53990,-0.304688,0.929199,0.458496,0
54010,-0.307617,0.887695,0.453125,0
54030,-0.305176,0.866211,0.446777,0
54050,-0.288086,0.844727,0.444824,0
54070,-0.279785,0.837891,0.456055,0
54090,-0.297852,0.82666,0.453613,0
54110,-0.30127,0.806152,0.418457,0
54130,-0.293457,0.777832,0.413086,0
54150,-0.276367,0.781738,0.409668,0
54170,-0.267578,0.81543,0.399414,0
54190,-0.276367,0.818359,0.393066,0
54210,-0.280762,0.803223,0.412109,0
54230,-0.284668,0.810547,0.40625,0
54250,-0.277344,0.817383,0.403809,0
54270,-0.277344,0.831055,0.403809,0
54290,-0.28418,0.847168,0.411133,0
54310,-0.291504,0.857422,0.416504,0
54330,-0.29248,0.847168,0.421387,0
54350,-0.276855,0.851562,0.401855,0
54370,-0.272461,0.851562,0.421387,0
54380,-0.275391,0.86084,0.426758,0
54400,-0.282715,0.879883,0.406738,0
54420,-0.288574,0.880859,0.382324,0
54440,-0.299805,0.889648,0.381348,0
54460,-0.333496,0.899902,0.405762,0
54480,-0.402832,0.900391,0.378906,0
54500,-0.406738,0.896484,0.326172,0
54520,-0.367676,0.86377,0.304688,0
54540,-0.397949,0.853516,0.291992,0
54560,-0.393555,0.875977,0.344238,0
54580,-0.36084,0.846191,0.324219,0
54600,-0.37207,0.846191,0.291016,0
54620,-0.39209,0.853516,0.311523,0
54640,-0.400879,0.836426,0.32959,0
54660,-0.381836,0.775391,0.291504,0
54680,-0.359863,0.77832,0.320312,0
54700,-0.432617,0.784668,0.359375,0
54720,-0.455078,0.774414,0.339355,0
54740,-0.462891,0.796875,0.297852,0
54760,-0.517578,0.779297,0.26416,0
54780,-0.494629,0.779297,0.275391,0
54800,-0.486328,0.754883,0.30957,0
54820,-0.47998,0.773438,0.291504,0
54840,-0.499512,0.807617,0.250977,0
54860,-0.508789,0.842285,0.256348,0
54880,-0.506836,0.82666,0.263184,0
54900,-0.481445,0.812988,0.265625,0
54920,-0.489258,0.834961,0.268066,0
54940,-0.483887,0.834473,0.271484,0
54960,-0.477051,0.822754,0.277344,0
54980,-0.499512,0.810547,0.299805,0
55000,-0.512695,0.797852,0.321777,0
55020,-0.533691,0.789062,0.318848,0
55040,-0.555664,0.787598,0.324707,0
55060,-0.563965,0.779785,0.333008,0
55080,-0.567383,0.763672,0.334961,0
55100,-0.548828,0.755859,0.315918,0
55120,-0.513672,0.756836,0.309082,0
55140,-0.47998,0.763184,0.325684,0
55160,-0.468262,0.789062,0.34082,0
55180,-0.439453,0.776367,0.333984,0
55200,-0.42041,0.789062,0.333496,0
55220,-0.392578,0.795898,0.357422,0
55240,-0.378418,0.803223,0.359863,0
55260,-0.348633,0.822754,0.346191,0
55280,-0.312988,0.835938,0.333984,0
55300,-0.301758,0.853027,0.318848,0
55320,-0.317383,0.885254,0.311035,0
55340,-0.335938,0.911133,0.314453,0
55360,-0.349121,0.908691,0.304199,0
55380,-0.363281,0.908691,0.293457,0
55400,-0.38623,0.902344,0.282227,0
55420,-0.379883,0.894043,0.293945,0
55440,-0.381348,0.873047,0.308105,0
55460,-0.401367,0.85791,0.281738,0
55480,-0.396973,0.824707,0.264648,0
55500,-0.383789,0.800293,0.286621,0
55520,-0.382324,0.786621,0.304199,0
55540,-0.384766,0.801758,0.308594,0
55560,-0.37793,0.806152,0.327637,0
55580,-0.390625,0.817871,0.338379,0
55600,-0.40332,0.832031,0.334473,0
55620,-0.401855,0.847168,0.316895,0
55640,-0.409668,0.848145,0.308594,0
55660,-0.428223,0.85791,0.313965,0
55680,-0.450684,0.843262,0.304688,0
55700,-0.456543,0.820801,0.338379,0
55720,-0.456543,0.813965,0.354004,0
55740,-0.472656,0.808105,0.345215,0
55760,-0.487305,0.804199,0.319824,0
55780,-0.469238,0.79248,0.321289,0
55800,-0.455566,0.804688,0.327637,0
55820,-0.447266,0.811523,0.318359,0
55840,-0.4375,0.805664,0.315918,0
55860,-0.427734,0.811523,0.3125,0
55880,-0.432129,0.819824,0.315918,0
55900,-0.445312,0.820312,0.324707,0
55920,-0.450684,0.815918,0.314941,0
55940,-0.444336,0.81543,0.322266,0
55960,-0.439941,0.818359,0.327148,0
55980,-0.4375,0.830566,0.331543,0
56000,-0.433105,0.824219,0.334961,0
56020,-0.428223,0.802734,0.334961,0
56040,-0.433594,0.819824,0.334473,0
56060,-0.441406,0.835938,0.329102,0
56080,-0.433594,0.831543,0.322266,0
56100,-0.427246,0.826172,0.315918,0
56120,-0.428223,0.825195,0.325684,0
56140,-0.420898,0.824219,0.325195,0
56160,-0.42334,0.816406,0.331055,0
56180,-0.422852,0.821289,0.333008,0
56200,-0.421875,0.831055,0.325684,0
56220,-0.425293,0.827637,0.328125,0
56240,-0.42627,0.821289,0.339355,0
56260,-0.431641,0.817383,0.327148,0
56280,-0.426758,0.827148,0.318848,0
56300,-0.423828,0.8125,0.312988,0
56320,-0.430176,0.837891,0.325195,0
56340,-0.430176,0.828613,0.327148,0
56360,-0.430176,0.835938,0.314941,0
56380,-0.43457,0.811523,0.310547,0
56400,-0.43457,0.824219,0.311523,0
56420,-0.432129,0.825684,0.312988,2000
56440,-0.432129,0.82959,0.313965,0
56460,-0.433594,0.818359,0.320312,0
56480,-0.430664,0.822754,0.316406,0
56500,-0.433594,0.820801,0.313965,0
56520,-0.434082,0.817871,0.322754,0
56540,-0.435547,0.82959,0.316406,0
56560,-0.431641,0.827637,0.326172,0
56580,-0.430664,0.820801,0.324707,0
56600,-0.435059,0.82373,0.319336,0
56620,-0.422852,0.82959,0.311523,0
56640,-0.418945,0.831543,0.316895,0
56660,-0.418945,0.827637,0.3125,0
56680,-0.415039,0.834473,0.330078,0
56700,-0.405762,0.825684,0.339355,0
56720,-0.39502,0.829102,0.333984,0
56740,-0.402344,0.828125,0.336914,0
56760,-0.40625,0.843262,0.324707,0
56780,-0.401367,0.82959,0.316895,0
56800,-0.39502,0.83252,0.318848,0
56820,-0.40332,0.830078,0.328125,0
56840,-0.400391,0.842285,0.331543,0
56860,-0.391113,0.835449,0.297363,0
56880,-0.406738,0.834473,0.296387,0
56900,-0.410645,0.835449,0.311523,0
56920,-0.428711,0.825195,0.310059,0
56940,-0.430176,0.814453,0.318359,0
56960,-0.432617,0.825684,0.308105,0
56980,-0.434082,0.841797,0.305176,0
57000,-0.452637,0.84082,0.3125,0
57020,-0.469727,0.838379,0.311523,0
57040,-0.460938,0.833984,0.298828,0
57060,-0.48291,0.828613,0.269531,0
57080,-0.492188,0.814453,0.270996,0
57100,-0.519043,0.800293,0.299316,0
57120,-0.53125,0.804199,0.291992,0
57140,-0.520996,0.790039,0.277832,0
57160,-0.535156,0.797363,0.265137,0
57180,-0.53418,0.808105,0.239746,0
57200,-0.540039,0.804199,0.228027,0
57220,-0.554688,0.797363,0.240723,0
57240,-0.566895,0.786133,0.253418,0
57260,-0.567871,0.779785,0.245117,0
57280,-0.560547,0.771484,0.224609,0
57300,-0.564941,0.766113,0.221191,0
57320,-0.564941,0.783691,0.216797,0
57340,-0.573242,0.779785,0.228027,0
57360,-0.580078,0.769531,0.209961,0
57380,-0.573242,0.758301,0.200195,0
57400,-0.581543,0.763672,0.209473,0
57420,-0.586426,0.760742,0.227051,0
57440,-0.570801,0.757324,0.20459,0
57460,-0.602051,0.752441,0.188965,0
57480,-0.602051,0.746094,0.194824,0
57500,-0.617188,0.733887,0.215332,0
57520,-0.617188,0.73291,0.208496,0
57540,-0.616211,0.742676,0.192871,0
57560,-0.61377,0.73877,0.202148,0
57580,-0.623047,0.727539,0.206055,0
57600,-0.622559,0.737305,0.209961,0
57620,-0.641602,0.729492,0.203613,0
57640,-0.643066,0.728516,0.19043,0
57660,-0.650391,0.71582,0.203125,0
57680,-0.652832,0.716797,0.206543,0
57700,-0.681641,0.702148,0.23291,0
57720,-0.694336,0.686523,0.240234,0
57740,-0.675781,0.690918,0.22998,0
57760,-0.674805,0.678711,0.249023,0
57780,-0.671387,0.676758,0.284668,0
57800,-0.700195,0.66748,0.298828,0
57810,-0.71582,0.658203,0.28418,0
57830,-0.703613,0.67627,0.266113,0
57850,-0.70166,0.668945,0.288574,0
57870,-0.710938,0.662109,0.30127,0
57890,-0.707031,0.660156,0.313477,0
57910,-0.727539,0.656738,0.312988,0
57930,-0.733887,0.657715,0.325684,0
57950,-0.707031,0.646973,0.347168,0
57970,-0.70459,0.642578,0.348145,0
57990,-0.718262,0.628906,0.335938,0
58010,-0.751465,0.628906,0.327148,0
58030,-0.731934,0.621582,0.352051,0
58050,-0.71582,0.625488,0.355957,0
58070,-0.690918,0.619141,0.364746,0
58090,-0.692383,0.610352,0.385254,0
58110,-0.714844,0.59082,0.373535,0
58130,-0.732422,0.586426,0.36084,0
58150,-0.681152,0.600586,0.361328,0
58170,-0.643066,0.62207,0.418945,0
58190,-0.659668,0.622559,0.438477,0
58210,-0.704102,0.611816,0.408691,0
58230,-0.713379,0.592285,0.388672,0
58250,-0.686523,0.614746,0.399902,0
58270,-0.649414,0.633789,0.411133,0
58290,-0.67041,0.634277,0.443359,0
58310,-0.695312,0.609375,0.423828,0
58330,-0.720215,0.604492,0.412598,0
58350,-0.67041,0.615723,0.422363,0
58370,-0.656738,0.652832,0.443848,0
58390,-0.644531,0.628418,0.455078,0
58410,-0.667969,0.600586,0.455566,0
58430,-0.687012,0.595215,0.443359,0
58450,-0.666016,0.601074,0.429199,0
58470,-0.640137,0.619629,0.454102,0
58490,-0.634766,0.624512,0.44873,0
58510,-0.638184,0.624023,0.44873,0
58530,-0.630859,0.618164,0.437988,0
58550,-0.605957,0.614746,0.45752,0
58570,-0.610352,0.618164,0.457031,0
58590,-0.61084,0.621094,0.453613,0
58610,-0.602051,0.61377,0.443848,0
58630,-0.581055,0.635254,0.440918,0
58650,-0.585938,0.646484,0.447266,0
58670,-0.602051,0.648438,0.446777,0
58690,-0.59668,0.634277,0.460449,0
58710,-0.570801,0.649414,0.458984,0
58730,-0.574219,0.65625,0.439453,0
58750,-0.564453,0.648438,0.460938,0
58770,-0.55957,0.643555,0.459473,0
58790,-0.570801,0.642578,0.435547,0
58810,-0.565918,0.666016,0.442871,0
58830,-0.539062,0.697266,0.472168,0
58850,-0.545898,0.689941,0.460938,0
58870,-0.5625,0.666016,0.430176,0
58890,-0.553223,0.651367,0.448242,0
58910,-0.543945,0.657715,0.445312,0
58930,-0.545898,0.6875,0.459961,0
58950,-0.545898,0.706543,0.443848,0
58970,-0.525879,0.727051,0.437988,0
58990,-0.514648,0.727051,0.438965,0
59010,-0.51416,0.714355,0.434082,0
59030,-0.51709,0.719727,0.396973,0
59050,-0.503418,0.731445,0.400391,0
59070,-0.497559,0.749023,0.418945,0
59090,-0.503418,0.74707,0.39502,0
59110,-0.512207,0.727051,0.39209,0
59130,-0.513672,0.730469,0.40918,0
59150,-0.505371,0.743164,0.398438,0
59170,-0.500977,0.750977,0.368164,0
59190,-0.495117,0.73877,0.368164,0
59210,-0.48291,0.746094,0.388672,0
59230,-0.491699,0.752441,0.372559,0
59250,-0.505371,0.737305,0.35791,0
59270,-0.501465,0.737793,0.35791,0
59290,-0.48291,0.749512,0.345215,0
59310,-0.46582,0.754883,0.336914,0
59330,-0.476074,0.760254,0.309082,0
59350,-0.489746,0.757812,0.322754,0
59370,-0.483887,0.761719,0.311035,0
59390,-0.480957,0.775391,0.311523,0
59410,-0.494141,0.787109,0.3125,0
59430,-0.496094,0.790039,0.316406,0
59450,-0.501953,0.789551,0.306152,0
59470,-0.510254,0.787598,0.296875,0
59490,-0.516602,0.797363,0.299316,0
59510,-0.505371,0.80127,0.297363,0
59530,-0.483887,0.787109,0.288574,0
59550,-0.475586,0.789551,0.25293,0
59570,-0.48291,0.824707,0.249512,0
59590,-0.486816,0.828613,0.254395,0
59610,-0.478516,0.811035,0.253418,0
59630,-0.470703,0.815918,0.248047,0
59650,-0.46875,0.820312,0.23584,0
59670,-0.458984,0.822266,0.227051,0
59690,-0.455566,0.824707,0.220215,0
59710,-0.452148,0.846191,0.219238,0
59730,-0.472168,0.844238,0.209961,0
59750,-0.477539,0.834473,0.206055,0
59770,-0.478516,0.830078,0.214844,0
59790,-0.494141,0.833496,0.206543,0
59810,-0.499023,0.834473,0.189453,0
59820,-0.493652,0.842773,0.188477,0
59840,-0.494141,0.835938,0.172852,0
59860,-0.498047,0.847656,0.155273,0
59880,-0.523438,0.837891,0.178223,0
59900,-0.532715,0.830566,0.193848,0
59920,-0.550293,0.823242,0.175781,0
59940,-0.554199,0.807129,0.146973,0
59960,-0.541992,0.804199,0.14502,0
59980,-0.532227,0.824219,0.151855,0
60000,-0.544922,0.824707,0.143555,0
60020,-0.53418,0.804688,0.128418,0
60040,-0.555176,0.792969,0.109863,0
60060,-0.585449,0.802246,0.136719,0
60080,-0.618164,0.793945,0.140625,0
60100,-0.617676,0.787109,0.101074,0
60120,-0.628906,0.783691,0.124023,0
60140,-0.646484,0.779297,0.134766,0
60160,-0.649902,0.772461,0.124512,0
60180,-0.654297,0.757812,0.109375,0
60200,-0.661133,0.743164,0.0961914,0
60220,-0.679688,0.744141,0.0722656,0
60240,-0.698242,0.749512,0.100098,0
60260,-0.69873,0.745117,0.119141,0
60280,-0.675781,0.738281,0.0986328,0
60300,-0.680664,0.731445,0.0600586,0
60320,-0.67334,0.714844,0.0629883,0
60340,-0.696777,0.705566,0.0834961,0
60360,-0.713867,0.689453,0.0947266,0
60370,-0.700684,0.664062,0.0737305,0
60390,-0.72998,0.639648,0.0893555,0
60410,-0.760742,0.63623,0.116211,0
60430,-0.748047,0.643555,0.119629,0
60450,-0.736816,0.647949,0.0957031,0
60470,-0.775391,0.652344,0.0859375,0
60490,-0.8125,0.63623,0.0947266,0
60510,-0.825684,0.604004,0.0991211,0
60530,-0.831055,0.585938,0.111328,0
60550,-0.848145,0.586426,0.103027,0
60570,-0.865234,0.566895,0.104004,0
60590,-0.873047,0.543945,0.097168,0
60610,-0.866699,0.527832,0.115723,0
60630,-0.875977,0.512695,0.124023,0
60650,-0.899414,0.498535,0.126465,0
60670,-0.896484,0.472656,0.136719,0
60690,-0.896973,0.480469,0.148438,0
60710,-0.879395,0.475098,0.142578,0
60730,-0.875977,0.456055,0.183105,0
60750,-0.875,0.451172,0.182129,0
60770,-0.878906,0.450684,0.171387,0
60790,-0.887695,0.45459,0.194336,0
60810,-0.89502,0.441406,0.194824,0
60830,-0.902832,0.439941,0.197754,0
60850,-0.914551,0.433105,0.210938,0
60870,-0.89209,0.438477,0.223633,0
60890,-0.896484,0.447266,0.233398,0
60910,-0.906738,0.437988,0.248535,0
60930,-0.914062,0.419922,0.253418,0
60950,-0.90918,0.419922,0.275879,0
60970,-0.904785,0.425293,0.283691,0
60990,-0.904785,0.423828,0.291016,0
61010,-0.925781,0.415039,0.301758,0
61030,-0.911621,0.41748,0.305664,0
61050,-0.882324,0.435547,0.308594,0
61070,-0.876953,0.4375,0.32373,0
61090,-0.891113,0.419434,0.335449,0
61110,-0.888184,0.414062,0.335449,0
61130,-0.85791,0.418945,0.358887,0
61150,-0.82373,0.4375,0.372559,0
61170,-0.84375,0.45459,0.392578,0
61190,-0.841309,0.446777,0.382812,0
61210,-0.827148,0.441895,0.389648,0
61230,-0.832031,0.451172,0.390137,0
61250,-0.813965,0.471191,0.382812,0
61270,-0.799316,0.501953,0.413086,0
61290,-0.790039,0.500488,0.42334,0
61310,-0.805664,0.474609,0.398926,0
61330,-0.804688,0.491211,0.413574,0
61350,-0.779785,0.503418,0.425293,0
61370,-0.754395,0.526855,0.425781,0
61390,-0.760254,0.522461,0.412598,0
61410,-0.763184,0.504883,0.414551,0
61430,-0.766602,0.532227,0.411621,0
61450,-0.740234,0.549316,0.396973,0
61470,-0.732422,0.569824,0.404785,0
61490,-0.730957,0.543457,0.402832,0
61510,-0.72998,0.544922,0.379395,0
61530,-0.707031,0.585449,0.380371,0
61550,-0.685547,0.608887,0.388184,0
61570,-0.705566,0.579102,0.354004,0
61590,-0.724121,0.569336,0.35498,0
61610,-0.705078,0.623047,0.358887,0
61630,-0.695801,0.610352,0.349609,0
61650,-0.666992,0.612793,0.344238,0
61670,-0.663574,0.590332,0.358887,0
61690,-0.678223,0.604004,0.344727,0
61710,-0.672852,0.647949,0.334473,0
61730,-0.652344,0.67041,0.318848,0
61750,-0.644043,0.683594,0.322754,0
61770,-0.640625,0.677246,0.316895,0
61790,-0.650391,0.655762,0.29248,0
61810,-0.649414,0.669922,0.291016,0
61830,-0.638184,0.696777,0.269531,0
61850,-0.637695,0.706055,0.262695,0
61870,-0.633789,0.706055,0.268555,0
61890,-0.631348,0.715332,0.259766,0
61910,-0.607422,0.712891,0.238281,0
61930,-0.597168,0.709961,0.23877,0
61950,-0.59668,0.730957,0.235352,0
61970,-0.598145,0.743652,0.227051,0
61990,-0.584961,0.736816,0.220215,0
62010,-0.584473,0.745117,0.228516,0
62030,-0.574707,0.768066,0.216309,0
62050,-0.564941,0.76416,0.19873,0
62070,-0.567383,0.772461,0.19043,0
62090,-0.560547,0.769043,0.192383,0
62110,-0.567383,0.783203,0.169434,0
62130,-0.573242,0.777832,0.156738,0
62150,-0.571777,0.78418,0.177246,0
62170,-0.573242,0.794434,0.165039,0
62190,-0.578125,0.790527,0.142578,0
62210,-0.583984,0.793457,0.149902,0
62230,-0.579102,0.78418,0.143555,0
62250,-0.566895,0.786621,0.106934,0
62270,-0.567871,0.785645,0.103027,0
62290,-0.575195,0.793945,0.127441,0
62310,-0.589844,0.791504,0.119629,0
62330,-0.598145,0.774902,0.101074,0
62350,-0.609375,0.776855,0.0976562,0
62370,-0.641602,0.795898,0.104004,0
62390,-0.674316,0.789551,0.0654297,0
62410,-0.671875,0.773438,0.0913086,0
62430,-0.682129,0.762207,0.109375,0
62450,-0.690918,0.761719,0.074707,0
62470,-0.671387,0.758301,0.0512695,0
62490,-0.656738,0.759766,0.0585938,0
62510,-0.660645,0.744141,0.0405273,0
62530,-0.672852,0.728516,0.0361328,0
62550,-0.680176,0.706543,0.0439453,0
62570,-0.688477,0.696289,0.0341797,0
62590,-0.692871,0.705078,0.0249023,0
62610,-0.703613,0.693848,0.0224609,0
62630,-0.70166,0.691406,0.0268555,0
62650,-0.727539,0.695312,0.000488281,0
62670,-0.733887,0.685059,-0.015625,0
62690,-0.741699,0.685547,-0.00683594,0
62710,-0.745605,0.675781,-0.0151367,0
62730,-0.73877,0.66748,-0.0273438,0
62750,-0.74707,0.672363,-0.0361328,0
62770,-0.765137,0.664551,-0.0439453,0
62790,-0.790039,0.671875,-0.0610352,0
62810,-0.80127,0.668457,-0.059082,0
62830,-0.78125,0.652344,-0.0429688,0
62850,-0.79248,0.638672,-0.0488281,0
62870,-0.825195,0.631348,-0.0595703,0
62890,-0.828613,0.640625,-0.0620117,0
62910,-0.804199,0.635254,-0.0551758,0
62930,-0.814453,0.625488,-0.0537109,0
62950,-0.828125,0.599609,-0.0732422,0
62970,-0.842285,0.585449,-0.0834961,0
62990,-0.827148,0.589355,-0.0839844,0
63010,-0.846191,0.591797,-0.0546875,0
63030,-0.854004,0.577148,-0.0639648,0
63050,-0.861816,0.55957,-0.0957031,0
63070,-0.859375,0.556152,-0.0996094,0
63090,-0.875488,0.564453,-0.0737305,0
63110,-0.893555,0.550293,-0.0712891,0
63130,-0.883789,0.530762,-0.0751953,0
63150,-0.888672,0.525391,-0.0800781,0
63170,-0.894531,0.515137,-0.0708008,0
63190,-0.911133,0.499512,-0.0385742,0
63210,-0.919434,0.497559,-0.0336914,0
63230,-0.901855,0.491211,-0.0566406,0
63240,-0.894531,0.490234,-0.0605469,0
63260,-0.899902,0.486816,-0.0615234,0
63280,-0.881348,0.480469,-0.0498047,0
63300,-0.907227,0.480957,-0.0463867,0
63320,-0.930664,0.471191,-0.0297852,0
63340,-0.927246,0.452148,-0.0268555,0
63360,-0.941895,0.446777,-0.03125,0
63380,-0.941406,0.439453,-0.0195312,0
63400,-0.950684,0.431641,-0.00927734,0
63420,-0.948242,0.421875,-0.00292969,0
63440,-0.950684,0.415527,0.00439453,0
63460,-0.956543,0.404297,0.0244141,0
63480,-0.953613,0.395996,0.0341797,0
63500,-0.95459,0.385254,0.0444336,0
63520,-0.964355,0.36084,0.0507812,0
63540,-0.973145,0.341309,0.0576172,0
63560,-0.980469,0.338867,0.0737305,0
63580,-0.963867,0.338867,0.0756836,0
63600,-0.971191,0.338379,0.078125,0
63620,-0.95752,0.336426,0.104004,0
63640,-0.95752,0.339844,0.104004,0
63660,-0.96875,0.338379,0.110352,0
63680,-0.963867,0.327148,0.129883,0
63700,-0.971191,0.32959,0.153809,0
63720,-0.991211,0.330566,0.166992,0
63740,-0.986328,0.32959,0.158691,0
63760,-0.974121,0.348633,0.166016,0
63780,-0.966309,0.352051,0.200684,0
63800,-0.973145,0.333008,0.229492,0
63820,-0.999023,0.312012,0.247559,0
63840,-1.01318,0.319336,0.246582,0
63860,-1.00488,0.34082,0.264648,0
63880,-0.989258,0.353516,0.307617,0
63900,-0.993652,0.336426,0.303711,0
63920,-1.00146,0.321289,0.300781,0
63940,-0.975586,0.371582,0.301758,0
63960,-0.90625,0.414062,0.33252,0
63980,-0.874023,0.419434,0.329102,0
64000,-0.869629,0.383789,0.32959,0
64020,-0.859375,0.37207,0.328125,0
64040,-0.820312,0.411133,0.337891,0
64060,-0.788086,0.438477,0.370117,0
64080,-0.794434,0.446289,0.366211,0
64100,-0.787598,0.428711,0.337402,0
64120,-0.770996,0.44873,0.351562,0
64140,-0.753418,0.475586,0.366211,0
64160,-0.76416,0.473633,0.375,0
64180,-0.774902,0.477051,0.364258,0
64200,-0.770508,0.497559,0.357422,0
64220,-0.763184,0.51709,0.35498,0
64240,-0.756348,0.540527,0.364746,0
64260,-0.759766,0.521484,0.347168,0
64280,-0.763184,0.535156,0.341797,0
64300,-0.742188,0.564941,0.34668,0
64320,-0.726074,0.59375,0.34375,0
64340,-0.730469,0.573242,0.320801,0
64360,-0.72998,0.571777,0.319336,0
64380,-0.701172,0.589844,0.339355,0
64400,-0.689941,0.606445,0.320801,0
64420,-0.713867,0.60791,0.320801,0
64440,-0.719727,0.609375,0.32666,0
64460,-0.708984,0.618164,0.32959,0
64480,-0.693848,0.635254,0.318848,0
64500,-0.694336,0.634766,0.325684,0
64520,-0.694336,0.608398,0.31543,0
64540,-0.688965,0.62793,0.307129,0
64560,-0.681641,0.67627,0.300781,0
64580,-0.693848,0.702637,0.293945,0
64600,-0.691406,0.671875,0.276367,0
64620,-0.689453,0.664062,0.286133,0
64640,-0.667969,0.674805,0.290527,0
64660,-0.668945,0.694336,0.254883,0
64680,-0.685547,0.686523,0.251465,0
64700,-0.67041,0.687988,0.240723,0
64720,-0.675781,0.688965,0.224121,0
64740,-0.676758,0.701172,0.217285,0
64760,-0.685547,0.692871,0.212891,0
64780,-0.67627,0.694336,0.208984,0
64800,-0.67041,0.692871,0.185059,0
64820,-0.652832,0.694336,0.152832,0
64840,-0.635254,0.711426,0.13623,0
64860,-0.622559,0.713867,0.112793,0
64880,-0.625,0.712402,0.109375,0
64900,-0.664551,0.710449,0.130859,0
64920,-0.677246,0.714844,0.115234,0
64940,-0.669922,0.722656,0.0825195,0
64960,-0.68457,0.753906,0.0673828,0
64980,-0.696777,0.752441,0.059082,0
65000,-0.703613,0.725586,0.0517578,0
65020,-0.725586,0.720215,0.0263672,0
65040,-0.735352,0.715332,0.00488281,0
65060,-0.76709,0.732422,0.00683594,0
65080,-0.73877,0.721191,-0.000488281,0
65100,-0.744141,0.717285,-0.0380859,0
65120,-0.726074,0.702148,-0.0634766,0
65140,-0.714355,0.699219,-0.0527344,0
65160,-0.73291,0.688477,-0.0351562,0
65180,-0.760742,0.672363,-0.0576172,0
65200,-0.757324,0.671387,-0.0678711,0
65220,-0.745605,0.67041,-0.0571289,0
65230,-0.739258,0.654297,-0.0678711,0
65250,-0.751953,0.640137,-0.0756836,0
65270,-0.762207,0.636719,-0.0717773,0
65290,-0.775879,0.623047,-0.0766602,0
65310,-0.777832,0.619141,-0.0893555,0
65330,-0.781738,0.609863,-0.0898438,0
65350,-0.821289,0.600098,-0.0556641,0
65370,-0.85791,0.587891,-0.0859375,0
65390,-0.849121,0.597656,-0.0893555,0
65410,-0.845215,0.595703,-0.0839844,0
65430,-0.849121,0.574707,-0.0952148,0
65450,-0.862305,0.567871,-0.116211,0
65470,-0.86377,0.557617,-0.120605,0
65490,-0.862793,0.527832,-0.105957,0
65510,-0.882324,0.512695,-0.10791,0
65530,-0.915039,0.50293,-0.118652,0
65550,-0.922363,0.496582,-0.12207,0
65570,-0.91748,0.48877,-0.125488,0
65590,-0.930664,0.480469,-0.121582,0
65610,-0.946289,0.453125,-0.132812,0
65630,-0.953613,0.434082,-0.134766,2001
65650,-0.963379,0.438477,-0.141113,0
65670,-0.954102,0.44043,-0.149414,0
65690,-0.950195,0.430176,-0.128418,0
65710,-0.960938,0.405273,-0.144531,0
65730,-0.959473,0.395996,-0.139648,0
65750,-0.949219,0.401855,-0.129883,0
65770,-0.946777,0.414062,-0.125977,0
65790,-0.946777,0.40332,-0.132812,0
65810,-0.922852,0.389648,-0.126953,0
65830,-0.904785,0.390625,-0.121094,0
65850,-0.873535,0.399414,-0.130371,0
65870,-0.835449,0.407715,-0.139648,0
65890,-0.775391,0.411133,-0.151367,0
65910,-0.69873,0.415039,-0.165527,0
65930,-0.654297,0.424316,-0.183594,0
65950,-0.640137,0.478516,-0.180176,0
65970,-0.652832,0.518555,-0.184082,0
65990,-0.639648,0.526367,-0.143066,0
66010,-0.594727,0.54834,-0.141602,0
66030,-0.539062,0.591309,-0.0981445,0
66050,-0.542969,0.59668,-0.0258789,0
66070,-0.578613,0.641113,0.0136719,0
66090,-0.666504,0.669922,-0.00390625,0
66110,-0.780273,0.673828,-0.0327148,0
66130,-0.791016,0.639648,0.0761719,0
66150,-0.765137,0.613281,0.0693359,0
66170,-0.778809,0.651855,-0.0644531,0
66190,-0.731934,0.734863,-0.0405273,0
66210,-0.692871,0.796875,0.0332031,0
66230,-0.67627,0.806641,0.0317383,0
66250,-0.689453,0.869629,-0.0126953,0
66270,-0.683105,0.925293,0.0102539,0
66290,-0.651855,0.954102,0.0473633,0
66310,-0.604004,0.920898,-0.0371094,0
66330,-0.597168,1.03613,-0.0351562,0
66350,-0.634277,1.12402,0.0288086,0
66370,-0.592285,1.12158,0.0249023,0
66390,-0.533691,1.13037,-0.0473633,0
66410,-0.486816,1.13037,0.00732422,0
66430,-0.42334,1.11084,0.0869141,0
66450,-0.331055,1.06689,0.116699,0
66470,-0.223633,1.10352,0.0288086,0
66490,-0.232422,1.06738,0.065918,0
66510,-0.233887,1.03027,0.106445,0
66530,-0.196289,1.04688,0.101074,0
66550,-0.179688,1.10107,0.112305,0
66570,-0.232422,1.09912,0.121582,0
66590,-0.259766,1.05371,0.14209,0
66610,-0.256836,1.02246,0.150879,0
66630,-0.263672,0.994141,0.105957,0
66650,-0.262695,1,0.09375,0
66670,-0.271484,0.974609,0.0908203,0
66690,-0.285156,0.955566,0.111328,0
66710,-0.276855,0.949707,0.100586,0
66730,-0.260742,0.966797,0.0893555,0
66750,-0.275879,0.966309,0.103516,0
66770,-0.295898,0.94043,0.090332,0
66790,-0.283691,0.930664,0.0908203,0
66810,-0.27002,0.924805,0.090332,0
66830,-0.259277,0.904297,0.0800781,0
66850,-0.245117,0.91748,0.0869141,0
66870,-0.246582,0.928711,0.09375,0
66890,-0.258301,0.928223,0.0800781,0
66910,-0.268555,0.932617,0.100098,0
66930,-0.276367,0.938965,0.101562,0
66950,-0.29541,0.944824,0.100098,0
66970,-0.294434,0.950195,0.0932617,0
66990,-0.291504,0.944336,0.100586,0
67010,-0.282227,0.95459,0.104492,0
67030,-0.276855,0.960449,0.0878906,0
67050,-0.278809,0.972656,0.0859375,0
67070,-0.285645,0.966797,0.0839844,0
67090,-0.276855,0.940918,0.0644531,0
67110,-0.259277,0.95459,0.0786133,0
67130,-0.269043,0.967773,0.0717773,0
67150,-0.277832,0.95166,0.0810547,0
67170,-0.276855,0.958008,0.0849609,0
67190,-0.279297,0.945801,0.0727539,0
67210,-0.273438,0.95166,0.0771484,0
67230,-0.285156,0.951172,0.0844727,0
67250,-0.292969,0.947266,0.078125,0
67270,-0.274902,0.9375,0.0830078,0
67290,-0.264648,0.966309,0.0859375,0
67310,-0.287109,0.953125,0.0805664,0
67330,-0.297363,0.942871,0.0961914,0
67350,-0.272461,0.938477,0.0849609,0
67370,-0.259277,0.969727,0.0766602,0
