Timestamp, Acceleration x, Acceleration y, Acceleration z, Marker
40,-0.477051,-0.859375,0.220703,0
50,-0.477051,-0.85791,0.214355,0
60,-0.477539,-0.857422,0.223145,0
80,-0.481445,-0.865234,0.217773,0
100,-0.477539,-0.857422,0.221191,0
120,-0.483887,-0.860352,0.217285,0
130,-0.47998,-0.860352,0.214844,0
130,-0.476562,-0.862793,0.214355,0
170,-0.477051,-0.861328,0.214844,0
190,-0.474609,-0.858398,0.217773,0
210,-0.475098,-0.859863,0.220703,0
230,-0.47998,-0.865723,0.217285,0
250,-0.474121,-0.861816,0.21582,0
270,-0.474609,-0.857422,0.220215,0
290,-0.475586,-0.860352,0.220215,0
310,-0.478027,-0.859375,0.214844,0
330,-0.479004,-0.857422,0.210449,0
350,-0.474609,-0.859863,0.212402,0
370,-0.477539,-0.859863,0.22168,0
390,-0.480957,-0.86377,0.215332,0
410,-0.482422,-0.858887,0.211426,0
430,-0.479004,-0.85791,0.216309,0
450,-0.477539,-0.859375,0.213867,0
470,-0.478027,-0.859375,0.216309,0
490,-0.480469,-0.859375,0.216797,0
510,-0.480469,-0.858398,0.219238,0
530,-0.480469,-0.86084,0.211426,0
550,-0.47998,-0.865723,0.204102,0
570,-0.484863,-0.859375,0.211426,0
590,-0.482422,-0.856445,0.211914,0
610,-0.47998,-0.858398,0.20752,0
630,-0.483887,-0.861328,0.216309,0
650,-0.477539,-0.856934,0.213867,0
670,-0.478516,-0.857422,0.208496,0
690,-0.475586,-0.862305,0.210449,0
710,-0.477051,-0.864746,0.216797,0
730,-0.476562,-0.862305,0.212402,0
750,-0.479004,-0.860352,0.209473,0
770,-0.477539,-0.867676,0.217285,0
790,-0.483398,-0.869629,0.211914,0
810,-0.482422,-0.856934,0.204102,0
830,-0.471191,-0.85791,0.213379,0
850,-0.481445,-0.85498,0.217285,0
870,-0.484375,-0.862793,0.213867,0
890,-0.480469,-0.855469,0.214355,0
910,-0.478027,-0.85791,0.217773,0
930,-0.479492,-0.866211,0.211914,0
950,-0.480469,-0.861816,0.211426,0
970,-0.481445,-0.858887,0.220703,0
990,-0.480469,-0.85791,0.214355,0
1010,-0.475586,-0.85791,0.208008,0
1030,-0.475098,-0.861328,0.206055,0
1050,-0.480957,-0.856934,0.212891,0
1070,-0.479492,-0.86084,0.210938,0
1090,-0.476562,-0.861816,0.212891,0
1110,-0.482422,-0.862793,0.219238,0
1130,-0.47998,-0.85791,0.217285,0
1150,-0.477539,-0.853516,0.217285,0
1170,-0.479004,-0.856445,0.217773,0
1190,-0.479492,-0.860352,0.220215,0
1210,-0.482422,-0.856445,0.22168,0
1230,-0.481934,-0.864258,0.21875,0
1250,-0.478516,-0.864746,0.21582,0
1270,-0.46875,-0.870117,0.202148,0
1290,-0.474609,-0.866699,0.201172,0
1310,-0.476562,-0.86084,0.213379,0
1330,-0.47998,-0.864258,0.213867,0
1350,-0.474121,-0.86084,0.212891,0
1370,-0.467285,-0.855469,0.21582,0
1390,-0.474121,-0.866211,0.213867,0
1410,-0.479492,-0.865234,0.208496,0
1430,-0.478027,-0.859863,0.201172,0
1450,-0.475098,-0.864746,0.203613,0
1470,-0.474609,-0.866211,0.208984,0
1490,-0.476562,-0.862305,0.212402,0
1510,-0.481934,-0.86084,0.208984,0
1530,-0.476562,-0.865723,0.207031,0
1550,-0.483398,-0.862305,0.211914,0
1570,-0.478516,-0.861816,0.214355,0
1590,-0.478516,-0.856445,0.214844,0
1610,-0.476074,-0.855469,0.208984,0
1630,-0.481445,-0.861328,0.203125,0
1650,-0.477539,-0.855957,0.211914,0
1670,-0.481445,-0.859863,0.206543,0
1690,-0.484375,-0.866211,0.212891,0
1710,-0.489258,-0.874512,0.210938,0
1730,-0.485352,-0.866699,0.218262,0
1750,-0.481934,-0.852539,0.219727,0
1770,-0.477539,-0.853027,0.217285,0
1790,-0.470703,-0.866699,0.22168,0
1810,-0.470215,-0.870117,0.214844,0
1830,-0.473145,-0.859375,0.208984,0
1850,-0.479004,-0.855469,0.200195,0
1870,-0.486816,-0.854492,0.212891,0
1890,-0.492676,-0.845703,0.206543,0
1910,-0.493652,-0.847656,0.205566,0
1940,-0.48877,-0.868164,0.206055,0
1960,-0.48291,-0.869629,0.209961,0
1980,-0.483887,-0.868164,0.20459,0
2000,-0.486328,-0.867188,0.206055,0
2020,-0.487305,-0.864258,0.209961,0
2040,-0.479492,-0.851074,0.21582,0
2060,-0.479492,-0.847168,0.216797,0
2080,-0.481445,-0.851562,0.219727,0
2100,-0.48291,-0.856445,0.21875,0
2120,-0.489746,-0.85791,0.224121,0
2140,-0.485352,-0.854004,0.227051,0
2160,-0.48291,-0.862793,0.22168,0
2180,-0.480469,-0.859375,0.228516,0
2200,-0.475098,-0.857422,0.226074,0
2220,-0.477539,-0.854004,0.226562,0
2240,-0.477539,-0.858398,0.229004,0
2260,-0.475586,-0.86084,0.229004,0
2280,-0.479492,-0.862793,0.224609,0
2300,-0.478027,-0.859863,0.226562,0
2320,-0.473633,-0.856445,0.224609,0
2340,-0.477539,-0.861328,0.218262,0
2360,-0.477051,-0.858887,0.216797,0
2380,-0.475586,-0.855957,0.220703,0
2400,-0.476562,-0.857422,0.219238,0
2420,-0.481445,-0.85791,0.220703,0
2430,-0.481445,-0.852051,0.217773,0
2450,-0.481445,-0.853516,0.21582,0
2470,-0.483887,-0.856445,0.223145,0
2490,-0.479004,-0.854492,0.220703,0
2510,-0.483398,-0.851074,0.219238,0
2530,-0.479492,-0.85498,0.215332,0
2550,-0.48584,-0.857422,0.219727,0
2570,-0.484375,-0.856445,0.21875,0
2590,-0.486328,-0.853027,0.219727,0
2610,-0.484375,-0.856934,0.214355,0
2630,-0.48877,-0.85498,0.210938,0
2650,-0.487793,-0.852051,0.220703,0
2670,-0.486816,-0.847656,0.220215,0
2690,-0.481445,-0.852539,0.221191,0
2710,-0.489746,-0.85791,0.226074,0
2730,-0.481934,-0.852051,0.228027,0
2750,-0.477051,-0.853516,0.22168,0
2770,-0.474609,-0.856445,0.214844,0
2790,-0.479004,-0.862305,0.218262,0
2810,-0.470703,-0.85498,0.215332,0
2830,-0.475586,-0.861328,0.222656,0
2850,-0.476074,-0.860352,0.220215,0
2870,-0.477539,-0.85498,0.220703,0
2890,-0.478027,-0.849609,0.225098,0
2910,-0.488281,-0.849609,0.237305,0
2930,-0.487305,-0.852051,0.250488,0
2950,-0.486816,-0.849121,0.241699,0
2970,-0.479492,-0.84668,0.227539,0
2990,-0.472168,-0.845703,0.218262,0
3010,-0.481445,-0.862793,0.223145,0
3030,-0.475586,-0.859863,0.229492,0
3050,-0.479004,-0.857422,0.235352,0
3070,-0.481934,-0.853516,0.242676,0
3090,-0.483398,-0.851562,0.249512,0
3110,-0.480469,-0.847656,0.246582,0
3130,-0.476562,-0.848633,0.227051,0
3150,-0.483887,-0.853027,0.229004,0
3170,-0.488281,-0.853516,0.21875,0
3190,-0.48584,-0.851562,0.225586,0
3210,-0.492188,-0.851562,0.228516,0
3230,-0.486328,-0.850098,0.233398,0
3250,-0.486328,-0.85498,0.241211,0
3270,-0.476562,-0.854492,0.238281,0
3290,-0.475098,-0.853027,0.233887,0
3310,-0.471191,-0.861816,0.230957,0
3330,-0.476562,-0.867676,0.228516,0
3350,-0.472656,-0.859863,0.212891,0
3370,-0.483887,-0.855469,0.21875,0
3390,-0.48877,-0.856445,0.21875,0
3410,-0.492676,-0.847656,0.222168,0
3430,-0.487793,-0.847168,0.229492,0
3450,-0.483887,-0.852051,0.22998,0
3470,-0.478516,-0.852539,0.225586,0
3490,-0.477051,-0.851074,0.227051,0
3510,-0.477051,-0.853027,0.22168,0
3550,-0.480957,-0.857422,0.224121,0
3570,-0.479492,-0.862793,0.226074,0
3590,-0.474609,-0.854492,0.22168,0
3610,-0.471191,-0.85498,0.21875,0
3630,-0.46875,-0.859375,0.219238,0
3650,-0.478027,-0.854004,0.219727,0
3670,-0.476562,-0.857422,0.21582,0
3690,-0.481445,-0.855469,0.220215,0
3710,-0.482422,-0.855957,0.223145,0
3730,-0.483398,-0.852051,0.229492,0
3750,-0.486816,-0.853516,0.227539,0
3770,-0.488281,-0.847168,0.228027,0
3790,-0.490234,-0.856445,0.228027,0
3810,-0.491699,-0.852539,0.230957,0
3830,-0.492676,-0.852051,0.21875,0
3850,-0.496094,-0.850098,0.217773,0
3870,-0.490723,-0.855957,0.216797,0
3890,-0.486328,-0.854492,0.22168,0
3910,-0.480469,-0.848633,0.223633,0
3930,-0.479004,-0.854004,0.227051,0
3950,-0.480469,-0.857422,0.222656,0
3970,-0.475586,-0.857422,0.223633,0
3990,-0.482422,-0.861328,0.225098,0
4010,-0.476074,-0.856445,0.223633,0
4030,-0.478027,-0.858398,0.222656,0
4050,-0.47998,-0.855469,0.225586,0
4070,-0.481934,-0.850586,0.22168,0
4110,-0.479492,-0.855469,0.224609,0
4130,-0.480469,-0.855957,0.223145,0
4150,-0.476562,-0.850586,0.223145,0
4170,-0.480957,-0.854004,0.226074,0
4190,-0.48291,-0.85791,0.226562,0
4210,-0.48291,-0.853027,0.223633,0
4230,-0.480469,-0.853516,0.226562,0
4250,-0.479492,-0.858887,0.218262,0
4270,-0.477051,-0.853516,0.225586,0
4290,-0.475586,-0.854004,0.226562,0
4310,-0.477051,-0.854492,0.231934,0
4330,-0.474121,-0.858398,0.226562,0
4350,-0.481934,-0.853516,0.228516,0
4370,-0.48291,-0.853516,0.240234,0
4390,-0.480469,-0.852051,0.240234,0
4410,-0.48584,-0.852539,0.238281,0
4420,-0.486328,-0.85498,0.23584,0
4440,-0.485352,-0.856934,0.229492,0
4460,-0.483887,-0.854492,0.235352,0
4480,-0.486816,-0.855957,0.230469,0
4500,-0.483887,-0.850586,0.227539,0
4520,-0.479492,-0.852539,0.224609,0
4540,-0.476562,-0.854004,0.22168,0
4560,-0.475586,-0.853027,0.213867,0
4580,-0.470703,-0.859863,0.216309,0
4600,-0.471191,-0.85498,0.217773,0
4620,-0.476562,-0.86377,0.217773,0
4640,-0.475098,-0.869629,0.216309,0
4660,-0.477051,-0.864746,0.216309,0
4680,-0.47998,-0.85498,0.209961,0
4700,-0.48584,-0.857422,0.217285,0
4720,-0.487305,-0.858398,0.209961,0
4740,-0.52832,-0.873047,0.210449,0
4760,-0.48291,-0.851562,0.21582,0
4780,-0.486328,-0.855957,0.21582,0
4800,-0.487793,-0.86084,0.21582,0
4820,-0.489258,-0.857422,0.226562,0
4840,-0.48584,-0.852051,0.220703,0
4860,-0.481934,-0.85498,0.222168,0
4880,-0.480469,-0.852051,0.228516,0
4900,-0.482422,-0.853516,0.219727,0
4920,-0.479492,-0.853516,0.218262,0
4940,-0.483887,-0.856934,0.215332,0
4960,-0.47998,-0.858887,0.216797,0
4980,-0.484375,-0.856445,0.229004,0
5000,-0.482422,-0.858887,0.219238,0
5020,-0.481934,-0.858887,0.215332,0
5040,-0.483398,-0.857422,0.219727,0
5060,-0.480957,-0.856445,0.223633,0
5080,-0.479004,-0.85498,0.222168,0
5100,-0.479004,-0.859863,0.222168,0
5120,-0.477051,-0.860352,0.219238,0
5140,-0.475586,-0.856445,0.220703,0
5160,-0.476074,-0.85791,0.223145,0
5180,-0.475098,-0.85791,0.220215,0
5200,-0.479004,-0.854492,0.22168,0
5220,-0.475098,-0.856445,0.226562,0
5240,-0.477539,-0.855469,0.220703,0
5260,-0.481445,-0.860352,0.220703,0
5280,-0.484375,-0.86084,0.223145,0
5300,-0.484375,-0.85498,0.222656,0
5320,-0.480469,-0.855957,0.219238,0
5340,-0.480469,-0.858398,0.224609,0
5360,-0.484863,-0.855957,0.219238,0
5380,-0.477539,-0.852051,0.215332,0
5400,-0.483398,-0.858398,0.218262,0
5420,-0.480957,-0.861328,0.220215,0
5440,-0.479492,-0.862305,0.227051,0
5460,-0.479004,-0.856934,0.231445,0
5480,-0.476562,-0.85498,0.234863,0
5500,-0.478027,-0.876953,0.201172,0
5520,-0.479004,-0.859863,0.201172,0
5540,-0.479492,-0.854004,0.210449,0
5560,-0.474121,-0.856934,0.216797,0
5580,-0.477539,-0.855469,0.210938,0
5600,-0.475098,-0.855957,0.223145,0
5620,-0.476074,-0.855957,0.225098,0
5640,-0.474609,-0.854004,0.228027,0
5660,-0.475586,-0.859375,0.231445,0
5680,-0.477539,-0.859375,0.240234,0
5700,-0.471191,-0.857422,0.240234,0
5720,-0.474609,-0.861816,0.242676,0
5740,-0.476074,-0.855469,0.246094,0
5760,-0.478027,-0.853027,0.23877,0
5780,-0.483887,-0.848145,0.238281,0
5800,-0.48584,-0.849121,0.237305,0
5820,-0.478027,-0.852051,0.230957,0
5840,-0.472656,-0.862305,0.216797,0
5860,-0.472656,-0.871582,0.220703,0
5880,-0.47168,-0.863281,0.224121,0
5900,-0.474609,-0.858887,0.234375,0
5920,-0.46582,-0.854004,0.230469,0
5940,-0.466797,-0.850098,0.232422,0
5960,-0.472656,-0.859375,0.23291,0
5980,-0.472656,-0.862793,0.223145,0
6000,-0.479492,-0.859375,0.22168,0
6020,-0.484863,-0.855469,0.221191,0
6040,-0.487305,-0.849609,0.223633,0
6060,-0.480957,-0.846191,0.228516,0
6080,-0.477051,-0.851074,0.234863,0
6100,-0.479004,-0.852051,0.229004,0
6120,-0.475586,-0.856445,0.22998,0
6140,-0.480957,-0.858887,0.21875,0
6160,-0.480957,-0.855469,0.220215,0
6180,-0.480469,-0.86377,0.225098,0
6200,-0.480957,-0.861816,0.225586,0
6220,-0.476562,-0.861328,0.220215,0
6240,-0.473633,-0.854492,0.214844,0
6260,-0.477539,-0.859863,0.216797,0
6280,-0.475586,-0.86084,0.219727,0
6300,-0.474121,-0.860352,0.223633,0
6320,-0.473145,-0.85498,0.228516,0
6340,-0.473633,-0.86084,0.216309,0
6360,-0.474121,-0.857422,0.223145,0
6380,-0.474609,-0.851562,0.217285,0
6400,-0.472656,-0.853027,0.21582,0
6420,-0.472168,-0.85791,0.21582,0
6440,-0.477051,-0.863281,0.220703,0
6460,-0.476074,-0.862305,0.22168,0
6480,-0.479004,-0.857422,0.222656,0
6500,-0.475586,-0.859375,0.220215,0
6520,-0.474609,-0.854004,0.226562,0
6540,-0.47168,-0.856445,0.222656,0
6560,-0.481445,-0.851562,0.230469,0
6580,-0.477539,-0.855469,0.228516,0
6600,-0.478027,-0.857422,0.226074,0
6620,-0.483398,-0.855957,0.229492,0
6640,-0.477051,-0.854492,0.221191,0
6660,-0.48291,-0.857422,0.220703,0
6680,-0.482422,-0.854492,0.224609,0
6700,-0.480469,-0.856934,0.223145,0
6720,-0.480957,-0.853516,0.224609,0
6740,-0.474121,-0.860352,0.223145,0
6760,-0.473633,-0.854492,0.226074,0
6780,-0.475098,-0.852539,0.230469,0
6800,-0.476562,-0.854492,0.225098,0
6820,-0.47998,-0.861328,0.217773,0
6840,-0.479004,-0.858887,0.221191,0
6860,-0.480469,-0.85791,0.223145,0
6880,-0.478027,-0.85791,0.225098,0
6900,-0.480957,-0.85791,0.221191,0
6920,-0.480469,-0.855469,0.223633,0
6940,-0.475586,-0.852051,0.22168,0
6960,-0.474609,-0.85791,0.230469,0
6980,-0.477051,-0.860352,0.225586,0
7000,-0.474121,-0.852539,0.230469,0
7020,-0.476562,-0.854492,0.223633,0
7040,-0.474609,-0.855957,0.226074,0
7060,-0.475586,-0.855957,0.229004,0
7080,-0.472656,-0.857422,0.228516,0
7100,-0.473633,-0.853516,0.226562,0
7120,-0.479004,-0.862793,0.222168,0
7140,-0.474121,-0.856445,0.224609,0
7160,-0.469238,-0.86084,0.224609,0
7180,-0.472656,-0.85498,0.231934,0
7200,-0.474121,-0.855469,0.234375,0
7220,-0.475098,-0.852051,0.239746,0
7240,-0.474609,-0.844238,0.234863,0
7260,-0.479004,-0.848633,0.234375,0
7280,-0.483887,-0.854004,0.235352,0
7300,-0.483887,-0.858398,0.231934,0
7320,-0.481934,-0.853027,0.231445,0
7340,-0.475586,-0.85498,0.23584,0
7360,-0.479492,-0.859375,0.234863,0
7380,-0.474121,-0.850098,0.237793,0
7400,-0.47168,-0.848145,0.239746,0
7420,-0.474121,-0.847168,0.243652,0
7440,-0.473145,-0.847656,0.246582,0
7460,-0.473145,-0.852539,0.239746,0
7480,-0.473145,-0.85498,0.241211,0
7500,-0.472168,-0.857422,0.243652,0
7520,-0.471191,-0.858398,0.244629,0
7540,-0.472168,-0.855957,0.245605,0
7560,-0.470703,-0.849609,0.248047,0
7580,-0.474121,-0.852539,0.256836,0
7600,-0.472168,-0.855957,0.24707,0
7620,-0.475586,-0.849121,0.248047,0
7640,-0.472168,-0.842285,0.249512,0
7660,-0.473145,-0.848633,0.251465,0
7680,-0.475586,-0.851562,0.253906,0
7700,-0.475098,-0.847168,0.251953,0
7720,-0.473633,-0.846191,0.254883,0
7740,-0.474609,-0.851562,0.258301,0
7760,-0.475586,-0.851074,0.255859,0
7780,-0.474609,-0.84668,0.253418,0
7800,-0.473145,-0.850098,0.251465,0
7820,-0.476074,-0.850586,0.25293,0
7840,-0.472656,-0.852051,0.256348,0
7860,-0.473145,-0.842773,0.261719,0
7880,-0.473633,-0.841797,0.259766,0
7890,-0.472168,-0.838379,0.256836,0
7910,-0.477051,-0.844727,0.258301,0
7930,-0.479004,-0.842773,0.253906,0
7950,-0.476074,-0.852051,0.254395,0
7970,-0.478027,-0.852539,0.252441,0
7990,-0.473633,-0.847656,0.254883,0
8010,-0.474121,-0.837402,0.256348,0
8030,-0.474121,-0.838867,0.265625,0
8050,-0.474609,-0.843262,0.259277,0
8070,-0.476074,-0.84668,0.262207,0
8090,-0.477539,-0.841309,0.26416,0
8110,-0.472656,-0.848633,0.266113,0
8130,-0.475586,-0.845703,0.267578,0
8150,-0.479004,-0.848145,0.259277,0
8170,-0.473145,-0.852051,0.26123,0
8190,-0.472168,-0.847656,0.26123,0
8210,-0.47168,-0.846191,0.26416,0
8230,-0.47168,-0.843262,0.262207,0
8250,-0.470215,-0.848145,0.266602,0
8270,-0.472168,-0.848145,0.259766,0
8290,-0.474609,-0.852539,0.256348,0
8310,-0.471191,-0.848145,0.24707,0
8330,-0.471191,-0.84375,0.251953,0
8350,-0.471191,-0.846191,0.252441,0
8370,-0.475098,-0.850586,0.252441,0
8390,-0.475098,-0.848633,0.254395,0
8410,-0.474121,-0.841309,0.254883,0
8430,-0.474609,-0.847168,0.253906,0
8450,-0.475586,-0.845215,0.253906,0
8470,-0.477051,-0.850586,0.259277,0
8490,-0.477539,-0.845215,0.253418,0
8510,-0.470703,-0.851074,0.251465,0
8530,-0.473145,-0.850586,0.250977,0
8550,-0.477539,-0.846191,0.248047,0
8570,-0.474609,-0.84668,0.256348,0
8590,-0.473633,-0.849121,0.258789,0
8610,-0.475098,-0.847656,0.256348,0
8630,-0.470703,-0.845703,0.254883,0
8650,-0.473633,-0.848633,0.255859,0
8670,-0.476562,-0.853516,0.257812,0
8690,-0.473145,-0.852051,0.254395,0
8710,-0.472168,-0.847168,0.253906,0
8730,-0.474121,-0.848633,0.256348,0
8750,-0.471191,-0.850586,0.250977,0
8770,-0.470703,-0.84668,0.257324,0
8790,-0.471191,-0.842773,0.254395,0
8810,-0.466309,-0.846191,0.25,0
8830,-0.470215,-0.846191,0.255371,0
8850,-0.471191,-0.847168,0.255371,0
8870,-0.474121,-0.845215,0.25293,0
8890,-0.476074,-0.849121,0.250488,0
8910,-0.481445,-0.850586,0.256836,0
8930,-0.472656,-0.845703,0.255371,0
8950,-0.473145,-0.847656,0.253906,0
8970,-0.471191,-0.848145,0.26123,0
8990,-0.468262,-0.854492,0.237793,0
9010,-0.469727,-0.846191,0.248047,0
9030,-0.47998,-0.851074,0.240234,0
9050,-0.470703,-0.848145,0.258789,0
9070,-0.472656,-0.845215,0.250977,0
9090,-0.479004,-0.846191,0.245605,0
9110,-0.481445,-0.846191,0.244629,0
9130,-0.480469,-0.851562,0.238281,0
9150,-0.480469,-0.850586,0.250488,0
9170,-0.480469,-0.847656,0.250977,0
9190,-0.476074,-0.847168,0.255859,0
9210,-0.476562,-0.852539,0.250488,0
9230,-0.473145,-0.850098,0.248047,0
9250,-0.470703,-0.849121,0.243652,0
9270,-0.46582,-0.851562,0.242676,0
9290,-0.470215,-0.853027,0.252441,0
9310,-0.470215,-0.854492,0.248047,0
9330,-0.475098,-0.847168,0.243652,0
9350,-0.472656,-0.851562,0.25,0
9370,-0.47168,-0.854004,0.247559,0
9390,-0.476562,-0.852051,0.243652,0
9410,-0.475586,-0.850098,0.242188,0
9430,-0.474609,-0.85498,0.248535,0
9450,-0.472168,-0.855469,0.23584,0
9470,-0.478027,-0.851074,0.23877,0
9490,-0.480957,-0.844727,0.242676,0
9510,-0.48291,-0.851562,0.241211,0
9530,-0.484375,-0.854492,0.244629,0
9550,-0.489746,-0.848633,0.244629,0
9570,-0.478027,-0.847656,0.256348,0
9590,-0.467773,-0.844727,0.222656,0
9610,-0.48877,-0.858398,0.229004,0
9630,-0.480469,-0.853516,0.230469,0
9650,-0.472168,-0.84375,0.248047,0
9670,-0.473145,-0.849609,0.23877,0
9690,-0.481934,-0.858887,0.224121,0
9710,-0.479492,-0.854004,0.233887,0
9730,-0.478027,-0.850098,0.224121,0
9750,-0.478027,-0.855469,0.222168,0
9770,-0.469238,-0.863281,0.22168,0
9790,-0.46875,-0.862793,0.218262,0
9810,-0.469238,-0.859375,0.219727,0
9830,-0.473633,-0.856445,0.233398,0
9850,-0.477539,-0.851562,0.237305,0
9870,-0.477051,-0.849609,0.240234,0
9880,-0.473145,-0.849609,0.231445,0
9900,-0.479492,-0.854004,0.234863,0
9920,-0.481934,-0.854492,0.233887,0
9940,-0.480469,-0.853027,0.239258,0
9960,-0.47998,-0.851562,0.239258,0
9980,-0.480957,-0.851074,0.248047,0
10000,-0.483887,-0.848145,0.243164,0
10020,-0.482422,-0.849609,0.226562,0
10040,-0.479492,-0.856934,0.210449,0
10060,-0.47998,-0.863281,0.22168,0
10080,-0.478516,-0.852051,0.231445,0
10100,-0.480469,-0.846191,0.222656,0
10120,-0.479004,-0.855469,0.223145,0
10140,-0.480957,-0.858887,0.21582,0
10160,-0.475586,-0.855957,0.216309,0
10180,-0.48291,-0.857422,0.227539,0
10200,-0.474609,-0.85498,0.228516,0
10220,-0.473145,-0.866699,0.23877,0
10240,-0.475098,-0.864746,0.241211,0
10260,-0.472168,-0.854492,0.233398,0
10280,-0.469238,-0.861816,0.242188,0
10300,-0.466797,-0.857422,0.239746,0
10320,-0.464844,-0.851562,0.229492,0
10340,-0.467285,-0.851074,0.235352,0
10360,-0.470215,-0.856934,0.23291,0
10380,-0.469238,-0.853516,0.233887,0
10400,-0.473633,-0.854004,0.241699,0
10420,-0.471191,-0.851074,0.250488,0
10440,-0.472168,-0.85498,0.243652,0
10460,-0.471191,-0.85498,0.24707,0
10480,-0.477539,-0.849121,0.246582,0
10500,-0.478027,-0.854004,0.246094,0
10520,-0.481445,-0.854004,0.247559,0
10540,-0.479492,-0.858398,0.232422,0
10560,-0.47168,-0.852051,0.223633,0
10580,-0.464355,-0.855957,0.225098,0
10600,-0.466309,-0.866699,0.218262,0
10620,-0.472168,-0.871582,0.202637,0
10640,-0.47168,-0.859375,0.225586,0
10660,-0.481445,-0.855957,0.227051,0
10680,-0.491211,-0.865234,0.217773,0
10700,-0.476074,-0.90625,0.186523,0
10720,-0.524902,-0.94873,0.191895,0
10740,-0.50293,-1.00244,0.231934,0
10760,-0.564941,-1.10352,0.220703,0
10780,-0.628418,-1.28857,0.218262,0
10800,-0.556152,-1.25049,0.249512,0
10820,-0.504395,-1.07666,0.424805,0
10840,-0.504395,-1.0498,0.505859,0
10860,-0.425293,-0.977051,0.562012,0
10880,-0.197754,-0.989746,0.524902,0
10900,-0.0957031,-1.06885,0.612793,0
10920,-0.104004,-1.14795,0.583984,0
10940,-0.0693359,-1.09473,0.478027,0
10960,-0.065918,-0.974121,0.410156,0
10980,-0.134766,-0.894043,0.411133,0
11000,-0.196777,-0.812988,0.365723,0
11020,-0.17041,-0.753906,0.331543,0
11040,-0.11377,-0.734863,0.282715,0
11060,-0.0722656,-0.757324,0.233398,0
11080,-0.37793,-0.57959,0.197266,0
11100,-0.547363,-0.46875,-0.530762,0
11120,0.299805,-0.635254,-0.191406,0
11140,0.177246,-0.745117,-0.116211,0
11160,0.0351562,-0.966309,0.0141602,0
11180,0.175293,-1.125,-0.14502,0
11200,0.336914,-1.26465,-0.113281,0
11220,0.0175781,-1.08398,-0.350098,0
11240,0.0678711,-0.929688,-0.645508,0
11260,-0.297363,-0.505859,-0.580566,0
11280,-0.106445,-0.522461,-0.495117,0
11300,-0.0307617,-1.08301,-0.352051,0
11320,-0.259277,-1.20508,-0.219238,0
11340,-0.296875,-1.09082,-0.260742,0
11360,-0.166504,-1.14795,-0.272461,0
11380,0.0341797,-1.04443,-0.238281,0
11400,0.097168,-0.855469,-0.310059,0
11420,0.00830078,-0.694336,-0.42627,0
11440,0.0107422,-0.817871,-0.40332,0
11460,-0.059082,-0.940918,-0.374512,0
11480,-0.181152,-1.00488,-0.405273,0
11500,0.188477,-1.15723,-0.458496,0
11520,0.649414,-1.17236,-0.309082,0
11540,-0.101074,-0.939453,-0.147949,0
11560,-0.499023,-0.808594,-0.387207,0
11580,-0.304688,-0.824707,-0.5,0
11600,-0.0664062,-0.864746,-0.497559,0
11620,0.0078125,-0.931641,-0.337891,0
11640,-0.046875,-1.021,-0.341797,0
11670,0.130859,-0.983398,-0.222168,0
11690,-0.0307617,-0.857422,-0.205078,0
11710,-0.311523,-0.788086,-0.454102,0
11730,-0.337891,-0.736816,-0.45752,0
11750,-0.172363,-0.754883,-0.344238,0
11770,-0.120117,-0.72168,-0.18457,0
11790,-0.117188,-0.644043,-0.294434,0
11810,-0.0820312,-0.654297,-0.32959,0
11830,-0.0688477,-0.680176,-0.254395,0
11850,-0.172363,-0.736816,-0.17334,0
11870,-0.364746,-0.898926,-0.198242,0
11890,-0.299805,-0.980957,-0.226074,0
11910,-0.224609,-0.96582,-0.195801,0
11930,0.394043,-1.13818,-0.123047,0
11970,0.120117,-1.33447,-0.413574,0
11990,-0.184082,-1.35107,-0.249023,0
12010,-0.260742,-1.15088,-0.230957,0
12030,-0.241211,-0.99707,-0.306152,0
12050,-0.564941,-0.799316,-0.420898,0
12070,-0.0498047,-1.04492,-0.241211,0
12090,0.0253906,-1.11768,-0.0634766,0
12110,0.0214844,-1.06982,-0.0649414,0
12130,-0.00439453,-0.916504,-0.135742,0
12150,-0.0419922,-0.757812,-0.25293,0
12170,-0.19043,-0.78125,-0.178711,0
12190,-0.181152,-0.900391,-0.234863,0
12210,-0.177734,-1.03174,-0.32373,0
12230,-0.162598,-1.05762,-0.313965,0
12250,-0.133301,-1.01807,-0.271484,0
12270,-0.196289,-1.20166,-0.485352,0
12290,-0.211426,-1.13965,-0.496094,0
12310,-0.280762,-0.836426,-0.22998,0
12330,-0.182617,-0.751465,-0.272461,0
12350,-0.109863,-0.851074,-0.300293,0
12370,-0.122559,-0.95459,-0.333984,0
12390,-0.223633,-1.08301,-0.352539,0
12410,-0.243164,-0.997559,-0.302246,0
12430,-0.172363,-0.87207,-0.328125,0
12450,-0.111816,-0.880859,-0.359375,0
12470,-0.109863,-0.950684,-0.295898,0
12490,-0.162598,-0.958984,-0.240723,0
12510,-0.116211,-0.943848,-0.134766,0
12530,-0.29834,-0.857422,-0.191895,0
12550,-0.400391,-0.722656,-0.297852,0
12560,-0.291504,-0.730469,-0.338867,0
12580,-0.252441,-0.911621,-0.293457,0
12600,-0.179199,-1.02979,-0.304688,0
12620,-0.166504,-1.10303,-0.362793,0
12640,-0.19043,-1.08594,-0.442871,0
12660,-0.194824,-1.04834,-0.537598,0
12680,-0.211426,-1.00928,-0.600586,0
12700,-0.160645,-0.993164,-0.641113,0
12720,-0.138672,-1.01025,-0.658691,0
12740,-0.164551,-0.980957,-0.639648,0
12760,-0.169922,-0.964844,-0.607422,0
12780,-0.166992,-0.939453,-0.572266,0
12800,-0.157715,-0.90332,-0.558105,0
12820,-0.149902,-0.865723,-0.547363,0
12840,-0.136719,-0.865723,-0.554199,0
12860,-0.131348,-0.87793,-0.552246,0
12880,-0.117188,-0.876465,-0.549805,0
12900,-0.125977,-0.87207,-0.552246,0
12920,-0.130371,-0.873535,-0.554199,0
12940,-0.146973,-0.885742,-0.543457,0
12980,-0.144531,-0.894531,-0.518555,0
13000,-0.141602,-0.912109,-0.51709,0
13020,-0.134277,-0.903809,-0.512695,0
13040,-0.128906,-0.904297,-0.514648,0
13050,-0.123047,-0.912598,-0.51416,0
13070,-0.124023,-0.916504,-0.514648,0
13090,-0.129395,-0.910156,-0.53125,0
13110,-0.130371,-0.913574,-0.539551,0
13130,-0.137695,-0.922852,-0.554688,0
13140,-0.136719,-0.929688,-0.578125,0
13160,-0.14502,-0.891113,-0.588379,0
13180,-0.128418,-0.90918,-0.572266,0
13220,-0.141602,-0.89209,-0.548828,0
13240,-0.199707,-0.913574,-0.538086,0
13260,-0.171875,-0.824707,-0.496094,0
13280,-0.20166,-0.802246,-0.505859,0
13300,-0.104004,-0.877441,-0.5,0
13320,-0.170898,-0.903809,-0.585449,0
13340,-0.133301,-0.950195,-0.586914,0
13360,-0.0712891,-1.04395,-0.487793,0
13380,-0.0878906,-1.28955,-0.38623,0
13400,-0.268555,-1.31152,-0.300781,0
13420,-0.141113,-1.35059,-0.19873,0
13440,-0.259277,-1.10059,-0.394531,0
13490,-0.311523,-0.559082,-0.165527,0
13510,-0.249512,-0.624023,-0.121582,0
13550,-0.406738,-0.889648,-0.0488281,0
13570,-0.381348,-0.950195,-0.046875,0
13590,-0.257812,-1.08447,-0.0551758,0
13610,-0.188965,-1.07617,-0.0727539,0
13630,-0.14209,-1.03467,-0.117188,0
13650,-0.130859,-0.97998,-0.106934,0
13670,-0.204102,-0.923828,-0.0800781,0
13690,-0.186035,-0.966797,0.0146484,0
13710,-0.0800781,-1.0127,0.074707,0
13730,0.00585938,-1.08838,0.0576172,0
13750,0.019043,-1.17871,0.0932617,0
13800,0.0742188,-1.13867,0.0712891,0
13830,0.153809,-1.12158,0.211426,0
13860,0.137695,-1.07959,0.163574,0
13880,0.158203,-1.0459,0.175781,0
13900,0.178711,-0.991211,0.229492,0
13920,0.186523,-1.00098,0.240234,0
13930,0.165039,-1.0127,0.232422,0
13950,0.150391,-0.961914,0.230957,0
13970,0.141602,-0.929688,0.210938,0
13980,0.0947266,-0.855957,0.205566,0
14000,0.0532227,-0.827148,0.201172,0
14020,0.0688477,-0.809082,0.243164,0
14040,0.13623,-0.85498,0.256836,0
14060,0.15918,-0.898926,0.245605,0
14080,0.117188,-0.886719,0.260742,0
14100,0.0932617,-0.90332,0.251953,0
14120,0.141113,-0.926758,0.239746,0
14140,0.209473,-0.941895,0.233887,0
14160,0.231445,-0.936035,0.246582,0
14180,0.212402,-0.898438,0.282715,0
14200,0.240723,-0.884766,0.270508,0
14220,0.279785,-0.913086,0.250488,0
14240,0.28418,-0.944336,0.258301,0
14260,0.252441,-0.925781,0.272461,0
14280,0.213379,-0.929688,0.28125,0
14300,0.190918,-0.899902,0.30127,0
14320,0.183594,-0.917969,0.259766,0
14340,0.215332,-0.929199,0.226074,0
14360,0.251953,-0.909668,0.224609,0
14380,0.273926,-0.898438,0.23877,0
14400,0.276367,-0.901367,0.266113,0
14420,0.255859,-0.914551,0.289551,0
14440,0.233398,-0.946289,0.268066,0
14460,0.217773,-0.949219,0.241211,0
14480,0.208984,-0.930176,0.239746,0
14500,0.205566,-0.937012,0.280273,0
14520,0.20752,-0.938965,0.299316,0
14540,0.214844,-0.976562,0.306641,0
14560,0.220215,-1.00146,0.303711,0
14580,0.22998,-0.99707,0.279297,0
14600,0.206055,-0.975098,0.288086,0
14620,0.176758,-0.973633,0.297363,0
14640,0.130859,-0.931641,0.308105,0
14660,0.097168,-0.895508,0.337891,0
14680,0.0966797,-0.833984,0.393555,0
14700,0.103027,-0.802734,0.387207,0
14720,0.109863,-0.810059,0.334473,0
14740,0.0893555,-0.800293,0.312988,0
14760,0.0576172,-0.856934,0.313965,0
14780,0.09375,-0.846191,0.349121,0
14800,0.163086,-0.893555,0.290039,0
14820,0.166992,-0.912598,0.315918,0
14840,0.163574,-0.850586,0.34668,0
14860,0.17334,-0.844238,0.322266,0
14880,0.169922,-0.906738,0.23584,0
14900,0.14502,-0.953613,0.26416,0
14920,0.0874023,-0.950195,0.348633,0
14940,0.0957031,-0.929688,0.333984,0
14960,0.153809,-0.919922,0.26123,0
14980,0.171387,-0.921875,0.228027,0
15000,0.145996,-0.90332,0.289551,0
15020,0.120117,-0.902832,0.3125,0
15040,0.125488,-0.922363,0.277832,0
15050,0.134766,-0.947266,0.241211,0
15070,0.13916,-0.94043,0.286621,0
15090,0.128906,-0.904297,0.30957,0
15110,0.13916,-0.890137,0.29248,0
15130,0.161133,-0.850098,0.301758,0
15150,0.172363,-0.833496,0.318848,0
15170,0.171875,-0.854004,0.323242,0
15190,0.160645,-0.903809,0.308594,0
15210,0.145996,-0.948242,0.275879,0
15230,0.133301,-0.943848,0.293457,0
15250,0.143555,-0.926758,0.319336,0
15270,0.166992,-0.927246,0.32666,0
15290,0.161621,-0.848633,0.302734,0
15310,0.135254,-0.833984,0.316406,0
15330,0.150879,-0.851562,0.334961,0
15350,0.184082,-0.880859,0.304688,0
15370,0.16748,-0.902832,0.279785,0
15390,0.154297,-0.926758,0.312988,0
15410,0.195801,-0.955566,0.301758,0
15430,0.217773,-0.943848,0.313965,0
15450,0.201172,-0.914062,0.293945,0
15470,0.185547,-0.934082,0.304688,0
15490,0.22168,-0.951172,0.312988,0
15510,0.248047,-0.937012,0.333008,0
15530,0.216309,-0.871582,0.342285,0
15550,0.178223,-0.865723,0.315918,0
15570,0.167969,-0.867676,0.326172,0
15590,0.20166,-0.870117,0.347168,0
15610,0.211914,-0.831055,0.338379,0
15630,0.211914,-0.880859,0.344727,0
15650,0.204102,-0.905273,0.353027,0
15670,0.19043,-0.865234,0.354492,0
15690,0.176758,-0.882812,0.339844,0
15710,0.192383,-0.902832,0.398438,0
15730,0.220703,-0.873047,0.381836,0
15750,0.20459,-0.869629,0.341797,0
15770,0.188477,-0.881348,0.341797,0
15790,0.179688,-0.855957,0.361816,0
15810,0.175293,-0.862793,0.347168,0
15830,0.186523,-0.856934,0.364746,0
15850,0.196777,-0.890137,0.351562,0
15870,0.213379,-0.88623,0.345215,0
15890,0.205078,-0.886719,0.342285,0
15910,0.169434,-0.894043,0.364746,0
15930,0.15625,-0.874512,0.364746,0
15950,0.168457,-0.883789,0.345215,0
15970,0.172852,-0.905762,0.359375,0
15990,0.1875,-0.921875,0.375977,0
16010,0.187988,-0.91748,0.37793,0
16030,0.183594,-0.940918,0.356445,0
16050,0.196777,-0.944336,0.388672,0
16070,0.180176,-0.922363,0.367676,0
16090,0.238281,-0.906738,0.344727,0
16110,0.238281,-0.876953,0.354492,0
16130,0.214844,-0.876465,0.361816,0
16150,0.191895,-0.851562,0.381836,0
16170,0.203125,-0.819824,0.391113,0
16190,0.187988,-0.827637,0.425781,0
16210,0.191406,-0.802734,0.424805,0
16230,0.157715,-0.78418,0.425293,0
16250,0.152344,-0.77832,0.467773,0
16270,0.180664,-0.771484,0.447754,0
16290,0.209473,-0.836426,0.421875,0
16310,0.178223,-0.868164,0.433594,0
16330,0.155273,-0.883301,0.452637,0
16350,0.166504,-0.889648,0.441895,0
16370,0.171387,-0.87793,0.453613,0
16390,0.170898,-0.875,0.464355,0
16410,0.151367,-0.900879,0.504883,0
16430,0.150391,-0.888672,0.517578,0
16450,0.169434,-0.881348,0.482422,0
16470,0.166016,-0.851074,0.432617,0
16490,0.125,-0.742676,0.42627,0
16510,0.108398,-0.749512,0.395508,0
16530,0.133301,-0.820801,0.411621,0
16550,0.151855,-0.805664,0.569824,0
16570,0.115723,-0.780273,0.492676,0
16590,0.120117,-0.772949,0.351562,0
16610,0.123047,-0.703125,0.43457,0
16630,0.128418,-0.708496,0.506836,0
16650,0.165039,-0.780273,0.46875,0
16670,0.159668,-0.845703,0.421875,0
16690,0.147461,-0.855957,0.455566,0
16710,0.177246,-0.842285,0.468262,0
16730,0.249023,-0.845215,0.513672,0
16750,0.267578,-0.787598,0.475098,0
16770,0.23291,-0.803223,0.414551,0
16790,0.274414,-0.859863,0.461426,0
16810,0.328613,-0.928711,0.458008,0
16830,0.360352,-0.964844,0.4375,0
16850,0.393066,-0.956543,0.406738,0
16870,0.388184,-0.937988,0.400879,0
16890,0.367676,-0.87207,0.408691,0
16910,0.374512,-0.84668,0.352051,0
16930,0.377441,-0.863281,0.336426,0
16950,0.34082,-0.833984,0.333008,0
16970,0.300293,-0.856934,0.328125,0
16990,0.272461,-0.847168,0.294922,0
17010,0.251465,-0.837891,0.324219,0
17030,0.205078,-0.79248,0.373535,0
17050,0.175781,-0.796387,0.38623,0
17070,0.165527,-0.818848,0.376953,0
17090,0.180176,-0.837402,0.378418,0
17110,0.179688,-0.856445,0.366211,0
17130,0.180664,-0.863281,0.384766,0
17150,0.179199,-0.86084,0.375,0
17170,0.198242,-0.838867,0.36377,0
17190,0.228027,-0.84082,0.363281,0
17210,0.253418,-0.840332,0.38623,0
17230,0.264648,-0.864258,0.352051,0
17250,0.26709,-0.888672,0.328613,0
17270,0.265625,-0.884766,0.322754,0
17290,0.246094,-0.915039,0.319824,0
17310,0.224609,-0.900391,0.30127,0
17330,0.213867,-0.88623,0.32373,0
17350,0.234375,-0.856934,0.325195,0
17370,0.243652,-0.854004,0.32373,0
17390,0.223145,-0.875,0.296875,0
17410,0.21875,-0.88916,0.315918,0
17430,0.220703,-0.900391,0.352539,0
17450,0.195312,-0.888672,0.356445,0
17470,0.169922,-0.876953,0.337402,0
17490,0.208496,-0.89502,0.318848,0
17510,0.239746,-0.90332,0.324219,0
17530,0.236816,-0.917969,0.32959,0
17550,0.209473,-0.900391,0.336426,0
17570,0.208496,-0.873047,0.3125,0
17590,0.200684,-0.859863,0.31543,0
17610,0.195801,-0.852539,0.344727,0
17630,0.19873,-0.859375,0.324219,0
17650,0.204102,-0.874023,0.335449,0
17670,0.204102,-0.870117,0.361328,0
17690,0.192871,-0.882324,0.337891,0
17710,0.203125,-0.893555,0.324707,0
17730,0.231445,-0.906738,0.342773,0
17750,0.226074,-0.893555,0.323242,2000
17770,0.195312,-0.854492,0.328613,0
17790,0.196777,-0.827148,0.351562,0
17810,0.215332,-0.86377,0.327637,0
17830,0.183105,-0.882324,0.322754,0
17850,0.145996,-0.86084,0.359863,0
17870,0.169434,-0.872559,0.36084,0
17890,0.219238,-0.887695,0.344238,0
17910,0.234863,-0.882324,0.366699,0
17930,0.217773,-0.887695,0.35791,0
17950,0.236816,-0.894043,0.349609,0
17970,0.242188,-0.888672,0.330078,0
17990,0.216309,-0.878418,0.355957,0
18010,0.215332,-0.849121,0.361328,0
18030,0.227539,-0.866699,0.326172,0
18050,0.229492,-0.872559,0.331055,0
18070,0.220215,-0.882812,0.327148,0
18090,0.232422,-0.884277,0.349121,0
18110,0.270508,-0.862305,0.335938,0
18130,0.256348,-0.856934,0.339355,0
18150,0.234375,-0.855957,0.322754,0
18170,0.253418,-0.865723,0.324219,0
18190,0.255859,-0.862793,0.328125,0
18210,0.221191,-0.870117,0.325195,0
18230,0.208496,-0.887695,0.341797,0
18250,0.238281,-0.875488,0.335449,0
18270,0.253906,-0.872559,0.32666,0
18290,0.241211,-0.868652,0.320312,0
18310,0.242188,-0.86377,0.325195,0
18330,0.254395,-0.879395,0.320801,0
18350,0.255371,-0.898926,0.312988,0
18370,0.24707,-0.901855,0.346191,0
18390,0.258789,-0.891602,0.349121,0
18410,0.271484,-0.859863,0.328125,0
18430,0.29248,-0.863281,0.328125,0
18450,0.290527,-0.875,0.333008,0
18470,0.282715,-0.878906,0.315918,0
18490,0.274414,-0.871582,0.314453,0
18510,0.269531,-0.854492,0.299805,0
18520,0.297852,-0.873047,0.307129,0
18540,0.328125,-0.879395,0.308594,0
18560,0.328613,-0.902344,0.286621,0
18580,0.286133,-0.881348,0.287109,0
18600,0.252441,-0.846191,0.305176,0
18620,0.297363,-0.866211,0.312012,0
18640,0.359375,-0.874512,0.286621,0
18660,0.33252,-0.844238,0.273438,0
18680,0.271484,-0.849609,0.268555,0
18700,0.279785,-0.848633,0.297852,0
18720,0.33252,-0.864746,0.282715,0
18740,0.366699,-0.879395,0.270996,0
18760,0.32959,-0.855469,0.285156,0
18780,0.337402,-0.845215,0.303711,0
18800,0.385742,-0.880371,0.307129,0
18820,0.408203,-0.868652,0.276367,0
18840,0.376465,-0.838867,0.250488,0
18860,0.353516,-0.828613,0.251465,0
18880,0.364258,-0.824219,0.288086,0
18900,0.375,-0.840332,0.283203,0
18920,0.38916,-0.869629,0.250977,0
18940,0.381348,-0.847168,0.240723,0
18960,0.367188,-0.821777,0.261719,0
18980,0.370605,-0.829102,0.261719,0
19000,0.382324,-0.853027,0.272949,0
19020,0.373535,-0.838867,0.28418,0
19040,0.381348,-0.816895,0.271973,0
19060,0.414062,-0.832031,0.278809,0
19080,0.432129,-0.80957,0.303711,0
19100,0.438965,-0.799805,0.302734,0
19120,0.449219,-0.808105,0.296875,0
19140,0.444336,-0.835449,0.266113,0
19160,0.425781,-0.837402,0.253418,0
19180,0.414062,-0.833008,0.268555,0
19200,0.432617,-0.819824,0.297852,0
19220,0.41748,-0.834473,0.285156,0
19240,0.410156,-0.81543,0.290039,0
19260,0.414551,-0.793945,0.309082,0
19280,0.39502,-0.791016,0.328125,0
19300,0.397461,-0.806152,0.320312,0
19320,0.434082,-0.807617,0.318848,0
19340,0.431641,-0.777344,0.337402,0
19360,0.435547,-0.770996,0.346191,0
19380,0.457031,-0.791504,0.338379,0
19400,0.450195,-0.806152,0.336426,0
19420,0.414062,-0.78125,0.360352,0
19440,0.387695,-0.765137,0.364746,0
19460,0.40918,-0.766602,0.370117,0
19480,0.45459,-0.742676,0.388184,0
19500,0.453613,-0.754883,0.376465,0
19520,0.456543,-0.755859,0.325684,0
19540,0.490723,-0.769043,0.336426,0
19560,0.521484,-0.777344,0.358887,0
19580,0.494629,-0.787598,0.341797,0
19600,0.473633,-0.772949,0.34082,0
19620,0.48584,-0.775391,0.343262,0
19640,0.5,-0.758301,0.36084,0
19660,0.504395,-0.757812,0.348145,0
19680,0.501953,-0.758789,0.335449,0
19700,0.490723,-0.755371,0.374023,0
19720,0.468262,-0.76123,0.366211,0
19740,0.467773,-0.768066,0.36377,0
19760,0.478516,-0.755371,0.394531,0
19780,0.480469,-0.743652,0.405762,0
19800,0.491699,-0.734863,0.383301,0
19820,0.496094,-0.740234,0.374023,0
19840,0.492676,-0.741211,0.386719,0
19860,0.491211,-0.759766,0.393066,0
19880,0.481445,-0.751465,0.379883,0
19900,0.472656,-0.736816,0.384766,0
19920,0.46582,-0.720215,0.376953,0
19940,0.479492,-0.736328,0.387695,0
19960,0.468262,-0.719238,0.405762,0
19980,0.454102,-0.716797,0.408203,0
20000,0.451172,-0.730957,0.400391,0
20020,0.45459,-0.717285,0.400879,0
20040,0.474609,-0.733398,0.414551,0
20060,0.496582,-0.743164,0.414062,0
20080,0.495117,-0.736816,0.397949,0
20100,0.435059,-0.719238,0.416504,0
20120,0.412109,-0.698242,0.417969,0
20140,0.45166,-0.72168,0.425293,0
20160,0.470215,-0.726562,0.431152,0
20180,0.454102,-0.709473,0.432129,0
20200,0.470703,-0.733398,0.429199,0
20220,0.493652,-0.733887,0.424805,0
20240,0.507324,-0.727051,0.419922,0
20260,0.491699,-0.734375,0.418457,0
20280,0.483398,-0.733887,0.426758,0
20300,0.483398,-0.729004,0.424316,0
20320,0.47168,-0.715332,0.435059,0
20340,0.448242,-0.698242,0.431152,0
20360,0.428711,-0.723145,0.43457,0
20380,0.424805,-0.723633,0.444824,0
20400,0.42334,-0.719238,0.457031,0
20420,0.42627,-0.723145,0.467285,0
20440,0.410645,-0.716797,0.464844,0
20460,0.395996,-0.725586,0.443359,0
20470,0.410645,-0.739258,0.448242,0
20500,0.428223,-0.737793,0.438965,0
20510,0.457031,-0.725586,0.413574,0
20530,0.503906,-0.725098,0.456055,0
20550,0.462402,-0.716309,0.481934,0
20570,0.371094,-0.703125,0.49707,0
20590,0.345215,-0.726074,0.48877,0
20610,0.410156,-0.75293,0.45752,0
20630,0.419922,-0.731445,0.459961,0
20650,0.374512,-0.705078,0.462891,0
20670,0.380371,-0.699707,0.475586,0
20690,0.399902,-0.725098,0.452637,0
20710,0.38623,-0.757324,0.439453,0
20730,0.383789,-0.750977,0.455566,0
20750,0.370605,-0.739258,0.452637,0
20770,0.350586,-0.734863,0.435059,0
20790,0.333496,-0.718262,0.430176,0
20810,0.336426,-0.737305,0.433594,0
20830,0.348145,-0.751953,0.466309,0
20850,0.352051,-0.765137,0.463867,0
20870,0.371094,-0.778809,0.445312,0
20890,0.381836,-0.754395,0.475098,0
20910,0.385742,-0.739258,0.484375,0
20930,0.376465,-0.751465,0.446777,0
20950,0.390137,-0.758789,0.442871,0
20970,0.384766,-0.761719,0.470703,0
20990,0.375488,-0.769531,0.459961,0
21010,0.348633,-0.76123,0.432129,0
21030,0.333496,-0.726074,0.45459,0
21050,0.351562,-0.754395,0.472656,0
21070,0.368652,-0.782227,0.469238,0
21090,0.374023,-0.787598,0.46582,0
21110,0.365234,-0.769043,0.480957,0
21130,0.354492,-0.763184,0.474609,0
21150,0.342773,-0.772949,0.459961,0
21170,0.327148,-0.769043,0.457031,0
21190,0.304688,-0.740723,0.458984,0
21210,0.294922,-0.73877,0.450195,0
21230,0.311523,-0.749023,0.452637,0
21250,0.311035,-0.753418,0.452637,0
21270,0.285156,-0.762695,0.467773,0
21290,0.271973,-0.770996,0.467285,0
21310,0.303223,-0.788574,0.425293,0
21330,0.327148,-0.769531,0.413086,0
21350,0.319336,-0.75293,0.44043,0
21370,0.304199,-0.749023,0.438477,0
21390,0.304688,-0.77832,0.429199,0
21410,0.319824,-0.79248,0.427246,0
21430,0.336426,-0.79541,0.44043,0
21450,0.333984,-0.8125,0.419922,0
21470,0.283691,-0.814453,0.419434,0
21490,0.248047,-0.796387,0.422852,0
21510,0.26123,-0.787598,0.429199,0
21530,0.270996,-0.780762,0.4375,0
21550,0.273438,-0.813965,0.411133,0
21570,0.278809,-0.818848,0.427246,0
21590,0.272461,-0.818359,0.438477,0
21610,0.282227,-0.828613,0.411621,0
21630,0.297363,-0.825195,0.415039,0
21650,0.304688,-0.835938,0.396484,0
21670,0.320312,-0.841797,0.40625,0
21690,0.317871,-0.834961,0.42334,0
21710,0.294434,-0.82959,0.405762,0
21730,0.303711,-0.845703,0.364746,0
21750,0.328613,-0.844238,0.391113,0
21770,0.304199,-0.82959,0.396973,0
21790,0.258789,-0.826172,0.388184,0
21810,0.254883,-0.832031,0.355469,0
21830,0.279785,-0.831055,0.35498,0
21850,0.279297,-0.8125,0.374512,0
21870,0.261719,-0.820312,0.357422,0
21890,0.264648,-0.83252,0.342773,0
21910,0.27002,-0.825684,0.36084,0
21930,0.234863,-0.845703,0.344727,0
21950,0.241211,-0.853027,0.336914,0
21970,0.29541,-0.839844,0.361328,0
21990,0.304199,-0.840332,0.356934,0
22010,0.262695,-0.868652,0.313477,0
22030,0.283691,-0.882324,0.327637,0
22050,0.291504,-0.877441,0.348145,0
22070,0.267578,-0.87793,0.319336,0
22090,0.290039,-0.875,0.317871,0
22110,0.326172,-0.875,0.305176,0
22130,0.29834,-0.868164,0.325195,0
22150,0.257324,-0.874023,0.293945,0
22170,0.26709,-0.880859,0.283203,0
22190,0.279785,-0.880371,0.296387,0
22210,0.283691,-0.891113,0.303711,0
22230,0.289062,-0.895996,0.290039,0
22250,0.287109,-0.896973,0.277344,0
22270,0.278809,-0.887207,0.271484,0
22290,0.308105,-0.882324,0.289062,0
22310,0.312988,-0.895508,0.263672,0
22330,0.269531,-0.900391,0.244141,0
22350,0.253418,-0.888672,0.240234,0
22370,0.273926,-0.899902,0.231445,0
22390,0.288574,-0.913574,0.226562,0
22410,0.285645,-0.901855,0.243164,0
22430,0.283691,-0.883789,0.240234,0
22450,0.248047,-0.890137,0.211426,0
22470,0.230469,-0.881836,0.186523,0
22490,0.251953,-0.864258,0.214355,0
22510,0.275391,-0.87207,0.213867,0
22530,0.277344,-0.89502,0.181152,0
22550,0.292969,-0.924805,0.167969,0
22570,0.330566,-0.916016,0.202637,0
22590,0.335449,-0.894043,0.195801,0
22610,0.317871,-0.898438,0.151367,0
22630,0.324707,-0.902344,0.149414,0
22650,0.34082,-0.879883,0.187988,0
22670,0.322754,-0.868652,0.177246,0
22690,0.307129,-0.899902,0.12207,0
22710,0.353027,-0.92041,0.155273,0
22730,0.384277,-0.894043,0.186035,0
22750,0.376465,-0.902344,0.15332,0
22770,0.397461,-0.892578,0.143555,0
22790,0.43457,-0.875,0.196777,0
22810,0.425293,-0.861816,0.189941,0
22830,0.367676,-0.885254,0.11377,0
22850,0.358887,-0.891113,0.100098,0
22870,0.385742,-0.869141,0.146973,0
22890,0.387207,-0.822266,0.17334,0
22910,0.379883,-0.821289,0.126953,0
22930,0.399414,-0.868652,0.0727539,0
22950,0.465332,-0.893555,0.102051,0
22970,0.504883,-0.879883,0.130859,0
22990,0.48584,-0.867188,0.115234,0
23010,0.486816,-0.865234,0.0878906,0
23030,0.496582,-0.835449,0.0952148,0
23050,0.510254,-0.825195,0.114258,0
23070,0.504883,-0.82959,0.101074,0
23090,0.493652,-0.853516,0.0849609,0
23110,0.498047,-0.859863,0.102539,0
23130,0.499023,-0.838867,0.124512,0
23150,0.496094,-0.816406,0.0952148,0
23170,0.50293,-0.823242,0.0786133,0
23190,0.527344,-0.83252,0.0942383,0
23210,0.543457,-0.819336,0.0927734,0
23230,0.54541,-0.80957,0.0966797,0
23250,0.554199,-0.818848,0.0893555,0
23270,0.532715,-0.821289,0.090332,0
23290,0.521973,-0.79248,0.0957031,0
23310,0.536133,-0.799316,0.0791016,0
23330,0.58252,-0.800293,0.0820312,0
23350,0.581055,-0.772949,0.0893555,0
23370,0.554688,-0.736328,0.0976562,0
23390,0.538574,-0.774902,0.0512695,0
23410,0.585938,-0.792969,0.0678711,0
23430,0.621582,-0.768555,0.107422,0
23450,0.594238,-0.759766,0.124023,0
23470,0.600098,-0.746582,0.116699,0
23490,0.638672,-0.702148,0.135254,0
23510,0.65918,-0.708008,0.118164,0
23530,0.607422,-0.710449,0.102051,0
23550,0.583008,-0.742676,0.0791016,0
23570,0.623535,-0.742676,0.10791,0
23590,0.664551,-0.741699,0.124512,0
23610,0.64209,-0.741211,0.128418,0
23630,0.60791,-0.717285,0.0976562,0
23650,0.654785,-0.734863,0.0864258,0
23670,0.694336,-0.754395,0.129395,0
23690,0.641602,-0.720703,0.155273,0
23710,0.625488,-0.705078,0.144531,0
23730,0.660156,-0.717285,0.112305,0
23750,0.69043,-0.708008,0.126953,0
23770,0.667969,-0.674805,0.158691,0
23790,0.64502,-0.672852,0.15625,0
23810,0.650391,-0.67334,0.155762,0
23830,0.673828,-0.65332,0.183594,0
23850,0.673828,-0.65332,0.196289,0
23870,0.664551,-0.647949,0.202148,0
23890,0.667969,-0.667969,0.185059,0
23910,0.682129,-0.634277,0.178711,0
23930,0.722656,-0.604492,0.164062,0
23950,0.734863,-0.61377,0.146973,0
23960,0.769043,-0.617676,0.160156,0
23980,0.769531,-0.628418,0.187012,0
24000,0.733398,-0.620117,0.209473,0
24020,0.739258,-0.624512,0.195312,0
24040,0.765137,-0.625488,0.199219,0
24060,0.759277,-0.594238,0.20752,0
24080,0.737793,-0.588379,0.213379,0
24100,0.709473,-0.578125,0.216797,0
24120,0.713379,-0.580078,0.233398,0
24140,0.737305,-0.564941,0.239258,0
24160,0.752441,-0.577637,0.239746,0
24180,0.744141,-0.571289,0.249023,0
24200,0.717285,-0.5625,0.265137,0
24220,0.702148,-0.55957,0.273926,0
24240,0.714355,-0.590332,0.274414,0
24260,0.748047,-0.57373,0.283203,0
24280,0.74707,-0.562012,0.268555,0
24300,0.72998,-0.573242,0.276367,0
24320,0.710449,-0.570801,0.29834,0
24340,0.710449,-0.581543,0.303711,0
24360,0.720215,-0.559082,0.317383,0
24380,0.725098,-0.53125,0.323242,0
24400,0.742188,-0.533691,0.311523,0
24420,0.743652,-0.53418,0.317871,0
24440,0.713379,-0.524414,0.339844,0
24460,0.699219,-0.555664,0.336914,0
24480,0.714844,-0.564453,0.322266,0
24500,0.713379,-0.551758,0.345703,0
24520,0.688477,-0.527832,0.354004,0
24540,0.67334,-0.532715,0.353516,0
24560,0.664551,-0.595215,0.357422,0
24580,0.630371,-0.57666,0.398926,0
24600,0.60498,-0.551758,0.371582,0
24620,0.655762,-0.573242,0.328125,0
24640,0.703613,-0.570801,0.361328,0
24660,0.699219,-0.552734,0.385742,0
24680,0.664062,-0.533203,0.376953,0
24700,0.669434,-0.547852,0.368164,0
24720,0.703613,-0.56543,0.376465,0
24740,0.700684,-0.570312,0.390137,0
24760,0.680176,-0.572754,0.390625,0
24780,0.666504,-0.583984,0.381348,0
24800,0.646484,-0.64209,0.370605,0
24820,0.643555,-0.622559,0.399414,0
24840,0.612305,-0.557617,0.389648,0
24860,0.591309,-0.540039,0.380859,0
24880,0.585938,-0.552246,0.348633,0
24900,0.601562,-0.576172,0.364746,0
24920,0.605469,-0.586914,0.399414,0
24940,0.603027,-0.555664,0.442383,0
24960,0.619141,-0.560059,0.404785,0
24980,0.657715,-0.594238,0.359863,0
25000,0.645508,-0.629395,0.387207,0
25020,0.603516,-0.653809,0.417969,0
25040,0.57373,-0.660645,0.425293,0
25060,0.585449,-0.652344,0.415039,0
25080,0.589844,-0.633301,0.395996,0
25100,0.579102,-0.626465,0.39209,0
25120,0.569336,-0.624023,0.412598,0
25140,0.570312,-0.625,0.412109,0
25160,0.576172,-0.655273,0.404785,0
25180,0.574707,-0.630371,0.42041,0
25200,0.554688,-0.637695,0.418457,0
25220,0.547852,-0.629395,0.418945,0
25240,0.558594,-0.614746,0.413086,0
25260,0.54834,-0.623047,0.395996,0
25280,0.529297,-0.655273,0.399414,0
25300,0.516602,-0.662598,0.418457,0
25320,0.490234,-0.657715,0.414062,0
25340,0.511719,-0.659668,0.406738,0
25360,0.543945,-0.643066,0.411133,0
25380,0.532715,-0.633301,0.445312,0
25400,0.507324,-0.647949,0.426758,0
25420,0.511719,-0.683594,0.413574,0
25440,0.534668,-0.706055,0.425293,0
25460,0.540527,-0.70752,0.424805,0
25480,0.5,-0.674805,0.398438,0
25500,0.495117,-0.662598,0.38623,0
25520,0.529785,-0.676758,0.397949,0
25540,0.524414,-0.675293,0.419922,0
25560,0.491699,-0.689453,0.424805,0
25580,0.472168,-0.702148,0.415039,0
25600,0.46875,-0.698242,0.398926,0
25620,0.476562,-0.682617,0.416504,0
25640,0.476074,-0.677734,0.414551,0
25660,0.483398,-0.689453,0.421875,0
25680,0.499512,-0.680664,0.408691,0
25700,0.509766,-0.700195,0.399902,0
25720,0.516113,-0.717773,0.406738,0
25740,0.501953,-0.725586,0.406738,0
25760,0.492676,-0.712891,0.389648,0
25780,0.494629,-0.703125,0.380371,0
25800,0.475098,-0.706543,0.398926,0
25820,0.432129,-0.730957,0.39502,0
25840,0.432617,-0.728027,0.383789,0
25860,0.496094,-0.720703,0.369629,0
25880,0.529297,-0.702148,0.381836,0
25900,0.504395,-0.70752,0.366211,0
25920,0.470215,-0.713379,0.369141,0
25930,0.470215,-0.734863,0.368652,0
25950,0.496582,-0.76123,0.367188,0
25970,0.508301,-0.760254,0.368652,0
25990,0.504883,-0.746094,0.356445,0
26010,0.509277,-0.749023,0.347168,0
26030,0.476562,-0.743164,0.372559,0
26050,0.456055,-0.742676,0.34375,0
26070,0.490723,-0.746094,0.352051,0
26090,0.51123,-0.754395,0.336426,0
26110,0.499023,-0.76123,0.341309,0
26130,0.499023,-0.745605,0.35498,0
26150,0.487793,-0.756348,0.333496,0
26170,0.496094,-0.759277,0.335938,0
26190,0.512695,-0.768066,0.334473,0
26210,0.506348,-0.762695,0.319336,0
26230,0.486328,-0.756348,0.320801,0
26250,0.480957,-0.760254,0.329102,0
26270,0.466309,-0.770996,0.330078,0
26290,0.458008,-0.766113,0.30127,0
26310,0.446289,-0.759277,0.308105,0
26330,0.432617,-0.765625,0.319336,0
26350,0.429688,-0.760742,0.318848,0
26370,0.432617,-0.762695,0.30127,0
26390,0.456055,-0.780273,0.292969,0
26410,0.473633,-0.785156,0.297363,0
26430,0.469238,-0.780273,0.298828,0
26450,0.465332,-0.790527,0.289062,0
26470,0.477051,-0.777344,0.275879,0
26490,0.472168,-0.796875,0.279785,0
26510,0.459473,-0.804199,0.282715,0
26530,0.472656,-0.817871,0.271484,0
26550,0.478516,-0.822754,0.275391,0
26570,0.467285,-0.805176,0.30957,0
26590,0.425781,-0.803711,0.268066,0
26610,0.415039,-0.824707,0.258789,0
26630,0.435059,-0.82959,0.291016,0
26650,0.427246,-0.821777,0.304199,0
26670,0.430176,-0.822754,0.272949,0
26690,0.446289,-0.823242,0.270508,0
26710,0.435547,-0.821289,0.258789,0
26730,0.440918,-0.834473,0.247559,0
26750,0.448242,-0.820312,0.262207,0
26770,0.42627,-0.810547,0.25,0
26790,0.431152,-0.811035,0.233887,0
26810,0.442383,-0.811523,0.229004,0
26830,0.420898,-0.807617,0.221191,0
26850,0.415039,-0.811035,0.212402,0
26870,0.430176,-0.808105,0.205078,0
26890,0.420898,-0.804688,0.192383,0
26910,0.42627,-0.820801,0.186523,0
26930,0.435059,-0.822266,0.180664,0
26950,0.425293,-0.822754,0.188965,0
26970,0.416504,-0.822266,0.17041,0
26990,0.450195,-0.84082,0.17627,0
27010,0.478027,-0.84082,0.168945,0
27030,0.454102,-0.842773,0.159668,0
27050,0.442383,-0.84668,0.15918,0
27070,0.453125,-0.850586,0.161621,0
27090,0.446289,-0.838379,0.164551,0
27110,0.437012,-0.819336,0.154785,0
27130,0.424805,-0.815918,0.143066,0
27150,0.418945,-0.793457,0.157227,0
27170,0.469727,-0.810547,0.146973,0
27190,0.544922,-0.82959,0.131836,0
27210,0.558105,-0.839355,0.124512,0
27230,0.518555,-0.824219,0.148438,0
27250,0.522949,-0.805664,0.147949,0
27270,0.524414,-0.79541,0.111816,0
27290,0.542969,-0.815918,0.0922852,0
27310,0.557129,-0.819336,0.117676,0
27330,0.557129,-0.823242,0.111816,0
27350,0.560059,-0.827148,0.0844727,0
27370,0.558105,-0.81543,0.0727539,0
27390,0.575684,-0.79834,0.115723,0
27410,0.588867,-0.79834,0.100098,0
27430,0.61084,-0.789551,0.0776367,0
27450,0.589844,-0.768066,0.0629883,0
27470,0.560547,-0.750977,0.0649414,0
27490,0.550293,-0.741699,0.0473633,0
27510,0.583496,-0.760254,0.0400391,0
27530,0.613281,-0.771484,0.0371094,0
27550,0.623535,-0.755859,0.0429688,0
27570,0.634277,-0.730469,0.0405273,0
27590,0.650879,-0.717773,0.0209961,0
27610,0.654785,-0.721191,0.0214844,0
27630,0.650879,-0.710938,0.0161133,0
27650,0.671875,-0.697266,0.0195312,0
27670,0.69043,-0.706543,0.00634766,0
27690,0.679199,-0.714355,0.00439453,0
27710,0.674316,-0.669434,0.0297852,0
27730,0.696289,-0.66748,0.00732422,0
27750,0.73291,-0.686523,-0.00146484,0
27770,0.720703,-0.686035,0.000976562,0
27790,0.728516,-0.694336,0.0078125,0
27810,0.744629,-0.680176,0.0170898,0
27830,0.748535,-0.648438,0.00878906,0
27850,0.732422,-0.621094,0.0209961,0
27870,0.748047,-0.61377,0.0078125,0
27890,0.779297,-0.655273,0.00488281,0
27910,0.769043,-0.646484,0.0234375,0
27930,0.73877,-0.617676,0.0195312,0
27950,0.768555,-0.601074,0.0239258,0
27970,0.791016,-0.604004,0.0307617,0
27990,0.774902,-0.603027,0.0561523,0
28010,0.759766,-0.586426,0.0556641,0
28030,0.781738,-0.564941,0.0551758,0
28050,0.788574,-0.563477,0.0644531,0
28070,0.740234,-0.556152,0.050293,0
28090,0.753906,-0.54541,0.0673828,0
28110,0.781738,-0.5625,0.106445,0
28130,0.781738,-0.567871,0.0766602,0
28150,0.790527,-0.545898,0.0629883,0
28170,0.802246,-0.524902,0.0678711,0
28190,0.789551,-0.512207,0.104492,0
28210,0.796875,-0.507812,0.110352,0
28230,0.811035,-0.52002,0.109375,0
28250,0.816895,-0.512695,0.102051,0
28270,0.830566,-0.528809,0.101562,0
28290,0.848145,-0.525391,0.105957,0
28310,0.827148,-0.495605,0.109375,0
28330,0.822266,-0.492188,0.114258,0
28350,0.836914,-0.494141,0.112305,0
28370,0.843262,-0.506348,0.141113,0
28390,0.825195,-0.496094,0.136719,0
28410,0.808594,-0.477051,0.129883,0
28430,0.833496,-0.475586,0.123535,0
28450,0.865234,-0.481934,0.121582,0
28470,0.859375,-0.460449,0.156738,0
28490,0.830078,-0.448242,0.17627,0
28510,0.812012,-0.460449,0.150879,0
28530,0.828613,-0.479004,0.161621,0
28550,0.845215,-0.46582,0.186523,0
28570,0.822266,-0.43457,0.164062,0
28590,0.839844,-0.445801,0.149902,0
28610,0.87793,-0.433105,0.208496,0
28630,0.861816,-0.4375,0.255859,0
28650,0.819336,-0.455566,0.237305,0
28670,0.823242,-0.470703,0.231445,0
28690,0.828613,-0.453125,0.244629,0
28710,0.799805,-0.424805,0.228027,0
28730,0.794434,-0.433105,0.239746,0
28750,0.791016,-0.442871,0.260254,0
28770,0.776855,-0.463867,0.272461,0
28790,0.785645,-0.481445,0.275879,0
28810,0.817871,-0.488281,0.275391,0
28830,0.817871,-0.46875,0.275879,0
28850,0.782227,-0.491211,0.31543,0
28870,0.747559,-0.485352,0.318359,0
28890,0.710938,-0.482422,0.30127,0
28910,0.759766,-0.514648,0.315918,0
28930,0.802734,-0.51709,0.341797,0
28950,0.811523,-0.519531,0.371582,0
28970,0.75293,-0.504883,0.353027,0
28990,0.699707,-0.540039,0.349609,0
29010,0.678223,-0.516113,0.392578,0
29030,0.651855,-0.508301,0.395996,0
29050,0.652832,-0.526367,0.37793,0
29070,0.643066,-0.54834,0.385254,0
29090,0.623047,-0.529297,0.403809,0
29110,0.599609,-0.515625,0.424805,0
29130,0.629883,-0.543457,0.388672,0
29150,0.652832,-0.550781,0.400879,0
29170,0.620605,-0.537598,0.40332,0
29190,0.605469,-0.551758,0.410645,0
29210,0.635742,-0.569336,0.403809,0
29230,0.650391,-0.575195,0.391602,0
29250,0.624023,-0.556641,0.382324,0
29270,0.61084,-0.566895,0.377441,0
29290,0.599609,-0.591309,0.389648,0
29310,0.577637,-0.618164,0.35791,0
29330,0.61084,-0.624023,0.393066,0
29350,0.640137,-0.629883,0.407715,0
29370,0.569336,-0.609375,0.380859,0
29390,0.522949,-0.609863,0.389648,0
29410,0.599609,-0.627441,0.416992,0
29420,0.622559,-0.632324,0.416016,0
29440,0.554688,-0.633789,0.384766,0
29460,0.54834,-0.617188,0.39502,0
29480,0.562012,-0.620605,0.402344,0
29500,0.535156,-0.629395,0.373047,0
29520,0.53125,-0.644531,0.367676,0
29540,0.569336,-0.650879,0.402832,0
29560,0.574219,-0.638184,0.383789,0
29580,0.563477,-0.645508,0.359863,0
29600,0.572266,-0.662109,0.369141,0
29620,0.608398,-0.674316,0.373047,0
29640,0.602051,-0.663086,0.366211,0
29660,0.563965,-0.681641,0.345703,0
29680,0.587402,-0.686035,0.335938,0
29700,0.610352,-0.683105,0.34082,0
29720,0.561035,-0.675781,0.330566,0
29740,0.499512,-0.675293,0.310547,0
29760,0.494629,-0.67334,0.288086,0
29780,0.516113,-0.650391,0.314941,0
29800,0.524902,-0.643066,0.316406,0
29820,0.558105,-0.699219,0.308105,0
29840,0.568359,-0.734375,0.294922,0
29860,0.53125,-0.751953,0.300781,0
29880,0.513184,-0.746582,0.344238,0
29900,0.480957,-0.740234,0.316406,0
29920,0.533691,-0.746094,0.27832,0
29940,0.623047,-0.736328,0.326172,0
29960,0.554199,-0.741699,0.308594,0
29980,0.5,-0.789062,0.289062,0
30000,0.58252,-0.820312,0.299316,0
30020,0.581055,-0.791016,0.306641,0
30040,0.521973,-0.743652,0.261719,0
30060,0.544434,-0.741211,0.256348,0
30080,0.560059,-0.748047,0.267578,0
30100,0.552246,-0.775391,0.253418,0
30120,0.549316,-0.770996,0.27002,0
30140,0.546387,-0.756836,0.262695,0
30160,0.521484,-0.757324,0.242676,0
30180,0.516113,-0.754883,0.233398,0
30200,0.505859,-0.750977,0.256836,0
30220,0.505371,-0.764648,0.227539,0
30240,0.526855,-0.740723,0.228516,0
30260,0.536133,-0.747559,0.247559,0
30280,0.552246,-0.776367,0.224121,0
30300,0.524902,-0.775879,0.241699,0
30320,0.518555,-0.770508,0.226074,0
30340,0.569824,-0.763184,0.23291,0
30360,0.575684,-0.769531,0.226562,0
30380,0.520508,-0.783203,0.212891,0
30400,0.556641,-0.795898,0.214355,0
30420,0.60498,-0.799805,0.21582,0
30440,0.568848,-0.784668,0.197266,0
30460,0.547852,-0.788574,0.177734,0
30480,0.521973,-0.771484,0.20459,0
30500,0.495117,-0.776367,0.174805,0
30520,0.518066,-0.780762,0.166016,0
30540,0.560059,-0.796875,0.17041,0
30560,0.555664,-0.787109,0.169434,0
30580,0.487793,-0.77832,0.169922,0
30600,0.480957,-0.790039,0.145508,0
30620,0.539062,-0.79248,0.136719,0
30640,0.525391,-0.777832,0.142578,0
30660,0.499512,-0.789551,0.144531,0
30680,0.541504,-0.811523,0.132812,0
30700,0.574707,-0.817871,0.119629,0
30720,0.54248,-0.803223,0.124512,0
30740,0.535645,-0.789062,0.101074,0
30760,0.560059,-0.781738,0.0961914,0
30780,0.539551,-0.790039,0.0878906,0
30800,0.525391,-0.793945,0.0795898,0
30820,0.561523,-0.800293,0.0961914,0
30840,0.572754,-0.799316,0.0864258,0
30860,0.539551,-0.767578,0.0732422,0
30880,0.552246,-0.758789,0.0449219,0
30900,0.584473,-0.770996,0.0585938,0
30920,0.575684,-0.778809,0.059082,0
30940,0.547363,-0.782715,0.0361328,0
30960,0.584473,-0.778809,0.0307617,0
30980,0.614746,-0.773926,0.0541992,0
31000,0.572266,-0.757812,0.046875,0
31020,0.570312,-0.749512,0.0102539,0
31040,0.652344,-0.769043,0.0332031,0
31060,0.679199,-0.769531,0.043457,0
31080,0.600098,-0.75293,0.0239258,0
31100,0.593262,-0.73877,-0.0327148,0
31120,0.651855,-0.753906,-0.0336914,0
31140,0.625977,-0.75,0.00537109,0
31160,0.586426,-0.74707,0.00244141,0
31180,0.625977,-0.752441,-0.0258789,0
31200,0.657227,-0.73877,-0.0351562,0
31220,0.633301,-0.708496,-0.0112305,0
31240,0.641602,-0.713379,-0.0341797,0
31260,0.680664,-0.728027,-0.0595703,0
31280,0.704102,-0.743164,-0.0424805,0
31300,0.704102,-0.719238,-0.0361328,0
31320,0.720703,-0.71582,-0.0307617,0
31340,0.702637,-0.712402,-0.0224609,0
31360,0.676758,-0.681152,-0.0473633,0
31380,0.679688,-0.678223,-0.0585938,0
31400,0.716797,-0.687988,-0.0390625,0
31410,0.737793,-0.694336,-0.0219727,0
31430,0.699707,-0.688477,-0.0375977,0
31450,0.684082,-0.649902,-0.0625,0
31470,0.70459,-0.619141,-0.0703125,0
31490,0.722656,-0.621582,-0.0297852,0
31510,0.686523,-0.639648,-0.0424805,0
31530,0.720215,-0.666992,-0.0766602,0
31550,0.769531,-0.658691,-0.0522461,2001
31570,0.776367,-0.63916,-0.0541992,0
31590,0.771484,-0.621582,-0.0727539,0
31610,0.778809,-0.610352,-0.0620117,0
31630,0.794434,-0.605957,-0.0527344,0
31650,0.79541,-0.61084,-0.0317383,0
31670,0.806641,-0.611328,-0.0532227,0
31690,0.821777,-0.61377,-0.0649414,0
31710,0.801758,-0.576172,-0.0351562,0
31730,0.777832,-0.546387,-0.0385742,0
31750,0.797852,-0.555664,-0.0522461,0
31770,0.786621,-0.57959,-0.0605469,0
31790,0.762207,-0.571777,-0.0595703,0
31810,0.73291,-0.541504,-0.0522461,0
31830,0.722656,-0.547852,-0.0561523,0
31850,0.726562,-0.568848,-0.0385742,0
31870,0.722656,-0.56543,-0.0429688,0
31890,0.702637,-0.549316,-0.0625,0
31910,0.685547,-0.543945,-0.0664062,0
31930,0.696777,-0.555176,-0.0786133,0
31950,0.733887,-0.570312,-0.078125,0
31970,0.717285,-0.577148,-0.0512695,0
31990,0.681641,-0.61377,-0.065918,0
32010,0.697754,-0.656738,-0.105957,0
32030,0.701172,-0.635254,-0.0537109,0
32050,0.70459,-0.591797,-0.0458984,0
32070,0.693359,-0.585938,-0.0634766,0
32090,0.67627,-0.587402,-0.059082,0
32110,0.653809,-0.597656,-0.00439453,0
32130,0.620605,-0.653809,0.0117188,0
32150,0.619629,-0.701172,-0.0576172,0
32170,0.67334,-0.694824,0.00927734,0
32190,0.655762,-0.662598,0.0498047,0
32210,0.564941,-0.634766,0.0561523,0
32230,0.53418,-0.652344,0.0136719,0
32250,0.583984,-0.672363,0.0400391,0
32270,0.642578,-0.699707,0.0859375,0
32290,0.59668,-0.696777,0.125488,0
32310,0.518066,-0.722656,0.100586,0
32330,0.514648,-0.783691,0.0498047,0
32350,0.620117,-0.814453,0.09375,0
32370,0.640625,-0.783691,0.209961,0
32390,0.527832,-0.769043,0.193359,0
32410,0.480469,-0.818359,0.11377,0
32430,0.550293,-0.844238,0.184082,0
32450,0.547363,-0.861328,0.238281,0
32470,0.453613,-0.889648,0.230957,0
32490,0.391113,-0.911133,0.235352,0
32510,0.390625,-0.90625,0.277344,0
32530,0.38623,-0.870605,0.313477,0
32550,0.339355,-0.902832,0.261719,0
32570,0.334473,-0.955566,0.208008,0
32590,0.399902,-0.958008,0.286133,0
32610,0.425781,-0.941406,0.368164,0
32630,0.348633,-0.9375,0.32373,0
32650,0.32666,-0.976562,0.246094,0
32670,0.395508,-0.958008,0.290527,0
32690,0.436523,-0.929199,0.340332,0
32710,0.394531,-0.961426,0.29541,0
32730,0.400879,-0.97998,0.255371,0
32750,0.426758,-0.948242,0.291992,0
32770,0.376465,-0.924316,0.304688,0
32790,0.318848,-0.936035,0.275391,0
32810,0.321289,-0.944336,0.287109,0
32830,0.330078,-0.916992,0.336914,0
32850,0.300781,-0.895508,0.327637,0
32870,0.275391,-0.907227,0.287598,0
32890,0.268555,-0.915039,0.299316,0
32910,0.290527,-0.912598,0.34082,0
32930,0.297852,-0.895996,0.345703,0
32950,0.285645,-0.908203,0.313965,0
32970,0.299805,-0.914062,0.295898,0
32990,0.294434,-0.890625,0.312988,0
33010,0.264648,-0.886719,0.298828,0
33030,0.249512,-0.89209,0.300781,0
33050,0.268555,-0.892578,0.299316,0
33070,0.256348,-0.888672,0.314453,0
33090,0.219238,-0.857422,0.310547,0
33110,0.192871,-0.866211,0.299316,0
33130,0.192871,-0.862793,0.297363,0
33150,0.206055,-0.855469,0.311523,0
33170,0.179199,-0.849609,0.322266,0
33190,0.154297,-0.873535,0.337402,2000
33210,0.17627,-0.908203,0.280762,0
33230,0.202637,-0.885254,0.299316,0
33250,0.199707,-0.861328,0.341797,0
33270,0.186523,-0.835449,0.36377,0
33290,0.186523,-0.859863,0.364746,0
33310,0.203125,-0.914551,0.328125,0
33330,0.232422,-0.950195,0.318359,0
33350,0.252441,-0.932129,0.327148,0
33370,0.259766,-0.892578,0.322266,0
33390,0.253906,-0.861816,0.305664,0
33410,0.242188,-0.862793,0.314941,0
33430,0.230957,-0.866211,0.316895,0
33450,0.227051,-0.88916,0.320312,0
33470,0.224121,-0.916992,0.315918,0
33490,0.199707,-0.897949,0.302246,0
33510,0.183105,-0.869629,0.287598,0
33530,0.196289,-0.867676,0.299316,0
33550,0.199219,-0.85498,0.306152,0
33570,0.191895,-0.882324,0.302246,0
33590,0.195312,-0.911621,0.286621,0
33610,0.229004,-0.916016,0.286133,0
33630,0.253418,-0.884277,0.307617,0
33650,0.259277,-0.887695,0.318848,0
33670,0.273438,-0.895508,0.289551,0
33690,0.299316,-0.905762,0.289551,0
33710,0.313477,-0.89502,0.294434,0
33730,0.30127,-0.898926,0.302246,0
33750,0.27832,-0.896973,0.293457,0
33770,0.279785,-0.901855,0.290039,0
33790,0.298828,-0.892578,0.289551,0
33810,0.290039,-0.869629,0.288086,0
33830,0.271484,-0.856445,0.274414,0
33850,0.297363,-0.880371,0.28125,0
33870,0.320801,-0.907715,0.269043,0
33890,0.32959,-0.902832,0.26123,0
33910,0.330078,-0.88623,0.26416,0
33930,0.351074,-0.865723,0.260742,0
33950,0.376465,-0.866699,0.263184,0
33970,0.36084,-0.878906,0.232422,0
33990,0.351074,-0.896973,0.228027,0
34010,0.367188,-0.871094,0.250488,0
34030,0.38623,-0.845215,0.25293,0
34050,0.395996,-0.862305,0.227539,0
34070,0.379883,-0.844238,0.20752,0
34090,0.370605,-0.832031,0.205566,0
34110,0.382812,-0.854004,0.192871,0
34130,0.397461,-0.852539,0.195801,0
34150,0.404297,-0.841797,0.204102,0
34170,0.403809,-0.868164,0.194824,0
34190,0.397949,-0.841309,0.199219,0
34210,0.399902,-0.823242,0.213867,0
34230,0.416504,-0.83252,0.196777,0
34250,0.431152,-0.847168,0.185059,0
34270,0.430176,-0.847168,0.202148,0
34290,0.434082,-0.820801,0.219238,0
34310,0.444336,-0.793945,0.213379,0
34330,0.460449,-0.817871,0.200684,0
34350,0.46875,-0.851562,0.189941,0
34370,0.466797,-0.824707,0.216309,0
34390,0.461914,-0.800293,0.210938,0
34410,0.478027,-0.812988,0.18457,0
34430,0.476562,-0.836914,0.174316,0
34450,0.445312,-0.8125,0.215332,0
34470,0.443359,-0.783691,0.223145,0
34490,0.481934,-0.796387,0.241699,0
34510,0.494629,-0.814453,0.232422,0
34530,0.474121,-0.790527,0.228516,0
34550,0.482422,-0.790039,0.224609,0
34570,0.479004,-0.796387,0.229492,0
34590,0.48877,-0.788086,0.254395,0
34610,0.49707,-0.781738,0.255859,0
34630,0.513184,-0.766113,0.253906,0
34650,0.531738,-0.773438,0.258789,0
34670,0.549316,-0.779785,0.284668,0
34690,0.536133,-0.76709,0.271484,0
34710,0.546875,-0.765625,0.256836,0
34730,0.531738,-0.766602,0.275391,0
34750,0.530762,-0.75293,0.280762,0
34770,0.527832,-0.745117,0.287598,0
34790,0.54248,-0.755371,0.29834,0
34810,0.535645,-0.75293,0.314453,0
34830,0.544922,-0.73584,0.302246,0
34850,0.554199,-0.744141,0.296387,0
34870,0.554199,-0.726562,0.303711,0
34880,0.571777,-0.749023,0.304199,0
34900,0.570312,-0.744629,0.306152,0
34920,0.575195,-0.711426,0.309082,0
34940,0.583496,-0.707031,0.321777,0
34960,0.587891,-0.708496,0.31543,0
34980,0.602051,-0.726562,0.328613,0
35000,0.597168,-0.717773,0.333008,0
35020,0.603027,-0.708008,0.32666,0
35040,0.609863,-0.691895,0.322754,0
35060,0.611816,-0.675781,0.321777,0
35080,0.609375,-0.672363,0.335938,0
35100,0.598145,-0.689453,0.334473,0
35120,0.586426,-0.688965,0.330078,0
35140,0.598633,-0.675293,0.327148,0
35160,0.614746,-0.66748,0.339844,0
35180,0.627441,-0.680664,0.33252,0
35200,0.598145,-0.677246,0.337891,0
35220,0.583008,-0.670898,0.34668,0
35240,0.585938,-0.653809,0.353516,0
35260,0.603027,-0.660156,0.352539,0
35280,0.613281,-0.677246,0.35498,0
35300,0.576172,-0.669434,0.340332,0
35320,0.552734,-0.674316,0.355469,0
35340,0.569336,-0.680176,0.374512,0
35360,0.578613,-0.698242,0.371582,0
35380,0.560547,-0.688965,0.390625,0
35400,0.541992,-0.671387,0.388184,0
35420,0.573242,-0.664062,0.392578,0
35440,0.5625,-0.683594,0.370117,0
35460,0.554199,-0.681641,0.390137,0
35480,0.563965,-0.677734,0.412109,0
35500,0.556152,-0.663574,0.399414,0
35520,0.541504,-0.665039,0.398438,0
35540,0.527832,-0.672852,0.402832,0
35560,0.527344,-0.68457,0.416504,0
35580,0.503906,-0.687988,0.407227,0
35600,0.495605,-0.70166,0.401367,0
35620,0.526367,-0.688965,0.421875,0
35640,0.504883,-0.658203,0.410156,0
35660,0.46875,-0.681641,0.415039,0
35680,0.5,-0.694336,0.40625,0
35700,0.532715,-0.694336,0.456543,0
35720,0.519043,-0.699219,0.452637,0
35740,0.481445,-0.710449,0.428711,0
35760,0.453613,-0.69043,0.438965,0
35780,0.458496,-0.692383,0.447754,0
35800,0.478027,-0.708984,0.442383,0
35820,0.467773,-0.72168,0.453613,0
35840,0.447266,-0.706543,0.444336,0
35860,0.429199,-0.700684,0.436523,0
35880,0.433594,-0.692871,0.45752,0
35900,0.445312,-0.68457,0.45459,0
35920,0.433105,-0.694336,0.430664,0
35940,0.427246,-0.703613,0.444336,0
35960,0.417969,-0.703613,0.460938,0
35980,0.40625,-0.711914,0.430176,0
36000,0.405273,-0.730957,0.439941,0
36020,0.40918,-0.725098,0.461914,0
36040,0.400879,-0.723145,0.45752,0
36060,0.420898,-0.73291,0.436035,0
36080,0.42627,-0.709473,0.429199,0
36100,0.396973,-0.713867,0.443848,0
36120,0.369629,-0.725586,0.445312,0
36140,0.37793,-0.758789,0.447266,0
36160,0.413086,-0.766113,0.443359,0
36180,0.42627,-0.727539,0.439453,0
36200,0.388184,-0.73584,0.447754,0
36220,0.363281,-0.731445,0.444336,0
36240,0.353516,-0.748047,0.432129,0
36260,0.356445,-0.777344,0.444824,0
36280,0.378418,-0.781738,0.454102,0
36300,0.40332,-0.778809,0.438477,0
36320,0.384277,-0.757812,0.428711,0
36340,0.34082,-0.74707,0.45459,0
36360,0.322754,-0.76123,0.458008,0
36380,0.34082,-0.767578,0.46582,0
36400,0.349609,-0.783691,0.446289,0
36420,0.345215,-0.772949,0.44043,0
36440,0.345215,-0.763184,0.421875,0
36460,0.338379,-0.771973,0.41748,0
36480,0.353516,-0.790039,0.439941,0
36500,0.358887,-0.786133,0.453613,0
36520,0.351562,-0.783691,0.43457,0
36540,0.335449,-0.780273,0.422852,0
36560,0.329102,-0.788574,0.421387,0
36580,0.339844,-0.79248,0.433594,0
36600,0.340332,-0.773926,0.430176,0
36620,0.311035,-0.775391,0.400879,0
36640,0.30957,-0.789551,0.404297,0
36660,0.33252,-0.786133,0.428223,0
36680,0.317383,-0.801758,0.401855,0
36700,0.310059,-0.812012,0.376953,0
36720,0.337402,-0.811035,0.393066,0
36740,0.335449,-0.804199,0.402344,0
36760,0.311035,-0.806641,0.397461,0
36780,0.312012,-0.818359,0.368164,0
36800,0.330566,-0.840332,0.371582,0
36820,0.330078,-0.823242,0.384277,0
36840,0.311523,-0.810059,0.378418,0
36860,0.300293,-0.823242,0.355469,0
36870,0.318848,-0.841797,0.359375,0
36890,0.325684,-0.824219,0.381348,0
36910,0.299316,-0.81543,0.365723,0
36930,0.296387,-0.845215,0.307129,0
36950,0.331543,-0.882324,0.29248,0
36970,0.348145,-0.894531,0.296387,0
36990,0.324219,-0.872559,0.292969,0
37010,0.306641,-0.863281,0.307129,0
37030,0.304688,-0.85498,0.335938,0
37050,0.294434,-0.87207,0.282227,0
37070,0.320801,-0.882812,0.270508,0
37090,0.34668,-0.873535,0.299805,0
37110,0.328125,-0.869141,0.280273,0
37130,0.306152,-0.881348,0.246582,0
37150,0.327637,-0.893555,0.227539,0
37170,0.345703,-0.87793,0.25,0
37190,0.306641,-0.866211,0.268555,0
37210,0.27832,-0.898926,0.230469,0
37230,0.29834,-0.915527,0.200195,0
37250,0.32373,-0.885742,0.234375,0
37270,0.291016,-0.869141,0.215332,0
37290,0.279785,-0.883789,0.177734,0
37310,0.321777,-0.901855,0.171875,0
37330,0.334961,-0.895996,0.193848,0
37350,0.303223,-0.896484,0.183594,0
37370,0.304199,-0.911621,0.155762,0
37390,0.330078,-0.900879,0.142578,0
37410,0.338867,-0.869629,0.16748,0
37430,0.306641,-0.873047,0.141602,0
37450,0.305176,-0.90625,0.106934,0
37470,0.347168,-0.919922,0.119629,0
37490,0.357422,-0.900391,0.150391,0
37510,0.3125,-0.90625,0.115234,0
37530,0.29248,-0.913086,0.0917969,0
37550,0.315918,-0.898438,0.120117,0
37570,0.331055,-0.887207,0.121582,0
37590,0.313477,-0.90918,0.0942383,0
37610,0.320801,-0.918457,0.0800781,0
37630,0.36377,-0.913574,0.100098,0
37650,0.347168,-0.933105,0.116211,0
37670,0.328125,-0.942383,0.0952148,0
37690,0.364258,-0.916504,0.0800781,0
37710,0.410156,-0.897461,0.101074,0
37730,0.393066,-0.894531,0.103516,0
37750,0.366699,-0.918457,0.0488281,0
37770,0.382812,-0.916504,0.0517578,0
37790,0.39502,-0.89502,0.09375,0
37810,0.352539,-0.90918,0.0576172,0
37830,0.372559,-0.934082,0.0302734,0
37850,0.454102,-0.92627,0.0703125,0
37870,0.460449,-0.886719,0.103516,0
37890,0.411133,-0.870605,0.0595703,0
37910,0.379395,-0.870117,0.0195312,0
37930,0.385742,-0.879395,0.0351562,0
37950,0.396484,-0.874023,0.0581055,0
37970,0.40625,-0.912109,0.0507812,0
37990,0.408691,-0.909668,0.0200195,0
38010,0.4375,-0.885742,0.0297852,0
38030,0.450195,-0.86377,0.0400391,0
38050,0.432129,-0.863281,0.0371094,0
38070,0.423828,-0.881836,0.0253906,0
38090,0.456543,-0.873047,0.0351562,0
38110,0.47998,-0.869141,0.0556641,0
38130,0.475098,-0.869141,0.0424805,0
38150,0.477051,-0.851562,0.0107422,0
38170,0.470703,-0.830078,0.015625,0
38190,0.475586,-0.846191,0.0283203,0
38210,0.492188,-0.871094,0.0283203,0
38230,0.516602,-0.854492,0.0229492,0
38250,0.508301,-0.83252,0.0078125,0
38270,0.50293,-0.842285,0,0
38290,0.54541,-0.842285,-0.00146484,0
38310,0.586914,-0.836426,0.0297852,0
38330,0.562012,-0.81543,0.0200195,0
38350,0.553223,-0.808594,-0.00292969,0
38370,0.566406,-0.829102,0.00878906,0
38390,0.537109,-0.80957,0.0253906,0
38410,0.49707,-0.806152,0.0244141,0
38430,0.509766,-0.815918,-0.00927734,0
38450,0.540039,-0.81543,0.00585938,0
38470,0.553223,-0.803223,0.015625,0
38490,0.541016,-0.794922,0.0273438,0
38510,0.546387,-0.809082,0.0136719,0
38530,0.54248,-0.809082,0.00634766,0
38550,0.536133,-0.80957,0.0307617,0
38570,0.559082,-0.800781,0.0102539,0
38590,0.583984,-0.800293,0.0141602,0
38610,0.598633,-0.799316,0.0283203,0
38630,0.599121,-0.780762,0.0112305,0
38650,0.615723,-0.777344,0.00292969,0
38670,0.610352,-0.769531,0.0307617,0
38690,0.606934,-0.78418,0.0146484,0
38710,0.627441,-0.768555,0.0146484,0
38730,0.650879,-0.757812,0.0209961,0
38750,0.633789,-0.751953,0.0268555,0
38770,0.612305,-0.754883,-0.00244141,0
38790,0.658691,-0.756836,0.00488281,0
38810,0.681152,-0.737305,0.0356445,0
38830,0.647949,-0.730469,0.0341797,0
38850,0.638672,-0.730957,0.0161133,0
38870,0.691406,-0.725098,-0.00537109,0
38890,0.708008,-0.719238,0.0341797,0
38910,0.658691,-0.693848,0.0341797,0
38930,0.650879,-0.698242,0.0180664,0
38950,0.698242,-0.694824,0.0366211,0
38970,0.703613,-0.689453,0.0595703,0
38990,0.664551,-0.682129,0.0522461,0
39010,0.658691,-0.677734,0.0292969,0
39030,0.705566,-0.67334,0.0639648,0
39050,0.701172,-0.663574,0.0888672,0
39070,0.666016,-0.664062,0.0703125,0
39090,0.695801,-0.655762,0.043457,0
39110,0.737793,-0.635742,0.0834961,0
39130,0.713379,-0.637207,0.105469,0
39150,0.688965,-0.63916,0.0869141,0
39170,0.72168,-0.646973,0.0673828,0
39190,0.756348,-0.632812,0.0898438,0
39210,0.740723,-0.610352,0.0976562,0
39230,0.71582,-0.604492,0.0961914,0
39250,0.731445,-0.612793,0.0844727,0
39270,0.766113,-0.612305,0.0942383,0
39290,0.763184,-0.603516,0.115234,0
39310,0.754883,-0.589844,0.125488,0
39330,0.749512,-0.575684,0.123535,0
39350,0.782715,-0.59668,0.0908203,0
39370,0.796387,-0.590332,0.120117,0
39390,0.782715,-0.583496,0.132812,0
39410,0.777344,-0.606445,0.121582,0
39430,0.791016,-0.600586,0.128418,0
39450,0.79541,-0.59082,0.151855,0
39470,0.782227,-0.587402,0.160156,0
39490,0.772949,-0.588867,0.151367,0
39510,0.767578,-0.578613,0.161133,0
39530,0.754395,-0.585938,0.165039,0
39550,0.753418,-0.583008,0.161621,0
39570,0.749512,-0.570312,0.165039,0
39590,0.745605,-0.562012,0.179199,0
39610,0.753418,-0.567871,0.179199,0
39630,0.75293,-0.572266,0.186035,0
39650,0.761719,-0.583984,0.211426,0
39670,0.757324,-0.588379,0.204102,0
39690,0.745605,-0.580566,0.199707,0
39710,0.741699,-0.556152,0.226562,0
39730,0.73877,-0.556641,0.211426,0
39750,0.755859,-0.588379,0.214355,0
39770,0.749512,-0.592773,0.240234,0
39790,0.744141,-0.557617,0.206543,0
39810,0.729492,-0.529297,0.188965,0
39830,0.73291,-0.533691,0.243164,0
39850,0.718262,-0.570801,0.271484,0
39870,0.683105,-0.633789,0.266602,0
39890,0.675781,-0.651855,0.284668,0
39910,0.685547,-0.646973,0.276855,0
39930,0.709473,-0.60791,0.28418,0
39950,0.727539,-0.564941,0.276367,0
39970,0.714355,-0.57373,0.303223,0
39990,0.692383,-0.59082,0.31543,0
40010,0.666016,-0.621094,0.315918,0
40030,0.671875,-0.643555,0.327637,0
40050,0.675781,-0.632812,0.337891,0
40070,0.653809,-0.63623,0.337402,0
40090,0.620605,-0.629395,0.339844,0
40110,0.611328,-0.602539,0.325195,0
40130,0.611816,-0.614258,0.341797,0
40150,0.62793,-0.625,0.34375,0
40170,0.633301,-0.640625,0.333008,0
40190,0.64502,-0.635742,0.341309,0
40210,0.630859,-0.617188,0.334473,0
40230,0.612305,-0.609375,0.332031,0
40250,0.603027,-0.629395,0.34082,0
40270,0.610352,-0.660156,0.337891,0
40290,0.634766,-0.683594,0.327148,0
40310,0.640137,-0.675781,0.369629,0
40320,0.60498,-0.662598,0.387695,0
40340,0.544434,-0.655273,0.348145,0
40360,0.561035,-0.647949,0.355469,0
40380,0.587891,-0.641113,0.378418,0
40400,0.560059,-0.654297,0.355957,0
40420,0.537598,-0.678223,0.339355,0
40440,0.546875,-0.660156,0.349609,0
40460,0.54834,-0.655762,0.351074,0
40480,0.544434,-0.663574,0.316895,0
40500,0.541504,-0.674316,0.275879,0
40520,0.546875,-0.727539,0.287109,0
40540,0.540527,-0.724121,0.305176,0
40560,0.510254,-0.729492,0.311035,0
40580,0.51709,-0.739746,0.345215,0
40600,0.549316,-0.747559,0.34375,0
40620,0.567871,-0.725586,0.359375,0
40640,0.564941,-0.706055,0.339355,0
40660,0.562012,-0.708496,0.33252,0
40680,0.562012,-0.731934,0.351074,0
40700,0.543945,-0.741211,0.356934,0
40720,0.534668,-0.75,0.329102,0
40740,0.530762,-0.743164,0.338867,0
40760,0.496582,-0.728027,0.338379,0
40780,0.475098,-0.753906,0.310547,0
40800,0.507324,-0.733887,0.331543,0
40820,0.505859,-0.727539,0.366211,0
40840,0.492188,-0.733887,0.331055,0
40860,0.493652,-0.72998,0.29834,0
40880,0.5,-0.749023,0.299316,0
40900,0.501465,-0.755371,0.324219,0
40920,0.494629,-0.75,0.320312,0
40940,0.482422,-0.757324,0.30127,0
40960,0.48291,-0.75,0.298828,0
40980,0.467285,-0.743652,0.322266,0
41000,0.442871,-0.776367,0.294434,0
41020,0.470703,-0.795898,0.276855,0
41040,0.507324,-0.784668,0.321777,0
41060,0.458008,-0.750977,0.337891,0
41080,0.39502,-0.753906,0.28418,0
41100,0.430176,-0.772461,0.279785,0
41120,0.459961,-0.76416,0.314941,0
41140,0.416504,-0.77002,0.30127,0
41160,0.401855,-0.789551,0.265137,0
41180,0.431152,-0.79248,0.285156,0
41200,0.455078,-0.797363,0.294434,0
41220,0.455078,-0.802734,0.293945,0
41240,0.462891,-0.813477,0.270508,0
41260,0.464355,-0.826172,0.275879,0
41280,0.456055,-0.824707,0.283203,0
41300,0.462891,-0.833496,0.272949,0
41320,0.486328,-0.82959,0.266602,0
41340,0.485352,-0.824219,0.262207,0
41360,0.465332,-0.810059,0.282715,0
41380,0.446777,-0.809082,0.275879,0
41400,0.455566,-0.820312,0.263184,0
41420,0.443848,-0.810059,0.273926,0
41440,0.420898,-0.819336,0.253906,0
41460,0.435059,-0.816406,0.243164,0
41480,0.436523,-0.819336,0.260254,0
41500,0.410645,-0.838379,0.255371,0
41520,0.408691,-0.838867,0.243164,0
41540,0.428223,-0.844238,0.241699,0
41560,0.431641,-0.852051,0.23584,0
41580,0.428711,-0.856934,0.237793,0
41600,0.426758,-0.846191,0.239746,0
41620,0.425781,-0.832031,0.240723,0
41640,0.417969,-0.86084,0.231445,0
41660,0.430176,-0.864258,0.220703,0
41680,0.416504,-0.84082,0.233887,0
41700,0.385742,-0.842773,0.208984,0
41720,0.412598,-0.836914,0.192871,0
41740,0.43457,-0.834961,0.220703,0
41760,0.407715,-0.845703,0.212402,0
41780,0.393066,-0.855957,0.181152,0
41800,0.399414,-0.847656,0.17041,0
41820,0.418945,-0.836914,0.17627,0
41840,0.426758,-0.843262,0.173828,0
41860,0.419434,-0.861816,0.160645,0
41880,0.42334,-0.873535,0.161621,0
41900,0.425781,-0.86084,0.155273,0
41920,0.408203,-0.861816,0.148438,0
41940,0.415527,-0.869141,0.152344,0
41960,0.409668,-0.869629,0.130859,0
41980,0.40918,-0.857422,0.117188,0
42000,0.420898,-0.861328,0.128906,0
42020,0.410645,-0.863281,0.138672,0
42040,0.393066,-0.868652,0.121582,0
42060,0.418945,-0.880859,0.0795898,0
42080,0.460449,-0.880859,0.0981445,0
42100,0.444336,-0.875,0.10498,0
42120,0.42041,-0.869141,0.0869141,0
42140,0.429199,-0.875977,0.0688477,0
42160,0.441895,-0.869629,0.0795898,0
42180,0.435059,-0.871582,0.0698242,0
42200,0.44873,-0.867676,0.065918,0
42220,0.472656,-0.855957,0.0693359,0
42230,0.461426,-0.848633,0.0576172,0
42260,0.447754,-0.85498,0.0644531,0
42280,0.472656,-0.865723,0.0483398,0
42300,0.508789,-0.873047,0.0336914,0
42320,0.50293,-0.856934,0.0351562,0
42330,0.48584,-0.851562,0.0356445,0
42350,0.49707,-0.855957,0.0126953,0
42370,0.502441,-0.843262,0.0166016,0
42390,0.466797,-0.841797,0.00488281,0
42410,0.460449,-0.842285,-0.00927734,0
42430,0.504395,-0.855469,-0.00292969,0
42450,0.516113,-0.849609,0.00634766,0
42470,0.473145,-0.842285,-0.012207,0
42490,0.497559,-0.837402,-0.0356445,0
42510,0.527344,-0.822266,-0.00634766,0
42530,0.506836,-0.815918,0.0102539,0
42550,0.489258,-0.821289,-0.0175781,0
42570,0.503418,-0.819824,-0.0292969,0
42590,0.518555,-0.803223,-0.0214844,0
42610,0.51123,-0.799316,-0.0268555,0
42630,0.523438,-0.818359,-0.0424805,0
42650,0.55127,-0.819824,-0.0390625,0
42670,0.543945,-0.806152,-0.0258789,0
42690,0.537109,-0.79248,-0.0512695,0
42710,0.564941,-0.800293,-0.0625,0
42730,0.594727,-0.825195,-0.0498047,0
42750,0.603027,-0.826172,-0.0253906,0
42770,0.587891,-0.808105,-0.0566406,0
42790,0.579102,-0.803223,-0.0751953,0
42810,0.588867,-0.796387,-0.0693359,0
42830,0.616699,-0.782715,-0.0620117,0
42850,0.615723,-0.785156,-0.046875,0
42870,0.590332,-0.78418,-0.0620117,0
42890,0.574707,-0.793457,-0.0893555,0
42910,0.598145,-0.78125,-0.0883789,0
42930,0.621094,-0.759766,-0.0800781,0
42950,0.614258,-0.761719,-0.0732422,0
42970,0.603027,-0.768066,-0.0942383,0
42990,0.62207,-0.755859,-0.0849609,0
43010,0.653809,-0.722168,-0.0620117,0
43030,0.652344,-0.726562,-0.0991211,0
43050,0.649414,-0.736328,-0.128418,0
43070,0.684082,-0.733887,-0.0917969,0
43090,0.679199,-0.717773,-0.0791016,0
43110,0.658203,-0.709473,-0.119141,0
43130,0.69873,-0.731934,-0.157227,0
43150,0.736816,-0.706055,-0.10498,0
43170,0.715332,-0.70459,-0.0849609,0
43190,0.683594,-0.697754,-0.112305,0
43210,0.70752,-0.693848,-0.112793,0
43230,0.736816,-0.680664,-0.103516,0
43250,0.716797,-0.669434,-0.0991211,0
43270,0.695801,-0.659668,-0.112305,0
43290,0.706543,-0.658691,-0.111816,0
43310,0.729004,-0.662598,-0.0717773,0
43330,0.703125,-0.667969,-0.0864258,0
43350,0.696777,-0.649414,-0.115723,0
43370,0.735352,-0.617676,-0.0986328,0
43390,0.756836,-0.640137,-0.0830078,0
43410,0.737793,-0.643066,-0.0800781,0
43430,0.742188,-0.632324,-0.097168,0
43450,0.751465,-0.61377,-0.0761719,0
43470,0.743164,-0.602051,-0.0546875,0
43490,0.737793,-0.608398,-0.0854492,0
43510,0.778809,-0.605957,-0.105469,0
43530,0.806152,-0.583008,-0.0610352,0
43550,0.796875,-0.577148,-0.0385742,0
43570,0.778809,-0.572754,-0.0629883,0
43590,0.778809,-0.58252,-0.0908203,0
43610,0.807129,-0.588379,-0.0732422,0
43630,0.80957,-0.576172,-0.0483398,0
43650,0.793457,-0.571289,-0.0454102,0
43670,0.812988,-0.552246,-0.0454102,0
43690,0.812012,-0.540527,-0.0288086,0
43710,0.796387,-0.554688,-0.0473633,0
43730,0.805664,-0.554688,-0.0649414,0
43750,0.833496,-0.54834,-0.0371094,0
43770,0.823242,-0.554199,0.00927734,0
43790,0.790527,-0.543457,-0.00292969,0
43810,0.803223,-0.53418,-0.0244141,0
43830,0.83252,-0.525879,-0.0166016,0
43850,0.839844,-0.517578,0.00537109,0
43870,0.825684,-0.524414,0.000488281,0
43890,0.817871,-0.534668,0.00488281,0
43910,0.82959,-0.524414,0.012207,0
43930,0.824707,-0.506836,0.0405273,0
43950,0.827148,-0.510254,0.0292969,0
43970,0.844238,-0.518555,0.0234375,0
43990,0.836914,-0.505371,0.0424805,0
44010,0.823242,-0.492676,0.0429688,0
44030,0.833008,-0.470215,0.0473633,0
44050,0.841309,-0.467285,0.0527344,0
44070,0.830078,-0.478516,0.0341797,0
44090,0.807129,-0.492188,0.0493164,0
44110,0.825684,-0.498535,0.0629883,0
44130,0.837891,-0.497559,0.0786133,0
44150,0.843262,-0.498047,0.0615234,0
44170,0.837891,-0.476562,0.0483398,0
44190,0.832031,-0.45752,0.0834961,0
44210,0.812988,-0.464355,0.10498,0
44230,0.834473,-0.48877,0.0996094,0
44250,0.850586,-0.51709,0.106445,0
44270,0.837891,-0.516602,0.103516,0
44290,0.831055,-0.498047,0.0922852,0
44310,0.842773,-0.478516,0.125,0
44330,0.830566,-0.480469,0.141602,0
44350,0.811035,-0.493652,0.138184,0
44370,0.819824,-0.498047,0.147949,0
44390,0.818848,-0.499023,0.147949,0
44410,0.816895,-0.519043,0.138672,0
44430,0.82373,-0.519531,0.162598,0
44450,0.816895,-0.499512,0.174805,0
44470,0.799316,-0.494141,0.160645,0
44490,0.791016,-0.493652,0.152832,0
44510,0.781738,-0.498047,0.171387,0
44530,0.76709,-0.509766,0.185547,0
44550,0.794922,-0.526367,0.182129,0
44570,0.820801,-0.522949,0.188477,0
44590,0.803223,-0.50293,0.183594,0
44610,0.791504,-0.498535,0.187012,0
44630,0.813965,-0.511719,0.20459,0
44650,0.819336,-0.53125,0.212402,0
44670,0.791992,-0.538574,0.208008,0
44690,0.778809,-0.515137,0.209473,0
44710,0.771484,-0.508789,0.212891,0
44730,0.779297,-0.530273,0.224121,0
44750,0.76416,-0.541016,0.254395,0
44770,0.75,-0.552246,0.24707,0
44790,0.750488,-0.539062,0.235352,0
44810,0.772949,-0.53418,0.249023,0
44830,0.751465,-0.519531,0.262695,0
44850,0.730957,-0.543945,0.264648,0
44870,0.751465,-0.572266,0.269043,0
44890,0.751465,-0.566895,0.291016,0
44910,0.734863,-0.54248,0.274414,0
44930,0.763672,-0.548828,0.244141,0
44950,0.787109,-0.56543,0.270996,0
44970,0.697754,-0.59082,0.307129,0
44990,0.629395,-0.594727,0.306152,0
45010,0.648438,-0.595703,0.287109,0
45030,0.707031,-0.583008,0.313965,0
45050,0.72998,-0.575195,0.351562,0
45070,0.673828,-0.561035,0.336426,0
45090,0.668945,-0.575684,0.319336,0
45110,0.684082,-0.59668,0.319336,0
45130,0.65332,-0.641602,0.336914,0
45150,0.626953,-0.638672,0.336426,0
45170,0.609863,-0.609375,0.299805,0
45190,0.652832,-0.611816,0.30127,0
45210,0.681152,-0.619141,0.32959,0
45230,0.615723,-0.631348,0.324219,0
45250,0.595703,-0.640625,0.294922,0
45270,0.664551,-0.649902,0.298828,0
45290,0.660156,-0.623535,0.318848,0
45310,0.610352,-0.611816,0.291504,0
45330,0.603516,-0.637207,0.268555,0
45350,0.603516,-0.644043,0.310059,0
45370,0.600586,-0.657227,0.288574,0
45390,0.631348,-0.643066,0.290039,0
45410,0.591309,-0.630859,0.297363,0
45430,0.57959,-0.653809,0.276367,0
45450,0.605469,-0.65918,0.296875,0
45470,0.57959,-0.671875,0.29541,0
45490,0.5625,-0.675781,0.286133,0
45510,0.589355,-0.686523,0.294434,0
45530,0.625488,-0.705078,0.287109,0
45550,0.658203,-0.737305,0.296875,0
45570,0.612305,-0.71875,0.32959,0
45590,0.48877,-0.688477,0.31543,0
45610,0.483887,-0.690918,0.278809,0
45630,0.615234,-0.71875,0.294922,0
45650,0.650391,-0.70459,0.293457,0
45670,0.55127,-0.697754,0.273926,0
45690,0.536133,-0.717773,0.26123,0
45710,0.574219,-0.721191,0.282715,0
45730,0.546875,-0.717773,0.294434,0
45750,0.528809,-0.730957,0.279297,0
45770,0.567383,-0.741699,0.28125,0
45780,0.54248,-0.708496,0.286621,0
45800,0.513184,-0.692871,0.260742,0
45820,0.557129,-0.732422,0.270508,0
45840,0.533691,-0.754395,0.285156,0
45860,0.485352,-0.73877,0.271973,0
45880,0.513672,-0.729004,0.239258,0
45900,0.546875,-0.73584,0.246582,0
45920,0.526855,-0.739746,0.272949,0
45940,0.518555,-0.746094,0.270508,0
45960,0.533203,-0.760742,0.26123,0
45980,0.547363,-0.770508,0.266602,0
46000,0.557129,-0.75293,0.27002,0
46020,0.509277,-0.747559,0.24707,0
46040,0.510742,-0.782715,0.213379,0
46060,0.577637,-0.79541,0.234863,0
46080,0.53418,-0.772461,0.257324,0
46100,0.511719,-0.789062,0.20459,0
46120,0.570801,-0.836914,0.190918,0
46140,0.611328,-0.839844,0.261719,0
46160,0.522949,-0.791992,0.264648,0
46180,0.43457,-0.762695,0.222168,0
46200,0.470215,-0.783691,0.194336,0
46220,0.547852,-0.797363,0.225098,0
46240,0.507324,-0.776855,0.242676,0
46260,0.428223,-0.753906,0.212402,0
46280,0.484375,-0.785156,0.143555,0
46300,0.582031,-0.800781,0.210449,0
46320,0.537109,-0.799805,0.224609,0
46340,0.487793,-0.761719,0.196289,0
46360,0.462891,-0.759277,0.137695,0
46380,0.537598,-0.812988,0.154785,0
46400,0.562012,-0.819336,0.197754,0
46420,0.48877,-0.797363,0.172852,0
46440,0.512207,-0.795898,0.139648,0
46460,0.556641,-0.814453,0.157715,0
46480,0.517578,-0.811523,0.169434,0
46500,0.466309,-0.804199,0.141602,0
46520,0.485352,-0.82959,0.123047,0
46540,0.54541,-0.844238,0.132812,0
46560,0.513672,-0.800293,0.13916,0
46580,0.45166,-0.788574,0.104004,0
46600,0.498535,-0.831543,0.0986328,0
46620,0.535156,-0.835938,0.127441,0
46640,0.481934,-0.810059,0.105957,0
46660,0.479004,-0.819336,0.0771484,0
46680,0.538574,-0.838867,0.0961914,0
46700,0.519531,-0.807129,0.107422,0
46720,0.492676,-0.805176,0.0795898,0
46740,0.536133,-0.831055,0.0708008,0
46760,0.540527,-0.846191,0.0878906,0
46780,0.497559,-0.832031,0.0742188,0
46800,0.498047,-0.838867,0.0581055,0
46820,0.513184,-0.842285,0.0727539,0
46840,0.511719,-0.831543,0.0585938,0
46860,0.521973,-0.836914,0.0375977,0
46880,0.519531,-0.844727,0.0341797,0
46900,0.500977,-0.847168,0.0532227,0
46920,0.496582,-0.842773,0.0561523,0
46940,0.494629,-0.83252,0.0131836,0
46960,0.515625,-0.84082,-0.00390625,0
46980,0.546387,-0.833984,0.0209961,0
47000,0.515625,-0.825684,0.0351562,0
47020,0.49707,-0.822754,-0.0107422,0
47040,0.535156,-0.827148,-0.0239258,0
47060,0.55957,-0.82666,0.0112305,0
47080,0.549316,-0.812012,0.0170898,0
47100,0.560059,-0.824219,-0.015625,0
47120,0.572266,-0.832031,-0.0327148,0
47140,0.56543,-0.830566,-0.0170898,0
47160,0.550293,-0.814941,-0.0107422,0
47180,0.524414,-0.799805,-0.034668,0
47200,0.520508,-0.807129,-0.0766602,0
47220,0.553711,-0.819336,-0.0625,0
47240,0.579102,-0.811523,-0.0439453,0
47260,0.556152,-0.80957,-0.0615234,0
47280,0.541016,-0.804199,-0.0883789,0
47300,0.566406,-0.793457,-0.0761719,0
47320,0.580078,-0.783203,-0.0610352,0
47340,0.590332,-0.78125,-0.078125,0
47360,0.604004,-0.791016,-0.11084,0
47380,0.606934,-0.791504,-0.0961914,0
47400,0.58252,-0.76709,-0.0820312,0
47420,0.597168,-0.756836,-0.090332,0
47440,0.637207,-0.760742,-0.105957,0
47460,0.614258,-0.769043,-0.0952148,0
47480,0.584473,-0.765137,-0.112793,0
47500,0.628906,-0.761719,-0.116699,0
47520,0.668945,-0.754883,-0.104492,0
47540,0.622559,-0.757812,-0.103027,0
47560,0.602051,-0.746582,-0.134766,0
47580,0.640625,-0.744629,-0.137207,0
47600,0.647461,-0.750977,-0.125977,0
47620,0.629395,-0.742676,-0.114746,0
47640,0.654785,-0.73877,-0.139648,0
47660,0.681641,-0.730469,-0.148926,0
47680,0.674316,-0.711914,-0.157227,0
47700,0.671875,-0.706543,-0.13916,0
47720,0.672363,-0.706543,-0.15332,0
47740,0.679199,-0.691895,-0.178711,0
47760,0.707031,-0.694824,-0.147461,0
47780,0.704102,-0.682617,-0.132812,0
47790,0.678223,-0.65625,-0.15625,0
47810,0.705566,-0.661133,-0.193359,0
47830,0.756836,-0.657715,-0.180664,0
47850,0.744629,-0.651367,-0.152344,0
47870,0.725098,-0.645996,-0.178711,0
47890,0.736816,-0.644043,-0.193848,0
47910,0.748535,-0.63916,-0.146973,2001
47930,0.748535,-0.628418,-0.140137,0
47950,0.760254,-0.636719,-0.185547,0
47970,0.786133,-0.621582,-0.180664,0
47990,0.78125,-0.600586,-0.167969,0
48010,0.761719,-0.611328,-0.175293,0
48030,0.772949,-0.609863,-0.194824,0
48050,0.773926,-0.589844,-0.1875,0
48070,0.770508,-0.58252,-0.170898,0
48090,0.763184,-0.589355,-0.185059,0
48110,0.751953,-0.593262,-0.177734,0
48130,0.751953,-0.594727,-0.175293,0
48150,0.760254,-0.599609,-0.161621,0
48170,0.764648,-0.591797,-0.191895,0
48190,0.773926,-0.569824,-0.188965,0
48210,0.756836,-0.587891,-0.166504,0
48230,0.756348,-0.619629,-0.154785,0
48250,0.766113,-0.630859,-0.169434,0
48270,0.783691,-0.619141,-0.166504,0
48290,0.774902,-0.601074,-0.165527,0
48310,0.758789,-0.585938,-0.186523,0
48330,0.773926,-0.593262,-0.198242,0
48350,0.785156,-0.61084,-0.194336,0
48370,0.760254,-0.629883,-0.180176,0
48390,0.739746,-0.637207,-0.185059,0
48410,0.748535,-0.632324,-0.177246,0
48430,0.761719,-0.618164,-0.167969,0
48450,0.758301,-0.600098,-0.166992,0
48470,0.749512,-0.600586,-0.185059,0
48490,0.737793,-0.595703,-0.195312,0
48510,0.740723,-0.609375,-0.198242,0
48530,0.732422,-0.624023,-0.198242,0
48550,0.707031,-0.607422,-0.172363,0
48570,0.678711,-0.593262,-0.16748,0
48590,0.648926,-0.578613,-0.184082,0
48610,0.638184,-0.581543,-0.217285,0
48630,0.623535,-0.587402,-0.230469,0
48650,0.592285,-0.584473,-0.203125,0
48670,0.556152,-0.575195,-0.165039,0
48690,0.56543,-0.582031,-0.168457,0
48710,0.604004,-0.595703,-0.162598,0
48730,0.604492,-0.581543,-0.125,0
48750,0.542969,-0.585938,-0.142578,0
48770,0.521973,-0.598145,-0.145996,0
48790,0.550781,-0.62793,-0.109863,0
48810,0.579102,-0.633789,-0.00585938,0
48830,0.525879,-0.689453,0.0249023,0
48850,0.470215,-0.739258,-0.0898438,0
48870,0.521973,-0.733398,-0.00927734,0
48890,0.580078,-0.670898,0.126465,0
48910,0.54248,-0.688965,0.172852,0
48930,0.458008,-0.780273,0.123047,0
48950,0.501465,-0.858887,0.144043,0
48970,0.586426,-0.856445,0.261719,0
48990,0.530273,-0.904297,0.299316,0
49010,0.416504,-1.0332,0.23291,0
49030,0.524414,-1.13818,0.149902,0
49050,0.701172,-1.02441,0.218262,0
49070,0.635254,-0.956543,0.284668,0
49090,0.446289,-1.02539,0.233398,0
49110,0.391602,-1.1123,0.143555,0
49130,0.478516,-1.07324,0.185547,0
49150,0.480957,-1.02881,0.263672,0
49170,0.362305,-1.04883,0.27002,0
49190,0.257324,-1.0332,0.234863,0
49210,0.227051,-1.02051,0.214844,0
49230,0.288086,-1.01172,0.23291,0
49250,0.356934,-0.990723,0.261719,0
49270,0.349609,-0.976074,0.24707,0
49290,0.299316,-0.998535,0.245117,0
49310,0.288086,-0.984375,0.254883,0
49330,0.317383,-0.95752,0.258789,0
49350,0.283691,-0.935547,0.265137,0
49370,0.220215,-0.932617,0.247559,0
49390,0.225586,-0.932617,0.287598,0
49410,0.259277,-0.884766,0.311523,0
49430,0.240723,-0.869141,0.283691,0
49450,0.208496,-0.868164,0.277832,0
49470,0.204102,-0.910645,0.291016,0
49490,0.230957,-0.91748,0.313965,0
49510,0.245605,-0.868164,0.308594,0
49530,0.208008,-0.854004,0.276367,0
49550,0.196777,-0.873047,0.239258,0
49570,0.244629,-0.883301,0.249512,0
49590,0.262695,-0.899414,0.275391,0
49610,0.220215,-0.922363,0.274902,0
49630,0.168457,-0.92627,0.263184,0
49650,0.186035,-0.912109,0.268555,0
49670,0.238281,-0.884766,0.285156,0
49690,0.244629,-0.890625,0.293945,0
49710,0.22998,-0.931641,0.271484,2000
49730,0.22998,-0.932617,0.291992,0
49750,0.217773,-0.910645,0.288574,0
49770,0.194824,-0.919434,0.283691,0
49790,0.200684,-0.918457,0.258301,0
49810,0.20166,-0.913574,0.272461,0
49830,0.175293,-0.877441,0.28125,0
49850,0.134277,-0.881836,0.265625,0
49870,0.146484,-0.899414,0.272949,0
49890,0.180176,-0.909668,0.293457,0
49910,0.20166,-0.90625,0.303223,0
49930,0.204102,-0.87793,0.288574,0
49950,0.199707,-0.878418,0.284668,0
49970,0.200195,-0.899902,0.27832,0
49990,0.216797,-0.898438,0.294922,0
50010,0.209473,-0.897461,0.293457,0
50030,0.203125,-0.93457,0.289551,0
50050,0.213379,-0.944824,0.271484,0
50070,0.238281,-0.933594,0.274414,0
50090,0.25,-0.913086,0.266602,0
50110,0.212402,-0.902344,0.260742,0
50130,0.196289,-0.905762,0.245605,0
50150,0.211914,-0.911133,0.254395,0
50170,0.23877,-0.925781,0.266113,0
50190,0.239746,-0.918945,0.253418,0
50210,0.222168,-0.925781,0.238281,0
50230,0.223145,-0.899414,0.237793,0
50250,0.232422,-0.906738,0.24707,0
50270,0.24707,-0.894043,0.263184,0
50290,0.262207,-0.899902,0.242188,0
50310,0.27832,-0.913086,0.223633,0
50330,0.273926,-0.92627,0.230957,0
50350,0.274902,-0.896973,0.244629,0
50370,0.308105,-0.89502,0.248047,0
50390,0.316895,-0.90332,0.223633,0
50410,0.298828,-0.900879,0.216797,0
50430,0.303711,-0.89209,0.237305,0
50450,0.320312,-0.873047,0.254395,0
50470,0.313477,-0.889648,0.239258,0
50490,0.288086,-0.907227,0.225098,0
50510,0.291504,-0.910645,0.23584,0
50530,0.329102,-0.891602,0.240723,0
50550,0.35791,-0.876465,0.236816,0
50570,0.345703,-0.903809,0.214844,0
50590,0.316406,-0.895508,0.204102,0
50610,0.310059,-0.883301,0.227539,0
50630,0.325684,-0.871094,0.237305,0
50650,0.331543,-0.869629,0.230957,0
50670,0.34668,-0.911621,0.215332,0
50690,0.359863,-0.872559,0.216797,0
50710,0.362793,-0.847168,0.228027,0
50730,0.361328,-0.85791,0.214844,0
50750,0.361328,-0.859375,0.222168,0
50770,0.373535,-0.879395,0.194336,0
50790,0.411621,-0.881348,0.205078,0
50810,0.416992,-0.87793,0.204102,0
50830,0.406738,-0.852051,0.211426,0
50850,0.387207,-0.833496,0.190918,0
50870,0.379395,-0.843262,0.194336,0
50890,0.394043,-0.865723,0.210449,0
50910,0.387695,-0.867188,0.219238,0
50930,0.398926,-0.865723,0.238281,0
50950,0.412598,-0.854492,0.236328,0
50970,0.413086,-0.824219,0.241211,0
50990,0.40918,-0.824219,0.240723,0
51010,0.427246,-0.825684,0.259277,0
51030,0.418457,-0.838379,0.27832,0
51050,0.389648,-0.833984,0.257324,0
51070,0.383301,-0.850098,0.248047,0
51090,0.404785,-0.85791,0.237305,0
51110,0.429199,-0.860352,0.219727,0
51140,0.454102,-0.855957,0.239746,0
51160,0.430664,-0.839355,0.268066,0
51190,0.456543,-0.858398,0.23877,0
51190,0.424805,-0.807129,0.229492,0
51210,0.42041,-0.802246,0.242676,0
51220,0.474121,-0.805664,0.263672,0
51240,0.471191,-0.807617,0.244141,0
51260,0.464355,-0.802246,0.240723,0
51280,0.459473,-0.790527,0.251465,0
51300,0.45166,-0.780762,0.258789,0
51320,0.45459,-0.793457,0.245117,0
51340,0.482422,-0.803711,0.246582,0
51360,0.499023,-0.807617,0.274414,0
51380,0.473145,-0.77002,0.274414,0
51400,0.480957,-0.77832,0.266113,0
51420,0.495605,-0.790039,0.27002,0
51440,0.514648,-0.788086,0.28125,0
51460,0.541016,-0.780273,0.291992,0
51480,0.527344,-0.769531,0.282227,0
51500,0.520508,-0.754883,0.279785,0
51520,0.517578,-0.757812,0.284668,0
51540,0.51123,-0.742676,0.287598,0
51560,0.520996,-0.757324,0.301758,0
51580,0.521973,-0.762207,0.31543,0
51600,0.507812,-0.736328,0.323242,0
51620,0.531738,-0.717773,0.3125,0
51640,0.574219,-0.722656,0.32373,0
51660,0.588379,-0.728516,0.34375,0
51680,0.600098,-0.72998,0.366699,0
51700,0.553223,-0.729492,0.346191,0
51720,0.515137,-0.719238,0.318359,0
51740,0.51123,-0.710938,0.311523,0
51760,0.513672,-0.720703,0.338867,0
51780,0.515137,-0.724121,0.345215,0
51800,0.52832,-0.72998,0.353516,0
51820,0.538086,-0.738281,0.353027,0
51840,0.534668,-0.723633,0.339355,0
51860,0.540527,-0.722656,0.356445,0
51880,0.551758,-0.710938,0.369629,0
51900,0.53125,-0.702148,0.362793,0
51920,0.53125,-0.695312,0.375,0
51940,0.552246,-0.691895,0.375977,0
51960,0.558105,-0.685547,0.375488,0
51980,0.549316,-0.69873,0.375488,0
52000,0.547363,-0.674316,0.376953,0
52020,0.55957,-0.678711,0.388184,0
52040,0.57373,-0.70166,0.380371,0
52060,0.591309,-0.688477,0.397461,0
52080,0.577637,-0.671875,0.388672,0
52100,0.541504,-0.666016,0.375977,0
52120,0.51709,-0.666504,0.396973,0
52140,0.519043,-0.696289,0.430176,0
52160,0.541016,-0.70752,0.431641,0
52180,0.54541,-0.707031,0.426758,0
52200,0.541992,-0.683105,0.421875,0
52220,0.520996,-0.65332,0.40332,0
52240,0.516113,-0.679199,0.407715,0
52260,0.511719,-0.682617,0.399902,0
52280,0.526855,-0.694336,0.399902,0
52300,0.538574,-0.692383,0.395508,0
52320,0.526855,-0.697266,0.426758,0
52340,0.477539,-0.693359,0.394043,0
52360,0.469727,-0.698242,0.39209,0
52380,0.503418,-0.695801,0.416504,0
52400,0.521484,-0.728516,0.427734,0
52420,0.505859,-0.715332,0.405762,0
52440,0.499512,-0.721191,0.40918,0
52460,0.493652,-0.706543,0.437988,0
52480,0.456543,-0.701172,0.430176,0
52500,0.468262,-0.741699,0.437012,0
52520,0.48584,-0.731445,0.432129,0
52540,0.473633,-0.724609,0.414551,0
52560,0.457031,-0.702148,0.402832,0
52580,0.463379,-0.70459,0.434082,0
52600,0.468262,-0.722168,0.43457,0
52620,0.463379,-0.749512,0.426758,0
52640,0.444336,-0.712891,0.418457,0
52660,0.404297,-0.685547,0.433594,0
52680,0.38623,-0.681152,0.420898,0
52700,0.402832,-0.73584,0.407227,0
52720,0.414551,-0.723633,0.441406,0
52740,0.39209,-0.737305,0.45459,0
52760,0.36084,-0.703613,0.429688,0
52780,0.335938,-0.722168,0.42334,0
52800,0.316895,-0.719238,0.437988,0
52820,0.333984,-0.734375,0.429688,0
52840,0.392578,-0.751953,0.429688,0
52860,0.437988,-0.76709,0.444824,0
52880,0.433105,-0.739258,0.461426,0
52900,0.413086,-0.737305,0.449707,0
52920,0.387695,-0.766602,0.433594,0
52940,0.367188,-0.76416,0.436035,0
52960,0.358887,-0.798828,0.452637,0
52980,0.371582,-0.78418,0.441406,0
53000,0.355469,-0.765137,0.431641,0
53020,0.333984,-0.765137,0.443848,0
53040,0.339355,-0.785156,0.442871,0
53060,0.330566,-0.783203,0.435059,0
53080,0.32373,-0.794922,0.438477,0
53100,0.321777,-0.791504,0.443848,0
53120,0.315918,-0.793945,0.426758,0
53130,0.319336,-0.769531,0.424316,0
53150,0.304688,-0.766602,0.442871,0
53170,0.291504,-0.809082,0.446289,0
53190,0.31543,-0.811035,0.448242,0
53210,0.314941,-0.791016,0.419922,0
53230,0.316406,-0.765625,0.429199,0
53250,0.303223,-0.788086,0.42627,0
53270,0.302246,-0.810547,0.416992,0
53290,0.308594,-0.80127,0.429688,0
53310,0.317871,-0.794922,0.440918,0
53330,0.304199,-0.808105,0.430664,0
53350,0.300781,-0.815918,0.416504,0
53370,0.301758,-0.810547,0.41748,0
53390,0.289062,-0.827148,0.42334,0
53410,0.280762,-0.814941,0.424805,0
53430,0.288574,-0.804199,0.430176,0
53450,0.287109,-0.813965,0.398438,0
53470,0.289551,-0.83252,0.384277,0
53490,0.294922,-0.830078,0.408691,0
53510,0.28125,-0.816406,0.425781,0
53530,0.279297,-0.839355,0.388184,0
53550,0.293457,-0.838379,0.388184,0
53570,0.290039,-0.824219,0.383789,0
53590,0.276367,-0.813965,0.383789,0
53610,0.286621,-0.822266,0.382812,0
53630,0.291992,-0.835938,0.396484,0
53650,0.263672,-0.821777,0.397949,0
53670,0.250977,-0.830566,0.375488,0
53690,0.288086,-0.837402,0.375977,0
53710,0.307129,-0.833984,0.377441,0
53730,0.275879,-0.855957,0.378906,0
53750,0.26709,-0.835449,0.365234,0
53770,0.283691,-0.82959,0.372559,0
53790,0.282227,-0.834473,0.351074,0
53810,0.279297,-0.845215,0.364258,0
53830,0.28125,-0.837402,0.387695,0
53850,0.276367,-0.825195,0.357422,0
53870,0.279785,-0.815918,0.34375,0
53890,0.269043,-0.829102,0.358887,0
53910,0.239746,-0.820312,0.373535,0
53930,0.238281,-0.841797,0.33252,0
53950,0.297363,-0.861816,0.323242,0
53970,0.325684,-0.866211,0.360352,0
53990,0.277344,-0.851562,0.341309,0
54010,0.26416,-0.849609,0.331543,0
54030,0.289551,-0.868652,0.333008,0
54050,0.290527,-0.87793,0.345215,0
54070,0.266602,-0.894531,0.325684,0
54090,0.26709,-0.891113,0.311523,0
54110,0.273438,-0.878906,0.320312,0
54130,0.287598,-0.862305,0.32666,0
54150,0.282227,-0.863281,0.307617,0
54170,0.275391,-0.888184,0.291504,0
54190,0.284668,-0.904785,0.303223,0
54210,0.289062,-0.898926,0.309082,0
54230,0.274902,-0.874023,0.291992,0
54250,0.28125,-0.869141,0.28418,0
54270,0.297852,-0.878906,0.304688,0
54290,0.280762,-0.875488,0.293945,0
54310,0.257324,-0.882812,0.272461,0
54330,0.256348,-0.875977,0.284668,0
54350,0.278809,-0.876465,0.285645,0
54370,0.286621,-0.898926,0.269043,0
54390,0.284668,-0.900391,0.250977,0
54410,0.286133,-0.895508,0.273438,0
54430,0.277344,-0.884766,0.262207,0
54450,0.269043,-0.896484,0.23291,0
54470,0.273438,-0.899902,0.227539,0
54490,0.278809,-0.882812,0.248047,0
54510,0.259766,-0.876953,0.264648,0
54530,0.240234,-0.895508,0.228516,0
54550,0.243164,-0.897949,0.219238,0
54570,0.259766,-0.894531,0.223145,0
54590,0.263184,-0.90625,0.232422,0
54610,0.291016,-0.916016,0.210938,0
54630,0.315918,-0.907715,0.199707,0
54650,0.286621,-0.904297,0.213379,0
54670,0.275391,-0.910645,0.216309,0
54690,0.316406,-0.904785,0.205078,0
54710,0.328125,-0.901855,0.200195,0
54730,0.276367,-0.905273,0.188965,0
54750,0.252441,-0.892578,0.172363,0
54770,0.28418,-0.889648,0.16748,0
54790,0.307617,-0.890625,0.17627,0
54810,0.314453,-0.905273,0.16748,0
54830,0.338867,-0.930176,0.160645,0
54850,0.357422,-0.931152,0.186523,0
54870,0.33252,-0.908203,0.168945,0
54890,0.304199,-0.911621,0.133789,0
54910,0.319824,-0.900391,0.149902,0
54930,0.34082,-0.869629,0.166504,0
54950,0.341309,-0.887695,0.166504,0
54970,0.330566,-0.92334,0.135742,0
54990,0.349609,-0.948242,0.123535,0
55010,0.381836,-0.907715,0.152832,0
55030,0.353516,-0.895508,0.149902,0
55050,0.32373,-0.89209,0.132324,0
55070,0.329102,-0.890625,0.109375,0
55090,0.364746,-0.897949,0.123047,0
55110,0.388184,-0.894531,0.151855,0
55130,0.363281,-0.866699,0.129395,0
55150,0.345215,-0.898926,0.0805664,0
55170,0.396484,-0.895996,0.102539,0
55190,0.430176,-0.881348,0.138672,0
55210,0.411133,-0.887695,0.12207,0
55230,0.38623,-0.884277,0.0644531,0
55250,0.411621,-0.87207,0.0629883,0
55270,0.44873,-0.859863,0.0893555,0
55290,0.446289,-0.87207,0.100098,0
55310,0.431152,-0.888672,0.0703125,0
55330,0.466309,-0.882812,0.0751953,0
55350,0.492676,-0.861328,0.0908203,0
55370,0.458496,-0.868652,0.0751953,0
55390,0.432129,-0.867188,0.0561523,0
55410,0.453613,-0.852539,0.081543,0
55430,0.503418,-0.858398,0.0883789,0
55450,0.499512,-0.853027,0.0698242,0
55470,0.457031,-0.847656,0.0522461,0
55490,0.462891,-0.853516,0.0605469,0
55510,0.498047,-0.85498,0.0839844,0
55530,0.51123,-0.849609,0.0864258,0
55550,0.486816,-0.834961,0.0634766,0
55570,0.475586,-0.834473,0.0522461,0
55590,0.490234,-0.822754,0.0732422,0
55610,0.50293,-0.821777,0.0786133,0
55630,0.496582,-0.830566,0.0664062,0
55650,0.517578,-0.820801,0.0639648,0
55670,0.555176,-0.796875,0.0893555,0
55690,0.544922,-0.80127,0.0878906,0
55710,0.530762,-0.809082,0.0678711,0
55730,0.547852,-0.805176,0.0615234,0
55750,0.569824,-0.80957,0.0610352,0
55770,0.577637,-0.812988,0.0668945,0
55790,0.573242,-0.799805,0.0761719,0
55810,0.562988,-0.774414,0.0649414,0
55830,0.57373,-0.789551,0.0673828,0
55850,0.579102,-0.80127,0.0478516,0
55870,0.605957,-0.797363,0.0634766,0
55890,0.623535,-0.789551,0.078125,0
55910,0.617676,-0.779785,0.0771484,0
55930,0.588867,-0.756836,0.0512695,0
55950,0.597656,-0.761719,0.0263672,0
55970,0.610352,-0.774414,0.0532227,0
55990,0.614258,-0.78125,0.097168,0
56010,0.65332,-0.728516,0.124023,0
56030,0.660645,-0.709473,0.0947266,0
56050,0.650879,-0.712402,0.0732422,0
56070,0.630859,-0.729492,0.0698242,0
56090,0.598145,-0.717773,0.0708008,0
56110,0.609375,-0.734863,0.0810547,0
56130,0.618652,-0.736328,0.0742188,0
56150,0.636719,-0.723633,0.0644531,0
56170,0.626465,-0.720703,0.0957031,0
56190,0.628906,-0.706543,0.125977,0
56210,0.669922,-0.688477,0.131348,0
56230,0.708496,-0.719727,0.114746,0
56250,0.676758,-0.68457,0.0874023,0
56270,0.646973,-0.664551,0.0859375,0
56290,0.67334,-0.683594,0.116699,0
56310,0.647949,-0.694336,0.150879,0
56330,0.638184,-0.69043,0.160645,0
56350,0.640137,-0.688965,0.145996,0
56370,0.680664,-0.692383,0.134766,0
56390,0.703613,-0.680176,0.147461,0
56410,0.682617,-0.661621,0.148926,0
56430,0.691895,-0.666016,0.152344,0
56450,0.70459,-0.687012,0.148438,0
56470,0.702637,-0.678223,0.162109,0
56490,0.707031,-0.650391,0.175781,0
56510,0.725586,-0.634766,0.18457,0
56530,0.716309,-0.630371,0.166992,0
56550,0.712402,-0.623047,0.161621,0
56570,0.708008,-0.631836,0.181641,0
56590,0.726562,-0.643066,0.17627,0
56600,0.72998,-0.613281,0.170898,0
56620,0.716309,-0.58252,0.200195,0
56640,0.734863,-0.587402,0.196777,0
56660,0.75,-0.603027,0.195312,0
56680,0.735352,-0.616211,0.215332,0
56700,0.717773,-0.629883,0.225098,0
56720,0.700195,-0.599121,0.231934,0
56740,0.70459,-0.591309,0.227539,0
56760,0.736816,-0.613281,0.228027,0
56780,0.74707,-0.625488,0.247559,0
56800,0.724121,-0.603027,0.251953,0
56820,0.724609,-0.593262,0.22998,0
56840,0.739746,-0.619629,0.247559,0
56860,0.72998,-0.595215,0.271973,0
56880,0.707031,-0.586914,0.258301,0
56900,0.709961,-0.592285,0.236816,0
56920,0.725586,-0.587402,0.253418,0
56940,0.719238,-0.577148,0.269043,0
56960,0.700195,-0.577637,0.260742,0
56980,0.711914,-0.584961,0.266113,0
57000,0.727539,-0.583496,0.271973,0
57020,0.71875,-0.597168,0.277832,0
57040,0.710449,-0.59375,0.299805,0
57060,0.689941,-0.587891,0.303711,0
57080,0.693848,-0.587402,0.30127,0
57100,0.707031,-0.587891,0.311035,0
57120,0.702148,-0.592773,0.314453,0
57140,0.693848,-0.581543,0.349121,0
57160,0.687988,-0.612305,0.314941,0
57180,0.677246,-0.569336,0.313965,0
57200,0.65918,-0.555176,0.326172,0
57220,0.657227,-0.564453,0.330566,0
57240,0.662598,-0.605469,0.320801,0
57260,0.682617,-0.649414,0.305176,0
57280,0.708984,-0.609863,0.357422,0
57300,0.662598,-0.571777,0.353027,0
57320,0.635742,-0.604004,0.331543,0
57340,0.636719,-0.595703,0.335449,0
57360,0.630371,-0.607422,0.369141,0
57380,0.617188,-0.615723,0.365723,0
57400,0.616699,-0.637695,0.332031,0
57420,0.641113,-0.612305,0.347168,0
57440,0.615234,-0.57959,0.368652,0
57460,0.580078,-0.581543,0.344238,0
57480,0.553223,-0.618652,0.355957,0
57500,0.575195,-0.648438,0.361328,0
57520,0.594238,-0.691895,0.361328,0
57540,0.59082,-0.701172,0.379395,0
57560,0.574707,-0.678223,0.373047,0
57580,0.551758,-0.651367,0.373047,0
57600,0.553711,-0.611328,0.37207,0
57620,0.552734,-0.631348,0.376465,0
57640,0.569336,-0.661621,0.39209,0
57660,0.57666,-0.678711,0.401367,0
57680,0.551758,-0.705566,0.397949,0
57700,0.527344,-0.687988,0.371094,0
57720,0.538086,-0.676758,0.393555,0
57740,0.53418,-0.681641,0.395508,0
57760,0.524902,-0.704102,0.387207,0
57780,0.506348,-0.716797,0.401855,0
57800,0.499512,-0.688965,0.387207,0
57820,0.505371,-0.679199,0.384766,0
57840,0.513672,-0.679199,0.391113,0
57860,0.520508,-0.692871,0.393066,0
57880,0.517578,-0.706055,0.390137,0
57900,0.512207,-0.702148,0.381348,0
57920,0.529785,-0.728027,0.369141,0
57940,0.545898,-0.730469,0.379395,0
57960,0.513672,-0.70459,0.367188,0
57980,0.484375,-0.695801,0.354004,0
58000,0.506348,-0.70459,0.368164,0
58020,0.521973,-0.729004,0.358398,0
58040,0.51416,-0.728516,0.341309,0
58060,0.494629,-0.705078,0.336914,0
58080,0.496582,-0.726562,0.354004,0
58100,0.503418,-0.738281,0.358887,0
58120,0.495117,-0.738281,0.351562,0
58140,0.470215,-0.710449,0.351562,0
58160,0.477539,-0.727539,0.336426,0
58180,0.51123,-0.737793,0.34375,0
58200,0.490234,-0.746094,0.355469,0
58220,0.45752,-0.758301,0.3125,0
58240,0.489258,-0.768555,0.329102,0
58260,0.50293,-0.746094,0.357422,0
58280,0.466797,-0.739746,0.330078,0
58300,0.469238,-0.76123,0.319824,0
58320,0.475586,-0.78125,0.338867,0
58340,0.467773,-0.782227,0.336914,0
58360,0.474609,-0.777832,0.324707,0
58380,0.47998,-0.770996,0.32666,0
58400,0.445312,-0.766602,0.318848,0
58420,0.438477,-0.781738,0.314941,0
58440,0.458008,-0.783691,0.330078,0
58460,0.467285,-0.786621,0.32666,0
58480,0.439453,-0.785156,0.310547,0
58500,0.458008,-0.783203,0.307129,0
58520,0.464844,-0.776367,0.32666,0
58540,0.441406,-0.771973,0.321289,0
58560,0.439453,-0.79248,0.305176,0
58580,0.460938,-0.775391,0.308105,0
58590,0.463379,-0.782715,0.300293,0
58610,0.442383,-0.792969,0.291504,0
58630,0.435547,-0.798828,0.280273,0
58650,0.454102,-0.785645,0.300293,0
58670,0.47168,-0.769531,0.319336,0
58690,0.450684,-0.780762,0.297363,0
58710,0.43457,-0.804688,0.258301,0
58730,0.45166,-0.812012,0.260742,0
58750,0.461914,-0.814941,0.293457,0
58770,0.443359,-0.824707,0.266602,0
58790,0.446777,-0.813965,0.27002,0
58810,0.442871,-0.8125,0.290527,0
58830,0.425781,-0.817871,0.273926,0
58850,0.4375,-0.834961,0.254395,0
58870,0.432129,-0.820801,0.275879,0
58890,0.412598,-0.814453,0.260742,0
58910,0.437988,-0.8125,0.260742,0
58930,0.459961,-0.820312,0.270996,0
58950,0.426758,-0.834961,0.241699,0
58970,0.42041,-0.824707,0.237305,0
58990,0.432129,-0.827148,0.244629,0
59010,0.408203,-0.813965,0.243652,0
59030,0.410645,-0.84082,0.231445,0
59050,0.457031,-0.853027,0.272949,0
59070,0.452637,-0.857422,0.251953,0
59090,0.408691,-0.862793,0.209473,0
59110,0.413574,-0.852539,0.221191,0
59130,0.424316,-0.846191,0.222656,0
59150,0.422363,-0.854004,0.222656,0
59170,0.417969,-0.854492,0.209473,0
59190,0.424805,-0.852539,0.197754,0
59210,0.416016,-0.847168,0.20166,0
59230,0.394531,-0.855957,0.202148,0
59250,0.399902,-0.852539,0.187012,0
59270,0.411621,-0.85791,0.1875,0
59290,0.413574,-0.861816,0.195801,0
59310,0.407715,-0.87207,0.172363,0
59330,0.412598,-0.86377,0.18457,0
59350,0.40625,-0.857422,0.188965,0
59370,0.412598,-0.869629,0.166504,0
59390,0.403809,-0.879883,0.154785,0
59410,0.406738,-0.87793,0.160156,0
59430,0.414062,-0.86084,0.174805,0
59450,0.39502,-0.85498,0.14502,0
59470,0.380859,-0.853027,0.125,0
59490,0.391602,-0.861328,0.144043,0
59510,0.417969,-0.870605,0.127441,0
59530,0.42627,-0.87793,0.116699,0
59550,0.422363,-0.874512,0.133301,0
59570,0.434082,-0.86377,0.143066,0
59590,0.442383,-0.866211,0.111816,0
59610,0.414551,-0.862305,0.0844727,0
59630,0.414551,-0.870605,0.0981445,0
59650,0.460938,-0.866211,0.120117,0
59670,0.445801,-0.86377,0.0869141,0
59690,0.433105,-0.868652,0.0600586,0
59710,0.473633,-0.868652,0.0942383,0
59730,0.476562,-0.86377,0.103027,0
59750,0.437012,-0.868164,0.0634766,0
59770,0.444824,-0.873535,0.0239258,0
59790,0.490723,-0.866699,0.0688477,0
59810,0.506836,-0.852051,0.0786133,0
59830,0.485352,-0.865234,0.0366211,0
59850,0.48291,-0.853516,0.019043,0
59870,0.515625,-0.852051,0.0527344,0
59890,0.509766,-0.845215,0.0478516,0
59910,0.492188,-0.833008,0.00585938,0
59930,0.504395,-0.820801,-0.00878906,0
59950,0.519531,-0.821289,0.00341797,0
59970,0.506836,-0.821289,0.0102539,0
59990,0.480469,-0.82666,-0.0161133,0
60010,0.483398,-0.833496,-0.0341797,0
60030,0.515137,-0.822754,0.0126953,0
60050,0.52002,-0.816406,0.00634766,0
60070,0.521973,-0.820801,-0.0405273,0
60090,0.540527,-0.812012,-0.0585938,0
60110,0.54834,-0.786133,-0.0219727,0
60130,0.522949,-0.791992,-0.0151367,0
60150,0.525391,-0.793457,-0.0595703,0
60170,0.557129,-0.782227,-0.0551758,0
60190,0.567871,-0.791016,-0.0556641,0
60210,0.585449,-0.794434,-0.065918,0
60230,0.623047,-0.802734,-0.0839844,0
60250,0.640137,-0.811035,-0.0795898,0
60270,0.620605,-0.783203,-0.0751953,0
60290,0.607422,-0.760254,-0.0585938,0
60310,0.614258,-0.76123,-0.0732422,0
60330,0.632812,-0.785645,-0.0874023,0
60350,0.655273,-0.782715,-0.0776367,0
60370,0.664062,-0.747559,-0.0683594,0
60390,0.650391,-0.715332,-0.0927734,0
60410,0.651367,-0.719238,-0.103027,0
60430,0.648926,-0.729004,-0.0698242,0
60450,0.648438,-0.74707,-0.059082,0
60470,0.653809,-0.736328,-0.0834961,0
60490,0.662598,-0.723145,-0.111328,0
60510,0.676758,-0.713379,-0.0849609,0
60530,0.683105,-0.717773,-0.0717773,0
60550,0.680664,-0.704102,-0.0830078,0
60570,0.686035,-0.705566,-0.0961914,0
60590,0.710449,-0.689453,-0.097168,0
60610,0.723145,-0.671875,-0.0742188,0
60630,0.733887,-0.677734,-0.0864258,0
60650,0.71875,-0.67627,-0.0942383,0
60670,0.70752,-0.671387,-0.0976562,0
60690,0.71875,-0.634766,-0.0717773,0
60710,0.743164,-0.62207,-0.0639648,0
60730,0.73877,-0.630859,-0.0883789,0
60750,0.747559,-0.616211,-0.0942383,0
60770,0.760742,-0.598633,-0.0722656,0
60790,0.76416,-0.597168,-0.0610352,0
60810,0.770508,-0.607422,-0.0927734,0
60830,0.779297,-0.600098,-0.106445,0
60850,0.779297,-0.592773,-0.065918,0
60870,0.776855,-0.597656,-0.0395508,0
60890,0.783691,-0.583496,-0.0556641,0
60910,0.800781,-0.572266,-0.0708008,0
60930,0.800293,-0.555176,-0.0595703,0
60950,0.796387,-0.541016,-0.0356445,0
60970,0.78418,-0.556641,-0.0332031,0
60990,0.790039,-0.540039,-0.0541992,0
61010,0.808105,-0.526367,-0.0302734,0
61030,0.82373,-0.509766,-0.0234375,0
61050,0.841309,-0.502441,-0.0375977,0
61070,0.864746,-0.517578,-0.0322266,0
61090,0.845215,-0.528809,0.00488281,0
61110,0.805176,-0.52002,0.00683594,0
61130,0.834961,-0.519043,0.0185547,0
61150,0.861816,-0.510742,0.0239258,0
61170,0.835449,-0.501465,0.0356445,0
61190,0.799805,-0.475098,0.0410156,0
61210,0.816895,-0.452637,0.059082,0
61230,0.850098,-0.467773,0.0405273,0
61250,0.870117,-0.487305,0.0239258,0
61270,0.87207,-0.483887,0.019043,0
61290,0.856445,-0.483887,0.0610352,0
61310,0.845703,-0.480957,0.0766602,0
61330,0.856934,-0.490723,0.0678711,0
61350,0.869629,-0.48584,0.0732422,0
61370,0.85791,-0.466309,0.0795898,0
61390,0.842285,-0.459961,0.0610352,0
61410,0.856445,-0.455566,0.0703125,0
61430,0.847168,-0.450195,0.0966797,0
61450,0.82666,-0.449219,0.0981445,0
61470,0.834473,-0.473145,0.0932617,0
61490,0.854492,-0.481934,0.106934,0
61510,0.834473,-0.468262,0.126953,0
61530,0.836426,-0.473633,0.121582,0
61550,0.863281,-0.459473,0.121094,0
61570,0.876465,-0.462891,0.140137,0
61590,0.868164,-0.466797,0.157227,0
61610,0.847656,-0.456055,0.160645,0
61630,0.833496,-0.468262,0.162598,0
61650,0.825195,-0.470703,0.15332,0
61670,0.818359,-0.475098,0.166504,0
61690,0.817871,-0.476562,0.170898,0
61710,0.812012,-0.484863,0.177734,0
61730,0.803223,-0.494629,0.203613,0
61750,0.804199,-0.478516,0.20459,0
61770,0.799316,-0.463379,0.21875,0
61790,0.807129,-0.443848,0.245605,0
61810,0.819824,-0.456543,0.226562,0
61830,0.849609,-0.510742,0.180176,0
61850,0.788086,-0.502441,0.23877,0
61870,0.720703,-0.487793,0.256348,0
61890,0.735352,-0.504883,0.271484,0
61910,0.753418,-0.523926,0.237305,0
61930,0.770996,-0.555664,0.237793,0
61950,0.745117,-0.522461,0.272461,0
61970,0.722168,-0.526367,0.271973,0
61990,0.742188,-0.557129,0.271484,0
62010,0.743164,-0.580078,0.299805,0
62030,0.741211,-0.587891,0.289551,0
62050,0.756836,-0.585449,0.299316,0
62060,0.733398,-0.546387,0.320312,0
62080,0.671387,-0.541992,0.32959,0
62100,0.668945,-0.597656,0.322754,0
62120,0.727051,-0.625,0.32666,0
62140,0.694824,-0.589355,0.348145,0
62160,0.641113,-0.54834,0.366211,0
62180,0.653809,-0.572266,0.368652,0
62200,0.658203,-0.586426,0.360352,0
62220,0.623047,-0.564453,0.364258,0
62240,0.59082,-0.557129,0.355469,0
62260,0.578613,-0.57666,0.355469,0
62280,0.620117,-0.622559,0.317871,0
62300,0.686035,-0.59082,0.355469,0
62320,0.641113,-0.572266,0.361328,0
62340,0.589355,-0.603516,0.323242,0
62360,0.653809,-0.618164,0.325684,0
62380,0.670898,-0.607422,0.356445,0
62400,0.631836,-0.621094,0.331543,0
62420,0.651367,-0.657227,0.322266,0
62440,0.655273,-0.660645,0.348633,0
62460,0.611328,-0.625488,0.37207,0
62480,0.577148,-0.618164,0.343262,0
62500,0.619629,-0.653809,0.324707,0
62520,0.629883,-0.662109,0.361816,0
62540,0.547852,-0.648926,0.376465,0
62560,0.543457,-0.673828,0.336426,0
62580,0.610352,-0.669434,0.355469,0
62600,0.592285,-0.666016,0.356445,0
62620,0.574219,-0.674316,0.344238,0
62640,0.562988,-0.690918,0.350586,0
62660,0.550293,-0.67041,0.347168,0
62680,0.527832,-0.669434,0.336914,0
62700,0.52002,-0.683105,0.307617,0
62720,0.558105,-0.702148,0.310059,0
62740,0.563965,-0.708984,0.320312,0
62760,0.557129,-0.722168,0.320312,0
62780,0.573242,-0.723145,0.307129,0
62800,0.54834,-0.708496,0.29834,0
62820,0.530273,-0.720703,0.284668,0
62840,0.570801,-0.724609,0.311035,0
62860,0.562988,-0.725098,0.288574,0
62880,0.561035,-0.723145,0.280273,0
62900,0.535645,-0.731445,0.284668,0
62920,0.512207,-0.72998,0.299316,0
62940,0.531738,-0.737305,0.271973,0
62960,0.553711,-0.760254,0.239258,0
62980,0.570801,-0.762695,0.26709,0
63000,0.558105,-0.732422,0.288574,0
63020,0.516602,-0.741211,0.27002,0
63040,0.510254,-0.769043,0.249512,0
63060,0.507324,-0.783203,0.237305,0
63080,0.484375,-0.769531,0.244141,0
63100,0.487305,-0.765625,0.236328,0
63120,0.491699,-0.748047,0.209961,0
63140,0.510254,-0.758789,0.218262,0
63160,0.567871,-0.785156,0.231934,0
63180,0.549805,-0.774414,0.265625,0
63200,0.462402,-0.758301,0.230957,0
63220,0.489746,-0.780762,0.182129,0
63240,0.558594,-0.797363,0.195312,0
63260,0.543945,-0.797852,0.21875,0
63280,0.504883,-0.790039,0.214844,0
63300,0.520508,-0.784668,0.192871,0
63320,0.541504,-0.789551,0.206543,0
63340,0.503418,-0.786621,0.19043,0
63360,0.489258,-0.790039,0.180664,0
63380,0.52832,-0.804199,0.166992,0
63400,0.555176,-0.805176,0.191406,0
63420,0.522461,-0.798828,0.190918,0
63440,0.498535,-0.797852,0.163574,0
63460,0.505859,-0.804199,0.147949,0
63480,0.51123,-0.820312,0.157715,0
63500,0.526367,-0.81543,0.19043,0
63520,0.486816,-0.807129,0.169922,0
63540,0.467773,-0.793945,0.140137,0
63560,0.518555,-0.817383,0.133789,0
63580,0.549805,-0.838379,0.166504,0
63600,0.499023,-0.80957,0.17627,0
63620,0.444824,-0.805664,0.125,0
63640,0.502441,-0.842773,0.0952148,0
63660,0.560059,-0.844727,0.158691,0
63680,0.476074,-0.809082,0.155273,0
63700,0.443848,-0.816406,0.105957,0
63720,0.493164,-0.837402,0.0966797,0
63740,0.52002,-0.840332,0.124512,0
63760,0.482422,-0.82959,0.122559,0
63780,0.446289,-0.832031,0.0908203,0
63800,0.511719,-0.854004,0.0639648,0
63820,0.562012,-0.863281,0.101562,0
63840,0.478516,-0.851074,0.111328,0
63860,0.422363,-0.831055,0.0620117,0
63880,0.496582,-0.859375,0.0317383,0
63900,0.54541,-0.86377,0.100586,0
63920,0.458496,-0.859375,0.0795898,0
63940,0.418945,-0.859375,0.0131836,0
63960,0.484375,-0.86377,0.00976562,0
63980,0.533691,-0.851074,0.09375,0
64000,0.486328,-0.84375,0.0805664,0
64020,0.443848,-0.833496,0.0268555,0
64040,0.494629,-0.849609,0.0141602,0
64050,0.54248,-0.850586,0.0395508,0
64070,0.515625,-0.838379,0.03125,0
64090,0.48291,-0.824707,0.0229492,0
64110,0.546387,-0.821777,0.0322266,0
64130,0.597168,-0.825195,0.0263672,0
64150,0.526855,-0.813965,-0.00146484,0
64170,0.51416,-0.810547,-0.0166016,0
64190,0.561523,-0.829102,-0.00341797,0
64210,0.561523,-0.816406,-0.00585938,0
64230,0.538574,-0.794434,-0.0341797,0
64250,0.560059,-0.799316,-0.0478516,0
64270,0.588379,-0.807617,-0.0429688,0
64290,0.567383,-0.796387,-0.0351562,0
64310,0.546387,-0.788574,-0.0527344,0
64330,0.559082,-0.789551,-0.0678711,0
64350,0.578125,-0.803711,-0.0576172,0
64370,0.592285,-0.803711,-0.0825195,0
64390,0.587891,-0.793457,-0.0849609,0
64410,0.577148,-0.789062,-0.0776367,0
64430,0.594727,-0.787109,-0.0737305,0
64450,0.608887,-0.789062,-0.0849609,0
64470,0.606445,-0.779785,-0.105957,0
64490,0.614746,-0.768555,-0.120117,0
64510,0.63623,-0.758301,-0.106934,0
64530,0.62207,-0.770996,-0.100586,0
64550,0.607422,-0.767578,-0.116699,0
64570,0.616699,-0.76123,-0.141602,0
64590,0.645508,-0.73877,-0.124023,0
64610,0.650879,-0.71875,-0.114746,0
64630,0.646973,-0.71582,-0.141602,0
64650,0.660645,-0.746094,-0.148926,0
64670,0.660645,-0.76123,-0.152344,0
64690,0.652344,-0.737305,-0.12793,0
64710,0.659668,-0.70752,-0.14502,0
64730,0.661621,-0.696289,-0.17334,0
64750,0.647949,-0.689941,-0.15625,0
64770,0.651855,-0.692871,-0.155762,0
64790,0.651855,-0.702637,-0.151855,0
64810,0.629395,-0.692383,-0.151367,0
64830,0.619141,-0.679688,-0.18457,0
64850,0.669434,-0.695312,-0.17334,0
64870,0.730469,-0.677734,-0.126953,2001
64890,0.757812,-0.692871,-0.12793,0
64910,0.786621,-0.689453,-0.191406,0
64930,0.819824,-0.652344,-0.172852,0
64950,0.811035,-0.609863,-0.149414,0
64970,0.796875,-0.609375,-0.180664,0
64990,0.788574,-0.638672,-0.175293,0
65010,0.780762,-0.615234,-0.123535,0
65030,0.775879,-0.588867,-0.120605,0
65050,0.771973,-0.572754,-0.151855,0
65070,0.75293,-0.578125,-0.165039,0
65090,0.72998,-0.577148,-0.1875,0
65110,0.714355,-0.571777,-0.19873,0
65130,0.699219,-0.575684,-0.170898,0
65150,0.695312,-0.60791,-0.14502,0
65170,0.675293,-0.629883,-0.151367,0
65190,0.678711,-0.598633,-0.171387,0
65210,0.702148,-0.578613,-0.157227,0
65230,0.69043,-0.590332,-0.171387,0
65250,0.671875,-0.61377,-0.188477,0
65270,0.669922,-0.625,-0.208496,0
65290,0.665527,-0.625488,-0.187988,0
65310,0.65918,-0.623535,-0.138672,0
65330,0.642578,-0.59082,-0.0927734,0
65350,0.628418,-0.586914,-0.13623,0
65370,0.628906,-0.616699,-0.194336,0
65390,0.647461,-0.601562,-0.116211,0
65410,0.647461,-0.56543,-0.0332031,0
65430,0.641602,-0.561523,-0.0708008,0
65450,0.631348,-0.565918,-0.0825195,0
65470,0.585938,-0.556152,-0.0405273,0
65490,0.530273,-0.557617,-0.00732422,0
65510,0.549316,-0.583984,-0.0634766,0
65530,0.646484,-0.610352,-0.0322266,0
65550,0.665527,-0.629395,0.0786133,0
65570,0.568359,-0.642578,0.0917969,0
65590,0.517578,-0.70752,0.0131836,0
65610,0.577148,-0.76416,0.012207,0
65630,0.677246,-0.793457,0.0463867,0
65650,0.70752,-0.788086,0.166992,0
65670,0.604004,-0.790039,0.189453,0
65690,0.494629,-0.887207,0.155273,0
65710,0.537598,-0.981934,0.15918,0
65730,0.623535,-0.931641,0.284668,0
65750,0.510742,-0.911133,0.254395,0
65770,0.384277,-1.04639,0.158203,0
65790,0.439941,-1.09033,0.175781,0
65810,0.542969,-1.03271,0.293945,0
65830,0.446289,-1.02246,0.356934,0
65850,0.317871,-1.09131,0.263672,0
65870,0.346191,-1.12793,0.291992,0
65890,0.385254,-1.1001,0.368652,0
65910,0.29248,-1.06396,0.351074,0
65930,0.183594,-0.996094,0.320801,0
65950,0.151367,-0.970215,0.29834,0
65970,0.172852,-0.918945,0.28418,0
65990,0.172363,-0.899414,0.324707,0
66010,0.166992,-0.930664,0.34668,0
66030,0.183594,-0.947754,0.331543,0
66050,0.231445,-0.920898,0.343262,0
66070,0.280273,-0.868652,0.382812,0
66090,0.29834,-0.840332,0.381836,0
66110,0.281738,-0.848145,0.327637,0
66130,0.262695,-0.875488,0.288086,0
66150,0.229004,-0.911133,0.286133,0
66170,0.236328,-0.917969,0.291992,0
66190,0.273926,-0.872559,0.330566,0
66210,0.273438,-0.863281,0.337891,0
66230,0.214844,-0.871582,0.313965,0
66250,0.163086,-0.884766,0.324707,0
66270,0.169434,-0.880859,0.348633,0
66290,0.179688,-0.871582,0.347656,0
66310,0.154785,-0.892578,0.335449,0
66330,0.149902,-0.937012,0.334473,0
66350,0.190918,-0.909668,0.321289,2000
66370,0.223145,-0.888672,0.321777,0
66390,0.196289,-0.878906,0.345215,0
66410,0.166504,-0.914551,0.352051,0
66430,0.176758,-0.926758,0.334961,0
66450,0.187988,-0.897461,0.330078,0
66470,0.168945,-0.847656,0.347168,0
66490,0.172363,-0.84082,0.34375,0
66510,0.189453,-0.872559,0.331055,0
66530,0.198242,-0.901367,0.320801,0
66550,0.205566,-0.910156,0.327148,0
66570,0.210449,-0.887695,0.335938,0
66590,0.20166,-0.844238,0.324219,0
