Timestamp, Acceleration x, Acceleration y, Acceleration z, Marker
40,-0.450684,-0.655273,0.621094,0
60,-0.446777,-0.654785,0.619629,0
80,-0.442871,-0.661133,0.624023,0
100,-0.438965,-0.65918,0.625,0
120,-0.443359,-0.65918,0.628418,0
140,-0.445312,-0.660156,0.620605,0
150,-0.450684,-0.654785,0.61377,0
200,-0.450195,-0.658691,0.613281,0
200,-0.449219,-0.656738,0.613281,0
220,-0.445801,-0.659668,0.616211,0
240,-0.45166,-0.655762,0.621582,0
260,-0.450684,-0.649902,0.613281,0
280,-0.447266,-0.654297,0.610352,0
300,-0.449707,-0.656738,0.62207,0
320,-0.449219,-0.657715,0.624023,0
340,-0.454102,-0.65625,0.625,0
360,-0.445801,-0.65918,0.625488,0
380,-0.445312,-0.660645,0.615723,0
400,-0.442871,-0.660645,0.619629,0
420,-0.450195,-0.655762,0.619629,0
440,-0.451172,-0.656738,0.618164,0
460,-0.448242,-0.661133,0.613281,0
480,-0.450195,-0.657227,0.614258,0
500,-0.446289,-0.661133,0.62793,0
520,-0.446777,-0.660645,0.621094,0
540,-0.447754,-0.656738,0.616699,0
560,-0.450195,-0.659668,0.612305,0
580,-0.453125,-0.660645,0.618652,0
600,-0.450195,-0.661621,0.618652,0
620,-0.458496,-0.655273,0.616211,0
640,-0.452637,-0.649414,0.61377,0
660,-0.446777,-0.648926,0.618164,0
680,-0.447754,-0.651367,0.616699,0
700,-0.448242,-0.657227,0.615723,0
720,-0.44873,-0.662598,0.616211,0
740,-0.452148,-0.661621,0.618164,0
760,-0.450195,-0.65918,0.615234,0
780,-0.45166,-0.661621,0.61377,0
800,-0.453125,-0.658203,0.618164,0
820,-0.455566,-0.657227,0.619141,0
840,-0.449707,-0.658203,0.613281,0
860,-0.45166,-0.662109,0.61377,0
880,-0.44873,-0.662109,0.618164,0
900,-0.455566,-0.65918,0.614746,0
920,-0.453613,-0.662109,0.614746,0
930,-0.447266,-0.658203,0.610352,0
950,-0.444824,-0.661133,0.629395,0
970,-0.45459,-0.653809,0.625977,0
990,-0.453125,-0.657227,0.623047,0
1010,-0.450195,-0.65918,0.614746,0
1030,-0.45166,-0.654297,0.613281,0
1050,-0.449707,-0.65332,0.616699,0
1070,-0.455078,-0.656738,0.617676,0
1090,-0.45459,-0.657227,0.616699,0
1110,-0.447754,-0.657715,0.617188,0
1130,-0.445312,-0.661621,0.625488,0
1150,-0.444824,-0.658691,0.620605,0
1170,-0.442383,-0.654785,0.616211,0
1190,-0.449219,-0.65918,0.614746,0
1210,-0.448242,-0.659668,0.620117,0
1230,-0.45166,-0.655762,0.620117,0
1250,-0.451172,-0.655762,0.616699,0
1270,-0.452637,-0.655273,0.622559,0
1290,-0.448242,-0.654785,0.617188,0
1310,-0.45166,-0.65625,0.624512,0
1330,-0.449707,-0.654785,0.626465,0
1350,-0.452148,-0.657715,0.616699,0
1370,-0.44873,-0.660645,0.617676,0
1390,-0.449219,-0.662109,0.618652,0
1410,-0.450684,-0.655762,0.620605,0
1430,-0.448242,-0.661621,0.624023,0
1450,-0.447754,-0.659668,0.617188,0
1470,-0.441406,-0.662109,0.604004,0
1490,-0.452637,-0.654785,0.620117,0
1510,-0.452148,-0.65332,0.62207,0
1530,-0.45752,-0.655762,0.614258,0
1550,-0.458984,-0.658691,0.606445,0
1570,-0.44873,-0.65625,0.602051,0
1590,-0.445312,-0.655273,0.606445,0
1610,-0.449219,-0.658203,0.62207,0
1630,-0.453125,-0.658203,0.618652,0
1650,-0.452148,-0.659668,0.61377,0
1670,-0.447754,-0.660645,0.61084,0
1690,-0.450684,-0.65918,0.60791,0
1710,-0.451172,-0.656738,0.617188,0
1730,-0.452148,-0.657715,0.612305,0
1750,-0.450684,-0.666504,0.616211,0
1770,-0.450684,-0.659668,0.612305,0
1790,-0.444336,-0.662109,0.614258,0
1810,-0.438965,-0.657715,0.621094,0
1830,-0.44043,-0.658203,0.621094,0
1840,-0.440918,-0.660156,0.627441,0
1860,-0.448242,-0.662598,0.625977,0
1880,-0.450684,-0.665039,0.626465,0
1900,-0.453125,-0.663574,0.624023,0
1920,-0.453613,-0.655273,0.624023,0
1940,-0.448242,-0.653809,0.617676,0
1960,-0.447266,-0.652344,0.624023,0
1980,-0.449707,-0.655762,0.629883,0
2000,-0.458496,-0.657227,0.627441,0
2020,-0.458984,-0.656738,0.619629,0
2040,-0.456055,-0.655762,0.604004,0
2060,-0.456055,-0.651855,0.602051,0
2080,-0.460938,-0.657227,0.608887,0
2100,-0.456543,-0.65918,0.61377,0
2120,-0.45752,-0.663086,0.608398,0
2140,-0.45166,-0.667969,0.606445,0
2160,-0.44873,-0.674805,0.616699,0
2180,-0.458008,-0.684082,0.619141,0
2200,-0.456055,-0.677734,0.619629,0
2220,-0.457031,-0.666992,0.603516,0
2240,-0.451172,-0.654785,0.592773,0
2260,-0.445312,-0.648438,0.589355,0
2280,-0.456055,-0.65332,0.612305,0
2300,-0.466309,-0.65918,0.615723,0
2320,-0.466309,-0.666016,0.595703,0
2340,-0.465332,-0.666016,0.589844,0
2360,-0.468262,-0.663086,0.602539,0
2380,-0.456543,-0.67041,0.595215,0
2400,-0.433105,-0.666992,0.585938,0
2420,-0.428223,-0.660156,0.587891,0
2440,-0.438965,-0.66748,0.587402,0
2460,-0.445801,-0.681152,0.609863,0
2480,-0.454102,-0.686035,0.608398,0
2500,-0.454102,-0.685059,0.599609,0
2520,-0.451172,-0.678223,0.61084,0
2540,-0.445801,-0.67334,0.60498,0
2560,-0.45166,-0.65918,0.61377,0
2580,-0.459961,-0.648438,0.615723,0
2610,-0.465332,-0.653809,0.599609,0
2630,-0.460449,-0.662109,0.609375,0
2650,-0.460938,-0.674316,0.616699,0
2670,-0.467285,-0.671387,0.600586,0
2690,-0.468262,-0.657715,0.599121,0
2710,-0.47168,-0.609863,0.621582,0
2730,-0.459961,-0.595703,0.608887,0
2750,-0.487305,-0.637695,0.611328,0
2770,-0.463867,-0.65332,0.599609,0
2790,-0.468262,-0.704102,0.597656,0
2810,-0.434082,-0.713379,0.603027,0
2830,-0.435059,-0.733887,0.624023,0
2850,-0.410645,-0.705566,0.641113,0
2880,-0.416992,-0.709473,0.614746,0
2900,-0.419434,-0.705566,0.614258,0
2920,-0.439453,-0.693359,0.583496,0
2940,-0.445312,-0.706055,0.584473,0
2960,-0.429199,-0.708008,0.583984,0
2980,-0.420898,-0.714355,0.58252,0
3000,-0.467773,-0.668945,0.587891,0
3020,-0.503906,-0.609863,0.561035,0
3040,-0.510742,-0.567383,0.5625,0
3060,-0.507324,-0.631348,0.608887,0
3080,-0.48584,-0.703613,0.597656,0
3100,-0.449707,-0.629395,0.52002,0
3120,-0.525391,-0.541992,0.513672,0
3140,-0.509277,-0.652832,0.571777,0
3160,-0.405273,-0.822266,0.63623,0
3180,-0.397949,-0.849609,0.592773,0
3200,-0.464355,-0.694336,0.554199,0
3220,-0.457031,-0.618164,0.558594,0
3240,-0.5,-0.698242,0.578125,0
3260,-0.496094,-0.719238,0.597656,0
3280,-0.426758,-0.69873,0.592285,0
3300,-0.393066,-0.672363,0.596191,0
3320,-0.397949,-0.675293,0.602539,0
3340,-0.429199,-0.727051,0.615723,0
3360,-0.40918,-0.748047,0.60498,0
3380,-0.385254,-0.731445,0.590332,0
3400,-0.385254,-0.70166,0.58252,0
3420,-0.409668,-0.71582,0.518066,0
3440,-0.506836,-0.657227,0.530762,0
3460,-0.561523,-0.585938,0.614746,0
3480,-0.568848,-0.645508,0.648926,0
3500,-0.414062,-0.763184,0.577637,0
3520,-0.415527,-0.697266,0.538086,0
3540,-0.483887,-0.599609,0.572754,0
3560,-0.469727,-0.643555,0.611816,0
3580,-0.446289,-0.708008,0.618164,0
3600,-0.422852,-0.723633,0.625488,0
3620,-0.433105,-0.70166,0.623047,0
3640,-0.445312,-0.674316,0.594238,0
3660,-0.458496,-0.677246,0.599121,0
3680,-0.480957,-0.660156,0.559082,0
3700,-0.509277,-0.636719,0.564453,0
3720,-0.494629,-0.602051,0.583008,0
3740,-0.46582,-0.691895,0.586914,0
3760,-0.441895,-0.75,0.575195,0
3780,-0.446777,-0.744141,0.528809,0
3800,-0.486816,-0.664551,0.54834,0
3820,-0.501465,-0.660156,0.570801,0
3840,-0.475586,-0.736328,0.570312,0
3860,-0.423828,-0.741699,0.570312,0
3880,-0.39502,-0.735352,0.587891,0
3900,-0.387207,-0.72998,0.582031,0
3920,-0.403809,-0.718262,0.583496,0
3940,-0.386719,-0.744629,0.567383,0
3960,-0.402832,-0.742676,0.575195,0
3980,-0.437988,-0.712891,0.590332,0
3990,-0.433105,-0.694824,0.524902,0
4010,-0.445312,-0.64209,0.598145,0
4030,-0.564941,-0.629395,0.672363,0
4050,-0.45752,-0.701172,0.594727,0
4070,-0.381348,-0.717773,0.53418,0
4090,-0.477051,-0.617188,0.549805,0
4110,-0.512207,-0.608398,0.575195,0
4130,-0.478027,-0.673828,0.591309,0
4150,-0.476562,-0.702637,0.571289,0
4170,-0.458496,-0.709961,0.564941,0
4190,-0.470215,-0.712402,0.576172,0
4210,-0.450684,-0.724121,0.585449,0
4230,-0.435059,-0.72168,0.583496,0
4250,-0.443848,-0.708496,0.594238,0
4270,-0.455078,-0.698242,0.597656,0
4290,-0.421387,-0.720215,0.580566,0
4310,-0.395508,-0.729004,0.555176,0
4330,-0.38916,-0.739746,0.564453,0
4350,-0.39209,-0.763672,0.580566,0
4370,-0.401367,-0.731934,0.609863,0
4390,-0.391113,-0.727539,0.604004,0
4410,-0.446289,-0.706055,0.640625,0
4430,-0.461426,-0.686035,0.554199,0
4450,-0.467773,-0.641113,0.503418,0
4470,-0.475586,-0.668945,0.611328,0
4490,-0.466309,-0.672363,0.594727,0
4510,-0.452637,-0.693848,0.561035,0
4530,-0.438965,-0.65332,0.515625,0
4550,-0.452148,-0.658203,0.528809,0
4570,-0.506836,-0.668945,0.585449,0
4590,-0.493164,-0.688965,0.597656,0
4610,-0.437988,-0.756836,0.599609,0
4630,-0.424316,-0.746582,0.597168,0
4650,-0.427246,-0.723145,0.57373,0
4670,-0.441406,-0.704102,0.59375,0
4690,-0.44043,-0.71875,0.604004,0
4710,-0.44043,-0.687012,0.601074,0
4730,-0.456055,-0.688965,0.573242,0
4750,-0.436523,-0.717285,0.552246,0
4770,-0.413574,-0.747559,0.547363,0
4790,-0.415039,-0.744141,0.561523,0
4810,-0.431152,-0.736328,0.589355,0
4830,-0.424316,-0.72168,0.600586,0
4850,-0.417969,-0.711426,0.599121,0
4870,-0.433105,-0.723633,0.597168,0
4890,-0.396973,-0.730469,0.589844,0
4910,-0.356934,-0.728027,0.560547,0
4930,-0.484375,-0.703125,0.529785,0
4950,-0.381836,-0.651855,0.462891,0
4970,-0.434082,-0.658203,0.59375,0
4990,-0.491699,-0.73584,0.61084,0
5010,-0.442383,-0.811523,0.536133,0
5030,-0.42041,-0.719238,0.520508,0
5050,-0.528809,-0.608887,0.537598,0
5070,-0.620117,-0.566406,0.558105,0
5090,-0.507324,-0.628906,0.581055,0
5110,-0.434082,-0.699219,0.599121,0
5130,-0.402832,-0.713379,0.572266,0
5150,-0.406738,-0.717285,0.529297,0
5170,-0.45752,-0.700684,0.555176,0
5190,-0.489746,-0.738281,0.584473,0
5210,-0.453125,-0.732422,0.563477,0
5230,-0.453613,-0.718262,0.565918,0
5250,-0.494141,-0.684082,0.598633,0
5270,-0.47168,-0.704102,0.581543,0
5290,-0.412598,-0.752441,0.573242,0
5310,-0.414551,-0.726562,0.580078,0
5330,-0.396973,-0.693848,0.572754,0
5350,-0.317383,-0.741699,0.605957,0
5370,-0.366211,-0.773438,0.542969,0
5390,-0.38623,-0.766113,0.574219,0
5410,-0.379395,-0.754883,0.611816,0
5430,-0.437988,-0.737793,0.605957,0
5450,-0.476562,-0.694824,0.54541,0
5470,-0.474609,-0.666992,0.614746,0
5490,-0.450195,-0.695312,0.569824,0
5510,-0.441406,-0.703613,0.583496,0
5530,-0.416016,-0.671875,0.541992,0
5550,-0.47168,-0.662598,0.552734,0
5570,-0.499023,-0.668457,0.547852,0
5590,-0.469238,-0.687988,0.575195,0
5610,-0.456055,-0.703125,0.578125,0
5630,-0.456543,-0.718262,0.591797,0
5650,-0.401367,-0.738281,0.603516,0
5670,-0.37207,-0.721191,0.59082,0
5690,-0.408203,-0.697754,0.574707,0
5710,-0.427734,-0.707031,0.574219,0
5730,-0.430664,-0.713379,0.571777,0
5750,-0.445312,-0.730469,0.584473,0
5770,-0.433594,-0.746094,0.59082,0
5790,-0.450195,-0.709961,0.592773,0
5810,-0.46582,-0.682617,0.566406,0
5830,-0.416992,-0.692383,0.556152,0
5850,-0.377441,-0.713379,0.549805,0
5870,-0.397461,-0.726074,0.58252,0
5890,-0.404785,-0.745605,0.598145,0
5910,-0.408691,-0.740234,0.596191,0
5930,-0.42041,-0.729004,0.599609,0
5950,-0.430176,-0.700195,0.606934,0
5970,-0.456543,-0.678223,0.572266,0
5990,-0.46582,-0.626953,0.532715,0
6010,-0.453613,-0.686035,0.588379,0
6030,-0.469727,-0.702148,0.569336,0
6050,-0.4375,-0.728027,0.551758,0
6070,-0.414062,-0.719727,0.554688,0
6090,-0.447754,-0.682129,0.572754,0
6110,-0.442871,-0.696289,0.598633,0
6130,-0.428223,-0.719727,0.595703,0
6150,-0.429688,-0.717773,0.584473,0
6170,-0.431152,-0.70459,0.578613,0
6190,-0.435059,-0.70459,0.56543,0
6210,-0.445801,-0.713867,0.558105,0
6230,-0.446289,-0.711914,0.566406,0
6250,-0.447754,-0.700195,0.581543,0
6270,-0.443848,-0.696777,0.593262,0
6290,-0.449219,-0.701172,0.595703,0
6310,-0.441895,-0.698242,0.595703,0
6330,-0.439941,-0.695312,0.603516,0
6350,-0.430176,-0.700684,0.597656,0
6370,-0.418457,-0.707031,0.603027,0
6390,-0.421387,-0.689941,0.583984,0
6410,-0.4375,-0.688477,0.564453,0
6430,-0.45752,-0.698242,0.552246,0
6450,-0.486816,-0.663574,0.582031,0
6470,-0.445801,-0.690918,0.585938,0
6490,-0.449219,-0.718262,0.597168,0
6510,-0.482422,-0.708984,0.614746,0
6530,-0.455078,-0.712402,0.601074,0
6550,-0.397461,-0.714355,0.581055,0
6570,-0.367676,-0.744629,0.575195,0
6590,-0.38916,-0.726074,0.572266,0
6610,-0.413574,-0.737305,0.543945,0
6650,-0.392578,-0.768066,0.539551,0
6670,-0.393555,-0.773926,0.591309,0
6690,-0.42041,-0.709473,0.624023,0
6710,-0.429199,-0.625488,0.564453,0
6730,-0.550293,-0.672852,0.634766,0
6750,-0.46582,-0.751465,0.578125,0
6770,-0.422852,-0.756836,0.568848,0
6790,-0.431152,-0.685547,0.53418,0
6810,-0.502441,-0.58252,0.518555,0
6830,-0.449219,-0.616699,0.541016,0
6850,-0.429199,-0.709961,0.562988,0
6870,-0.424805,-0.716309,0.615234,0
6890,-0.379883,-0.727051,0.611816,0
6910,-0.425781,-0.724609,0.588867,0
6930,-0.431641,-0.699707,0.569336,0
6950,-0.436035,-0.71582,0.546875,0
6970,-0.463867,-0.717773,0.539551,0
6990,-0.472168,-0.71582,0.5625,0
7000,-0.469727,-0.723633,0.600098,0
7020,-0.466797,-0.73291,0.59375,0
7040,-0.484375,-0.70752,0.583984,0
7060,-0.491211,-0.695801,0.59082,0
7080,-0.399414,-0.716797,0.53418,0
7100,-0.365234,-0.725098,0.533691,0
7120,-0.410156,-0.729492,0.544922,0
7140,-0.4375,-0.747559,0.605469,0
7160,-0.364746,-0.656738,0.523438,0
7180,-0.459473,-0.73877,0.582031,0
7200,-0.366211,-0.735352,0.541992,0
7220,-0.434082,-0.746094,0.547363,0
7240,-0.433594,-0.659668,0.549805,0
7260,-0.387207,-0.745605,0.535645,0
7280,-0.46582,-0.693848,0.586914,0
7300,-0.481445,-0.649902,0.59082,0
7320,-0.484863,-0.70459,0.615723,0
7340,-0.484375,-0.699219,0.602051,0
7360,-0.453125,-0.72168,0.600586,0
7380,-0.443848,-0.73291,0.566895,0
7400,-0.456055,-0.698242,0.559082,0
7420,-0.470215,-0.682617,0.564941,0
7440,-0.472656,-0.713379,0.580566,0
7460,-0.416992,-0.709961,0.562988,0
7480,-0.425293,-0.722656,0.573242,0
7500,-0.433594,-0.73291,0.60498,0
7520,-0.411133,-0.665039,0.564941,0
7540,-0.531738,-0.631348,0.602051,0
7560,-0.52832,-0.696777,0.618164,0
7580,-0.429688,-0.720215,0.599121,0
7600,-0.366211,-0.749023,0.591797,0
7620,-0.397461,-0.681152,0.577637,0
7640,-0.422852,-0.645508,0.543945,0
7660,-0.418945,-0.727539,0.547852,0
7680,-0.458008,-0.745605,0.530273,0
7700,-0.480469,-0.721191,0.52832,0
7720,-0.462891,-0.748535,0.52832,0
7740,-0.445801,-0.742676,0.541504,0
7760,-0.461426,-0.724121,0.564941,0
7780,-0.467773,-0.695801,0.582031,0
7800,-0.473145,-0.673828,0.584473,0
7820,-0.441406,-0.676758,0.573242,0
7840,-0.435059,-0.70166,0.552246,0
7860,-0.44043,-0.712891,0.537598,0
7880,-0.442871,-0.701172,0.550293,0
7900,-0.453125,-0.700684,0.552246,0
7920,-0.460449,-0.696289,0.557129,0
7940,-0.45752,-0.696289,0.547363,0
7960,-0.459961,-0.697266,0.54834,0
7980,-0.454102,-0.698242,0.564453,0
8000,-0.466309,-0.685547,0.586426,0
8020,-0.461914,-0.682617,0.609375,0
8040,-0.455566,-0.688965,0.612305,0
8060,-0.443848,-0.692871,0.61377,0
8080,-0.437988,-0.697754,0.598633,0
8100,-0.444824,-0.69043,0.587891,0
8120,-0.464355,-0.690918,0.574219,0
8140,-0.477051,-0.700195,0.563477,0
8160,-0.470215,-0.701172,0.553223,0
8180,-0.465332,-0.701172,0.575195,0
8200,-0.452148,-0.696777,0.59375,0
8220,-0.45752,-0.674316,0.614258,0
8240,-0.466309,-0.656738,0.621094,0
8260,-0.473145,-0.646484,0.634277,0
8280,-0.474121,-0.659668,0.616699,0
8300,-0.48584,-0.685547,0.578125,0
8320,-0.47998,-0.703125,0.555176,0
8340,-0.477539,-0.712402,0.549805,0
8360,-0.474609,-0.695801,0.564941,0
8380,-0.460938,-0.681641,0.574707,0
8400,-0.463867,-0.631348,0.585938,0
8420,-0.466797,-0.624023,0.586914,0
8440,-0.462891,-0.657715,0.593262,0
8460,-0.443359,-0.695801,0.574707,0
8480,-0.45459,-0.734863,0.543457,0
8500,-0.467773,-0.751953,0.58252,0
8520,-0.474609,-0.747559,0.558105,0
8540,-0.458008,-0.720215,0.558594,0
8560,-0.463379,-0.719238,0.550781,0
8580,-0.444336,-0.720703,0.557617,0
8600,-0.429688,-0.743652,0.564941,0
8620,-0.401855,-0.737305,0.561523,0
8640,-0.405273,-0.762207,0.546875,0
8660,-0.417969,-0.80127,0.576172,0
8680,-0.48291,-0.671875,0.558594,0
8700,-0.519043,-0.540527,0.499023,0
8720,-0.582031,-0.569336,0.605469,0
8740,-0.469727,-0.680176,0.558105,0
8760,-0.383789,-0.733887,0.572266,0
8780,-0.405273,-0.700684,0.576172,0
8800,-0.415527,-0.651367,0.5625,0
8820,-0.399414,-0.716309,0.581055,0
8840,-0.432129,-0.745117,0.583008,0
8860,-0.445312,-0.724121,0.566406,0
8880,-0.450684,-0.717773,0.556641,0
8900,-0.446777,-0.719727,0.546875,0
8920,-0.450195,-0.719238,0.546875,0
8940,-0.461426,-0.701172,0.566406,0
8960,-0.496094,-0.67041,0.585938,0
8980,-0.522461,-0.646973,0.615234,0
9000,-0.494629,-0.647949,0.612305,0
9020,-0.450684,-0.689453,0.592773,0
9040,-0.415039,-0.726074,0.568359,0
9060,-0.464844,-0.719238,0.527832,0
9080,-0.47168,-0.710938,0.517578,0
9100,-0.45752,-0.707031,0.54541,0
9120,-0.459473,-0.696289,0.569824,0
9140,-0.466309,-0.672363,0.600098,0
9160,-0.489258,-0.627441,0.618164,0
9180,-0.501465,-0.618652,0.623047,0
9200,-0.445312,-0.67334,0.613281,0
9220,-0.405273,-0.722656,0.589355,0
9240,-0.449707,-0.735352,0.549316,0
9260,-0.456055,-0.719727,0.516113,0
9280,-0.45752,-0.731934,0.522949,0
9300,-0.45459,-0.727051,0.539062,0
9320,-0.448242,-0.695312,0.580566,0
9340,-0.454102,-0.666016,0.606934,0
9360,-0.491211,-0.635254,0.625977,0
9380,-0.504395,-0.633789,0.629883,0
9400,-0.469238,-0.665527,0.588379,0
9420,-0.432129,-0.713867,0.557129,0
9440,-0.433594,-0.738281,0.532715,0
9460,-0.449707,-0.733398,0.543945,0
9480,-0.458984,-0.70752,0.555176,0
9500,-0.461426,-0.684082,0.565918,0
9520,-0.461426,-0.679199,0.57373,0
9540,-0.446289,-0.683105,0.586426,0
9560,-0.4375,-0.6875,0.59082,0
9580,-0.449219,-0.683594,0.593262,0
9600,-0.470215,-0.68457,0.600098,0
9620,-0.476562,-0.693848,0.597168,0
9640,-0.459473,-0.699707,0.57666,0
9660,-0.45459,-0.700684,0.571777,0
9680,-0.449219,-0.689453,0.569336,0
9700,-0.450684,-0.682617,0.57959,0
9720,-0.446289,-0.677734,0.581543,0
9740,-0.449219,-0.677246,0.589844,0
9760,-0.455078,-0.685547,0.595703,0
9780,-0.457031,-0.691895,0.595215,0
9800,-0.461426,-0.696289,0.587402,0
9820,-0.463867,-0.697266,0.582031,0
9840,-0.455566,-0.699219,0.584961,0
9860,-0.455566,-0.688965,0.580078,0
9880,-0.453613,-0.686035,0.583008,0
9900,-0.450684,-0.686523,0.583496,0
9920,-0.453125,-0.674316,0.57666,0
9940,-0.443848,-0.673828,0.59375,0
9960,-0.444824,-0.681152,0.594727,0
9980,-0.45166,-0.686523,0.589844,0
10000,-0.456055,-0.685059,0.59668,0
10020,-0.446289,-0.694824,0.590332,0
10040,-0.442871,-0.692871,0.584961,0
10060,-0.445312,-0.69043,0.585938,0
10080,-0.45459,-0.68457,0.588379,0
10100,-0.458984,-0.683105,0.591309,0
10120,-0.459961,-0.686035,0.587891,0
10140,-0.452148,-0.691406,0.591309,0
10160,-0.450195,-0.692871,0.591309,0
10180,-0.451172,-0.689453,0.585938,0
10200,-0.450195,-0.692871,0.583984,0
10210,-0.455078,-0.694336,0.593262,0
10230,-0.452148,-0.692871,0.59375,0
10250,-0.459473,-0.689453,0.595215,0
10270,-0.459961,-0.689453,0.595215,0
10290,-0.458008,-0.691895,0.583008,0
10310,-0.458984,-0.69043,0.585938,0
10330,-0.458008,-0.682129,0.584961,0
10350,-0.458496,-0.683105,0.583496,0
10370,-0.458984,-0.682617,0.590332,0
10390,-0.456055,-0.682129,0.583008,0
10410,-0.449219,-0.682617,0.583008,0
10430,-0.444824,-0.688965,0.582031,0
10450,-0.441895,-0.693359,0.577637,0
10470,-0.440918,-0.687988,0.583496,0
10490,-0.442871,-0.688965,0.581543,0
10510,-0.441895,-0.697754,0.570312,0
10530,-0.444336,-0.695312,0.573242,0
10550,-0.445312,-0.696777,0.567383,0
10570,-0.448242,-0.700195,0.570312,0
10590,-0.458984,-0.702148,0.575684,0
10610,-0.461914,-0.70459,0.582031,0
10630,-0.460449,-0.699707,0.57666,0
10650,-0.450684,-0.697754,0.57666,0
10670,-0.45459,-0.696289,0.571777,0
10690,-0.453613,-0.694336,0.571777,0
10710,-0.455078,-0.692383,0.573242,0
10730,-0.460938,-0.691406,0.574707,0
10750,-0.456055,-0.694824,0.572266,0
10770,-0.453125,-0.692871,0.579102,0
10790,-0.457031,-0.691895,0.581055,0
10810,-0.450195,-0.695312,0.570312,0
10830,-0.453613,-0.70166,0.572266,0
10850,-0.45459,-0.700684,0.575195,0
10870,-0.458496,-0.696289,0.579102,0
10890,-0.460938,-0.700195,0.57959,0
10910,-0.460449,-0.694824,0.575195,0
10930,-0.45459,-0.693848,0.574219,0
10950,-0.453125,-0.692871,0.572754,0
10970,-0.452637,-0.695312,0.574219,0
10990,-0.456055,-0.696777,0.576172,0
11010,-0.455078,-0.695312,0.576172,0
11030,-0.453613,-0.702637,0.577637,0
11050,-0.454102,-0.695801,0.572266,0
11070,-0.458008,-0.699707,0.57373,0
11090,-0.455078,-0.706055,0.571289,0
11110,-0.457031,-0.714844,0.558594,0
11130,-0.466797,-0.738281,0.557617,0
11150,-0.477051,-0.754883,0.568848,0
11170,-0.468262,-0.796875,0.55957,0
11190,-0.464355,-0.849121,0.555176,0
11210,-0.472168,-0.836426,0.5625,0
11230,-0.491699,-0.848145,0.564453,0
11250,-0.439453,-0.869141,0.584473,0
11270,-0.359863,-0.870605,0.631348,0
11290,-0.315918,-0.911621,0.635742,0
11310,-0.25293,-0.945801,0.625,0
11330,-0.23584,-0.95166,0.621094,0
11350,-0.259277,-0.975586,0.64502,0
11370,-0.249512,-0.952637,0.684082,0
11390,-0.21582,-0.939941,0.619141,0
11410,-0.182617,-0.95166,0.618164,0
11430,-0.15918,-0.948242,0.63623,0
11450,-0.12793,-0.936523,0.640625,0
11450,-0.100586,-0.945801,0.628418,0
11470,-0.059082,-0.956055,0.616699,0
11490,-0.0244141,-0.962891,0.652344,0
11510,0.0371094,-1.00391,0.643555,0
11530,0.097168,-1.00146,0.646484,0
11550,0.102051,-0.94043,0.669922,0
11570,0.0410156,-0.944824,0.655762,0
11590,0.0166016,-0.911133,0.681641,0
11610,0.0078125,-0.850098,0.619141,0
11630,-0.0332031,-0.79541,0.554688,0
11640,-0.0810547,-0.682129,0.544434,0
11660,-0.0927734,-0.571777,0.492188,0
11680,-0.0209961,-0.568359,0.470215,0
11700,0.0390625,-0.603027,0.388672,0
11720,0.0654297,-0.611816,0.350586,0
11740,0.119629,-0.601562,0.333008,0
11760,0.150391,-0.630371,0.318359,0
11780,0.209473,-0.714355,0.263672,0
11800,0.286621,-0.738281,0.258789,0
11820,0.312012,-0.769531,0.331055,0
11840,0.311035,-0.775391,0.395508,0
11870,-0.0927734,-0.571777,0.492188,0
11900,0.455078,-0.851562,0.381836,0
11920,0.508789,-0.847168,0.434082,0
11940,0.521484,-0.86377,0.427734,0
11960,0.549805,-0.896973,0.433594,0
11980,0.585938,-0.901367,0.449219,0
12000,0.61084,-0.866211,0.462402,0
12020,0.603027,-0.884766,0.439453,0
12040,0.59668,-0.867676,0.464844,0
12060,0.654297,-0.838379,0.479004,0
12080,0.66748,-0.870605,0.444336,0
12100,0.634766,-0.891602,0.415039,0
12120,0.543457,-0.880371,0.432129,0
12140,0.428223,-0.870117,0.419922,0
12160,0.383301,-0.841309,0.402344,0
12170,0.365234,-0.772461,0.395508,0
12190,0.321777,-0.697266,0.384766,0
12210,0.288574,-0.708008,0.381836,0
12230,0.286621,-0.753418,0.361328,0
12250,0.302246,-0.749023,0.379395,0
12270,0.321289,-0.754395,0.36084,0
12290,0.354004,-0.711426,0.371582,0
12310,0.355469,-0.695801,0.376465,0
12330,0.374023,-0.723145,0.353516,0
12350,0.428223,-0.753418,0.340332,0
12370,0.46582,-0.784668,0.317871,0
12390,0.485352,-0.80957,0.307617,0
12410,0.502441,-0.825195,0.301758,0
12430,0.543945,-0.858398,0.293457,0
12450,0.570312,-0.875,0.29248,0
12470,0.589355,-0.89209,0.293945,0
12490,0.581543,-0.888672,0.299316,0
12510,0.568848,-0.88623,0.310059,0
12530,0.536621,-0.892578,0.314453,0
12550,0.520996,-0.868652,0.301758,0
12570,0.515137,-0.858398,0.320312,0
12590,0.491699,-0.836426,0.330078,0
12610,0.478516,-0.828613,0.334473,0
12630,0.461426,-0.827148,0.321777,0
12650,0.458984,-0.82666,0.3125,0
12670,0.460449,-0.822754,0.303223,0
12690,0.462402,-0.828125,0.296875,0
12710,0.481934,-0.84082,0.28125,0
12730,0.467285,-0.845703,0.280273,0
12750,0.441406,-0.867676,0.249512,0
12780,0.44043,-0.883789,0.212402,0
12810,0.406738,-0.868652,0.21582,0
12830,0.414062,-0.898926,0.239746,0
12850,0.412598,-0.943359,0.241211,0
12870,0.440918,-0.963867,0.275879,0
12890,0.45752,-0.954102,0.285156,0
12910,0.446289,-0.947266,0.273438,0
12930,0.442383,-0.960449,0.277832,0
12950,0.49707,-1.021,0.283203,0
12970,0.592285,-1.09375,0.255371,0
12990,0.661133,-1.06152,0.309082,0
13010,0.54541,-0.962891,0.351074,0
13030,0.362305,-0.966797,0.279297,0
13050,0.332031,-0.90918,0.248047,0
13070,0.364746,-0.842773,0.256348,0
13090,0.34375,-0.811035,0.244629,0
13110,0.313477,-0.819336,0.234375,0
13130,0.310547,-0.864746,0.216309,0
13150,0.342285,-0.887695,0.173828,0
13160,0.415527,-0.902344,0.217773,0
13180,0.424316,-0.874512,0.244141,0
13200,0.374512,-0.890137,0.191895,0
13220,0.417969,-0.88916,0.188477,0
13240,0.431641,-0.877441,0.200195,0
13260,0.390137,-0.881836,0.201172,0
13280,0.382812,-0.884277,0.222656,0
13300,0.395996,-0.884277,0.222168,0
13320,0.388672,-0.885742,0.211426,0
13340,0.394043,-0.879395,0.216797,0
13360,0.394531,-0.891113,0.230957,0
13380,0.400879,-0.902344,0.230469,0
13400,0.435059,-0.913086,0.224121,0
13420,0.467773,-0.912109,0.224609,0
13440,0.469727,-0.90918,0.228027,0
13460,0.465332,-0.928711,0.232422,0
13480,0.48584,-0.937012,0.22998,0
13500,0.491699,-0.946289,0.226074,0
13520,0.490723,-0.92627,0.237793,0
13540,0.477051,-0.91748,0.22168,0
13560,0.465332,-0.914551,0.212891,0
13590,0.458008,-0.910645,0.23291,0
13630,0.447266,-0.912109,0.237793,0
13650,0.436523,-0.896484,0.230957,0
13670,0.420898,-0.884277,0.230957,0
13690,0.410645,-0.893555,0.224121,0
13710,0.40918,-0.900391,0.229004,0
13750,0.4375,-0.888184,0.189453,0
13770,0.451172,-0.891113,0.187012,0
13790,0.459473,-0.901855,0.186523,0
13810,0.475098,-0.91748,0.191406,0
13830,0.495117,-0.925781,0.191406,0
13870,0.493164,-0.915039,0.216797,0
13890,0.490723,-0.922852,0.225098,0
13910,0.478027,-0.915527,0.233398,0
13920,0.458008,-0.897461,0.218262,0
13940,0.445312,-0.88916,0.210449,0
13940,0.449219,-0.891113,0.215332,0
13950,0.44873,-0.906738,0.228027,0
13970,0.437988,-0.893555,0.228027,0
13990,0.436523,-0.887695,0.228516,0
14010,0.433594,-0.882324,0.228516,0
14030,0.4375,-0.889648,0.221191,0
14040,0.463867,-0.876465,0.230469,0
14070,0.463379,-0.887207,0.222656,0
14080,0.462891,-0.888672,0.214355,0
14100,0.462402,-0.883301,0.220703,0
14110,0.464355,-0.875,0.220703,0
14130,0.465332,-0.869629,0.209473,0
14150,0.454102,-0.87207,0.217285,0
14170,0.478027,-0.883789,0.218262,0
14190,0.482422,-0.870605,0.213867,0
14210,0.472656,-0.879883,0.208984,0
14230,0.475098,-0.884277,0.218262,0
14250,0.473145,-0.900879,0.212891,0
14270,0.477539,-0.907715,0.225586,0
14290,0.475098,-0.902832,0.221191,0
14310,0.467773,-0.916016,0.218262,0
14330,0.460938,-0.925781,0.23291,0
14350,0.467773,-0.937012,0.208008,0
14370,0.463379,-0.930664,0.226074,0
14390,0.425781,-0.934082,0.213379,0
14410,0.42041,-0.945801,0.224609,0
14430,0.428223,-0.956543,0.217285,0
14450,0.425293,-0.947754,0.216797,0
14470,0.432617,-0.937988,0.221191,0
14490,0.437012,-0.936523,0.220703,0
14510,0.432129,-0.943848,0.21875,0
14530,0.44043,-0.945312,0.221191,0
14550,0.451172,-0.935547,0.20459,0
14570,0.455078,-0.916016,0.199219,0
14590,0.453613,-0.910156,0.195801,0
14610,0.430664,-0.901367,0.187988,0
14630,0.433105,-0.900391,0.183594,0
14650,0.438477,-0.893555,0.179199,0
14670,0.409668,-0.900391,0.180176,0
14690,0.381836,-0.90332,0.17041,0
14710,0.389648,-0.895996,0.170898,0
14730,0.39209,-0.913086,0.160645,0
14750,0.398438,-0.919434,0.182617,0
14770,0.391602,-0.93457,0.182129,0
14790,0.380371,-0.951172,0.173828,0
14810,0.411621,-0.952637,0.169922,0
14830,0.421875,-0.961914,0.177734,0
14850,0.411133,-0.953613,0.166992,0
14870,0.410645,-0.939453,0.145996,0
14890,0.435059,-0.930176,0.163086,0
14910,0.441406,-0.928711,0.155762,0
14930,0.425781,-0.929199,0.149414,0
14950,0.413086,-0.932129,0.161621,0
14970,0.407227,-0.918457,0.170898,0
14990,0.397949,-0.92334,0.180664,0
15010,0.394043,-0.967285,0.175781,0
15030,0.400879,-0.950195,0.1875,0
15050,0.401367,-0.945312,0.1875,0
15070,0.398438,-0.91748,0.193359,0
15090,0.381348,-0.913086,0.191895,0
15110,0.380859,-0.937988,0.181152,0
15130,0.388184,-0.953613,0.177734,0
15150,0.40625,-0.962891,0.193848,0
15170,0.413574,-0.956055,0.179199,0
15190,0.423828,-0.939453,0.169434,0
15210,0.429199,-0.933594,0.169922,0
15230,0.424805,-0.942383,0.168945,0
15250,0.431152,-0.945312,0.172852,0
15270,0.436035,-0.950195,0.178223,0
15290,0.411621,-0.938477,0.159668,0
15310,0.402344,-0.914062,0.16748,0
15330,0.40625,-0.89502,0.167969,0
15350,0.396973,-0.905273,0.151367,0
15370,0.36084,-0.898926,0.160645,0
15390,0.334473,-0.908691,0.141113,0
15410,0.297363,-0.921875,0.105957,0
15430,0.294922,-0.915039,0.0507812,0
15450,0.311035,-0.911621,0.0214844,0
15470,0.338867,-0.921875,0.0537109,0
15490,0.384277,-0.937012,0.119629,0
15510,0.408691,-0.997559,0.102539,0
15530,0.430664,-1.00928,0.135742,0
15550,0.435059,-0.959473,0.138184,0
15570,0.433594,-0.947754,0.132324,0
15590,0.440918,-0.938477,0.14502,0
15610,0.432129,-0.931152,0.163086,0
15630,0.367188,-0.9375,0.133301,0
15650,0.330078,-0.944824,0.133789,0
15670,0.418945,-0.939941,0.166992,0
15690,0.437988,-0.908203,0.154785,0
15710,0.354004,-0.89209,0.123047,0
15730,0.322266,-0.887695,0.177734,0
15750,0.383301,-0.915039,0.240723,0
15770,0.476562,-1.02734,0.239746,0
15790,0.500977,-1.04199,0.265137,0
15810,0.464844,-0.95166,0.289062,0
15820,0.476562,-0.881348,0.311035,0
15840,0.505371,-0.885742,0.320312,0
15860,0.48584,-0.939941,0.331055,0
15870,0.466309,-0.923828,0.325684,0
15910,0.40625,-0.907227,0.197266,0
15940,0.404297,-0.90918,0.183105,0
15970,0.404297,-0.945312,0.179688,0
15980,0.424316,-0.935059,0.17627,0
15980,0.421387,-0.960449,0.168457,0
16000,0.433105,-0.967773,0.195801,0
16020,0.435059,-0.958984,0.203125,0
16040,0.417969,-0.931152,0.189453,0
16060,0.397461,-0.915527,0.202148,0
16090,0.423828,-0.939453,0.20752,0
16100,0.42627,-0.90625,0.214844,0
16120,0.427734,-0.907227,0.212402,0
16120,0.435059,-0.923828,0.220703,0
16140,0.444824,-0.929199,0.248047,0
16160,0.447754,-0.925293,0.262207,0
16190,0.458008,-0.851562,0.329102,0
16210,0.450684,-0.862793,0.311035,0
16230,0.479492,-0.86084,0.307617,0
16250,0.463379,-0.862793,0.276367,0
16260,0.450195,-0.882812,0.250977,0
16280,0.454102,-0.924316,0.221191,0
16300,0.425293,-0.970215,0.190918,0
16320,0.44043,-0.990723,0.169434,0
16340,0.449219,-1.00928,0.143066,0
16360,0.420898,-1.00391,0.114258,0
16380,0.374512,-0.991699,0.101562,0
16400,0.313477,-1.00732,0.0981445,0
16420,0.275391,-1.01514,0.0981445,0
16440,0.293945,-1.00146,0.0952148,0
16460,0.296387,-0.986328,0.0927734,0
16480,0.303711,-0.98877,0.101074,0
16500,0.317383,-0.984863,0.121094,0
16530,0.303711,-0.979004,0.12793,0
16550,0.32959,-0.998535,0.138184,0
16570,0.348633,-0.995605,0.15918,0
16590,0.32959,-0.98584,0.14502,0
16610,0.343262,-0.947754,0.140625,0
16630,0.367188,-0.927734,0.161621,0
16650,0.355469,-0.938477,0.154785,0
16690,0.350098,-0.90918,0.15332,0
16710,0.388672,-0.900391,0.14209,0
16730,0.401855,-0.904297,0.152344,0
16750,0.383301,-0.916992,0.155273,0
16770,0.404297,-0.916016,0.156738,0
16790,0.438965,-0.894043,0.178223,0
16810,0.4375,-0.89502,0.174316,0
16830,0.424316,-0.929199,0.164551,0
16850,0.446289,-0.922363,0.174316,0
16870,0.446777,-0.908691,0.187988,0
16890,0.433105,-0.904297,0.182129,0
16890,0.434082,-0.928711,0.171875,0
16930,0.410156,-0.922852,0.166992,0
16950,0.40625,-0.944824,0.157715,0
16970,0.398438,-0.918457,0.160645,0
16990,0.39209,-0.944336,0.149414,0
17010,0.369629,-0.973633,0.116699,0
17030,0.374512,-0.992676,0.150391,0
17050,0.375977,-0.961426,0.171875,0
17070,0.359863,-0.868652,0.203613,1000
17090,0.236328,-0.960938,0.175781,0
17110,0.30957,-1.01953,0.185059,0
17130,0.456055,-1.00488,0.209961,0
17150,0.365723,-0.838867,0.170898,0
17170,0.384277,-0.875977,0.194824,0
17190,0.414062,-0.95166,0.205566,0
17210,0.416016,-0.979004,0.199707,0
17230,0.447754,-0.956543,0.20166,0
17250,0.464355,-0.912109,0.182129,0
17270,0.445801,-0.862305,0.204102,0
17290,0.394531,-0.913086,0.187988,0
17310,0.345703,-0.95459,0.164551,0
17330,0.311035,-0.9375,0.153809,0
17350,0.286621,-0.902344,0.149902,0
17370,0.276855,-0.869629,0.133301,0
17390,0.286133,-0.87207,0.149902,0
17410,0.250488,-0.875,0.153809,0
17430,0.19043,-0.850098,0.136719,0
17450,0.208984,-0.882812,0.116699,0
17470,0.339844,-0.876953,0.150391,0
17490,0.512695,-0.885254,0.147461,0
17510,0.590332,-0.928223,0.0966797,0
17530,0.56543,-0.92041,0.0786133,0
17550,0.558594,-0.90918,0.0991211,0
17590,0.697266,-0.945801,0.147949,0
17610,0.670898,-0.91748,0.115723,0
17630,0.581543,-0.846191,0.0678711,0
17650,0.592285,-0.813965,0.0292969,0
17670,0.652344,-0.79248,0.0717773,0
17690,0.727051,-0.841797,0.0776367,0
17710,0.731445,-0.857422,0.0961914,0
17730,0.628418,-0.807617,0.0952148,0
17750,0.566406,-0.791992,0.0322266,0
17770,0.643555,-0.833496,0.012207,0
17790,0.678223,-0.834961,0.0712891,0
17810,0.617676,-0.808594,0.0957031,0
17830,0.591797,-0.809082,0.0791016,0
17850,0.614258,-0.787109,0.0644531,0
17870,0.694336,-0.773438,0.0683594,0
17890,0.758789,-0.793457,0.0966797,0
17910,0.780273,-0.793457,0.112305,0
17930,0.753906,-0.780273,0.0908203,0
17950,0.716797,-0.729004,0.0932617,0
17970,0.722656,-0.702637,0.10791,0
17990,0.775879,-0.679199,0.179199,0
18010,0.870605,-0.681641,0.215332,0
18030,0.956055,-0.702637,0.221191,0
18050,1.01709,-0.686035,0.263672,0
18070,1.09082,-0.6875,0.311035,0
18090,1.12695,-0.670898,0.365723,0
18110,1.0708,-0.650391,0.402832,0
18140,0.994629,-0.675781,0.447754,0
18160,0.980957,-0.666504,0.48877,0
18180,0.873047,-0.627441,0.526855,0
18200,0.729492,-0.60498,0.592285,0
18220,0.691406,-0.65332,0.646973,0
18240,0.657715,-0.710938,0.582031,0
18260,0.584961,-0.697754,0.595703,0
18280,0.36377,-0.678711,0.651855,0
18300,0.177246,-0.699707,0.672363,0
18320,0.181152,-0.74707,0.603516,0
18340,0.243164,-0.756348,0.564453,0
18360,0.224121,-0.744141,0.540527,0
18380,0.101562,-0.770508,0.562012,0
18400,0.0981445,-0.823242,0.541016,0
18420,0.152832,-0.852051,0.527344,0
18440,0.135742,-0.867188,0.483887,0
18460,0.130859,-0.878418,0.445312,0
18480,0.078125,-0.828125,0.411133,0
18500,0.034668,-0.780273,0.397461,0
18520,0.0361328,-0.807617,0.351562,0
18540,0.027832,-0.87207,0.300293,0
18560,0.00390625,-0.904785,0.23291,0
18580,-0.0283203,-0.891602,0.212891,0
18600,-0.0332031,-0.894531,0.163086,0
18620,-0.0317383,-0.944824,0.0932617,0
18640,-0.0131836,-0.983398,0.0654297,0
18660,0.0219727,-0.980469,0.0297852,0
18680,0.0776367,-0.959961,0.0336914,0
18690,0.0942383,-0.991211,0.0268555,0
18710,0.10791,-1.07178,0.00244141,0
18730,0.162109,-1.13086,-0.015625,0
18750,0.213867,-1.08398,0.00390625,0
18770,0.263672,-1.02832,0.0239258,0
18790,0.3125,-0.978027,-0.0180664,0
18810,0.362305,-1.01855,-0.125488,0
18830,0.460938,-1.03906,-0.131348,0
18830,0.554199,-0.962891,-0.0908203,0
18850,0.544434,-0.915527,-0.10791,0
18870,0.468262,-0.924805,-0.184082,0
18890,0.449707,-0.963867,-0.26709,0
18910,0.59375,-0.860352,-0.186523,0
18930,0.72998,-0.788574,-0.13623,0
18950,0.74707,-0.775391,-0.149414,0
18970,0.726562,-0.759277,-0.167969,0
18990,0.729492,-0.713379,-0.198242,0
19010,0.745117,-0.627441,-0.176758,0
19030,0.82666,-0.626465,-0.137207,0
19050,0.92041,-0.638672,-0.114258,0
19070,0.945312,-0.601074,-0.125,0
19090,0.972168,-0.523926,-0.0751953,0
19110,1.02881,-0.480957,-0.0141602,0
19120,1.06543,-0.485352,0.00634766,0
19140,1.08057,-0.494141,-0.0195312,0
19160,1.09131,-0.475098,0.0258789,0
19180,1.09326,-0.439453,0.100098,0
19200,1.06934,-0.435547,0.162598,0
19220,1.06934,-0.431152,0.200684,0
19240,1.09912,-0.438477,0.228516,0
19260,1.13867,-0.479492,0.283691,0
19280,1.08203,-0.480957,0.351562,0
19300,0.928223,-0.521973,0.370605,0
19320,0.847656,-0.48291,0.465332,0
19340,0.849609,-0.507812,0.484375,0
19360,0.835938,-0.590332,0.475098,0
19380,0.746582,-0.610352,0.521973,0
19400,0.615234,-0.553223,0.59375,0
19420,0.599121,-0.58252,0.615234,0
19440,0.628418,-0.646973,0.605469,0
19460,0.529785,-0.719727,0.583496,0
19480,0.461426,-0.760742,0.584473,0
19500,0.522461,-0.789062,0.591797,0
19520,0.513672,-0.785156,0.535156,0
19540,0.442871,-0.756348,0.479004,0
19560,0.420898,-0.766602,0.462402,0
19580,0.422852,-0.821777,0.493652,0
19600,0.372559,-0.907227,0.441895,0
19620,0.337891,-0.87793,0.401367,0
19640,0.319336,-0.847656,0.35498,0
19660,0.278809,-0.852539,0.313965,0
19680,0.280762,-0.917969,0.261719,0
19700,0.268555,-0.938965,0.19043,0
19720,0.213379,-0.892578,0.149902,0
19740,0.197754,-0.85498,0.112305,0
19760,0.173828,-0.897461,0.046875,0
19780,0.216797,-0.933594,-0.0307617,0
19800,0.257324,-0.944824,-0.0634766,0
19820,0.299316,-0.90918,-0.0981445,0
19840,0.377441,-0.905762,-0.109375,0
19860,0.417969,-0.930664,-0.115723,0
19880,0.414062,-0.965332,-0.15332,0
19900,0.458496,-0.989258,-0.19043,0
19920,0.516113,-0.987793,-0.189941,0
19940,0.565918,-0.928223,-0.206055,0
19960,0.561523,-0.921875,-0.229004,0
19980,0.501465,-0.902832,-0.239746,0
20000,0.542969,-0.894043,-0.25,0
20020,0.620605,-0.872559,-0.289551,0
20030,0.627441,-0.848145,-0.306641,0
20050,0.59668,-0.78418,-0.320801,0
20070,0.57959,-0.775391,-0.333008,0
20090,0.642578,-0.742676,-0.310059,0
20130,0.600586,-0.666016,-0.275391,0
20150,0.620117,-0.619629,-0.335938,0
20170,0.702637,-0.603027,-0.333984,0
20190,0.72168,-0.603027,-0.274902,0
20210,0.679199,-0.654785,-0.257324,0
20230,0.689941,-0.666016,-0.241211,0
20250,0.680176,-0.626465,-0.221191,0
20270,0.684082,-0.578125,-0.23291,0
20290,0.73877,-0.568359,-0.257812,0
20310,0.774414,-0.566895,-0.232422,0
20330,0.776367,-0.601074,-0.17627,0
20350,0.81543,-0.567871,-0.134766,0
20370,0.887207,-0.552246,-0.137695,0
20390,0.938965,-0.539062,-0.112793,0
20410,0.973633,-0.536133,-0.0854492,0
20430,0.996582,-0.517578,-0.0639648,0
20450,1.04932,-0.462402,-0.0283203,0
20470,1.07666,-0.431641,0.00195312,0
20490,1.06592,-0.400391,0.0341797,0
20510,1.07471,-0.381836,0.0786133,0
20530,1.10889,-0.368652,0.151367,0
20550,1.1167,-0.375,0.182129,0
20570,1.06934,-0.362793,0.207031,0
20590,1.05078,-0.328125,0.258301,0
20610,1.03369,-0.324219,0.283691,0
20630,1.00049,-0.343262,0.352051,0
20650,0.98584,-0.390137,0.421387,0
20670,0.928711,-0.438965,0.444336,0
20690,0.89209,-0.419922,0.45459,0
20710,0.841797,-0.412109,0.500488,0
20730,0.770996,-0.462891,0.563477,0
20750,0.727539,-0.527344,0.588379,0
20770,0.684082,-0.571289,0.570312,0
20790,0.649414,-0.593262,0.546875,0
20810,0.607422,-0.620117,0.552734,0
20830,0.575684,-0.65625,0.562988,0
20850,0.553223,-0.743164,0.556641,0
20870,0.532227,-0.70166,0.504395,0
20890,0.535645,-0.696777,0.467773,0
20910,0.47998,-0.700195,0.463379,0
20930,0.427246,-0.735352,0.429688,0
20950,0.4375,-0.758789,0.413574,0
20970,0.452637,-0.807617,0.363281,0
20990,0.430664,-0.812012,0.348633,0
21010,0.400879,-0.825684,0.303223,0
21030,0.408691,-0.843262,0.25,0
21050,0.407227,-0.874023,0.217285,0
21070,0.428711,-0.904297,0.18457,0
21090,0.450195,-0.90918,0.125977,0
21110,0.471191,-0.876953,0.129395,0
21130,0.500977,-0.870117,0.097168,0
21150,0.529785,-0.912598,0.0625,0
21170,0.541504,-0.897949,0.065918,0
21190,0.571289,-0.919922,0.0385742,0
21210,0.606934,-0.902344,0.00830078,0
21230,0.615723,-0.844238,-0.0302734,0
21250,0.655762,-0.826172,-0.0566406,0
21270,0.675293,-0.848145,-0.0712891,0
21290,0.678711,-0.848633,-0.0893555,0
21310,0.677734,-0.843262,-0.121094,0
21330,0.623535,-0.838379,-0.131836,0
21350,0.595215,-0.78418,-0.15625,0
21370,0.672363,-0.756348,-0.196289,0
21390,0.682617,-0.742676,-0.177734,0
21410,0.572266,-0.769531,-0.196777,0
21430,0.54248,-0.817871,-0.229492,0
21450,0.604492,-0.765625,-0.25293,0
21470,0.639648,-0.698242,-0.233398,0
21490,0.610352,-0.666992,-0.23584,0
21510,0.631836,-0.733887,-0.23291,0
21530,0.641113,-0.765625,-0.234375,0
21550,0.635742,-0.674805,-0.216309,0
21570,0.678711,-0.63916,-0.20166,0
21590,0.716797,-0.618652,-0.19873,0
21610,0.703125,-0.641602,-0.195312,0
21630,0.671875,-0.658691,-0.216309,0
21650,0.697266,-0.602539,-0.179688,0
21670,0.773438,-0.587891,-0.179199,0
21690,0.761719,-0.548828,-0.200684,0
21710,0.803711,-0.509766,-0.181152,0
21730,0.924805,-0.526367,-0.195801,0
21750,0.937988,-0.567871,-0.166992,0
21770,0.87207,-0.61377,-0.148438,0
21790,0.849121,-0.616211,-0.148926,0
21810,0.901367,-0.573242,-0.159668,0
21830,0.930664,-0.48584,-0.121094,0
21840,0.956543,-0.456543,-0.143555,0
21860,0.95459,-0.478516,-0.185059,0
21880,0.921875,-0.508301,-0.177246,0
21900,0.945801,-0.57373,-0.146973,0
21920,0.949219,-0.574707,-0.15625,0
21940,0.91748,-0.51416,-0.16748,0
21960,0.914062,-0.498535,-0.177734,0
21980,0.94043,-0.503906,-0.174316,0
22000,0.952148,-0.534668,-0.17334,0
22020,0.930664,-0.555176,-0.158691,0
22040,0.894043,-0.592285,-0.165527,1001
22060,0.917969,-0.540039,-0.192383,0
22080,0.918945,-0.503906,-0.182129,0
22100,0.912598,-0.500488,-0.199219,0
22120,0.882324,-0.538086,-0.19873,0
22140,0.849609,-0.569336,-0.206543,0
22160,0.856445,-0.564941,-0.210938,0
22180,0.852539,-0.504883,-0.224121,0
22200,0.82666,-0.47998,-0.220703,0
22220,0.822754,-0.498047,-0.219238,0
22240,0.842285,-0.513672,-0.229004,0
22260,0.834961,-0.537109,-0.210449,0
22280,0.800781,-0.540527,-0.212402,0
22300,0.786621,-0.558105,-0.239746,0
22320,0.799316,-0.557617,-0.220215,0
22340,0.772461,-0.539062,-0.217285,0
22360,0.758789,-0.507812,-0.221191,0
22380,0.748535,-0.528809,-0.291504,0
22400,0.702148,-0.611328,-0.30127,0
22420,0.64209,-0.604004,-0.201172,0
22440,0.641113,-0.48877,-0.262695,0
22460,0.699219,-0.54834,-0.423828,0
22480,0.849121,-0.54834,-0.334473,0
22500,0.871094,-0.458008,-0.274902,0
22520,0.828125,-0.473145,-0.316895,0
22540,0.852539,-0.496582,-0.364258,0
22560,0.85498,-0.445801,-0.231445,0
22580,0.808594,-0.444824,-0.192871,0
22600,0.751953,-0.463867,-0.187988,0
22620,0.693848,-0.489258,-0.199219,0
22640,0.799316,-0.525879,-0.251465,0
22660,0.899902,-0.504395,-0.152344,0
22680,0.793945,-0.473145,-0.120117,0
22700,0.743164,-0.480469,-0.190918,0
22720,0.779785,-0.48584,-0.224121,0
22740,0.860352,-0.479492,-0.150391,0
22760,0.867676,-0.523926,-0.103027,0
22780,0.844727,-0.592285,-0.163086,0
22800,0.881348,-0.606934,-0.144531,0
22820,0.885254,-0.595215,-0.113281,0
22840,0.86084,-0.608887,-0.123535,0
22860,0.875,-0.631836,-0.119629,0
22880,0.845703,-0.632812,-0.0717773,0
22900,0.80957,-0.616699,-0.0288086,0
22920,0.834961,-0.625,-0.00244141,0
22940,0.909668,-0.616699,0.00488281,0
22960,0.907715,-0.597168,0.0532227,0
22980,0.835938,-0.58252,0.0712891,0
23000,0.793945,-0.591309,0.124023,0
23020,0.84082,-0.601074,0.19043,0
23040,0.846191,-0.587402,0.210449,0
23060,0.819336,-0.619629,0.182129,0
23080,0.793457,-0.655273,0.209473,0
23100,0.785645,-0.659668,0.233398,0
23120,0.766113,-0.727539,0.172852,0
23140,0.712891,-0.729492,0.202148,0
23160,0.638672,-0.766602,0.216309,0
23180,0.604004,-0.87207,0.185059,0
23200,0.627441,-0.951172,0.192383,0
23220,0.636719,-1.01074,0.1875,0
23240,0.613281,-1.0376,0.166992,0
23260,0.564453,-1.08984,0.130859,0
23280,0.535645,-1.0874,0.11084,0
23280,0.521973,-1.08057,0.100586,0
23280,0.40918,-1.06738,0.0991211,0
23300,0.375977,-1.07959,0.097168,0
23320,0.343262,-1.10059,0.0927734,0
23360,0.349609,-1.01953,0.0957031,0
23380,0.393555,-1.00146,0.015625,0
23400,0.416992,-0.990723,0.0512695,0
23420,0.41748,-0.967773,0.065918,0
23440,0.428711,-0.996094,0.0561523,0
23460,0.480957,-1.04199,0.0473633,0
23480,0.504395,-1.03467,0.0463867,0
23500,0.483398,-0.995117,0.0288086,0
23520,0.484863,-0.934082,0.0195312,0
23570,0.443359,-0.900879,0.0253906,0
23600,0.461914,-0.911621,0.0107422,0
23620,0.450684,-0.885254,0.00390625,0
23640,0.428223,-0.886719,0.012207,0
23660,0.387207,-0.891113,-0.00585938,0
23680,0.401855,-0.91748,0.019043,0
23710,0.423828,-0.900391,0.0253906,0
23730,0.430664,-0.878418,0.0361328,0
23760,0.446777,-0.911133,0.0214844,0
23770,0.442383,-0.951172,0.0307617,0
23790,0.425293,-0.942871,0.0356445,0
23810,0.445312,-0.933594,0.0292969,0
23820,0.48291,-0.921875,0.0107422,0
23840,0.452637,-0.945801,0.0390625,0
23860,0.459961,-0.949707,0.0332031,0
23880,0.474609,-0.933594,0.0429688,0
23900,0.481445,-0.953125,0.0537109,0
23930,0.446777,-0.935547,0.0771484,0
23950,0.443359,-0.90918,0.109375,0
23970,0.446777,-0.928711,0.0947266,0
23990,0.46875,-0.970215,0.0688477,0
24010,0.4375,-0.960938,0.118652,0
24030,0.38623,-0.906738,0.111328,0
24050,0.343262,-0.939453,0.0942383,0
24070,0.337402,-0.961426,0.0571289,0
24090,0.354004,-0.947266,0.0390625,0
24110,0.409668,-0.966309,0.0913086,1000
24130,0.353027,-0.960449,0.0581055,0
24150,0.300781,-0.94043,0.0776367,0
24170,0.291016,-0.993164,0.0161133,0
24190,0.324219,-1.01807,0.0126953,0
24210,0.293457,-0.930176,0.0341797,0
24230,0.256836,-0.917969,0.0258789,0
24250,0.281738,-0.961914,-0.000488281,0
24270,0.297363,-0.959473,0.0180664,0
24290,0.290527,-0.924805,0.0712891,0
24310,0.288574,-0.921387,0.012207,0
24330,0.339355,-0.925781,-0.0229492,0
24360,0.541504,-0.910156,-0.0244141,0
24380,0.469727,-0.855469,-0.0488281,0
24400,0.484375,-0.847168,-0.0317383,0
24420,0.541016,-0.883301,-0.0493164,0
24440,0.593262,-0.92041,-0.0678711,0
24460,0.55957,-0.911133,-0.101074,0
24480,0.495605,-0.856934,-0.101074,0
24550,0.707031,-0.793457,-0.0795898,0
24570,0.800781,-0.795898,-0.112305,0
24580,0.783691,-0.800293,-0.144043,0
24600,0.685059,-0.756348,-0.162109,0
24620,0.59082,-0.703613,-0.125488,0
24640,0.578613,-0.70459,-0.105957,0
24660,0.710449,-0.728516,-0.0571289,0
24680,0.770508,-0.771484,-0.0756836,0
24700,0.724121,-0.709473,-0.106445,0
24720,0.703613,-0.697266,-0.115723,0
24740,0.723145,-0.713867,-0.119629,0
24760,0.742676,-0.735352,-0.12207,0
24780,0.763184,-0.73291,-0.0864258,0
24800,0.812988,-0.748535,-0.0615234,0
24820,0.836426,-0.768066,-0.0541992,0
24840,0.810059,-0.744629,-0.074707,0
24860,0.811523,-0.728027,-0.0795898,0
24880,0.799805,-0.703613,-0.0488281,0
24900,0.800293,-0.70166,-0.00976562,0
24920,0.84668,-0.732422,0.00390625,0
24940,0.82959,-0.727539,0.00634766,0
24960,0.784668,-0.704102,0.015625,0
24980,0.756836,-0.683594,0.0214844,0
25000,0.78125,-0.692871,0.059082,0
25020,0.82373,-0.740723,0.0771484,0
25040,0.775391,-0.741211,0.0976562,0
25060,0.72998,-0.731445,0.10498,0
25080,0.723145,-0.72168,0.0966797,0
25100,0.737793,-0.729004,0.105957,0
25120,0.746582,-0.746582,0.119629,0
25140,0.678711,-0.760254,0.173828,0
25160,0.640625,-0.775879,0.175293,0
25180,0.67334,-0.781738,0.178711,0
25200,0.695801,-0.750488,0.162109,0
25220,0.69873,-0.72998,0.154785,0
25240,0.693848,-0.737305,0.163574,0
25260,0.6875,-0.769531,0.166992,0
25280,0.679199,-0.800781,0.164551,0
25300,0.666992,-0.790527,0.166504,0
25320,0.638184,-0.753906,0.148438,0
25340,0.64209,-0.730469,0.159668,0
25360,0.665039,-0.75,0.155762,0
25380,0.664062,-0.802734,0.160156,0
25400,0.641602,-0.807129,0.186523,0
25420,0.663574,-0.811523,0.194336,0
25440,0.695312,-0.805664,0.174316,0
25460,0.698242,-0.807617,0.174805,0
25480,0.667969,-0.80127,0.196777,0
25500,0.676758,-0.801758,0.232422,0
25520,0.723633,-0.814941,0.252441,0
25540,0.756836,-0.813965,0.287598,0
25560,0.731445,-0.806152,0.277832,0
25580,0.706055,-0.790039,0.293945,0
25600,0.674316,-0.769531,0.310547,0
25620,0.640625,-0.760254,0.327637,0
25640,0.631836,-0.765625,0.356445,0
25660,0.644531,-0.777832,0.368652,0
25680,0.656738,-0.768555,0.375,0
25700,0.675293,-0.768555,0.376465,0
25720,0.63916,-0.750977,0.40332,0
25740,0.571289,-0.754395,0.41748,0
25760,0.546387,-0.744629,0.41748,0
25780,0.578613,-0.729492,0.443848,0
25800,0.624512,-0.738281,0.425781,0
25820,0.645508,-0.749023,0.441406,0
25830,0.623535,-0.74707,0.46875,0
25850,0.568359,-0.772949,0.443848,0
25870,0.582031,-0.772461,0.476562,0
25890,0.605469,-0.767578,0.48877,0
25910,0.619629,-0.739258,0.48291,0
25930,0.615723,-0.770508,0.450195,0
25950,0.612305,-0.768555,0.503906,0
25970,0.609375,-0.779297,0.53125,0
25990,0.563477,-0.794922,0.485352,0
26010,0.54248,-0.753418,0.466797,0
26030,0.507812,-0.713379,0.473633,0
26050,0.443359,-0.73584,0.478027,0
26070,0.436523,-0.771973,0.458008,0
26080,0.407227,-0.773438,0.443359,0
26100,0.38916,-0.766113,0.432129,0
26120,0.371094,-0.725586,0.414062,0
26140,0.345215,-0.750977,0.411621,0
26160,0.338867,-0.814453,0.407715,0
26180,0.348633,-0.834961,0.402832,0
26200,0.340332,-0.833008,0.383301,0
26220,0.300293,-0.813965,0.365723,0
26240,0.272461,-0.833984,0.371094,0
26260,0.280762,-0.856445,0.333008,0
26280,0.28418,-0.87793,0.296387,0
26300,0.254395,-0.842285,0.258789,0
26320,0.264648,-0.822266,0.249512,0
26340,0.305664,-0.87207,0.257812,0
26360,0.321289,-0.935059,0.219727,0
26380,0.358887,-0.955566,0.193848,0
26400,0.359375,-0.937012,0.175293,0
26420,0.355957,-0.937012,0.16748,0
26440,0.38623,-0.982422,0.136719,0
26460,0.410645,-1.02197,0.10498,0
26480,0.424316,-1.02734,0.0703125,0
26500,0.428711,-0.987305,0.0576172,0
26520,0.40332,-0.962891,0.050293,0
26540,0.379883,-0.94873,0.0336914,0
26560,0.389648,-0.986816,-0.00830078,0
26580,0.404297,-0.979492,-0.0322266,0
26600,0.420898,-0.908203,-0.0463867,0
26620,0.411621,-0.872559,-0.0786133,0
26640,0.414062,-0.873047,-0.0673828,0
26660,0.412598,-0.899902,-0.0708008,0
26680,0.429688,-0.909668,-0.109863,0
26700,0.480957,-0.888184,-0.152832,0
26720,0.516113,-0.821289,-0.182617,0
26740,0.500977,-0.823242,-0.194336,0
26760,0.469727,-0.850098,-0.231445,0
26780,0.43457,-0.894043,-0.234863,0
26800,0.449219,-0.855957,-0.246094,0
26820,0.471191,-0.854492,-0.291016,0
26840,0.462402,-0.838379,-0.321289,0
26860,0.435547,-0.810059,-0.311035,0
26880,0.410645,-0.795898,-0.295898,0
26900,0.410645,-0.803711,-0.32959,0
26920,0.40332,-0.787109,-0.356445,0
26940,0.416016,-0.739746,-0.313477,0
26960,0.473145,-0.73584,-0.296387,0
26980,0.498047,-0.795898,-0.322266,0
27000,0.516113,-0.817383,-0.362305,0
27020,0.540527,-0.79248,-0.363281,0
27040,0.570801,-0.744629,-0.347168,0
27060,0.668457,-0.727051,-0.329102,0
27080,0.788574,-0.749023,-0.329102,0
27100,0.785645,-0.742676,-0.317383,0
27120,0.696777,-0.699707,-0.34082,0
27140,0.71875,-0.644531,-0.39502,0
27160,0.826172,-0.627441,-0.361816,0
27180,0.887695,-0.642578,-0.291016,0
27200,0.879395,-0.636719,-0.294434,0
27220,0.855957,-0.598145,-0.367188,0
27240,0.897461,-0.528809,-0.375977,0
27260,0.928223,-0.481445,-0.320312,0
27280,0.918945,-0.476562,-0.284668,0
27300,0.916016,-0.482422,-0.282715,0
27310,0.977539,-0.450684,-0.22998,0
27330,1.04053,-0.407715,-0.181152,0
27360,1.05518,-0.367676,-0.12793,0
27380,1.10498,-0.378906,-0.078125,0
27400,1.10938,-0.401367,-0.00830078,0
27420,1.0957,-0.461914,0.00244141,0
27440,1.06836,-0.474121,0.0634766,0
27460,1.0498,-0.478516,0.0869141,0
27480,1.02637,-0.494629,0.116211,0
27500,0.994629,-0.504883,0.157715,0
27520,0.948242,-0.544434,0.167969,0
27540,0.889648,-0.583984,0.194824,0
27560,0.869629,-0.581055,0.246582,0
27580,0.834473,-0.533203,0.257812,0
27600,0.773926,-0.543457,0.231445,0
27620,0.765137,-0.59375,0.302734,0
27640,0.77002,-0.619141,0.394531,0
27660,0.75,-0.624023,0.388184,0
27680,0.777344,-0.647949,0.299316,0
27700,0.760742,-0.635254,0.338867,0
27720,0.681641,-0.650391,0.375977,0
27730,0.708496,-0.711914,0.354492,0
27750,0.754883,-0.758789,0.321777,0
27770,0.761719,-0.735352,0.315918,0
27790,0.708008,-0.735352,0.265625,0
27810,0.691406,-0.740234,0.292969,0
27830,0.66748,-0.788086,0.302246,0
27850,0.62207,-0.828613,0.309082,0
27870,0.617188,-0.812988,0.27832,0
27890,0.589844,-0.800293,0.277344,0
27910,0.539062,-0.779297,0.260254,0
27930,0.510254,-0.773926,0.300293,0
27950,0.490723,-0.813477,0.280762,0
27970,0.482422,-0.828125,0.196777,0
27990,0.493164,-0.83252,0.17334,0
28010,0.445312,-0.780273,0.166016,0
28030,0.444824,-0.827637,0.138672,0
28050,0.480957,-0.888672,0.0996094,0
28070,0.491211,-0.852539,0.0625,0
28090,0.518066,-0.820801,0.0532227,0
28110,0.539551,-0.797363,0.046875,0
28130,0.526367,-0.801758,0.00732422,0
28150,0.559082,-0.837891,-0.0131836,0
28170,0.610352,-0.825684,0.00683594,0
28190,0.647461,-0.831543,0.0180664,0
28210,0.67041,-0.838379,0.0224609,0
28230,0.660645,-0.807617,0.0429688,0
28250,0.63623,-0.789062,0.0913086,0
28270,0.619629,-0.849609,0.09375,0
28290,0.633301,-0.860352,0.0541992,0
28310,0.625977,-0.819336,0.0600586,0
28330,0.593262,-0.764648,0.0454102,0
28350,0.599121,-0.770996,0.0458984,0
28370,0.621582,-0.79541,0.00927734,0
28390,0.629395,-0.807617,-0.0078125,0
28410,0.689453,-0.774902,0.0400391,0
28430,0.696777,-0.768555,0.0610352,0
28450,0.638184,-0.791992,0.0478516,0
28470,0.665039,-0.800293,0.0424805,0
28490,0.687012,-0.785645,0.065918,0
28510,0.671387,-0.788574,0.0649414,0
28530,0.655762,-0.775879,0.0644531,0
28550,0.640137,-0.759277,0.059082,0
28570,0.611816,-0.755859,0.0825195,0
28590,0.622559,-0.76709,0.0805664,0
28610,0.598145,-0.786621,0.0620117,0
28630,0.559082,-0.797363,0.0654297,0
28650,0.564453,-0.782715,0.0844727,0
28670,0.578613,-0.788086,0.0883789,0
28690,0.581055,-0.815918,0.0375977,0
28710,0.595215,-0.849121,0.00927734,0
28730,0.59082,-0.842773,0.012207,0
28750,0.587402,-0.854492,0.00146484,0
28770,0.619629,-0.866211,-0.0283203,0
28790,0.655273,-0.879883,-0.0664062,0
28810,0.675293,-0.888672,-0.0800781,0
28830,0.679688,-0.854492,-0.0869141,0
28850,0.676758,-0.890137,-0.102539,0
28870,0.69043,-0.891113,-0.148926,0
28890,0.679199,-0.849121,-0.173828,0
28910,0.669922,-0.802246,-0.17627,0
28930,0.689941,-0.750977,-0.172852,0
28950,0.679199,-0.757812,-0.206543,0
28970,0.658203,-0.763672,-0.251465,0
28990,0.681152,-0.730469,-0.245117,0
29010,0.698242,-0.728516,-0.291504,0
29030,0.682617,-0.714844,-0.309082,0
29050,0.657715,-0.669434,-0.312012,0
29070,0.677734,-0.65625,-0.273438,0
29090,0.70752,-0.692871,-0.243652,0
29110,0.685059,-0.729492,-0.276855,0
29130,0.664062,-0.712402,-0.306641,0
29150,0.679688,-0.672852,-0.324707,0
29170,0.704102,-0.651855,-0.291992,0
29190,0.696289,-0.692383,-0.25,0
29210,0.661133,-0.744141,-0.26416,0
29230,0.640137,-0.72168,-0.285156,0
29250,0.660156,-0.655762,-0.29248,0
29270,0.696777,-0.614746,-0.275391,0
29290,0.633789,-0.636719,-0.255371,0
29310,0.591797,-0.653809,-0.231445,0
29330,0.65625,-0.648926,-0.246582,0
29350,0.753906,-0.637695,-0.264648,0
29370,0.759766,-0.67041,-0.30957,0
29390,0.728516,-0.690918,-0.322754,0
29410,0.723633,-0.684082,-0.280273,0
29430,0.727539,-0.672363,-0.286621,0
29450,0.779297,-0.682617,-0.300781,0
29470,0.840332,-0.661621,-0.29248,0
29490,0.808594,-0.65332,-0.290527,0
29510,0.728516,-0.69873,-0.267578,0
29530,0.694336,-0.689941,-0.251465,0
29550,0.73291,-0.685547,-0.267578,0
29570,0.753906,-0.666992,-0.296875,0
29590,0.735352,-0.652344,-0.344727,0
29610,0.725586,-0.682129,-0.354492,0
29630,0.724121,-0.686523,-0.369141,0
29650,0.705566,-0.707031,-0.361328,0
29670,0.70752,-0.706055,-0.354004,0
29690,0.72998,-0.682129,-0.352051,0
29710,0.768555,-0.646973,-0.390625,0
29730,0.782715,-0.640625,-0.423828,0
29750,0.728027,-0.605469,-0.391602,0
29770,0.665039,-0.596191,-0.395996,0
29790,0.679688,-0.580078,-0.421387,0
29810,0.701172,-0.525391,-0.426758,0
29830,0.71582,-0.504883,-0.413574,0
29850,0.790527,-0.489746,-0.379883,0
29870,0.84668,-0.499512,-0.363281,0
29890,0.847168,-0.469727,-0.386719,0
29910,0.861328,-0.412109,-0.439453,0
29930,0.910645,-0.375,-0.359375,0
29950,0.97168,-0.348633,-0.26709,0
29970,1.05273,-0.336426,-0.233398,0
29990,1.07031,-0.313965,-0.224121,0
30010,1.05518,-0.267578,-0.207031,0
30030,1.10938,-0.205566,-0.111816,0
30050,1.23389,-0.177734,-0.0541992,0
30070,1.29443,-0.166016,-0.00830078,0
30090,1.21777,-0.158691,0.0283203,0
30110,1.11084,-0.174805,0.125977,0
30130,1.10547,-0.228027,0.196777,0
30150,1.1377,-0.307617,0.193848,0
30170,1.13574,-0.313965,0.261719,0
30190,1.09863,-0.258789,0.334473,0
30210,0.992676,-0.253418,0.347656,0
30230,0.950684,-0.299805,0.363281,0
30250,0.952637,-0.324707,0.486816,0
30270,0.804688,-0.38916,0.561523,0
30290,0.660645,-0.402344,0.548828,0
30310,0.675781,-0.427246,0.535156,0
30330,0.71875,-0.501465,0.591797,0
30350,0.572266,-0.530273,0.591797,0
30370,0.448242,-0.560059,0.566406,0
30390,0.586914,-0.529297,0.518555,0
30410,0.664551,-0.53125,0.491699,0
30430,0.57666,-0.560059,0.469238,0
30450,0.560547,-0.626953,0.424805,0
30470,0.574707,-0.674805,0.421387,0
30490,0.570312,-0.643555,0.422852,0
30510,0.556641,-0.671875,0.379883,0
30530,0.5,-0.667969,0.313965,0
30550,0.520996,-0.727539,0.297363,0
30570,0.497559,-0.749023,0.280762,0
30590,0.459961,-0.748047,0.202148,0
30600,0.50293,-0.755859,0.155762,0
30630,0.547363,-0.770508,0.160645,0
30650,0.553711,-0.853027,0.140137,0
30670,0.509277,-0.901367,0.0991211,0
30690,0.506836,-0.900391,0.00292969,0
30710,0.552734,-0.969238,-0.0371094,0
30730,0.575684,-0.925781,-0.0488281,0
30740,0.570312,-0.884766,-0.0874023,0
30760,0.575195,-0.901855,-0.135254,0
30780,0.61084,-0.858887,-0.141113,0
30800,0.609375,-0.880371,-0.191895,0
30820,0.581055,-0.867188,-0.210449,0
30840,0.547852,-0.882324,-0.266113,0
30860,0.578613,-0.865234,-0.312012,0
30880,0.602051,-0.76416,-0.314941,0
30900,0.630859,-0.687012,-0.330078,0
30920,0.657227,-0.696289,-0.356445,0
30940,0.649414,-0.694824,-0.359375,0
30960,0.687988,-0.678711,-0.358398,0
30980,0.743652,-0.672363,-0.379395,0
31000,0.760254,-0.60791,-0.390137,0
31020,0.733887,-0.553223,-0.399902,0
31040,0.710449,-0.567871,-0.40625,0
31060,0.714844,-0.534668,-0.396973,0
31080,0.737793,-0.518066,-0.367676,0
31100,0.805176,-0.530762,-0.355469,0
31120,0.853516,-0.550781,-0.321289,0
31140,0.895996,-0.515137,-0.311035,0
31160,0.881836,-0.486328,-0.302246,0
31180,0.84668,-0.467285,-0.277832,0
31200,0.885254,-0.458984,-0.249023,0
31220,0.919434,-0.496094,-0.271973,0
31240,0.920898,-0.474609,-0.257812,0
31260,0.870605,-0.442383,-0.233887,0
31280,0.819336,-0.412598,-0.244629,0
31300,0.81543,-0.427246,-0.214355,0
31320,0.889648,-0.487305,-0.217285,0
31340,0.961914,-0.495605,-0.237793,0
31360,0.949707,-0.466309,-0.278809,0
31380,0.891113,-0.477051,-0.260254,0
31400,0.900879,-0.458008,-0.257324,0
31420,0.941406,-0.470703,-0.285645,1001
31440,0.97168,-0.450684,-0.303223,0
31460,0.98291,-0.444824,-0.326172,0
31480,0.960449,-0.445312,-0.304688,0
31500,0.895996,-0.44873,-0.289062,0
31520,0.840332,-0.469727,-0.283203,0
31540,0.895508,-0.456543,-0.291992,0
31560,0.932129,-0.440918,-0.317871,0
31580,0.874512,-0.442383,-0.29248,0
31600,0.850098,-0.407227,-0.280273,0
31620,0.826172,-0.428223,-0.300781,0
31640,0.751953,-0.453613,-0.27832,0
31660,0.710938,-0.471191,-0.226074,0
31680,0.709473,-0.450195,-0.308105,0
31700,0.637695,-0.615234,-0.398438,0
31720,0.471191,-0.520996,-0.226074,0
31740,0.524902,-0.508301,-0.466797,0
31760,0.718262,-0.42334,-0.549805,0
31780,0.675293,-0.313965,-0.306152,0
31800,0.496582,-0.287109,-0.263184,0
31820,0.486328,-0.370117,-0.359863,0
31840,0.719727,-0.393066,-0.325684,0
31860,0.88623,-0.368164,-0.152832,0
31880,0.804688,-0.404785,-0.14502,0
31900,0.694824,-0.452148,-0.239746,0
31920,0.800781,-0.411621,-0.164062,0
31940,0.863281,-0.408691,-0.0820312,0
31960,0.812988,-0.429688,-0.118164,0
31980,0.875,-0.476562,-0.208008,0
32000,1.02246,-0.511719,-0.0874023,0
32020,1.0249,-0.573242,-0.131836,0
32040,0.953613,-0.64209,-0.226074,0
32060,0.946777,-0.720703,-0.22168,0
32080,0.992676,-0.76123,-0.130859,0
32100,0.994141,-0.787109,-0.0737305,0
32120,0.956543,-0.845215,-0.181641,0
32140,0.97998,-0.867676,-0.192871,0
32160,0.95752,-0.891113,-0.0673828,0
32180,0.839355,-0.927246,-0.0727539,0
32200,0.768555,-0.947754,-0.078125,0
32220,0.741211,-0.942871,-0.0625,0
32240,0.710938,-0.947266,-0.0629883,0
32260,0.661133,-0.943359,-0.0166016,0
32280,0.56543,-0.955566,0.0317383,0
32300,0.477051,-0.995605,0.0385742,0
32320,0.533691,-0.98877,-0.0107422,0
32340,0.560547,-0.95752,0.00537109,0
32360,0.52002,-0.95166,0.0219727,0
32380,0.469727,-0.986816,-0.00683594,0
32400,0.462891,-1.00732,-0.015625,0
32420,0.460938,-1.02441,-0.0166016,0
32440,0.439941,-1.01807,-0.000976562,0
32450,0.407227,-0.967285,0.00976562,0
32470,0.372559,-0.941406,0.00488281,0
32480,0.405273,-0.960449,0.0209961,0
32510,0.416992,-1.01855,0.000488281,0
32530,0.400879,-0.991211,0.0185547,0
32550,0.411133,-0.952148,0.0131836,0
32570,0.409668,-0.944824,-0.00244141,0
32590,0.421875,-0.98291,-0.00585938,0
32610,0.416016,-0.967285,0.00390625,0
32610,0.43457,-0.928223,-0.0449219,0
32630,0.418457,-0.926758,-0.0419922,0
32650,0.373535,-0.966797,-0.0209961,0
32670,0.336914,-0.96582,-0.0180664,0
32690,0.365234,-0.919922,-0.027832,0
32710,0.405273,-0.904785,-0.0161133,0
32730,0.382324,-0.912598,0.00292969,0
32750,0.364746,-0.92627,-0.0166016,0
32770,0.400391,-0.918945,-0.000976562,0
32790,0.428223,-0.904785,0.00878906,0
32810,0.420898,-0.905762,0.0229492,0
32830,0.39209,-0.92041,0.0361328,0
32840,0.436035,-0.915039,-0.00488281,0
32880,0.419922,-0.926758,-0.00585938,0
32900,0.4375,-0.963379,0.00341797,0
32920,0.484375,-1.03027,-0.0151367,0
32940,0.480957,-0.962402,0.0117188,1000
32960,0.433105,-0.909668,0.0117188,0
32980,0.357422,-0.90332,0.00439453,0
33000,0.330078,-0.94873,0.0102539,0
33020,0.380371,-0.984863,0.0234375,0
33040,0.408691,-1.00635,0.0112305,0
33060,0.366211,-0.928223,0.0205078,0
33080,0.332031,-0.894531,0.0351562,0
33100,0.347168,-1.01807,0.0146484,0
33120,0.360352,-1.00439,0.0273438,0
33140,0.38916,-0.958984,0.0366211,0
33160,0.275391,-0.927734,0.0180664,0
33180,0.239746,-0.92334,-0.0249023,0
33200,0.303711,-0.912109,-0.0224609,0
33220,0.455566,-0.928711,-0.0405273,0
33240,0.510254,-0.936035,-0.0888672,0
33260,0.48291,-0.916504,-0.0996094,0
33280,0.494629,-0.89502,-0.106934,0
33300,0.527832,-0.929688,-0.131836,0
33320,0.54834,-0.947266,-0.12793,0
33330,0.572266,-0.953125,-0.123047,0
33350,0.539551,-0.90332,-0.109863,0
33370,0.527832,-0.880371,-0.146484,0
33390,0.554199,-0.885254,-0.16748,0
33410,0.54834,-0.869629,-0.17041,0
33430,0.473145,-0.833984,-0.116699,0
33450,0.411133,-0.830078,-0.100098,0
33470,0.476074,-0.865723,-0.112793,0
33490,0.59082,-0.93457,-0.115234,0
33510,0.552734,-0.910156,-0.10791,0
33530,0.500977,-0.87207,-0.120117,0
33550,0.495117,-0.834961,-0.0957031,0
33570,0.629395,-0.896973,-0.107422,0
33590,0.678223,-0.953613,-0.124023,0
33610,0.700195,-0.909668,-0.124512,0
33630,0.631348,-0.853516,-0.0864258,0
33650,0.565918,-0.807617,-0.0703125,0
33670,0.53418,-0.808105,-0.0883789,0
33690,0.510742,-0.849609,-0.112305,0
33700,0.524902,-0.887207,-0.125488,0
33720,0.475098,-0.862305,-0.0527344,0
33740,0.463867,-0.848633,-0.0341797,0
33760,0.536133,-0.852051,0,0
33780,0.623535,-0.879395,0.0395508,0
33800,0.660156,-0.881836,0.0253906,0
33820,0.652832,-0.864746,0.0131836,0
33840,0.674316,-0.830566,0.0224609,0
33860,0.751465,-0.822266,0.0463867,0
33880,0.845215,-0.828125,0.0620117,0
33900,0.905762,-0.839844,0.0522461,0
33920,0.977539,-0.841309,0.0361328,0
33920,1.00732,-0.82373,0.0639648,0
33940,0.974609,-0.77832,0.149414,0
33960,0.953613,-0.757812,0.190918,0
33980,0.970215,-0.736328,0.182617,0
34000,1.02246,-0.697754,0.22998,0
34020,0.99707,-0.715332,0.257324,0
34040,0.884766,-0.703613,0.291504,0
34060,0.791992,-0.695801,0.352051,0
34080,0.758301,-0.658203,0.409668,0
34100,0.73877,-0.693848,0.437988,0
34120,0.705566,-0.762207,0.425293,0
34140,0.691406,-0.778809,0.498047,0
34160,0.630371,-0.722656,0.511719,0
34180,0.569336,-0.650879,0.51416,0
34200,0.478027,-0.685059,0.507812,0
34220,0.411133,-0.724121,0.527832,0
34240,0.375977,-0.746582,0.564941,0
34280,0.428711,-0.773438,0.498535,0
34300,0.414551,-0.751465,0.507812,0
34320,0.30127,-0.733887,0.496582,0
34340,0.208496,-0.797852,0.484863,0
34360,0.233887,-0.872559,0.433105,0
34380,0.292969,-0.92041,0.405273,0
34400,0.293457,-0.849121,0.410156,0
34420,0.339355,-0.772461,0.46582,0
34440,0.406738,-0.794434,0.526367,0
34460,0.342285,-0.893066,0.471191,0
34480,0.246582,-0.914062,0.418945,0
34500,0.265625,-0.832031,0.37207,0
34520,0.307129,-0.753906,0.350098,0
34540,0.291992,-0.688477,0.330078,0
34560,0.187988,-0.735352,0.289062,0
34580,0.183594,-0.822754,0.279785,0
34600,0.230469,-0.856934,0.252441,0
34620,0.212402,-0.837891,0.187012,0
34640,0.179199,-0.819336,0.115234,0
34660,0.198242,-0.855957,0.0874023,0
34680,0.237305,-0.945801,0.0883789,0
34700,0.255371,-1.03369,0.0541992,0
34720,0.296875,-1.04102,0.00244141,0
34740,0.327148,-0.983398,-0.0273438,0
34760,0.283691,-0.944336,-0.0390625,0
34780,0.241211,-0.980469,-0.0932617,0
34800,0.265625,-1.02979,-0.0976562,0
34820,0.313965,-1.03125,-0.0537109,0
34840,0.311035,-0.986328,-0.0356445,0
34860,0.282227,-0.954102,-0.102051,0
34880,0.314941,-0.950195,-0.209473,0
34900,0.50293,-0.896484,-0.155762,0
34920,0.644043,-0.900391,-0.11084,0
34940,0.557129,-0.935547,-0.123047,0
34960,0.463379,-0.891113,-0.17627,0
34980,0.488281,-0.830078,-0.25,0
35000,0.638184,-0.737793,-0.27002,0
35020,0.837891,-0.678223,-0.194336,0
35040,0.834473,-0.700195,-0.163574,0
35060,0.737305,-0.650879,-0.20459,0
35080,0.673828,-0.555176,-0.22998,0
35100,0.82666,-0.474121,-0.192383,0
35120,1.10889,-0.487793,-0.192383,0
35140,1.15381,-0.450684,-0.202637,0
35160,1.19482,-0.360352,-0.223633,0
35180,1.354,-0.285645,-0.140137,0
35200,1.46533,-0.29834,-0.0839844,0
35220,1.45996,-0.287598,-0.0961914,0
35240,1.39062,-0.243164,-0.03125,0
35260,1.34473,-0.219238,0.0703125,0
35280,1.36523,-0.178223,0.151367,0
35300,1.38135,-0.19873,0.165039,0
35320,1.32715,-0.193359,0.208008,0
35340,1.12256,-0.178711,0.257324,0
35360,0.933105,-0.266113,0.368164,0
35380,0.874512,-0.371582,0.420898,0
35400,0.876953,-0.376465,0.406738,0
35420,0.826172,-0.343262,0.437988,0
35440,0.675781,-0.327148,0.431152,0
35460,0.525391,-0.418945,0.474609,0
35480,0.442383,-0.533691,0.491211,0
35500,0.41748,-0.569824,0.421387,0
35520,0.427246,-0.643066,0.354492,0
35540,0.518555,-0.678711,0.428223,0
35560,0.548828,-0.733398,0.424805,0
35580,0.501465,-0.749512,0.418457,0
35600,0.546387,-0.742188,0.488281,0
35620,0.657715,-0.717285,0.494141,0
35640,0.705078,-0.721191,0.512207,0
35660,0.657715,-0.707031,0.512207,0
35680,0.621582,-0.755371,0.487305,0
35700,0.62793,-0.770508,0.458984,0
35720,0.652344,-0.751465,0.429688,0
35740,0.597168,-0.713379,0.432617,0
35760,0.532715,-0.777832,0.397461,0
35780,0.499023,-0.796387,0.389648,0
35800,0.426758,-0.806152,0.366699,0
35820,0.351074,-0.782227,0.296875,0
35840,0.336426,-0.745605,0.239746,0
35860,0.380859,-0.680176,0.179199,0
35880,0.330078,-0.682617,0.12207,0
35900,0.304688,-0.744141,0.0678711,0
35920,0.307617,-0.809082,-0.00390625,0
35940,0.366211,-0.828125,-0.0512695,0
35960,0.42334,-0.830078,-0.0742188,0
35980,0.474609,-0.847168,-0.127441,0
36000,0.517578,-0.882324,-0.162598,0
36020,0.519531,-0.890625,-0.164551,0
36040,0.479492,-0.910645,-0.17627,0
36060,0.498047,-0.905762,-0.260254,0
36080,0.576172,-0.889648,-0.328613,0
36100,0.633789,-0.854004,-0.280762,0
36120,0.606934,-0.794922,-0.250977,0
36140,0.605957,-0.792969,-0.290039,0
36160,0.631836,-0.772461,-0.346191,0
36180,0.655762,-0.779297,-0.361328,0
36200,0.649414,-0.780762,-0.317871,0
36220,0.606934,-0.731445,-0.298828,0
36240,0.597168,-0.684082,-0.38916,0
36260,0.717285,-0.631836,-0.439453,0
36280,0.82373,-0.571777,-0.403809,0
36320,0.837402,-0.545898,-0.328125,0
36340,0.938965,-0.561035,-0.389648,0
36360,1.02393,-0.469238,-0.398438,0
36380,1.0166,-0.365723,-0.39209,0
36400,1.00879,-0.305176,-0.335449,0
36420,1.04492,-0.337402,-0.310059,0
36440,1.04248,-0.370605,-0.308594,0
36460,1.02734,-0.327148,-0.313477,0
36480,1.0542,-0.237793,-0.21582,0
36500,1.09277,-0.182129,-0.128418,0
36520,1.09766,-0.173828,-0.103027,0
36540,1.08496,-0.182617,-0.097168,0
36560,1.08496,-0.185059,-0.0136719,0
36580,1.10547,-0.168457,0.0454102,0
36600,1.13721,-0.16748,0.0458984,0
36620,1.12109,-0.168945,0.0737305,0
36640,1.06348,-0.188477,0.149414,0
36660,1.06592,-0.227051,0.222168,0
36680,1.08594,-0.250977,0.262207,0
36700,1.07178,-0.284668,0.277832,0
36710,1.04639,-0.27832,0.329102,0
36730,0.974609,-0.245605,0.447754,0
36750,0.876953,-0.254883,0.424316,0
36770,0.803711,-0.317383,0.341797,0
36790,0.782227,-0.390137,0.376953,0
36810,0.810547,-0.427734,0.479492,0
36830,0.92041,-0.46875,0.500977,0
36850,0.901367,-0.466309,0.555176,0
36870,0.779785,-0.48877,0.575195,0
36890,0.745605,-0.54541,0.543945,0
36910,0.758301,-0.592285,0.524902,0
36930,0.705078,-0.546875,0.551758,0
36950,0.655762,-0.518066,0.521973,0
36970,0.588379,-0.477539,0.505371,0
36990,0.52002,-0.476562,0.471191,0
37010,0.50293,-0.550781,0.433594,0
37030,0.473145,-0.594238,0.425781,0
37050,0.435059,-0.59668,0.373047,0
37070,0.476562,-0.651367,0.302246,0
37090,0.477051,-0.686523,0.300781,0
37110,0.464844,-0.749512,0.264648,0
37130,0.437988,-0.806152,0.177246,0
37150,0.435547,-0.834473,0.0966797,0
37170,0.477539,-0.847656,0.0698242,0
37190,0.544922,-0.865234,-0.0332031,0
37210,0.535645,-0.900391,-0.110352,0
37230,0.542969,-0.90918,-0.183105,0
37250,0.5625,-0.914551,-0.208008,0
37270,0.546875,-0.920898,-0.265625,0
37290,0.536621,-0.890625,-0.307129,0
37310,0.565918,-0.855469,-0.341797,0
37330,0.583008,-0.803223,-0.382812,0
37350,0.594238,-0.79541,-0.44043,0
37370,0.558594,-0.760254,-0.475098,0
37390,0.442871,-0.678223,-0.430176,0
37410,0.373535,-0.57666,-0.379883,0
37430,0.513184,-0.463379,-0.382812,0
37450,0.757812,-0.442383,-0.419434,0
37470,0.822266,-0.555664,-0.433105,0
37490,0.805664,-0.693359,-0.480469,0
37510,0.827148,-0.705566,-0.438965,0
37530,0.909668,-0.62207,-0.445312,0
37550,1.05078,-0.489746,-0.478027,0
37570,1.1958,-0.394043,-0.418945,0
37590,1.17773,-0.442383,-0.361816,0
37610,1.05713,-0.525879,-0.283203,0
37630,1.00537,-0.489746,-0.245605,0
37650,1.00684,-0.364258,-0.204102,0
37670,1.00684,-0.36084,-0.192871,0
37690,0.90332,-0.366699,-0.223145,0
37710,0.795898,-0.379883,-0.175781,0
37730,0.811035,-0.40332,-0.198242,0
37750,0.871582,-0.425293,-0.196289,0
37770,0.830078,-0.42041,-0.191406,0
37790,0.827637,-0.458984,-0.198242,1001
37810,0.917969,-0.439453,-0.20459,0
37830,1.00635,-0.414062,-0.26709,0
37850,0.982422,-0.428711,-0.291016,0
37870,0.932617,-0.480957,-0.282715,0
37890,0.912109,-0.491211,-0.262695,0
37910,0.878418,-0.500488,-0.272949,0
37930,0.877441,-0.466797,-0.291992,0
37950,0.877441,-0.450195,-0.309082,0
37970,0.886719,-0.411133,-0.307617,0
37990,0.830566,-0.408691,-0.304199,0
38010,0.71875,-0.410645,-0.314453,0
38030,0.647949,-0.377441,-0.214844,0
38050,0.610352,-0.489746,-0.262695,0
38070,0.526367,-0.786621,-0.328125,0
38090,0.591797,-0.420898,-0.334961,0
38110,0.764648,-0.201172,-0.518066,0
38130,0.64502,-0.097168,-0.378906,0
38150,0.499512,-0.172363,-0.302734,0
38170,0.546875,-0.265137,-0.341309,0
38190,0.685547,-0.367188,-0.245605,0
38210,0.803711,-0.39209,-0.260254,0
38230,0.706543,-0.389648,-0.227539,0
38250,0.558105,-0.40332,-0.230469,0
38270,0.664062,-0.397461,-0.293457,0
38290,0.890137,-0.397949,-0.153809,0
38310,0.934082,-0.453613,-0.0869141,0
38330,0.941406,-0.527344,-0.154785,0
38350,1.03809,-0.616699,-0.181641,0
38370,1.09229,-0.709961,-0.13916,0
38390,1.10059,-0.82666,-0.217285,0
38410,1.1333,-0.914551,-0.189941,0
38430,1.10986,-0.903809,-0.128418,0
38450,0.958008,-0.856934,-0.105957,0
38470,0.834473,-0.876953,-0.151367,0
38490,0.84668,-0.967773,-0.155273,0
38530,0.487793,-0.94873,-0.0449219,0
38550,0.526855,-0.882812,-0.012207,0
38570,0.527832,-0.89502,-0.0146484,0
38590,0.443848,-0.930176,-0.050293,0
38610,0.391602,-0.962891,-0.0551758,0
38630,0.442383,-1.01025,-0.0341797,0
38650,0.469238,-1.01709,-0.0234375,0
38670,0.391113,-1.02637,-0.0488281,0
38690,0.330078,-1.0127,-0.0478516,0
38710,0.367676,-1.00244,-0.0244141,0
38730,0.428711,-1.02393,-0.0131836,0
38750,0.416016,-1.03857,-0.0224609,0
38750,0.413086,-1.00391,-0.0214844,0
38770,0.462891,-1.02148,-0.00292969,0
38790,0.437988,-1.02588,0.000976562,0
38810,0.399902,-1.01221,-0.0263672,0
38830,0.364258,-0.958008,0.000488281,0
38850,0.38623,-0.975098,-0.0146484,0
38880,0.394043,-0.950684,0.0483398,0
38900,0.414062,-0.9375,0.0351562,0
38920,0.429688,-0.922363,0.0268555,0
38940,0.42627,-0.929688,0.0463867,0
38960,0.394531,-0.967285,0.0419922,0
38980,0.42041,-0.984375,0.0473633,0
39000,0.445801,-0.945801,0.0507812,0
39020,0.440918,-0.892578,0.0292969,0
39050,0.450684,-0.922363,0.0444336,0
39080,0.442383,-0.907715,0.00634766,0
39120,0.453613,-0.957031,0.0146484,0
39140,0.479004,-0.95752,0.0214844,0
39160,0.471191,-0.932129,0.0229492,0
39180,0.442383,-0.887695,0.0380859,0
39200,0.421387,-0.888672,0.00488281,1000
39220,0.396484,-0.954102,-0.0224609,0
39250,0.390625,-0.925781,0.111816,0
39270,0.354004,-0.842285,0.0629883,0
39290,0.384277,-0.839844,0.0322266,0
39310,0.444824,-0.913574,0.0341797,0
39330,0.436035,-0.996094,0.0966797,0
39340,0.349121,-0.880371,0.0859375,0
39360,0.412109,-0.896973,0.0820312,0
39380,0.42041,-0.962402,0.0932617,0
39400,0.395996,-0.963867,0.0864258,0
39430,0.368164,-0.913086,0.0610352,0
39450,0.401855,-0.87207,0.0541992,0
39470,0.40625,-0.901855,0.0766602,0
39490,0.418945,-0.907715,0.0541992,0
39510,0.435547,-0.889648,0.0195312,0
39530,0.540039,-0.891113,0.0244141,0
39550,0.681641,-0.911621,0.0576172,0
39560,0.748535,-0.899414,0.0161133,0
39580,0.688477,-0.866211,-0.0366211,0
39600,0.604004,-0.859863,-0.117188,0
39620,0.597168,-0.89502,-0.140137,0
39640,0.717285,-0.896484,-0.0610352,0
39660,0.75,-0.872559,-0.0400391,0
39680,0.681641,-0.821777,-0.104004,0
39700,0.606934,-0.774902,-0.12207,0
39720,0.594238,-0.778809,-0.106445,0
39740,0.647949,-0.822266,-0.0830078,0
39760,0.592285,-0.817871,-0.0507812,0
39780,0.536621,-0.768555,-0.0415039,0
39800,0.61084,-0.771484,-0.0185547,0
39820,0.669922,-0.776855,0.0209961,0
39840,0.717285,-0.774902,0.0136719,0
39860,0.706543,-0.754883,-0.000976562,0
39880,0.70166,-0.716797,-0.019043,0
39900,0.780762,-0.708496,-0.000488281,0
39920,0.883789,-0.700684,0.0341797,0
39940,0.893555,-0.706055,0.0219727,0
39960,0.866699,-0.668945,-0.00439453,0
39980,0.960449,-0.641602,0.00439453,0
40000,1.10498,-0.642578,0.0356445,0
40020,1.14258,-0.647461,0.0649414,0
40040,1.13428,-0.642578,0.0820312,0
40060,1.10889,-0.654785,0.125,0
40080,1.07764,-0.591797,0.175781,0
40100,0.98877,-0.575684,0.203613,0
40120,0.905273,-0.577148,0.226074,0
40140,0.875,-0.54834,0.312012,0
40160,0.841309,-0.537109,0.355469,0
40180,0.793457,-0.529297,0.369629,0
40200,0.805176,-0.569824,0.418945,0
40220,0.800293,-0.54834,0.480469,0
40240,0.748535,-0.536621,0.461914,0
40260,0.695801,-0.543945,0.474609,0
40280,0.693848,-0.615723,0.518555,0
40300,0.71582,-0.614258,0.533691,0
40320,0.690918,-0.625977,0.54541,0
40340,0.667969,-0.63916,0.535645,0
40360,0.59375,-0.663086,0.521484,0
40380,0.526855,-0.711426,0.522461,0
40400,0.548828,-0.740723,0.54834,0
40420,0.617188,-0.717773,0.572754,0
40460,0.422852,-0.757812,0.487793,0
40480,0.370605,-0.787109,0.505859,0
40500,0.414551,-0.804688,0.483398,0
40520,0.452148,-0.831055,0.439453,0
40540,0.369629,-0.76416,0.436523,0
40560,0.275879,-0.74707,0.470215,0
40580,0.230957,-0.821289,0.387695,0
40600,0.248535,-0.865723,0.338867,0
40620,0.231934,-0.832031,0.299805,0
40640,0.141113,-0.775879,0.245117,0
40660,0.0947266,-0.745117,0.184082,0
40680,0.0947266,-0.796387,0.140137,0
40700,0.103516,-0.872559,0.125488,0
40720,0.12207,-0.930664,0.0864258,0
40740,0.189941,-0.939453,0.0322266,0
40760,0.269531,-0.944824,0.0244141,0
40780,0.273926,-0.986328,-0.0102539,0
40800,0.287109,-1.03906,-0.0527344,0
40820,0.330078,-1.07324,-0.0844727,0
40840,0.356934,-1.11377,-0.118652,0
40860,0.419434,-1.07324,-0.13623,0
40880,0.47168,-1.02197,-0.160156,0
40900,0.414062,-0.949707,-0.185547,0
40920,0.305664,-0.947754,-0.173828,0
40940,0.260254,-0.943848,-0.191406,0
40960,0.35498,-0.896484,-0.242676,0
40980,0.52832,-0.851074,-0.241699,0
41000,0.606934,-0.839355,-0.182129,0
41020,0.503418,-0.841309,-0.153809,0
41040,0.396973,-0.844238,-0.17334,0
41060,0.436523,-0.794434,-0.204102,0
41080,0.584961,-0.723633,-0.186035,0
41100,0.729004,-0.678223,-0.20459,0
41120,0.787109,-0.67041,-0.19043,0
41140,0.867188,-0.671387,-0.23291,0
41160,0.897461,-0.677734,-0.179688,0
41180,0.871582,-0.676758,-0.171875,0
41200,0.958496,-0.57666,-0.247559,0
41220,1.15723,-0.469238,-0.227539,0
41240,1.17773,-0.425293,-0.193359,0
41260,1.09717,-0.449219,-0.202148,0
41280,1.14697,-0.40918,-0.167969,0
41300,1.27197,-0.340332,-0.0649414,0
41320,1.31592,-0.324707,-0.0185547,0
41340,1.33643,-0.280762,0.0546875,0
41360,1.26611,-0.244141,0.0722656,0
41380,1.2168,-0.202148,0.108398,0
41400,1.21631,-0.218262,0.164551,0
41420,1.17188,-0.271484,0.236328,0
41440,1.09229,-0.290527,0.295898,0
41460,1.06299,-0.277344,0.319336,0
41480,1.00879,-0.286133,0.395508,0
41500,0.915527,-0.390625,0.467773,0
41520,0.82666,-0.429688,0.546387,0
41540,0.75293,-0.434082,0.556152,0
41560,0.735352,-0.411621,0.519043,0
41580,0.767578,-0.452148,0.586426,0
41600,0.753418,-0.486816,0.600098,0
41620,0.546387,-0.57959,0.530273,0
41640,0.43457,-0.599609,0.566895,0
41660,0.402832,-0.635742,0.538086,0
41680,0.378906,-0.655762,0.508789,0
41700,0.410156,-0.674316,0.485352,0
41720,0.447266,-0.734375,0.470703,0
41740,0.458496,-0.79248,0.436523,0
41760,0.397461,-0.776367,0.359863,0
41780,0.340332,-0.774902,0.278809,0
41800,0.344238,-0.774902,0.225586,0
41820,0.380371,-0.769043,0.175781,0
41840,0.382812,-0.80127,0.102539,0
41860,0.330566,-0.830566,0.0283203,0
41880,0.292969,-0.853027,-0.043457,0
41900,0.323242,-0.893555,-0.120117,0
41920,0.362793,-0.877441,-0.196289,0
41940,0.396973,-0.843262,-0.206543,0
41960,0.381348,-0.850586,-0.26416,0
41980,0.350586,-0.900879,-0.277344,0
42000,0.329102,-0.998535,-0.250977,0
42020,0.339355,-0.929199,-0.237793,0
42040,0.526855,-0.8125,-0.253906,0
42060,0.716797,-0.80957,-0.319824,0
42080,0.732422,-0.790527,-0.380371,0
42100,0.680664,-0.802734,-0.293457,0
42120,0.678223,-0.81543,-0.283691,0
42140,0.718262,-0.782715,-0.348633,0
42160,0.79541,-0.651855,-0.43457,0
42180,0.901367,-0.558594,-0.410156,0
42200,0.913574,-0.535156,-0.340332,0
42220,0.866211,-0.507324,-0.341309,0
42240,0.871582,-0.476562,-0.428223,0
42260,1.021,-0.410156,-0.457031,0
42280,1.104,-0.353516,-0.363281,0
42300,1.00098,-0.375977,-0.325195,0
42320,0.911621,-0.380371,-0.34375,0
42340,0.899902,-0.280762,-0.296875,0
42360,0.931152,-0.166016,-0.210938,0
42380,0.983398,-0.109863,-0.160156,0
42400,1.02832,-0.0854492,-0.130371,0
42420,1.00439,-0.050293,-0.09375,0
42440,0.986816,-0.00976562,-0.0595703,0
42460,1.05615,0.0488281,0.0112305,0
42480,1.15137,0.0644531,0.0722656,0
42500,1.18457,0.0996094,0.120117,0
42520,1.17871,0.105957,0.147461,0
42540,1.18701,0.0654297,0.154297,0
42560,1.2168,0.00878906,0.230469,0
42580,1.19336,-0.0874023,0.316406,0
42590,1.18213,-0.142578,0.291992,0
42610,1.21484,-0.142578,0.285645,0
42630,1.18896,-0.105957,0.347656,0
42650,1.04199,-0.150391,0.405273,0
42670,0.987793,-0.225586,0.443848,0
42690,0.940918,-0.273926,0.494629,0
42710,0.904297,-0.328613,0.501953,0
42730,0.884766,-0.362305,0.452637,0
42750,0.753906,-0.397461,0.453125,0
42770,0.722656,-0.486816,0.513672,0
42790,0.714844,-0.60791,0.47168,0
42810,0.687012,-0.646484,0.403809,0
42830,0.586426,-0.636719,0.361328,0
42850,0.53125,-0.650391,0.374023,0
42870,0.528809,-0.685059,0.330078,0
42890,0.518066,-0.754395,0.296387,0
42910,0.457031,-0.780762,0.189453,0
42930,0.420898,-0.816406,0.108398,0
42950,0.422852,-0.803223,0.115723,0
42970,0.427246,-0.768066,0.104492,0
42990,0.444336,-0.790527,-0.0102539,0
43010,0.456055,-0.848145,-0.0952148,0
43030,0.463379,-0.870605,-0.108398,0
43050,0.493652,-0.86377,-0.132324,0
43070,0.542969,-0.838867,-0.178223,0
43090,0.562012,-0.839844,-0.241699,0
43110,0.54834,-0.85791,-0.253418,0
43130,0.601562,-0.844238,-0.25,0
43150,0.630371,-0.833496,-0.250977,0
43170,0.685059,-0.791016,-0.265625,0
43190,0.772949,-0.762207,-0.317383,0
43210,0.767578,-0.741211,-0.351074,0
43230,0.668945,-0.772949,-0.31543,0
43250,0.633789,-0.726562,-0.274414,0
43270,0.755371,-0.673828,-0.332031,0
43290,0.881348,-0.585938,-0.412109,0
43310,0.847168,-0.515625,-0.400391,0
43330,0.723633,-0.534668,-0.36084,0
43350,0.671875,-0.578613,-0.368652,0
43370,0.731934,-0.546875,-0.366211,0
43390,0.860352,-0.497559,-0.378418,0
43410,0.888184,-0.473145,-0.374512,0
43430,0.808594,-0.410645,-0.359863,0
43450,0.79834,-0.418945,-0.316406,0
43470,0.880859,-0.443359,-0.275879,0
43490,0.941406,-0.476562,-0.287598,0
43510,0.938965,-0.444336,-0.312012,0
43530,0.907227,-0.388184,-0.333984,0
43550,0.914062,-0.35791,-0.300293,0
43570,0.929199,-0.380371,-0.253418,0
43590,0.891602,-0.370605,-0.274414,0
43610,0.87207,-0.353516,-0.270508,0
43630,0.917969,-0.354492,-0.274902,0
43650,0.933105,-0.354492,-0.282715,0
43670,0.879395,-0.387695,-0.262695,0
43690,0.847168,-0.407227,-0.264648,0
43710,0.849609,-0.390625,-0.324219,0
43730,0.845703,-0.415527,-0.299316,0
43750,0.854492,-0.400879,-0.283691,0
43770,0.811035,-0.432129,-0.27002,0
43790,0.745605,-0.42041,-0.321777,1001
43810,0.742676,-0.489258,-0.286133,0
43830,0.930176,-0.380371,-0.28418,0
43850,0.999023,-0.405273,-0.380371,0
43870,0.906738,-0.372559,-0.276855,0
43890,0.859375,-0.336426,-0.28125,0
43910,0.962402,-0.375977,-0.26416,0
43930,0.996582,-0.384277,-0.226562,0
43950,0.937988,-0.381836,-0.215332,0
43970,0.861816,-0.369141,-0.20459,0
43990,0.801758,-0.342773,-0.237793,0
44010,0.772461,-0.338379,-0.248535,0
44030,0.790527,-0.334961,-0.265625,0
44050,0.792969,-0.344727,-0.226562,0
44070,0.739746,-0.419434,-0.234863,0
44090,0.667969,-0.436523,-0.257324,0
44110,0.713379,-0.400391,-0.196777,0
44130,0.821289,-0.377441,-0.166016,0
44150,0.897461,-0.322754,-0.164062,0
44170,0.862793,-0.347168,-0.234375,0
44190,0.86084,-0.40625,-0.253906,0
44210,0.924316,-0.423828,-0.0942383,0
44230,0.913086,-0.436035,-0.050293,0
44250,0.858887,-0.486328,-0.186035,0
44270,0.862305,-0.526367,-0.236328,0
44290,0.947754,-0.520996,-0.146973,0
44310,0.876953,-0.525879,-0.0883789,0
44330,0.778809,-0.617676,-0.0932617,0
44350,0.770508,-0.719727,-0.134766,0
44370,0.860352,-0.813477,-0.0888672,0
44390,0.845703,-0.846191,-0.0844727,0
44410,0.713379,-0.860352,-0.0898438,0
44430,0.67334,-0.858887,-0.0742188,0
44450,0.727539,-0.912109,-0.0483398,0
44470,0.711426,-1.00195,-0.101074,0
44490,0.659668,-1.02344,-0.108398,0
44510,0.631348,-0.962891,-0.046875,0
44530,0.618164,-0.95459,-0.00683594,0
44550,0.63916,-0.998047,-0.0390625,0
44570,0.646484,-1.03564,-0.0805664,0
44590,0.652344,-1.02588,-0.0688477,0
44610,0.614258,-1.02197,-0.0595703,0
44630,0.555664,-1.01465,-0.0727539,0
44650,0.532715,-1.00049,-0.0722656,0
44670,0.477051,-0.98584,-0.0444336,0
44690,0.418945,-0.946777,-0.046875,0
44710,0.451172,-0.925293,-0.0151367,0
44730,0.481934,-0.962891,-0.0175781,0
44750,0.447754,-0.976562,-0.0424805,0
44770,0.416992,-0.964844,-0.0395508,0
44790,0.447266,-0.964844,-0.0439453,0
44810,0.46875,-0.95166,-0.0458984,0
44830,0.451172,-0.928711,-0.0405273,0
44860,0.42041,-1.00195,-0.0537109,0
44880,0.428223,-1.0083,-0.0322266,0
44900,0.41748,-0.974121,-0.034668,0
44920,0.412109,-0.920898,-0.0712891,0
44940,0.417969,-0.903809,-0.0717773,0
44960,0.419434,-0.93457,-0.0366211,0
44980,0.405762,-0.960449,-0.0253906,0
45000,0.40332,-0.95752,-0.0302734,0
45020,0.412598,-0.955078,-0.0366211,0
45040,0.402832,-0.957031,-0.0415039,0
45060,0.392578,-0.970215,-0.0136719,0
45080,0.395996,-0.961914,-0.012207,0
45100,0.410156,-0.916504,-0.0390625,0
45120,0.423828,-0.885742,-0.0625,0
45140,0.437988,-0.905762,-0.0888672,0
45160,0.441895,-0.949707,-0.0283203,0
45180,0.390137,-0.93457,-0.0244141,0
45200,0.341797,-0.918945,-0.0585938,1000
45220,0.345703,-0.958984,-0.0522461,0
45240,0.373047,-0.931641,-0.0410156,0
45260,0.350098,-0.972656,-0.0126953,0
45280,0.359863,-0.952148,0.00195312,0
45300,0.410645,-0.947266,-0.0209961,0
45320,0.435547,-0.956055,-0.0180664,0
45340,0.42627,-0.927246,-0.0263672,0
45360,0.384277,-0.934082,-0.0224609,0
45380,0.344727,-0.914062,-0.0200195,0
45400,0.309082,-0.909668,-0.0439453,0
45420,0.299805,-0.909668,-0.0717773,0
45440,0.342773,-0.922852,-0.0795898,0
45460,0.371094,-0.928223,-0.0800781,0
45480,0.359863,-0.870605,-0.0498047,0
45500,0.376465,-0.866211,-0.0776367,0
45520,0.48584,-0.887207,-0.078125,0
45540,0.58252,-0.861328,-0.134277,0
45560,0.524414,-0.831055,-0.142578,0
45580,0.514648,-0.824219,-0.167969,0
45600,0.626465,-0.866211,-0.20459,0
45620,0.644531,-0.85791,-0.186035,0
45640,0.615234,-0.750977,-0.167969,0
45660,0.652832,-0.732422,-0.225098,0
45680,0.727539,-0.79248,-0.276855,0
45700,0.746094,-0.708496,-0.185547,0
45720,0.658691,-0.651855,-0.213379,0
45740,0.697266,-0.679199,-0.242188,0
45750,0.758789,-0.739258,-0.231445,0
45770,0.751465,-0.718262,-0.204102,0
45790,0.714844,-0.658203,-0.14209,0
45810,0.69873,-0.635254,-0.113281,0
45830,0.74707,-0.660156,-0.126953,0
45850,0.833984,-0.714355,-0.128418,0
45870,0.86377,-0.686035,-0.0742188,0
45890,0.861816,-0.647949,-0.0424805,0
45910,0.944824,-0.645508,-0.0161133,0
45950,1.18506,-0.708984,0.0644531,0
45970,1.12109,-0.695801,0.114746,0
45990,1.04395,-0.666992,0.145508,0
46010,1.08936,-0.621094,0.188965,0
46030,1.12793,-0.624023,0.227539,0
46050,1.09912,-0.623047,0.288574,0
46070,1.00977,-0.623535,0.333496,0
46090,0.897949,-0.59082,0.368652,0
46110,0.848145,-0.575195,0.391602,0
46130,0.871582,-0.623535,0.44043,0
46150,0.798828,-0.598145,0.550781,0
46170,0.608887,-0.603516,0.600586,0
46190,0.581543,-0.645508,0.580566,0
46210,0.646973,-0.648438,0.547852,0
46230,0.614258,-0.673828,0.522949,0
46250,0.523926,-0.686035,0.562012,0
46270,0.463867,-0.693848,0.535645,0
46290,0.465332,-0.661621,0.529297,0
46310,0.432617,-0.661621,0.51709,0
46330,0.348633,-0.723145,0.476074,0
46350,0.336914,-0.75293,0.435059,0
46370,0.402344,-0.737305,0.431152,0
46390,0.416016,-0.72998,0.424805,0
46410,0.40918,-0.746094,0.407715,0
46430,0.375,-0.799316,0.364258,0
46450,0.369629,-0.833008,0.368164,0
46470,0.357422,-0.831055,0.36377,0
46490,0.324707,-0.826172,0.331543,0
46510,0.328613,-0.830078,0.301758,0
46530,0.327637,-0.8125,0.301758,0
46550,0.305664,-0.834961,0.261719,0
46570,0.286133,-0.841797,0.211426,0
46590,0.269531,-0.848145,0.165039,0
46610,0.225586,-0.848145,0.12793,0
46630,0.198242,-0.871094,0.0751953,0
46650,0.217285,-0.910156,0.0263672,0
46670,0.251465,-0.924805,-0.0395508,0
46690,0.291504,-0.918457,-0.0400391,0
46710,0.297852,-0.911133,-0.0415039,0
46730,0.338379,-0.935547,-0.0703125,0
46750,0.341309,-0.95752,-0.109375,0
46770,0.316895,-0.975586,-0.101562,0
46790,0.312012,-0.992188,-0.0917969,0
46810,0.374023,-0.974121,-0.141602,0
46830,0.467285,-0.956543,-0.175781,0
46850,0.519531,-0.914062,-0.20459,0
46870,0.442383,-0.883789,-0.210938,0
46890,0.325195,-0.910156,-0.258789,0
46910,0.347656,-0.874023,-0.281738,0
46930,0.487793,-0.848633,-0.285645,0
46950,0.546875,-0.821777,-0.250488,0
46970,0.521484,-0.786621,-0.225586,0
46990,0.521484,-0.813477,-0.250488,0
47010,0.568848,-0.772949,-0.204102,0
47030,0.662598,-0.685547,-0.139648,0
47050,0.777832,-0.633301,-0.126465,0
47070,0.841797,-0.628906,-0.146484,0
47090,0.871094,-0.636719,-0.128418,0
47110,1.00146,-0.605469,-0.109863,0
47130,1.14648,-0.510254,-0.0668945,0
47150,1.24561,-0.441406,-0.097168,0
47170,1.29346,-0.420898,-0.121582,0
47190,1.33105,-0.397461,-0.0991211,0
47210,1.36963,-0.412109,-0.0693359,0
47230,1.37988,-0.40332,0.0078125,0
47250,1.37207,-0.347656,0.0922852,0
47270,1.30615,-0.314453,0.0991211,0
47290,1.21924,-0.320312,0.0927734,0
47310,1.15869,-0.291016,0.139648,0
47330,1.14502,-0.32666,0.211914,0
47350,1.11572,-0.40332,0.278809,0
47370,1.12988,-0.461426,0.34375,0
47390,1.12402,-0.450195,0.37207,0
47410,1.01904,-0.415039,0.437988,0
47430,0.861328,-0.405762,0.457031,0
47450,0.791504,-0.432129,0.490723,0
47470,0.765625,-0.469727,0.53418,0
47490,0.724121,-0.493164,0.554688,0
47510,0.650879,-0.496094,0.552734,0
47530,0.597168,-0.477539,0.553711,0
47550,0.572266,-0.516602,0.527344,0
47570,0.581543,-0.592773,0.526367,0
47590,0.524902,-0.607422,0.498535,0
47610,0.415039,-0.607422,0.41748,0
47630,0.347168,-0.613281,0.412598,0
47650,0.319336,-0.672852,0.376465,0
47670,0.378906,-0.713867,0.337402,0
47690,0.390137,-0.73291,0.328613,0
47710,0.308594,-0.733887,0.252441,0
47730,0.253906,-0.798828,0.180664,0
47750,0.211914,-0.877441,0.113281,0
47770,0.192871,-0.883789,0.0385742,0
47790,0.219727,-0.881348,-0.0605469,0
47810,0.259766,-0.882324,-0.123047,0
47830,0.26416,-0.896973,-0.193359,0
47850,0.270996,-0.94043,-0.224121,0
47870,0.308105,-0.977539,-0.189453,0
47890,0.367676,-0.980957,-0.151855,0
47910,0.447754,-0.943359,-0.140625,0
47930,0.537109,-0.911133,-0.186523,0
47950,0.591309,-0.878906,-0.272949,0
47970,0.655273,-0.91748,-0.321777,0
47990,0.724121,-0.885742,-0.325684,0
48010,0.695312,-0.902344,-0.308105,0
48030,0.649902,-0.812012,-0.342773,0
48050,0.693359,-0.703125,-0.408691,0
48070,0.799805,-0.65332,-0.461426,0
48090,0.770996,-0.679688,-0.414551,0
48110,0.68457,-0.758301,-0.370117,0
48130,0.642578,-0.739258,-0.386719,0
48150,0.725098,-0.648926,-0.42334,0
48170,0.835449,-0.521973,-0.418457,0
48190,0.872559,-0.447266,-0.449707,0
48210,0.805664,-0.416016,-0.43457,0
48230,0.749023,-0.427734,-0.380371,0
48250,0.824219,-0.389648,-0.264648,0
48270,1.02002,-0.33252,-0.24707,0
48290,1.06543,-0.268066,-0.254395,0
48310,0.970215,-0.186035,-0.259277,0
48330,0.994141,-0.0952148,-0.149902,0
48350,1.11133,-0.0581055,0.0146484,0
48370,1.21533,-0.115234,0.0556641,0
48390,1.29541,-0.123535,0.0507812,0
48410,1.32764,-0.0605469,0.122559,0
48430,1.31641,-0.0297852,0.227539,0
48450,1.31445,-0.0581055,0.322754,0
48470,1.2876,-0.134277,0.35791,0
48490,1.20996,-0.159668,0.346191,0
48510,1.15479,-0.178711,0.449707,0
48530,1.12012,-0.181152,0.54834,0
48550,1.05762,-0.183105,0.59375,0
48570,0.934082,-0.221191,0.556152,0
48590,0.741211,-0.211914,0.574219,0
48610,0.594727,-0.262207,0.623047,0
48630,0.584961,-0.394531,0.594238,0
48650,0.526855,-0.459961,0.578613,0
48670,0.457031,-0.504395,0.504395,0
48690,0.436523,-0.526855,0.462402,0
48710,0.410645,-0.527832,0.405762,0
48730,0.425781,-0.624512,0.39209,0
48740,0.429199,-0.691406,0.354004,0
48760,0.403809,-0.707031,0.283691,0
48780,0.423828,-0.668457,0.220215,0
48800,0.479004,-0.733398,0.125488,0
48820,0.53418,-0.784668,0.0639648,0
48840,0.57373,-0.838379,0.00683594,0
48860,0.580566,-0.850098,-0.0458984,0
48880,0.616699,-0.871094,-0.106934,0
48900,0.645508,-0.863281,-0.1875,0
48920,0.67041,-0.919922,-0.213867,0
48940,0.651855,-0.92627,-0.277832,0
48960,0.552734,-0.86084,-0.345215,0
48980,0.535645,-0.846191,-0.351074,0
49000,0.629883,-0.815918,-0.37207,0
49020,0.678223,-0.73291,-0.430176,0
49040,0.645508,-0.706543,-0.425293,0
49060,0.607422,-0.695312,-0.425781,0
49080,0.609863,-0.676758,-0.445312,0
49100,0.648438,-0.661133,-0.466797,0
49120,0.697754,-0.626465,-0.464844,0
49140,0.73291,-0.529297,-0.429199,0
49160,0.750488,-0.550781,-0.458496,0
49180,0.769531,-0.584961,-0.493652,0
49200,0.769531,-0.524414,-0.425293,0
49220,0.841309,-0.469727,-0.405762,0
49240,0.898438,-0.524902,-0.44043,0
49260,0.84375,-0.575195,-0.399902,0
49280,0.769043,-0.505371,-0.345703,0
49300,0.786621,-0.421387,-0.29834,0
49320,0.876465,-0.428711,-0.325684,0
49340,0.891602,-0.446777,-0.329102,0
49360,0.818359,-0.412109,-0.267578,0
49380,0.789062,-0.412598,-0.255371,0
49400,0.828613,-0.428223,-0.270996,0
49420,0.839355,-0.45459,-0.270508,0
49440,0.839844,-0.446777,-0.276367,0
49460,0.854004,-0.416504,-0.289062,0
49480,0.881348,-0.436035,-0.26123,0
49500,0.886719,-0.411621,-0.239258,0
49520,0.871582,-0.429688,-0.274414,0
49540,0.915527,-0.450195,-0.321289,0
49560,0.960938,-0.476074,-0.300781,1001
49580,0.92627,-0.425293,-0.296387,0
49600,0.918945,-0.47168,-0.298828,0
49620,0.979004,-0.555664,-0.273438,0
49640,0.917969,-0.542969,-0.282715,0
49660,0.875,-0.464844,-0.271484,0
49680,0.960449,-0.45752,-0.328613,0
49700,0.956543,-0.483398,-0.347168,0
49720,0.890625,-0.492676,-0.262207,0
49740,0.821777,-0.451172,-0.262207,0
49760,0.794922,-0.388184,-0.298828,0
49780,0.741211,-0.415527,-0.280273,0
49800,0.626465,-0.416016,-0.214355,0
49820,0.570801,-0.605469,-0.265625,0
49840,0.717285,-0.438477,-0.304199,0
49860,0.804199,-0.383301,-0.371094,0
49880,0.76123,-0.344238,-0.442871,0
49900,0.683105,-0.316406,-0.420898,0
49920,0.59082,-0.344238,-0.349121,0
49940,0.611328,-0.394043,-0.324707,0
49960,0.646973,-0.442871,-0.347656,0
49980,0.675293,-0.428711,-0.321289,0
50000,0.705566,-0.421387,-0.27002,0
50020,0.650391,-0.423828,-0.242188,0
50040,0.591797,-0.44873,-0.269043,0
50060,0.685059,-0.515625,-0.288574,0
50080,0.780762,-0.57373,-0.285156,0
50100,0.762207,-0.670898,-0.290039,0
50120,0.794922,-0.740723,-0.334473,0
50140,0.852051,-0.734375,-0.227051,0
50160,0.827637,-0.738281,-0.157227,0
50180,0.802734,-0.82959,-0.263672,0
50200,0.873535,-0.942871,-0.313477,0
50220,0.893555,-0.945312,-0.206543,0
50240,0.802734,-0.942871,-0.172363,0
50260,0.676758,-1.01709,-0.200195,0
50280,0.635742,-1.08789,-0.224609,0
50300,0.695312,-1.09619,-0.194824,0
50320,0.676758,-1.0376,-0.155273,0
50340,0.595703,-1.00244,-0.14502,0
50360,0.532715,-1.05566,-0.153809,0
50380,0.489746,-1.07422,-0.112305,0
50400,0.464355,-1.06885,-0.0786133,0
50420,0.442383,-1.04736,-0.111816,0
50440,0.454102,-1.01611,-0.136719,0
50460,0.444824,-0.992676,-0.0878906,0
50480,0.36377,-1.00244,-0.0644531,0
50500,0.319336,-1.03223,-0.0795898,0
50520,0.316895,-1.04004,-0.0844727,0
50540,0.343262,-1.03125,-0.065918,0
50560,0.369629,-0.991211,-0.03125,0
50580,0.338867,-0.968262,-0.0532227,0
50600,0.344727,-0.982422,-0.0585938,0
50620,0.402344,-0.997559,-0.0375977,0
50640,0.416992,-1.00928,-0.050293,0
50660,0.390625,-0.982422,-0.0488281,0
50680,0.372559,-0.95459,-0.0727539,0
50690,0.384766,-0.960449,-0.0986328,0
50710,0.38916,-0.942383,-0.0976562,0
50730,0.389648,-0.921875,-0.0917969,0
50750,0.402344,-0.905273,-0.0966797,0
50770,0.40918,-0.910645,-0.108887,0
50790,0.403809,-0.914062,-0.120605,0
50810,0.426758,-0.933594,-0.123535,0
50830,0.458496,-0.937988,-0.097168,0
50850,0.458984,-0.940918,-0.10498,0
50870,0.427734,-0.937988,-0.123535,0
50880,0.383301,-0.975098,-0.12207,0
50900,0.38623,-0.986328,-0.0961914,0
50920,0.426758,-0.979492,-0.0693359,0
50940,0.411133,-0.963867,-0.0961914,0
50960,0.367188,-0.929199,-0.0664062,1000
50980,0.379395,-0.947266,-0.0688477,0
51000,0.413086,-0.983887,-0.0825195,0
51020,0.404785,-0.986328,-0.0732422,0
51040,0.368164,-0.931641,-0.0673828,0
51060,0.341309,-0.933105,-0.0610352,0
51080,0.362305,-0.958496,-0.0507812,0
51100,0.403809,-0.996094,-0.0654297,0
51120,0.397461,-1.02881,-0.0849609,0
51140,0.370605,-0.965332,-0.0664062,0
51160,0.343262,-0.921387,-0.0805664,0
51180,0.32666,-0.931152,-0.0751953,0
51200,0.319336,-0.959473,-0.0507812,0
51220,0.305664,-0.939453,-0.0366211,0
51240,0.297363,-0.925781,-0.0654297,0
51260,0.291504,-0.895508,-0.0761719,0
51280,0.305664,-0.85498,-0.125977,0
51300,0.312988,-0.851074,-0.145996,0
51320,0.296387,-0.847168,-0.128418,0
51340,0.308594,-0.897461,-0.125,0
51360,0.390625,-0.952148,-0.141113,0
51380,0.484375,-0.984863,-0.185547,0
51400,0.498535,-0.963379,-0.195312,0
51420,0.453125,-0.887207,-0.170898,0
51440,0.39502,-0.796387,-0.207031,0
51460,0.373047,-0.895996,-0.26709,0
51480,0.454102,-0.961914,-0.213867,0
51500,0.53125,-0.985352,-0.17041,0
51520,0.490234,-0.895996,-0.180176,0
51540,0.486328,-0.82959,-0.226562,0
51560,0.487305,-0.88916,-0.219238,0
51570,0.516602,-0.946777,-0.251953,0
51590,0.577637,-0.892578,-0.178711,0
51610,0.55957,-0.835938,-0.135254,0
51630,0.578125,-0.831055,-0.155273,0
51650,0.621582,-0.862305,-0.174316,0
51670,0.668457,-0.839355,-0.120117,0
51690,0.693848,-0.791016,-0.0839844,0
51710,0.699707,-0.766602,-0.0834961,0
51730,0.753906,-0.770996,-0.0820312,0
51750,0.806641,-0.770508,-0.078125,0
51770,0.855469,-0.720215,-0.0366211,0
51790,0.881836,-0.697754,-0.0283203,0
51810,0.895508,-0.687988,-0.0117188,0
51830,0.968262,-0.680664,0.0126953,0
51850,1.07959,-0.687012,0.0722656,0
51870,1.10645,-0.710938,0.137207,0
51890,1.13477,-0.695801,0.178711,0
51900,1.1665,-0.687988,0.20459,0
51930,1.06543,-0.624023,0.319336,0
51950,0.994629,-0.635254,0.361816,0
51970,0.871582,-0.597656,0.441895,0
51990,0.825684,-0.614746,0.494141,0
52010,0.837891,-0.664062,0.490234,0
52030,0.800293,-0.656738,0.583496,0
52050,0.674805,-0.669922,0.624512,0
52070,0.581543,-0.690918,0.575684,0
52090,0.562988,-0.69043,0.601562,0
52110,0.495605,-0.668457,0.588867,0
52130,0.387207,-0.625,0.563477,0
52150,0.279785,-0.628418,0.51416,0
52170,0.224609,-0.676758,0.507324,0
52190,0.220703,-0.707031,0.464844,0
52210,0.200195,-0.759277,0.405762,0
52230,0.202148,-0.754883,0.370117,0
52250,0.192383,-0.740234,0.347168,0
52270,0.16748,-0.776855,0.270996,0
52290,0.166504,-0.866699,0.231934,0
52310,0.157715,-0.918457,0.18457,0
52330,0.132812,-0.952637,0.149902,0
52350,0.140625,-0.9375,0.0805664,0
52370,0.195312,-1.00195,-0.0380859,0
52390,0.18457,-1.0376,-0.065918,0
52410,0.208984,-1.03906,-0.118164,0
52430,0.263672,-1.03271,-0.147949,0
52450,0.304688,-1.03516,-0.161133,0
52470,0.32373,-1.03857,-0.144043,0
52490,0.304688,-1.08594,-0.138184,0
52510,0.307617,-1.08203,-0.17041,0
52530,0.362793,-1.03857,-0.178223,0
52550,0.42627,-0.952148,-0.174805,0
52570,0.452148,-0.928711,-0.160645,0
52590,0.449707,-0.945312,-0.191406,0
52610,0.436523,-0.96875,-0.206543,0
52630,0.43457,-0.890625,-0.185059,0
52650,0.500488,-0.800293,-0.155762,0
52670,0.594727,-0.728027,-0.158203,0
52690,0.639648,-0.753418,-0.213379,0
52710,0.59375,-0.737305,-0.253418,0
52730,0.588379,-0.744141,-0.258301,0
52750,0.674316,-0.6875,-0.228027,0
52770,0.787598,-0.666992,-0.227051,0
52790,0.783691,-0.645996,-0.236816,0
52810,0.732422,-0.572754,-0.224121,0
52830,0.8125,-0.470703,-0.164551,0
52850,1.01025,-0.487793,-0.13623,0
52880,0.977051,-0.471191,-0.147949,0
52920,1.3208,-0.349609,0.0610352,0
52940,1.47461,-0.412598,0.0146484,0
52960,1.50732,-0.422363,0.000488281,0
52980,1.40723,-0.403809,0.117188,0
53000,1.25732,-0.456055,0.178223,0
53020,1.19727,-0.498047,0.151855,0
53040,1.22412,-0.447266,0.178223,0
53060,1.18457,-0.316895,0.291016,0
53080,1.06445,-0.275391,0.419434,0
53100,0.913086,-0.30127,0.439941,0
53120,0.758301,-0.407227,0.505371,0
53140,0.717285,-0.516602,0.650391,0
53160,0.693848,-0.557617,0.703613,0
53180,0.682129,-0.492188,0.694824,0
53200,0.621094,-0.496094,0.674805,0
53220,0.518555,-0.525879,0.606934,0
53240,0.44043,-0.555176,0.572266,0
53260,0.44043,-0.587402,0.604492,0
53280,0.433594,-0.579102,0.560059,0
53300,0.501465,-0.570801,0.499023,0
53320,0.432129,-0.58252,0.518555,0
53340,0.371582,-0.622559,0.522461,0
53360,0.456055,-0.707031,0.459961,0
53380,0.476074,-0.737793,0.410645,0
53400,0.381348,-0.710449,0.328613,0
53420,0.334961,-0.711914,0.310547,0
53440,0.369141,-0.789062,0.273926,0
53460,0.373047,-0.831543,0.175781,0
53480,0.383301,-0.836426,0.10791,0
53500,0.331543,-0.793945,0.0288086,0
53520,0.276367,-0.829102,-0.0185547,0
53540,0.286621,-0.876953,-0.0581055,0
53560,0.312988,-0.902344,-0.0761719,0
53580,0.329102,-0.940918,-0.105957,0
53600,0.365234,-0.931641,-0.0991211,0
53620,0.434082,-0.897461,-0.0961914,0
53640,0.500488,-0.849121,-0.131348,0
53660,0.558105,-0.868164,-0.132324,0
53680,0.580566,-0.891602,-0.132812,0
53700,0.623047,-0.860352,-0.160645,0
53720,0.723145,-0.874023,-0.265625,0
53740,0.780762,-0.886719,-0.349609,0
53760,0.790039,-0.80957,-0.335449,0
53780,0.803711,-0.717285,-0.285156,0
53800,0.834961,-0.701172,-0.358398,0
53820,0.85498,-0.693848,-0.433105,0
53840,0.785645,-0.628418,-0.402344,0
53860,0.73584,-0.601562,-0.365234,0
53880,0.805664,-0.595703,-0.386719,0
53900,0.884277,-0.560547,-0.424316,0
53920,0.874023,-0.494141,-0.405273,0
53940,0.852539,-0.437988,-0.38916,0
53960,0.860352,-0.427246,-0.36377,0
53980,0.859375,-0.42334,-0.322754,0
54000,0.869629,-0.374023,-0.304688,0
54020,0.907227,-0.273926,-0.292969,0
54040,0.934082,-0.201172,-0.263184,0
54060,0.942383,-0.151367,-0.245117,0
54080,0.984863,-0.11084,-0.180176,0
54100,1.06738,-0.102539,-0.0957031,0
54120,1.13574,-0.125488,-0.0893555,0
54140,1.16504,-0.111328,-0.074707,0
54160,1.19043,-0.100098,0.0463867,0
54180,1.26318,-0.136719,0.146973,0
54200,1.37549,-0.171387,0.210449,0
54220,1.42969,-0.17334,0.272461,0
54240,1.31836,-0.230957,0.307129,0
54260,1.14404,-0.285156,0.374023,0
54280,1.0127,-0.250488,0.449707,0
54300,0.942871,-0.207031,0.530273,0
54320,0.893555,-0.193848,0.582031,0
54340,0.815918,-0.152344,0.623535,0
54340,0.775391,-0.236816,0.65332,0
54360,0.759766,-0.312012,0.674316,0
54380,0.625488,-0.368164,0.65918,0
54400,0.515625,-0.421387,0.602051,0
54420,0.611328,-0.443359,0.541016,0
54440,0.615723,-0.533203,0.506348,0
54460,0.580566,-0.525391,0.467773,0
54480,0.537598,-0.566406,0.410156,0
54500,0.504883,-0.623047,0.339844,0
54520,0.524902,-0.567383,0.307129,0
54540,0.567383,-0.642578,0.297363,0
54560,0.499512,-0.726562,0.270508,0
54580,0.45752,-0.77832,0.227539,0
54600,0.455566,-0.79834,0.158691,0
54620,0.507812,-0.788086,0.102051,0
54640,0.484375,-0.790039,0.0864258,0
54660,0.500488,-0.891113,0.0678711,0
54680,0.494141,-0.935547,0.0253906,0
54700,0.46875,-0.921387,-0.0317383,0
54720,0.45752,-0.882324,-0.0668945,0
54740,0.513184,-0.831055,-0.129883,0
54760,0.613281,-0.840332,-0.153809,0
54780,0.615234,-0.811523,-0.151855,0
54800,0.548828,-0.82373,-0.149902,0
54810,0.532715,-0.861816,-0.15625,0
54830,0.693359,-0.827148,-0.167969,0
54850,0.833496,-0.775879,-0.228516,0
54870,0.777344,-0.685059,-0.304199,0
54890,0.655273,-0.680176,-0.272461,0
54910,0.575195,-0.70166,-0.250488,0
54930,0.665527,-0.687988,-0.286133,0
54950,0.833984,-0.625488,-0.395508,0
54970,0.848145,-0.559082,-0.438477,0
54990,0.717773,-0.535645,-0.383301,0
55010,0.637695,-0.563965,-0.294922,0
55030,0.702637,-0.612793,-0.306641,0
55050,0.844238,-0.582031,-0.412109,0
55070,0.861328,-0.480957,-0.426758,0
55090,0.781738,-0.410156,-0.323242,0
55110,0.803223,-0.376953,-0.311523,0
55130,0.925781,-0.400391,-0.36377,0
55150,0.973145,-0.406738,-0.377441,0
55170,0.919434,-0.421387,-0.305176,0
55190,0.902344,-0.439941,-0.283203,0
55210,0.998047,-0.42041,-0.312988,0
55230,1.08936,-0.342285,-0.326172,0
55250,1.11426,-0.34668,-0.312988,0
55270,1.04199,-0.417969,-0.306152,0
55290,0.968262,-0.473633,-0.274902,0
55310,0.962891,-0.426758,-0.242188,0
55330,0.961914,-0.368164,-0.230957,0
55350,0.944824,-0.372559,-0.230469,0
55370,0.902344,-0.405273,-0.228516,0
55390,0.863281,-0.429199,-0.191406,1001
55410,0.854492,-0.454102,-0.182617,0
55430,0.881348,-0.456055,-0.214844,0
55450,0.913574,-0.437012,-0.209961,0
55470,0.916992,-0.437012,-0.220215,0
55490,0.931152,-0.441406,-0.202148,0
55510,0.912598,-0.475098,-0.212402,0
55530,0.914062,-0.491211,-0.220215,0
55550,0.91748,-0.478516,-0.240723,0
55570,0.904297,-0.459961,-0.236328,0
55590,0.895508,-0.438965,-0.228516,0
55610,0.877441,-0.452148,-0.243652,0
55630,0.863281,-0.483398,-0.269043,0
55650,0.859863,-0.509766,-0.277832,0
55670,0.849121,-0.487305,-0.263672,0
55690,0.813965,-0.452637,-0.254395,0
55710,0.796387,-0.461914,-0.273438,0
55730,0.794434,-0.464844,-0.246582,0
55750,0.80127,-0.452148,-0.243164,0
55770,0.838867,-0.431152,-0.245117,0
55790,0.876465,-0.435547,-0.216309,0
55810,0.873047,-0.434082,-0.208496,0
55830,0.854004,-0.441895,-0.236328,0
55850,0.842773,-0.477051,-0.273926,0
55870,0.802246,-0.523438,-0.197266,0
55890,0.861816,-0.327637,-0.25293,0
55910,0.760742,-0.491699,-0.29541,0
55930,0.609375,-0.583008,-0.114746,0
55950,0.885254,-0.43457,-0.408691,0
55970,1.08643,-0.380371,-0.444824,0
55990,0.784668,-0.245117,-0.342773,0
56010,0.60791,-0.108398,-0.308105,0
56030,0.76709,-0.22998,-0.422852,0
56050,0.797852,-0.394531,-0.25,0
56070,0.8125,-0.548828,-0.229492,0
56090,0.799805,-0.541504,-0.364746,0
56110,0.839355,-0.442871,-0.319336,0
56130,0.873047,-0.347168,-0.247559,0
56150,0.804199,-0.322754,-0.246582,0
56170,0.791992,-0.344238,-0.225586,0
56190,0.79541,-0.377441,-0.215332,0
56210,0.765625,-0.385742,-0.188965,0
56230,0.806152,-0.44873,-0.174316,0
56250,0.853027,-0.518555,-0.163086,0
56270,0.832031,-0.554199,-0.122559,0
56290,0.824219,-0.55957,-0.15625,0
56310,0.860352,-0.601074,-0.174316,0
56330,0.901367,-0.633789,-0.116211,0
56350,0.860352,-0.666992,-0.0810547,0
56370,0.822266,-0.746094,-0.172852,0
56390,0.884766,-0.772461,-0.14209,0
56410,0.89502,-0.784668,-0.0546875,0
56430,0.789062,-0.827148,-0.0473633,0
56450,0.725586,-0.899902,-0.129883,0
56470,0.802246,-0.96875,-0.165527,0
56490,0.847656,-0.942871,-0.0727539,0
56510,0.765625,-0.930664,-0.0537109,0
56530,0.691406,-0.963379,-0.0893555,0
56560,0.691895,-0.928711,-0.102051,0
56580,0.641113,-0.942383,-0.133301,0
56600,0.575684,-0.946289,-0.117676,0
56620,0.566406,-0.953125,-0.0727539,0
56640,0.571289,-0.979004,-0.0722656,0
56660,0.54541,-0.978516,-0.0922852,0
56680,0.495605,-0.956055,-0.0839844,0
56700,0.424805,-0.98584,-0.074707,0
56720,0.396973,-0.980957,-0.0458984,0
56750,0.443848,-0.973145,-0.0454102,0
56770,0.395508,-0.963867,-0.0454102,0
56790,0.393555,-0.977051,-0.0361328,0
56810,0.439453,-0.997559,-0.0273438,0
56830,0.411621,-0.921387,-0.0415039,0
56850,0.42334,-0.95752,-0.0537109,0
56860,0.44873,-0.982422,-0.0444336,0
56880,0.453613,-0.878418,-0.0820312,0
56900,0.464355,-0.905762,-0.0771484,0
56920,0.433594,-0.936523,-0.0766602,0
56940,0.411133,-0.946777,-0.0615234,0
56960,0.401855,-0.9375,-0.00830078,0
56980,0.366211,-0.916992,-0.0375977,0
57000,0.244141,-0.929688,-0.0673828,0
57020,0.312012,-0.987793,-0.059082,0
57040,0.376465,-0.986816,-0.0234375,0
57060,0.368652,-0.936523,-0.0493164,0
57080,0.325195,-0.915527,-0.012207,1000
57100,0.32666,-0.966309,-0.0288086,0
57120,0.34082,-0.987305,-0.0161133,0
57140,0.358398,-0.964355,0.00976562,0
57160,0.367188,-0.905762,-0.00341797,0
57180,0.422852,-0.898926,-0.050293,0
57200,0.526855,-0.959961,-0.0966797,0
57220,0.560547,-0.953613,-0.0649414,0
57240,0.494141,-0.895508,-0.0429688,0
57260,0.436523,-0.855469,-0.0429688,0
57280,0.410156,-0.82666,-0.0688477,0
57300,0.370605,-0.848633,-0.143066,0
57320,0.394043,-0.867188,-0.210938,0
57340,0.450684,-0.902344,-0.194336,0
57360,0.434082,-0.933105,-0.169434,0
57380,0.369629,-0.873535,-0.126465,0
57400,0.433105,-0.852051,-0.124023,0
57420,0.535645,-0.850586,-0.119141,0
57440,0.572754,-0.894043,-0.119629,0
57460,0.541016,-0.95459,-0.152832,0
57480,0.579102,-0.897949,-0.101074,0
57500,0.64209,-0.857422,-0.0800781,0
57520,0.646484,-0.82666,-0.125977,0
57540,0.634277,-0.822754,-0.13623,0
57560,0.717285,-0.833008,-0.108398,0
57580,0.785645,-0.832031,-0.0620117,0
57600,0.76123,-0.774902,-0.0678711,0
57620,0.740234,-0.717285,-0.0737305,0
57640,0.761719,-0.708984,-0.0717773,0
57660,0.800293,-0.710449,-0.0463867,0
57680,0.880371,-0.666016,0.0292969,0
57700,0.942871,-0.645996,0.0219727,0
57720,0.981445,-0.645996,-0.0219727,0
57740,1.021,-0.650879,-0.015625,0
57760,1.09912,-0.658203,0.0561523,0
57780,1.18994,-0.663574,0.15918,0
57800,1.20654,-0.688477,0.20752,0
57820,1.14551,-0.666504,0.18457,0
57840,1.11719,-0.665527,0.189453,0
57860,1.10498,-0.632324,0.268066,0
57870,1.0332,-0.626465,0.355957,0
57890,0.893066,-0.506836,0.446289,0
57910,0.838379,-0.516602,0.418945,0
57930,0.881836,-0.608887,0.456055,0
57950,0.775391,-0.718262,0.538086,0
57970,0.539062,-0.755371,0.623535,0
57990,0.460938,-0.755371,0.65332,0
57990,0.559082,-0.768066,0.625,0
58010,0.540527,-0.721191,0.590332,0
58030,0.457031,-0.670898,0.57666,0
58050,0.401855,-0.701172,0.57666,0
58070,0.307617,-0.759277,0.519531,0
58090,0.193848,-0.753906,0.486328,0
58110,0.159668,-0.736816,0.419922,0
58130,0.222168,-0.761719,0.385742,0
58150,0.269531,-0.785645,0.363281,0
58170,0.224121,-0.822754,0.349121,0
58190,0.172363,-0.86377,0.291504,0
58210,0.173828,-0.91748,0.246582,0
58230,0.17627,-0.955566,0.175781,0
58250,0.1875,-0.928223,0.145996,0
58270,0.155273,-0.90918,0.0991211,0
58290,0.0942383,-0.891113,0.0551758,0
58310,0.0952148,-0.919922,-0.0336914,0
58330,0.125977,-0.95166,-0.112305,0
58350,0.148926,-0.955566,-0.153809,0
58370,0.148926,-0.944824,-0.185059,0
58390,0.171387,-0.948242,-0.206055,0
58410,0.208008,-0.968262,-0.224609,0
58430,0.262207,-1.02783,-0.239258,0
58450,0.299805,-1.06836,-0.262695,0
58470,0.311523,-1.05322,-0.268066,0
58490,0.314941,-0.981445,-0.236328,0
58510,0.348145,-0.87793,-0.249512,0
58530,0.421387,-0.896484,-0.328613,0
58550,0.48584,-0.909668,-0.331055,0
58570,0.486816,-0.909668,-0.286621,0
58590,0.472168,-0.901855,-0.291504,0
58610,0.473633,-0.832031,-0.289062,0
58630,0.545898,-0.740723,-0.293457,0
58650,0.644043,-0.713379,-0.321289,0
58670,0.695801,-0.700684,-0.314453,0
58690,0.65332,-0.714355,-0.300781,0
58710,0.668945,-0.654297,-0.280273,0
58730,0.788574,-0.585938,-0.205566,0
58750,0.927246,-0.534668,-0.18457,0
58770,1.01172,-0.528809,-0.23584,0
58800,1.20166,-0.402832,-0.0439453,0
58820,1.28271,-0.418457,-0.0429688,0
58840,1.35107,-0.365723,-0.0161133,0
58860,1.37744,-0.314453,0.0380859,0
58880,1.37842,-0.25,0.0874023,0
58900,1.32422,-0.243164,0.0917969,0
58920,1.25049,-0.268555,0.117676,0
58940,1.17969,-0.318359,0.204102,0
58960,1.11523,-0.344727,0.279785,0
58980,1.09424,-0.359863,0.314941,0
59000,1.10938,-0.371094,0.34668,0
59020,1.06396,-0.444824,0.382324,0
59040,0.970215,-0.51123,0.45166,0
59060,0.839844,-0.525391,0.491211,0
59080,0.782227,-0.558105,0.507324,0
59100,0.793945,-0.575195,0.487305,0
59120,0.792969,-0.557617,0.509277,0
59140,0.630859,-0.618652,0.552734,0
59160,0.444336,-0.681641,0.516602,0
59180,0.46875,-0.706055,0.527344,0
59200,0.506836,-0.709961,0.473633,0
59220,0.430664,-0.73877,0.414062,0
59240,0.337402,-0.733887,0.352539,0
59260,0.297363,-0.695801,0.36084,0
59280,0.282715,-0.725586,0.321777,0
59300,0.293945,-0.766113,0.212891,0
59320,0.285156,-0.790527,0.129883,0
59340,0.282715,-0.805176,0.074707,0
59360,0.249512,-0.830566,0.0332031,0
59380,0.234863,-0.835449,-0.0556641,0
59400,0.274902,-0.851562,-0.139648,0
59420,0.297852,-0.905273,-0.158203,0
59440,0.290039,-0.951172,-0.22998,0
59460,0.278809,-0.979004,-0.273438,0
59480,0.306641,-1.01904,-0.258789,0
59500,0.422363,-0.993164,-0.245605,0
59520,0.540039,-0.930664,-0.304199,0
59540,0.55957,-0.927734,-0.347656,0
59560,0.539062,-0.91748,-0.340332,0
59580,0.547852,-0.908691,-0.349609,0
59600,0.601074,-0.876953,-0.404785,0
59620,0.64502,-0.837891,-0.454102,0
59640,0.633301,-0.781738,-0.478516,0
59660,0.605469,-0.72998,-0.507324,0
59680,0.59668,-0.67627,-0.493652,0
59700,0.611816,-0.644043,-0.480957,0
59720,0.65625,-0.603516,-0.494629,0
59740,0.712402,-0.552734,-0.478516,0
59760,0.719727,-0.529297,-0.487793,0
59780,0.700195,-0.479492,-0.446289,0
59800,0.734863,-0.45459,-0.439941,0
59820,0.80957,-0.398926,-0.423828,0
59840,0.886719,-0.36377,-0.39502,0
59860,0.925293,-0.331543,-0.326172,0
59880,0.930664,-0.316895,-0.289551,0
59900,0.981934,-0.276367,-0.272949,0
59920,1.06494,-0.239746,-0.195312,0
59940,1.15283,-0.209961,-0.123047,0
59960,1.20264,-0.182617,-0.0795898,0
59980,1.24658,-0.137207,-0.065918,0
60000,1.27295,-0.0869141,0.000976562,0
60020,1.28809,-0.0756836,0.0620117,0
60040,1.27539,-0.135742,0.118164,0
60060,1.22705,-0.180664,0.163574,0
60080,1.20117,-0.181152,0.19873,0
60100,1.17529,-0.123047,0.27002,0
60120,1.09766,-0.158203,0.319824,0
60140,1.05859,-0.228027,0.413086,0
60160,1.09473,-0.274414,0.463379,0
60180,1.12158,-0.237305,0.493164,0
60200,1.06738,-0.240723,0.400391,0
60220,0.946777,-0.215332,0.431152,0
60240,0.855957,-0.25,0.482422,0
60260,0.779297,-0.260254,0.501465,0
60280,0.671875,-0.436523,0.458984,0
60300,0.609375,-0.628906,0.478516,0
60320,0.677734,-0.75293,0.456055,0
60340,0.702148,-0.662598,0.422363,0
60360,0.59082,-0.534668,0.362305,0
60380,0.526855,-0.51709,0.325195,0
60400,0.437012,-0.645996,0.333984,0
60420,0.398438,-0.811035,0.303711,0
60440,0.408691,-0.795898,0.211914,0
60460,0.426758,-0.778809,0.156738,0
60480,0.418457,-0.708008,0.118652,0
60500,0.385742,-0.765137,0.090332,0
60520,0.362305,-0.876953,0.00292969,0
60540,0.387695,-0.928711,-0.0625,0
60560,0.486328,-0.906738,-0.0874023,0
60580,0.516602,-0.838379,-0.104492,0
60600,0.51416,-0.815918,-0.181641,0
60620,0.48877,-0.915039,-0.228027,0
60640,0.523438,-0.987793,-0.252441,0
60660,0.546875,-0.969238,-0.218262,0
60680,0.620605,-0.87207,-0.196289,0
60700,0.732422,-0.812988,-0.274902,0
60720,0.725098,-0.827637,-0.34375,0
60740,0.625977,-0.827148,-0.334473,0
60760,0.611328,-0.801758,-0.289062,0
60780,0.727051,-0.807129,-0.3125,0
60800,0.772949,-0.733887,-0.388184,0
60820,0.740234,-0.577148,-0.414551,0
60830,0.697266,-0.55957,-0.399414,0
60850,0.666992,-0.606445,-0.367676,0
60870,0.68457,-0.630859,-0.349609,0
60890,0.785156,-0.577148,-0.370117,0
60910,0.852051,-0.49707,-0.38916,0
60930,0.823242,-0.416504,-0.416504,0
60950,0.762207,-0.444336,-0.390625,0
60970,0.737793,-0.466797,-0.348633,0
60990,0.779785,-0.458496,-0.317383,0
61010,0.880371,-0.358887,-0.313477,0
61030,0.927734,-0.31543,-0.368164,0
61050,0.894531,-0.313477,-0.312988,0
61070,0.908691,-0.378418,-0.268555,0
61090,0.949219,-0.433105,-0.288574,0
61110,0.956543,-0.350586,-0.306641,0
61130,0.933594,-0.280762,-0.300293,0
61150,0.896973,-0.272461,-0.288574,0
61170,0.90625,-0.320801,-0.29834,1001
61190,0.961426,-0.360352,-0.300293,0
61210,0.959473,-0.327637,-0.261719,0
61230,0.935547,-0.293945,-0.298828,0
61250,0.901367,-0.291504,-0.330566,0
61270,0.894043,-0.334961,-0.312988,0
61290,0.796875,-0.446777,-0.289551,0
61310,0.667969,-0.541016,-0.278809,0
61330,0.749512,-0.418945,-0.348633,0
61350,0.975098,-0.39209,-0.442871,0
61370,0.934082,-0.311035,-0.38623,0
61390,0.763184,-0.28418,-0.374512,0
61410,0.665527,-0.340332,-0.352539,0
61430,0.759277,-0.362305,-0.37793,0
61450,0.858887,-0.397949,-0.34668,0
61470,0.811035,-0.430176,-0.245117,0
61490,0.745117,-0.445801,-0.259766,0
61510,0.82373,-0.416016,-0.341797,0
61530,0.953125,-0.337891,-0.250488,0
61550,0.900879,-0.335449,-0.183594,0
61570,0.770996,-0.359375,-0.208984,0
61590,0.716797,-0.390625,-0.213379,0
61610,0.792969,-0.412109,-0.182617,0
61630,0.891602,-0.412109,-0.153809,0
61650,0.849121,-0.407227,-0.137207,0
61670,0.774902,-0.460449,-0.149902,0
61690,0.802246,-0.514648,-0.148926,0
61710,0.914062,-0.57373,-0.101074,0
61730,0.963379,-0.633789,-0.074707,0
61750,0.919922,-0.687988,-0.0834961,0
61770,0.911133,-0.708984,-0.111328,0
61790,0.928711,-0.724609,-0.11377,0
61810,0.899414,-0.785645,-0.145508,0
61830,0.860352,-0.841797,-0.149902,0
61850,0.851074,-0.849609,-0.130371,0
61870,0.826172,-0.852539,-0.108398,0
61890,0.753906,-0.857422,-0.0830078,0
61910,0.69043,-0.904297,-0.112793,0
61930,0.689453,-0.940918,-0.133789,0
61950,0.731934,-0.921875,-0.0595703,0
61970,0.655273,-0.889648,-0.0883789,0
61990,0.561523,-0.890137,-0.132324,0
62010,0.521973,-0.91748,-0.115723,0
62030,0.510742,-0.932129,-0.0878906,0
62050,0.5,-0.959473,-0.097168,0
62070,0.472656,-0.953125,-0.120117,0
62090,0.444336,-0.932617,-0.0986328,0
62110,0.469727,-0.941895,-0.117188,0
62130,0.502441,-0.965332,-0.127441,0
62150,0.499023,-0.984863,-0.121094,0
62170,0.47168,-0.975586,-0.15918,0
62200,0.437988,-0.962891,-0.16748,0
62220,0.42041,-1.00684,-0.166504,0
62240,0.401855,-1.0166,-0.126953,0
62260,0.381836,-0.992676,-0.142578,0
62280,0.380859,-0.96875,-0.135742,0
62300,0.378418,-0.959961,-0.134277,0
62320,0.392578,-0.958984,-0.0898438,0
62340,0.422852,-0.944336,-0.0810547,0
62360,0.415039,-0.9375,-0.0878906,0
62380,0.425293,-0.967773,-0.100586,0
62400,0.441895,-0.997559,-0.0952148,0
62420,0.445801,-0.984863,-0.0625,0
62440,0.438477,-0.941406,-0.0844727,0
62460,0.431152,-0.890625,-0.0917969,0
62480,0.447266,-0.910645,-0.108398,0
62500,0.437988,-0.954102,-0.0595703,0
62520,0.359863,-0.992188,-0.0712891,0
62540,0.230469,-0.987793,-0.0673828,0
62560,0.212891,-0.930664,-0.0712891,0
62580,0.316406,-0.974121,-0.0761719,0
62600,0.368652,-1.00195,-0.0634766,0
62620,0.355469,-1.00488,-0.0693359,1000
62640,0.383301,-1.00391,-0.0454102,0
62660,0.435547,-0.984863,-0.0751953,0
62680,0.449707,-0.864258,-0.0356445,0
62700,0.480469,-0.90332,-0.11377,0
62720,0.480957,-0.902344,-0.131348,0
62740,0.44873,-0.878418,-0.103027,0
62760,0.40625,-0.805664,-0.0957031,0
62780,0.365234,-0.810059,-0.154785,0
62800,0.339844,-0.86377,-0.171387,0
62820,0.338379,-0.866699,-0.182617,0
62840,0.35498,-0.864746,-0.195801,0
62860,0.352539,-0.897461,-0.209473,0
62880,0.289551,-0.88623,-0.212402,0
62900,0.303223,-0.91748,-0.238281,0
62920,0.410645,-0.948242,-0.231934,0
62940,0.436035,-0.960938,-0.183105,0
62960,0.387207,-0.945801,-0.148926,0
62990,0.405762,-0.942383,-0.226562,0
63000,0.506348,-0.891113,-0.149902,0
63020,0.501953,-0.857422,-0.12793,0
63040,0.566406,-0.882812,-0.162109,0
63060,0.632812,-0.919434,-0.180664,0
63080,0.64209,-0.857422,-0.138184,0
63100,0.641113,-0.80127,-0.126465,0
63120,0.674805,-0.791504,-0.0976562,0
63140,0.754883,-0.790527,-0.0751953,0
63160,0.848145,-0.769043,-0.0595703,0
63180,0.882812,-0.729492,-0.0561523,0
63200,0.869141,-0.683105,-0.0380859,0
63220,0.941406,-0.657715,-0.00634766,0
63240,1.05811,-0.661621,0.0170898,0
63260,1.13867,-0.654297,0.0336914,0
63280,1.19531,-0.652832,0.0727539,0
63300,1.17188,-0.634277,0.125488,0
63320,1.14404,-0.59082,0.183594,0
63340,1.18213,-0.599609,0.209473,0
63360,1.19922,-0.618164,0.269043,0
63380,1.1709,-0.631836,0.307129,0
63400,1.09814,-0.586426,0.327148,0
63420,1.00977,-0.570312,0.418945,0
63440,0.884277,-0.566406,0.459473,0
63460,0.73584,-0.586914,0.525391,0
63480,0.666016,-0.648926,0.575684,0
63500,0.683105,-0.647949,0.568359,0
63520,0.709961,-0.658203,0.557617,0
63540,0.627441,-0.620605,0.596191,0
63560,0.411133,-0.631836,0.630371,0
63580,0.299805,-0.700684,0.59082,0
63600,0.359863,-0.711914,0.53418,0
63620,0.351074,-0.723145,0.476074,0
63640,0.202148,-0.708008,0.450195,0
63660,0.12793,-0.718262,0.377441,0
63680,0.188477,-0.782715,0.374512,0
63700,0.288086,-0.813477,0.359375,0
63720,0.289062,-0.874023,0.245117,0
63740,0.229492,-0.907227,0.251465,0
63760,0.177246,-0.894043,0.219727,0
63780,0.158691,-0.88916,0.172363,0
63800,0.157227,-0.930664,0.0810547,0
63820,0.148438,-0.93457,0.046875,0
63840,0.128906,-0.896484,0.0561523,0
63860,0.135742,-0.919922,0.0117188,0
63880,0.133789,-0.972168,-0.0219727,0
63900,0.145996,-1.02734,-0.0893555,0
63920,0.216309,-1.01514,-0.09375,0
63930,0.301758,-0.986816,-0.0668945,0
63950,0.364258,-0.989258,-0.0834961,0
63970,0.358398,-1.03906,-0.118164,0
63990,0.351562,-1.06934,-0.114258,0
64010,0.383301,-1.02441,-0.103027,0
64030,0.42627,-0.960449,-0.140137,0
64050,0.489746,-0.92334,-0.210938,0
64070,0.508789,-0.898926,-0.196289,0
64090,0.464355,-0.869629,-0.181641,0
64110,0.396484,-0.850098,-0.193848,0
64130,0.418945,-0.819336,-0.23877,0
64150,0.558105,-0.75293,-0.229492,0
64170,0.668945,-0.742676,-0.20459,0
64190,0.622559,-0.768555,-0.21875,0
64210,0.535156,-0.760254,-0.283691,0
64230,0.624512,-0.632324,-0.275391,0
64250,0.844238,-0.580078,-0.232422,0
64270,0.900391,-0.617188,-0.201172,0
64290,0.762695,-0.601074,-0.231445,0
64310,0.810059,-0.520996,-0.269043,0
64330,1.05713,-0.425781,-0.189941,0
64350,1.2207,-0.395996,-0.121582,0
64370,1.19092,-0.38623,-0.16748,0
64390,1.25244,-0.34668,-0.128418,0
64410,1.38721,-0.391113,0.0268555,0
64430,1.55615,-0.458984,0.157715,0
64450,1.6167,-0.399414,0.139648,0
64470,1.54004,-0.279785,0.141113,0
64490,1.39551,-0.275879,0.175293,0
64510,1.20703,-0.280273,0.310547,0
64530,1.02637,-0.336426,0.400879,0
64550,0.935547,-0.339355,0.492676,0
64570,0.914551,-0.341309,0.522461,0
64590,0.902344,-0.367188,0.519531,0
64610,0.858887,-0.371094,0.637207,0
64630,0.698242,-0.400879,0.626465,0
64650,0.641602,-0.37793,0.65625,0
64670,0.554199,-0.319336,0.635254,0
64690,0.443359,-0.42041,0.633789,0
64710,0.398926,-0.56543,0.623047,0
64730,0.414062,-0.653809,0.621094,0
64750,0.441406,-0.623535,0.638672,0
64770,0.365723,-0.564941,0.574219,0
64790,0.339355,-0.540527,0.530273,0
64810,0.351074,-0.600098,0.499023,0
64830,0.347656,-0.63916,0.458008,0
64850,0.258301,-0.668457,0.379883,0
64870,0.344727,-0.698242,0.308594,0
64890,0.365234,-0.728027,0.260742,0
64910,0.35791,-0.722168,0.192871,0
64930,0.345215,-0.780762,0.106934,0
64950,0.344727,-0.895996,0.0546875,0
64970,0.34375,-0.945312,-0.0341797,0
64990,0.354492,-1.00635,-0.0810547,0
65010,0.379395,-1,-0.123047,0
65030,0.397461,-0.93457,-0.173828,0
65050,0.413574,-0.91748,-0.200195,0
65070,0.438477,-0.928223,-0.214355,0
65090,0.455078,-0.945801,-0.163086,0
65110,0.456543,-0.986816,-0.131348,0
65130,0.539551,-0.929199,-0.176758,0
65150,0.756836,-0.839844,-0.264648,0
65170,0.925293,-0.766602,-0.271973,0
65190,0.86377,-0.772461,-0.202637,0
65210,0.780273,-0.745117,-0.191895,0
65230,0.812012,-0.751465,-0.332031,0
65250,0.945801,-0.669922,-0.360352,0
65270,1.02979,-0.540039,-0.270508,0
65290,0.964844,-0.505371,-0.264648,0
65310,0.911133,-0.48877,-0.3125,0
65330,0.943848,-0.462402,-0.317383,0
65350,1.00244,-0.42334,-0.243652,0
65370,0.972168,-0.373047,-0.208496,0
65390,0.887207,-0.342773,-0.203125,0
65410,0.893066,-0.318359,-0.192383,0
65430,0.963867,-0.218262,-0.074707,0
65450,0.983398,-0.125,-0.03125,0
65470,1.03174,-0.0629883,-0.0527344,0
65490,1.10986,0.00146484,0.0219727,0
65510,1.14648,0.0180664,0.114746,0
65530,1.17236,-0.00146484,0.123535,0
65550,1.20117,-0.0361328,0.119141,0
65570,1.20801,-0.0537109,0.161621,0
65590,1.23389,-0.0527344,0.21875,0
65610,1.22363,-0.0791016,0.25,0
65630,1.24268,-0.120605,0.286621,0
65650,1.26025,-0.225586,0.380371,0
65670,1.21875,-0.341797,0.416016,0
65690,1.11377,-0.350586,0.469238,0
65710,0.987793,-0.303711,0.472656,0
65730,0.875977,-0.32373,0.413086,0
65750,0.813965,-0.36084,0.499023,0
65770,0.693848,-0.361816,0.549316,0
65790,0.62207,-0.43457,0.460938,0
65810,0.766602,-0.484863,0.482422,0
65830,0.681152,-0.525879,0.472168,0
65850,0.459473,-0.650879,0.465332,0
65870,0.472168,-0.719727,0.38623,0
65890,0.468262,-0.651367,0.317383,0
65910,0.458496,-0.637207,0.27832,0
65930,0.427246,-0.661133,0.288574,0
65950,0.308594,-0.773438,0.208008,0
65970,0.371094,-0.870605,0.163574,0
65990,0.449707,-0.839355,0.108887,0
66010,0.418457,-0.773926,0.0581055,0
66030,0.427734,-0.819824,-0.0244141,0
66050,0.461914,-0.91748,-0.0834961,0
66070,0.532227,-0.955566,-0.104492,0
66090,0.592285,-0.916992,-0.14502,0
66110,0.57373,-0.857422,-0.190918,0
66130,0.551758,-0.859863,-0.160645,0
66150,0.639648,-0.867676,-0.172852,0
66170,0.73291,-0.887207,-0.231445,0
66190,0.746094,-0.836426,-0.27002,0
66210,0.709473,-0.77832,-0.294922,0
66230,0.675781,-0.748535,-0.316406,0
66250,0.637695,-0.71582,-0.308594,0
66270,0.654297,-0.616211,-0.314941,0
